"event","trial","time","trialtype","subject_id","task","startTime","totalTime","fairPartner","unfairPartner","trial_type","trial_index","time_elapsed","internal_node_id","view_history","rt","success","stimulus","key_press","throwsLeft","rtDur","pFair","pUnfair","holder","receiver","animation_sequence","responses"
"focus","0","0","focusevent","60ed200c728ab881912aac11","bdp_cybrbll","Sun Mar 26 2023 23:53:50 GMT-0400 (Eastern Daylight Time)","549200","3","1","","","","","","","","","","","","","","","","",""
"","","","","60ed200c728ab881912aac11","bdp_cybrbll","Sun Mar 26 2023 23:53:50 GMT-0400 (Eastern Daylight Time)","549200","3","1","pavlovia","0","78","0.0-0.0","","","","","","","","","","","","",""
"","","","","60ed200c728ab881912aac11","bdp_cybrbll","Sun Mar 26 2023 23:53:50 GMT-0400 (Eastern Daylight Time)","549200","3","1","instructions","1","4810","0.0-1.0","[{""page_index"":0,""viewing_time"":4724}]","4725","","","","","","","","","","",""
"fullscreenexit","2","27524","fullscreenexit","60ed200c728ab881912aac11","bdp_cybrbll","Sun Mar 26 2023 23:53:50 GMT-0400 (Eastern Daylight Time)","549200","3","1","","","","","","","","","","","","","","","","",""
"","","","","60ed200c728ab881912aac11","bdp_cybrbll","Sun Mar 26 2023 23:53:50 GMT-0400 (Eastern Daylight Time)","549200","3","1","fullscreen","2","28062","0.0-2.0","","","true","","","","","","","","","",""
"","","","fullscreenfail","60ed200c728ab881912aac11","bdp_cybrbll","Sun Mar 26 2023 23:53:50 GMT-0400 (Eastern Daylight Time)","549200","3","1","image-keyboard-response","3","35690","0.0-3.0-0.0","","7617","","","32","","","","","","","",""
"","","","","60ed200c728ab881912aac11","bdp_cybrbll","Sun Mar 26 2023 23:53:50 GMT-0400 (Eastern Daylight Time)","549200","3","1","instructions","4","82758","0.0-4.0","[{""page_index"":0,""viewing_time"":46808}]","46808","","","","","","","","","","",""
"","","","choice","60ed200c728ab881912aac11","bdp_cybrbll","Sun Mar 26 2023 23:53:50 GMT-0400 (Eastern Daylight Time)","549200","3","1","image-keyboard-response","5","87323","0.0-5.0-1.0","","4552","","img/2to1/1.png","1","225","198","0.5","0.5","2","1","",""
"","","","","60ed200c728ab881912aac11","bdp_cybrbll","Sun Mar 26 2023 23:53:50 GMT-0400 (Eastern Daylight Time)","549200","3","1","animation","6","88968","0.0-5.0-2.0","","","","","","225","","","","2","1","[{""stimulus"":""img/2to1/1.png"",""time"":106},{""stimulus"":""img/2to1/2.png"",""time"":213},{""stimulus"":""img/2to1/3.png"",""time"":322},{""stimulus"":""img/2to1/4.png"",""time"":452},{""stimulus"":""img/2to1/5.png"",""time"":584},{""stimulus"":""img/2to1/6.png"",""time"":715},{""stimulus"":""img/2to1/7.png"",""time"":847},{""stimulus"":""img/2to1/8.png"",""time"":978},{""stimulus"":""img/2to1/9.png"",""time"":1113},{""stimulus"":""img/2to1/10.png"",""time"":1244},{""stimulus"":""img/2to1/11.png"",""time"":1376},{""stimulus"":""img/2to1/12.png"",""time"":1508}]","[]"
"","","","observe","60ed200c728ab881912aac11","bdp_cybrbll","Sun Mar 26 2023 23:53:50 GMT-0400 (Eastern Daylight Time)","549200","3","1","image-keyboard-response","7","89761","0.0-5.0-1.1","","null","","img/1to3/1.png","null","224","776","0.5","0.5","1","2","",""
"","","","","60ed200c728ab881912aac11","bdp_cybrbll","Sun Mar 26 2023 23:53:50 GMT-0400 (Eastern Daylight Time)","549200","3","1","animation","8","91388","0.0-5.0-2.1","","","","","","224","","","","1","2","[{""stimulus"":""img/1to2/1.png"",""time"":109},{""stimulus"":""img/1to2/2.png"",""time"":218},{""stimulus"":""img/1to2/3.png"",""time"":327},{""stimulus"":""img/1to2/4.png"",""time"":455},{""stimulus"":""img/1to2/5.png"",""time"":584},{""stimulus"":""img/1to2/6.png"",""time"":715},{""stimulus"":""img/1to2/7.png"",""time"":845},{""stimulus"":""img/1to2/8.png"",""time"":976},{""stimulus"":""img/1to2/9.png"",""time"":1108},{""stimulus"":""img/1to2/10.png"",""time"":1238},{""stimulus"":""img/1to2/11.png"",""time"":1367},{""stimulus"":""img/1to2/12.png"",""time"":1495}]","[]"
"","","","choice","60ed200c728ab881912aac11","bdp_cybrbll","Sun Mar 26 2023 23:53:50 GMT-0400 (Eastern Daylight Time)","549200","3","1","image-keyboard-response","9","91975","0.0-5.0-1.2","","586","","img/2to1/1.png","2","223","329","0.5","0.5","2","3","",""
"","","","","60ed200c728ab881912aac11","bdp_cybrbll","Sun Mar 26 2023 23:53:50 GMT-0400 (Eastern Daylight Time)","549200","3","1","animation","10","93624","0.0-5.0-2.2","","","","","","223","","","","2","3","[{""stimulus"":""img/2to3/1.png"",""time"":120},{""stimulus"":""img/2to3/2.png"",""time"":222},{""stimulus"":""img/2to3/3.png"",""time"":331},{""stimulus"":""img/2to3/4.png"",""time"":458},{""stimulus"":""img/2to3/5.png"",""time"":589},{""stimulus"":""img/2to3/6.png"",""time"":719},{""stimulus"":""img/2to3/7.png"",""time"":851},{""stimulus"":""img/2to3/8.png"",""time"":982},{""stimulus"":""img/2to3/9.png"",""time"":1111},{""stimulus"":""img/2to3/10.png"",""time"":1243},{""stimulus"":""img/2to3/11.png"",""time"":1374},{""stimulus"":""img/2to3/12.png"",""time"":1517}]","[]"
"","","","observe","60ed200c728ab881912aac11","bdp_cybrbll","Sun Mar 26 2023 23:53:50 GMT-0400 (Eastern Daylight Time)","549200","3","1","image-keyboard-response","11","94104","0.0-5.0-1.3","","null","","img/3to2/1.png","null","222","468","0.5","0.5","3","1","",""
"","","","","60ed200c728ab881912aac11","bdp_cybrbll","Sun Mar 26 2023 23:53:50 GMT-0400 (Eastern Daylight Time)","549200","3","1","animation","12","95742","0.0-5.0-2.3","","","","","","222","","","","3","1","[{""stimulus"":""img/3to1/1.png"",""time"":109},{""stimulus"":""img/3to1/2.png"",""time"":218},{""stimulus"":""img/3to1/3.png"",""time"":327},{""stimulus"":""img/3to1/4.png"",""time"":457},{""stimulus"":""img/3to1/5.png"",""time"":588},{""stimulus"":""img/3to1/6.png"",""time"":720},{""stimulus"":""img/3to1/7.png"",""time"":851},{""stimulus"":""img/3to1/8.png"",""time"":983},{""stimulus"":""img/3to1/9.png"",""time"":1115},{""stimulus"":""img/3to1/10.png"",""time"":1246},{""stimulus"":""img/3to1/11.png"",""time"":1377},{""stimulus"":""img/3to1/12.png"",""time"":1507}]","[]"
"","","","observe","60ed200c728ab881912aac11","bdp_cybrbll","Sun Mar 26 2023 23:53:50 GMT-0400 (Eastern Daylight Time)","549200","3","1","image-keyboard-response","13","96995","0.0-5.0-1.4","","null","","img/1to3/1.png","null","221","1249","0.5","0.5","1","2","",""
"","","","","60ed200c728ab881912aac11","bdp_cybrbll","Sun Mar 26 2023 23:53:50 GMT-0400 (Eastern Daylight Time)","549200","3","1","animation","14","98417","0.0-5.0-2.4","","","","","","221","","","","1","2","[{""stimulus"":""img/1to2/1.png"",""time"":110},{""stimulus"":""img/1to2/2.png"",""time"":218},{""stimulus"":""img/1to2/3.png"",""time"":328},{""stimulus"":""img/1to2/4.png"",""time"":437},{""stimulus"":""img/1to2/5.png"",""time"":546},{""stimulus"":""img/1to2/6.png"",""time"":655},{""stimulus"":""img/1to2/7.png"",""time"":765},{""stimulus"":""img/1to2/8.png"",""time"":875},{""stimulus"":""img/1to2/9.png"",""time"":984},{""stimulus"":""img/1to2/10.png"",""time"":1094},{""stimulus"":""img/1to2/11.png"",""time"":1203},{""stimulus"":""img/1to2/12.png"",""time"":1312}]","[]"
"","","","choice","60ed200c728ab881912aac11","bdp_cybrbll","Sun Mar 26 2023 23:53:50 GMT-0400 (Eastern Daylight Time)","549200","3","1","image-keyboard-response","15","99063","0.0-5.0-1.5","","643","","img/2to1/1.png","1","220","389","0.5","0.5","2","1","",""
"","","","","60ed200c728ab881912aac11","bdp_cybrbll","Sun Mar 26 2023 23:53:50 GMT-0400 (Eastern Daylight Time)","549200","3","1","animation","16","100479","0.0-5.0-2.5","","","","","","220","","","","2","1","[{""stimulus"":""img/2to1/1.png"",""time"":103},{""stimulus"":""img/2to1/2.png"",""time"":211},{""stimulus"":""img/2to1/3.png"",""time"":321},{""stimulus"":""img/2to1/4.png"",""time"":431},{""stimulus"":""img/2to1/5.png"",""time"":540},{""stimulus"":""img/2to1/6.png"",""time"":649},{""stimulus"":""img/2to1/7.png"",""time"":759},{""stimulus"":""img/2to1/8.png"",""time"":868},{""stimulus"":""img/2to1/9.png"",""time"":977},{""stimulus"":""img/2to1/10.png"",""time"":1087},{""stimulus"":""img/2to1/11.png"",""time"":1196},{""stimulus"":""img/2to1/12.png"",""time"":1307}]","[]"
"","","","observe","60ed200c728ab881912aac11","bdp_cybrbll","Sun Mar 26 2023 23:53:50 GMT-0400 (Eastern Daylight Time)","549200","3","1","image-keyboard-response","17","101073","0.0-5.0-1.6","","null","","img/1to3/1.png","null","219","579","0.5","0.5","1","3","",""
"","","","","60ed200c728ab881912aac11","bdp_cybrbll","Sun Mar 26 2023 23:53:50 GMT-0400 (Eastern Daylight Time)","549200","3","1","animation","18","102704","0.0-5.0-2.6","","","","","","219","","","","1","3","[{""stimulus"":""img/1to3/1.png"",""time"":111},{""stimulus"":""img/1to3/2.png"",""time"":219},{""stimulus"":""img/1to3/3.png"",""time"":327},{""stimulus"":""img/1to3/4.png"",""time"":456},{""stimulus"":""img/1to3/5.png"",""time"":586},{""stimulus"":""img/1to3/6.png"",""time"":716},{""stimulus"":""img/1to3/7.png"",""time"":847},{""stimulus"":""img/1to3/8.png"",""time"":979},{""stimulus"":""img/1to3/9.png"",""time"":1109},{""stimulus"":""img/1to3/10.png"",""time"":1239},{""stimulus"":""img/1to3/11.png"",""time"":1369},{""stimulus"":""img/1to3/12.png"",""time"":1500}]","[]"
"","","","observe","60ed200c728ab881912aac11","bdp_cybrbll","Sun Mar 26 2023 23:53:50 GMT-0400 (Eastern Daylight Time)","549200","3","1","image-keyboard-response","19","103026","0.0-5.0-1.7","","null","","img/3to2/1.png","null","218","307","0.5","0.5","3","1","",""
"","","","","60ed200c728ab881912aac11","bdp_cybrbll","Sun Mar 26 2023 23:53:50 GMT-0400 (Eastern Daylight Time)","549200","3","1","animation","20","104448","0.0-5.0-2.7","","","","","","218","","","","3","1","[{""stimulus"":""img/3to1/1.png"",""time"":110},{""stimulus"":""img/3to1/2.png"",""time"":218},{""stimulus"":""img/3to1/3.png"",""time"":328},{""stimulus"":""img/3to1/4.png"",""time"":437},{""stimulus"":""img/3to1/5.png"",""time"":546},{""stimulus"":""img/3to1/6.png"",""time"":657},{""stimulus"":""img/3to1/7.png"",""time"":766},{""stimulus"":""img/3to1/8.png"",""time"":875},{""stimulus"":""img/3to1/9.png"",""time"":985},{""stimulus"":""img/3to1/10.png"",""time"":1094},{""stimulus"":""img/3to1/11.png"",""time"":1203},{""stimulus"":""img/3to1/12.png"",""time"":1312}]","[]"
"","","","observe","60ed200c728ab881912aac11","bdp_cybrbll","Sun Mar 26 2023 23:53:50 GMT-0400 (Eastern Daylight Time)","549200","3","1","image-keyboard-response","21","104760","0.0-5.0-1.8","","null","","img/1to3/1.png","null","217","304","0.5","0.5","1","3","",""
"","","","","60ed200c728ab881912aac11","bdp_cybrbll","Sun Mar 26 2023 23:53:50 GMT-0400 (Eastern Daylight Time)","549200","3","1","animation","22","106183","0.0-5.0-2.8","","","","","","217","","","","1","3","[{""stimulus"":""img/1to3/1.png"",""time"":110},{""stimulus"":""img/1to3/2.png"",""time"":218},{""stimulus"":""img/1to3/3.png"",""time"":329},{""stimulus"":""img/1to3/4.png"",""time"":438},{""stimulus"":""img/1to3/5.png"",""time"":547},{""stimulus"":""img/1to3/6.png"",""time"":657},{""stimulus"":""img/1to3/7.png"",""time"":766},{""stimulus"":""img/1to3/8.png"",""time"":875},{""stimulus"":""img/1to3/9.png"",""time"":984},{""stimulus"":""img/1to3/10.png"",""time"":1094},{""stimulus"":""img/1to3/11.png"",""time"":1204},{""stimulus"":""img/1to3/12.png"",""time"":1313}]","[]"
"","","","observe","60ed200c728ab881912aac11","bdp_cybrbll","Sun Mar 26 2023 23:53:50 GMT-0400 (Eastern Daylight Time)","549200","3","1","image-keyboard-response","23","106807","0.0-5.0-1.9","","null","","img/3to2/1.png","null","216","616","0.5","0.5","3","2","",""
"","","","","60ed200c728ab881912aac11","bdp_cybrbll","Sun Mar 26 2023 23:53:50 GMT-0400 (Eastern Daylight Time)","549200","3","1","animation","24","108442","0.0-5.0-2.9","","","","","","216","","","","3","2","[{""stimulus"":""img/3to2/1.png"",""time"":108},{""stimulus"":""img/3to2/2.png"",""time"":218},{""stimulus"":""img/3to2/3.png"",""time"":327},{""stimulus"":""img/3to2/4.png"",""time"":457},{""stimulus"":""img/3to2/5.png"",""time"":588},{""stimulus"":""img/3to2/6.png"",""time"":718},{""stimulus"":""img/3to2/7.png"",""time"":849},{""stimulus"":""img/3to2/8.png"",""time"":980},{""stimulus"":""img/3to2/9.png"",""time"":1110},{""stimulus"":""img/3to2/10.png"",""time"":1241},{""stimulus"":""img/3to2/11.png"",""time"":1371},{""stimulus"":""img/3to2/12.png"",""time"":1503}]","[]"
"","","","choice","60ed200c728ab881912aac11","bdp_cybrbll","Sun Mar 26 2023 23:53:50 GMT-0400 (Eastern Daylight Time)","549200","3","1","image-keyboard-response","25","109157","0.0-5.0-1.10","","711","","img/2to1/1.png","2","215","289","0.5","0.5","2","3","",""
"","","","","60ed200c728ab881912aac11","bdp_cybrbll","Sun Mar 26 2023 23:53:50 GMT-0400 (Eastern Daylight Time)","549200","3","1","animation","26","110572","0.0-5.0-2.10","","","","","","215","","","","2","3","[{""stimulus"":""img/2to3/1.png"",""time"":102},{""stimulus"":""img/2to3/2.png"",""time"":211},{""stimulus"":""img/2to3/3.png"",""time"":321},{""stimulus"":""img/2to3/4.png"",""time"":429},{""stimulus"":""img/2to3/5.png"",""time"":540},{""stimulus"":""img/2to3/6.png"",""time"":648},{""stimulus"":""img/2to3/7.png"",""time"":758},{""stimulus"":""img/2to3/8.png"",""time"":867},{""stimulus"":""img/2to3/9.png"",""time"":976},{""stimulus"":""img/2to3/10.png"",""time"":1086},{""stimulus"":""img/2to3/11.png"",""time"":1196},{""stimulus"":""img/2to3/12.png"",""time"":1305}]","[]"
"","","","observe","60ed200c728ab881912aac11","bdp_cybrbll","Sun Mar 26 2023 23:53:50 GMT-0400 (Eastern Daylight Time)","549200","3","1","image-keyboard-response","27","111744","0.0-5.0-1.11","","null","","img/3to2/1.png","null","214","1161","0.5","0.5","3","2","",""
"","","","","60ed200c728ab881912aac11","bdp_cybrbll","Sun Mar 26 2023 23:53:50 GMT-0400 (Eastern Daylight Time)","549200","3","1","animation","28","113166","0.0-5.0-2.11","","","","","","214","","","","3","2","[{""stimulus"":""img/3to2/1.png"",""time"":108},{""stimulus"":""img/3to2/2.png"",""time"":218},{""stimulus"":""img/3to2/3.png"",""time"":328},{""stimulus"":""img/3to2/4.png"",""time"":437},{""stimulus"":""img/3to2/5.png"",""time"":547},{""stimulus"":""img/3to2/6.png"",""time"":656},{""stimulus"":""img/3to2/7.png"",""time"":765},{""stimulus"":""img/3to2/8.png"",""time"":874},{""stimulus"":""img/3to2/9.png"",""time"":984},{""stimulus"":""img/3to2/10.png"",""time"":1094},{""stimulus"":""img/3to2/11.png"",""time"":1203},{""stimulus"":""img/3to2/12.png"",""time"":1312}]","[]"
"","","","choice","60ed200c728ab881912aac11","bdp_cybrbll","Sun Mar 26 2023 23:53:50 GMT-0400 (Eastern Daylight Time)","549200","3","1","image-keyboard-response","29","115032","0.0-5.0-1.12","","1864","","img/2to1/1.png","1","213","522","0.5","0.5","2","1","",""
"","","","","60ed200c728ab881912aac11","bdp_cybrbll","Sun Mar 26 2023 23:53:50 GMT-0400 (Eastern Daylight Time)","549200","3","1","animation","30","116447","0.0-5.0-2.12","","","","","","213","","","","2","1","[{""stimulus"":""img/2to1/1.png"",""time"":102},{""stimulus"":""img/2to1/2.png"",""time"":212},{""stimulus"":""img/2to1/3.png"",""time"":321},{""stimulus"":""img/2to1/4.png"",""time"":430},{""stimulus"":""img/2to1/5.png"",""time"":540},{""stimulus"":""img/2to1/6.png"",""time"":649},{""stimulus"":""img/2to1/7.png"",""time"":759},{""stimulus"":""img/2to1/8.png"",""time"":868},{""stimulus"":""img/2to1/9.png"",""time"":977},{""stimulus"":""img/2to1/10.png"",""time"":1087},{""stimulus"":""img/2to1/11.png"",""time"":1196},{""stimulus"":""img/2to1/12.png"",""time"":1314}]","[]"
"","","","observe","60ed200c728ab881912aac11","bdp_cybrbll","Sun Mar 26 2023 23:53:50 GMT-0400 (Eastern Daylight Time)","549200","3","1","image-keyboard-response","31","116869","0.0-5.0-1.13","","null","","img/1to3/1.png","null","212","415","0.5","0.5","1","3","",""
"","","","","60ed200c728ab881912aac11","bdp_cybrbll","Sun Mar 26 2023 23:53:50 GMT-0400 (Eastern Daylight Time)","549200","3","1","animation","32","118290","0.0-5.0-2.13","","","","","","212","","","","1","3","[{""stimulus"":""img/1to3/1.png"",""time"":109},{""stimulus"":""img/1to3/2.png"",""time"":219},{""stimulus"":""img/1to3/3.png"",""time"":328},{""stimulus"":""img/1to3/4.png"",""time"":437},{""stimulus"":""img/1to3/5.png"",""time"":546},{""stimulus"":""img/1to3/6.png"",""time"":656},{""stimulus"":""img/1to3/7.png"",""time"":765},{""stimulus"":""img/1to3/8.png"",""time"":874},{""stimulus"":""img/1to3/9.png"",""time"":984},{""stimulus"":""img/1to3/10.png"",""time"":1093},{""stimulus"":""img/1to3/11.png"",""time"":1203},{""stimulus"":""img/1to3/12.png"",""time"":1312}]","[]"
"","","","observe","60ed200c728ab881912aac11","bdp_cybrbll","Sun Mar 26 2023 23:53:50 GMT-0400 (Eastern Daylight Time)","549200","3","1","image-keyboard-response","33","118900","0.0-5.0-1.14","","null","","img/3to2/1.png","null","211","599","0.5","0.5","3","2","",""
"","","","","60ed200c728ab881912aac11","bdp_cybrbll","Sun Mar 26 2023 23:53:50 GMT-0400 (Eastern Daylight Time)","549200","3","1","animation","34","120322","0.0-5.0-2.14","","","","","","211","","","","3","2","[{""stimulus"":""img/3to2/1.png"",""time"":110},{""stimulus"":""img/3to2/2.png"",""time"":219},{""stimulus"":""img/3to2/3.png"",""time"":328},{""stimulus"":""img/3to2/4.png"",""time"":438},{""stimulus"":""img/3to2/5.png"",""time"":548},{""stimulus"":""img/3to2/6.png"",""time"":657},{""stimulus"":""img/3to2/7.png"",""time"":766},{""stimulus"":""img/3to2/8.png"",""time"":876},{""stimulus"":""img/3to2/9.png"",""time"":985},{""stimulus"":""img/3to2/10.png"",""time"":1095},{""stimulus"":""img/3to2/11.png"",""time"":1204},{""stimulus"":""img/3to2/12.png"",""time"":1313}]","[]"
"","","","choice","60ed200c728ab881912aac11","bdp_cybrbll","Sun Mar 26 2023 23:53:50 GMT-0400 (Eastern Daylight Time)","549200","3","1","image-keyboard-response","35","121415","0.0-5.0-1.15","","1092","","img/2to1/1.png","2","210","224","0.5","0.5","2","3","",""
"","","","","60ed200c728ab881912aac11","bdp_cybrbll","Sun Mar 26 2023 23:53:50 GMT-0400 (Eastern Daylight Time)","549200","3","1","animation","36","122838","0.0-5.0-2.15","","","","","","210","","","","2","3","[{""stimulus"":""img/2to3/1.png"",""time"":109},{""stimulus"":""img/2to3/2.png"",""time"":218},{""stimulus"":""img/2to3/3.png"",""time"":328},{""stimulus"":""img/2to3/4.png"",""time"":437},{""stimulus"":""img/2to3/5.png"",""time"":546},{""stimulus"":""img/2to3/6.png"",""time"":656},{""stimulus"":""img/2to3/7.png"",""time"":765},{""stimulus"":""img/2to3/8.png"",""time"":874},{""stimulus"":""img/2to3/9.png"",""time"":984},{""stimulus"":""img/2to3/10.png"",""time"":1093},{""stimulus"":""img/2to3/11.png"",""time"":1203},{""stimulus"":""img/2to3/12.png"",""time"":1312}]","[]"
"","","","observe","60ed200c728ab881912aac11","bdp_cybrbll","Sun Mar 26 2023 23:53:50 GMT-0400 (Eastern Daylight Time)","549200","3","1","image-keyboard-response","37","123479","0.0-5.0-1.16","","null","","img/3to2/1.png","null","209","628","0.5","0.5","3","2","",""
"","","","","60ed200c728ab881912aac11","bdp_cybrbll","Sun Mar 26 2023 23:53:50 GMT-0400 (Eastern Daylight Time)","549200","3","1","animation","38","124901","0.0-5.0-2.16","","","","","","209","","","","3","2","[{""stimulus"":""img/3to2/1.png"",""time"":110},{""stimulus"":""img/3to2/2.png"",""time"":219},{""stimulus"":""img/3to2/3.png"",""time"":328},{""stimulus"":""img/3to2/4.png"",""time"":437},{""stimulus"":""img/3to2/5.png"",""time"":547},{""stimulus"":""img/3to2/6.png"",""time"":656},{""stimulus"":""img/3to2/7.png"",""time"":765},{""stimulus"":""img/3to2/8.png"",""time"":875},{""stimulus"":""img/3to2/9.png"",""time"":985},{""stimulus"":""img/3to2/10.png"",""time"":1093},{""stimulus"":""img/3to2/11.png"",""time"":1203},{""stimulus"":""img/3to2/12.png"",""time"":1313}]","[]"
"","","","choice","60ed200c728ab881912aac11","bdp_cybrbll","Sun Mar 26 2023 23:53:50 GMT-0400 (Eastern Daylight Time)","549200","3","1","image-keyboard-response","39","125010","0.0-5.0-1.17","","106","","img/2to1/1.png","1","208","341","0.5","0.5","2","1","",""
"","","","","60ed200c728ab881912aac11","bdp_cybrbll","Sun Mar 26 2023 23:53:50 GMT-0400 (Eastern Daylight Time)","549200","3","1","animation","40","126432","0.0-5.0-2.17","","","","","","208","","","","2","1","[{""stimulus"":""img/2to1/1.png"",""time"":110},{""stimulus"":""img/2to1/2.png"",""time"":219},{""stimulus"":""img/2to1/3.png"",""time"":329},{""stimulus"":""img/2to1/4.png"",""time"":438},{""stimulus"":""img/2to1/5.png"",""time"":547},{""stimulus"":""img/2to1/6.png"",""time"":656},{""stimulus"":""img/2to1/7.png"",""time"":765},{""stimulus"":""img/2to1/8.png"",""time"":875},{""stimulus"":""img/2to1/9.png"",""time"":984},{""stimulus"":""img/2to1/10.png"",""time"":1094},{""stimulus"":""img/2to1/11.png"",""time"":1204},{""stimulus"":""img/2to1/12.png"",""time"":1312}]","[]"
"","","","observe","60ed200c728ab881912aac11","bdp_cybrbll","Sun Mar 26 2023 23:53:50 GMT-0400 (Eastern Daylight Time)","549200","3","1","image-keyboard-response","41","126682","0.0-5.0-1.18","","null","","img/1to3/1.png","null","207","245","0.5","0.5","1","3","",""
"","","","","60ed200c728ab881912aac11","bdp_cybrbll","Sun Mar 26 2023 23:53:50 GMT-0400 (Eastern Daylight Time)","549200","3","1","animation","42","128104","0.0-5.0-2.18","","","","","","207","","","","1","3","[{""stimulus"":""img/1to3/1.png"",""time"":110},{""stimulus"":""img/1to3/2.png"",""time"":219},{""stimulus"":""img/1to3/3.png"",""time"":329},{""stimulus"":""img/1to3/4.png"",""time"":437},{""stimulus"":""img/1to3/5.png"",""time"":548},{""stimulus"":""img/1to3/6.png"",""time"":656},{""stimulus"":""img/1to3/7.png"",""time"":766},{""stimulus"":""img/1to3/8.png"",""time"":875},{""stimulus"":""img/1to3/9.png"",""time"":984},{""stimulus"":""img/1to3/10.png"",""time"":1094},{""stimulus"":""img/1to3/11.png"",""time"":1203},{""stimulus"":""img/1to3/12.png"",""time"":1312}]","[]"
"","","","observe","60ed200c728ab881912aac11","bdp_cybrbll","Sun Mar 26 2023 23:53:50 GMT-0400 (Eastern Daylight Time)","549200","3","1","image-keyboard-response","43","128509","0.0-5.0-1.19","","null","","img/3to2/1.png","null","206","403","0.5","0.5","3","1","",""
"","","","","60ed200c728ab881912aac11","bdp_cybrbll","Sun Mar 26 2023 23:53:50 GMT-0400 (Eastern Daylight Time)","549200","3","1","animation","44","129932","0.0-5.0-2.19","","","","","","206","","","","3","1","[{""stimulus"":""img/3to1/1.png"",""time"":110},{""stimulus"":""img/3to1/2.png"",""time"":219},{""stimulus"":""img/3to1/3.png"",""time"":328},{""stimulus"":""img/3to1/4.png"",""time"":438},{""stimulus"":""img/3to1/5.png"",""time"":548},{""stimulus"":""img/3to1/6.png"",""time"":657},{""stimulus"":""img/3to1/7.png"",""time"":766},{""stimulus"":""img/3to1/8.png"",""time"":875},{""stimulus"":""img/3to1/9.png"",""time"":984},{""stimulus"":""img/3to1/10.png"",""time"":1094},{""stimulus"":""img/3to1/11.png"",""time"":1204},{""stimulus"":""img/3to1/12.png"",""time"":1312}]","[]"
"","","","observe","60ed200c728ab881912aac11","bdp_cybrbll","Sun Mar 26 2023 23:53:50 GMT-0400 (Eastern Daylight Time)","549200","3","1","image-keyboard-response","45","130103","0.0-5.0-1.20","","null","","img/1to3/1.png","null","205","165","0.5","0.5","1","3","",""
"","","","","60ed200c728ab881912aac11","bdp_cybrbll","Sun Mar 26 2023 23:53:50 GMT-0400 (Eastern Daylight Time)","549200","3","1","animation","46","131525","0.0-5.0-2.20","","","","","","205","","","","1","3","[{""stimulus"":""img/1to3/1.png"",""time"":109},{""stimulus"":""img/1to3/2.png"",""time"":219},{""stimulus"":""img/1to3/3.png"",""time"":328},{""stimulus"":""img/1to3/4.png"",""time"":438},{""stimulus"":""img/1to3/5.png"",""time"":548},{""stimulus"":""img/1to3/6.png"",""time"":656},{""stimulus"":""img/1to3/7.png"",""time"":765},{""stimulus"":""img/1to3/8.png"",""time"":875},{""stimulus"":""img/1to3/9.png"",""time"":984},{""stimulus"":""img/1to3/10.png"",""time"":1093},{""stimulus"":""img/1to3/11.png"",""time"":1203},{""stimulus"":""img/1to3/12.png"",""time"":1313}]","[]"
"","","","observe","60ed200c728ab881912aac11","bdp_cybrbll","Sun Mar 26 2023 23:53:50 GMT-0400 (Eastern Daylight Time)","549200","3","1","image-keyboard-response","47","132275","0.0-5.0-1.21","","null","","img/3to2/1.png","null","204","736","0.5","0.5","3","1","",""
"","","","","60ed200c728ab881912aac11","bdp_cybrbll","Sun Mar 26 2023 23:53:50 GMT-0400 (Eastern Daylight Time)","549200","3","1","animation","48","133697","0.0-5.0-2.21","","","","","","204","","","","3","1","[{""stimulus"":""img/3to1/1.png"",""time"":110},{""stimulus"":""img/3to1/2.png"",""time"":219},{""stimulus"":""img/3to1/3.png"",""time"":328},{""stimulus"":""img/3to1/4.png"",""time"":438},{""stimulus"":""img/3to1/5.png"",""time"":547},{""stimulus"":""img/3to1/6.png"",""time"":656},{""stimulus"":""img/3to1/7.png"",""time"":765},{""stimulus"":""img/3to1/8.png"",""time"":875},{""stimulus"":""img/3to1/9.png"",""time"":984},{""stimulus"":""img/3to1/10.png"",""time"":1094},{""stimulus"":""img/3to1/11.png"",""time"":1203},{""stimulus"":""img/3to1/12.png"",""time"":1312}]","[]"
"","","","observe","60ed200c728ab881912aac11","bdp_cybrbll","Sun Mar 26 2023 23:53:50 GMT-0400 (Eastern Daylight Time)","549200","3","1","image-keyboard-response","49","133947","0.0-5.0-1.22","","null","","img/1to3/1.png","null","203","243","0.5","0.5","1","2","",""
"","","","","60ed200c728ab881912aac11","bdp_cybrbll","Sun Mar 26 2023 23:53:50 GMT-0400 (Eastern Daylight Time)","549200","3","1","animation","50","135369","0.0-5.0-2.22","","","","","","203","","","","1","2","[{""stimulus"":""img/1to2/1.png"",""time"":109},{""stimulus"":""img/1to2/2.png"",""time"":218},{""stimulus"":""img/1to2/3.png"",""time"":328},{""stimulus"":""img/1to2/4.png"",""time"":437},{""stimulus"":""img/1to2/5.png"",""time"":546},{""stimulus"":""img/1to2/6.png"",""time"":656},{""stimulus"":""img/1to2/7.png"",""time"":765},{""stimulus"":""img/1to2/8.png"",""time"":875},{""stimulus"":""img/1to2/9.png"",""time"":984},{""stimulus"":""img/1to2/10.png"",""time"":1093},{""stimulus"":""img/1to2/11.png"",""time"":1203},{""stimulus"":""img/1to2/12.png"",""time"":1312}]","[]"
"","","","choice","60ed200c728ab881912aac11","bdp_cybrbll","Sun Mar 26 2023 23:53:50 GMT-0400 (Eastern Daylight Time)","549200","3","1","image-keyboard-response","51","135766","0.0-5.0-1.23","","394","","img/2to1/1.png","2","202","850","0.5","0.5","2","3","",""
"","","","","60ed200c728ab881912aac11","bdp_cybrbll","Sun Mar 26 2023 23:53:50 GMT-0400 (Eastern Daylight Time)","549200","3","1","animation","52","137181","0.0-5.0-2.23","","","","","","202","","","","2","3","[{""stimulus"":""img/2to3/1.png"",""time"":103},{""stimulus"":""img/2to3/2.png"",""time"":211},{""stimulus"":""img/2to3/3.png"",""time"":327},{""stimulus"":""img/2to3/4.png"",""time"":431},{""stimulus"":""img/2to3/5.png"",""time"":540},{""stimulus"":""img/2to3/6.png"",""time"":650},{""stimulus"":""img/2to3/7.png"",""time"":759},{""stimulus"":""img/2to3/8.png"",""time"":868},{""stimulus"":""img/2to3/9.png"",""time"":978},{""stimulus"":""img/2to3/10.png"",""time"":1087},{""stimulus"":""img/2to3/11.png"",""time"":1196},{""stimulus"":""img/2to3/12.png"",""time"":1306}]","[]"
"","","","observe","60ed200c728ab881912aac11","bdp_cybrbll","Sun Mar 26 2023 23:53:50 GMT-0400 (Eastern Daylight Time)","549200","3","1","image-keyboard-response","53","137462","0.0-5.0-1.24","","null","","img/3to2/1.png","null","201","267","0.5","0.5","3","2","",""
"","","","","60ed200c728ab881912aac11","bdp_cybrbll","Sun Mar 26 2023 23:53:50 GMT-0400 (Eastern Daylight Time)","549200","3","1","animation","54","138884","0.0-5.0-2.24","","","","","","201","","","","3","2","[{""stimulus"":""img/3to2/1.png"",""time"":110},{""stimulus"":""img/3to2/2.png"",""time"":219},{""stimulus"":""img/3to2/3.png"",""time"":328},{""stimulus"":""img/3to2/4.png"",""time"":438},{""stimulus"":""img/3to2/5.png"",""time"":547},{""stimulus"":""img/3to2/6.png"",""time"":657},{""stimulus"":""img/3to2/7.png"",""time"":766},{""stimulus"":""img/3to2/8.png"",""time"":875},{""stimulus"":""img/3to2/9.png"",""time"":984},{""stimulus"":""img/3to2/10.png"",""time"":1094},{""stimulus"":""img/3to2/11.png"",""time"":1203},{""stimulus"":""img/3to2/12.png"",""time"":1313}]","[]"
"","","","choice","60ed200c728ab881912aac11","bdp_cybrbll","Sun Mar 26 2023 23:53:50 GMT-0400 (Eastern Daylight Time)","549200","3","1","image-keyboard-response","55","139703","0.0-5.0-1.25","","816","","img/2to1/1.png","1","200","159","0.5","0.5","2","1","",""
"","","","","60ed200c728ab881912aac11","bdp_cybrbll","Sun Mar 26 2023 23:53:50 GMT-0400 (Eastern Daylight Time)","549200","3","1","animation","56","141119","0.0-5.0-2.25","","","","","","200","","","","2","1","[{""stimulus"":""img/2to1/1.png"",""time"":104},{""stimulus"":""img/2to1/2.png"",""time"":213},{""stimulus"":""img/2to1/3.png"",""time"":322},{""stimulus"":""img/2to1/4.png"",""time"":431},{""stimulus"":""img/2to1/5.png"",""time"":540},{""stimulus"":""img/2to1/6.png"",""time"":651},{""stimulus"":""img/2to1/7.png"",""time"":759},{""stimulus"":""img/2to1/8.png"",""time"":868},{""stimulus"":""img/2to1/9.png"",""time"":978},{""stimulus"":""img/2to1/10.png"",""time"":1088},{""stimulus"":""img/2to1/11.png"",""time"":1198},{""stimulus"":""img/2to1/12.png"",""time"":1306}]","[]"
"","","","observe","60ed200c728ab881912aac11","bdp_cybrbll","Sun Mar 26 2023 23:53:50 GMT-0400 (Eastern Daylight Time)","549200","3","1","image-keyboard-response","57","141275","0.0-5.0-1.26","","null","","img/1to3/1.png","null","199","144","0.5","0.5","1","3","",""
"","","","","60ed200c728ab881912aac11","bdp_cybrbll","Sun Mar 26 2023 23:53:50 GMT-0400 (Eastern Daylight Time)","549200","3","1","animation","58","142697","0.0-5.0-2.26","","","","","","199","","","","1","3","[{""stimulus"":""img/1to3/1.png"",""time"":110},{""stimulus"":""img/1to3/2.png"",""time"":220},{""stimulus"":""img/1to3/3.png"",""time"":328},{""stimulus"":""img/1to3/4.png"",""time"":439},{""stimulus"":""img/1to3/5.png"",""time"":550},{""stimulus"":""img/1to3/6.png"",""time"":657},{""stimulus"":""img/1to3/7.png"",""time"":766},{""stimulus"":""img/1to3/8.png"",""time"":876},{""stimulus"":""img/1to3/9.png"",""time"":985},{""stimulus"":""img/1to3/10.png"",""time"":1094},{""stimulus"":""img/1to3/11.png"",""time"":1204},{""stimulus"":""img/1to3/12.png"",""time"":1313}]","[]"
"","","","observe","60ed200c728ab881912aac11","bdp_cybrbll","Sun Mar 26 2023 23:53:50 GMT-0400 (Eastern Daylight Time)","549200","3","1","image-keyboard-response","59","143134","0.0-5.0-1.27","","null","","img/3to2/1.png","null","198","425","0.5","0.5","3","1","",""
"","","","","60ed200c728ab881912aac11","bdp_cybrbll","Sun Mar 26 2023 23:53:50 GMT-0400 (Eastern Daylight Time)","549200","3","1","animation","60","144556","0.0-5.0-2.27","","","","","","198","","","","3","1","[{""stimulus"":""img/3to1/1.png"",""time"":110},{""stimulus"":""img/3to1/2.png"",""time"":219},{""stimulus"":""img/3to1/3.png"",""time"":328},{""stimulus"":""img/3to1/4.png"",""time"":438},{""stimulus"":""img/3to1/5.png"",""time"":547},{""stimulus"":""img/3to1/6.png"",""time"":656},{""stimulus"":""img/3to1/7.png"",""time"":766},{""stimulus"":""img/3to1/8.png"",""time"":875},{""stimulus"":""img/3to1/9.png"",""time"":985},{""stimulus"":""img/3to1/10.png"",""time"":1094},{""stimulus"":""img/3to1/11.png"",""time"":1203},{""stimulus"":""img/3to1/12.png"",""time"":1313}]","[]"
"","","","observe","60ed200c728ab881912aac11","bdp_cybrbll","Sun Mar 26 2023 23:53:50 GMT-0400 (Eastern Daylight Time)","549200","3","1","image-keyboard-response","61","144947","0.0-5.0-1.28","","null","","img/1to3/1.png","null","197","381","0.5","0.5","1","3","",""
"","","","","60ed200c728ab881912aac11","bdp_cybrbll","Sun Mar 26 2023 23:53:50 GMT-0400 (Eastern Daylight Time)","549200","3","1","animation","62","146369","0.0-5.0-2.28","","","","","","197","","","","1","3","[{""stimulus"":""img/1to3/1.png"",""time"":110},{""stimulus"":""img/1to3/2.png"",""time"":218},{""stimulus"":""img/1to3/3.png"",""time"":327},{""stimulus"":""img/1to3/4.png"",""time"":438},{""stimulus"":""img/1to3/5.png"",""time"":546},{""stimulus"":""img/1to3/6.png"",""time"":656},{""stimulus"":""img/1to3/7.png"",""time"":765},{""stimulus"":""img/1to3/8.png"",""time"":875},{""stimulus"":""img/1to3/9.png"",""time"":984},{""stimulus"":""img/1to3/10.png"",""time"":1093},{""stimulus"":""img/1to3/11.png"",""time"":1204},{""stimulus"":""img/1to3/12.png"",""time"":1312}]","[]"
"","","","observe","60ed200c728ab881912aac11","bdp_cybrbll","Sun Mar 26 2023 23:53:50 GMT-0400 (Eastern Daylight Time)","549200","3","1","image-keyboard-response","63","147119","0.0-5.0-1.29","","null","","img/3to2/1.png","null","196","736","0.5","0.5","3","1","",""
"","","","","60ed200c728ab881912aac11","bdp_cybrbll","Sun Mar 26 2023 23:53:50 GMT-0400 (Eastern Daylight Time)","549200","3","1","animation","64","148541","0.0-5.0-2.29","","","","","","196","","","","3","1","[{""stimulus"":""img/3to1/1.png"",""time"":110},{""stimulus"":""img/3to1/2.png"",""time"":219},{""stimulus"":""img/3to1/3.png"",""time"":329},{""stimulus"":""img/3to1/4.png"",""time"":439},{""stimulus"":""img/3to1/5.png"",""time"":548},{""stimulus"":""img/3to1/6.png"",""time"":657},{""stimulus"":""img/3to1/7.png"",""time"":767},{""stimulus"":""img/3to1/8.png"",""time"":876},{""stimulus"":""img/3to1/9.png"",""time"":985},{""stimulus"":""img/3to1/10.png"",""time"":1094},{""stimulus"":""img/3to1/11.png"",""time"":1204},{""stimulus"":""img/3to1/12.png"",""time"":1313}]","[]"
"","","","observe","60ed200c728ab881912aac11","bdp_cybrbll","Sun Mar 26 2023 23:53:50 GMT-0400 (Eastern Daylight Time)","549200","3","1","image-keyboard-response","65","148963","0.0-5.0-1.30","","null","","img/1to3/1.png","null","195","409","0.5","0.5","1","2","",""
"","","","","60ed200c728ab881912aac11","bdp_cybrbll","Sun Mar 26 2023 23:53:50 GMT-0400 (Eastern Daylight Time)","549200","3","1","animation","66","150385","0.0-5.0-2.30","","","","","","195","","","","1","2","[{""stimulus"":""img/1to2/1.png"",""time"":117},{""stimulus"":""img/1to2/2.png"",""time"":219},{""stimulus"":""img/1to2/3.png"",""time"":329},{""stimulus"":""img/1to2/4.png"",""time"":438},{""stimulus"":""img/1to2/5.png"",""time"":547},{""stimulus"":""img/1to2/6.png"",""time"":656},{""stimulus"":""img/1to2/7.png"",""time"":766},{""stimulus"":""img/1to2/8.png"",""time"":875},{""stimulus"":""img/1to2/9.png"",""time"":984},{""stimulus"":""img/1to2/10.png"",""time"":1094},{""stimulus"":""img/1to2/11.png"",""time"":1204},{""stimulus"":""img/1to2/12.png"",""time"":1313}]","[]"
"","","","choice","60ed200c728ab881912aac11","bdp_cybrbll","Sun Mar 26 2023 23:53:50 GMT-0400 (Eastern Daylight Time)","549200","3","1","image-keyboard-response","67","151777","0.0-5.0-1.31","","1391","","img/2to1/1.png","1","194","563","0.5","0.5","2","1","",""
"","","","","60ed200c728ab881912aac11","bdp_cybrbll","Sun Mar 26 2023 23:53:50 GMT-0400 (Eastern Daylight Time)","549200","3","1","animation","68","153197","0.0-5.0-2.31","","","","","","194","","","","2","1","[{""stimulus"":""img/2to1/1.png"",""time"":108},{""stimulus"":""img/2to1/2.png"",""time"":217},{""stimulus"":""img/2to1/3.png"",""time"":326},{""stimulus"":""img/2to1/4.png"",""time"":436},{""stimulus"":""img/2to1/5.png"",""time"":545},{""stimulus"":""img/2to1/6.png"",""time"":654},{""stimulus"":""img/2to1/7.png"",""time"":763},{""stimulus"":""img/2to1/8.png"",""time"":873},{""stimulus"":""img/2to1/9.png"",""time"":983},{""stimulus"":""img/2to1/10.png"",""time"":1092},{""stimulus"":""img/2to1/11.png"",""time"":1200},{""stimulus"":""img/2to1/12.png"",""time"":1310}]","[]"
"","","","observe","60ed200c728ab881912aac11","bdp_cybrbll","Sun Mar 26 2023 23:53:50 GMT-0400 (Eastern Daylight Time)","549200","3","1","image-keyboard-response","69","153541","0.0-5.0-1.32","","null","","img/1to3/1.png","null","193","341","0.5","0.5","1","2","",""
"","","","","60ed200c728ab881912aac11","bdp_cybrbll","Sun Mar 26 2023 23:53:50 GMT-0400 (Eastern Daylight Time)","549200","3","1","animation","70","154962","0.0-5.0-2.32","","","","","","193","","","","1","2","[{""stimulus"":""img/1to2/1.png"",""time"":109},{""stimulus"":""img/1to2/2.png"",""time"":218},{""stimulus"":""img/1to2/3.png"",""time"":327},{""stimulus"":""img/1to2/4.png"",""time"":437},{""stimulus"":""img/1to2/5.png"",""time"":553},{""stimulus"":""img/1to2/6.png"",""time"":656},{""stimulus"":""img/1to2/7.png"",""time"":765},{""stimulus"":""img/1to2/8.png"",""time"":874},{""stimulus"":""img/1to2/9.png"",""time"":984},{""stimulus"":""img/1to2/10.png"",""time"":1094},{""stimulus"":""img/1to2/11.png"",""time"":1203},{""stimulus"":""img/1to2/12.png"",""time"":1312}]","[]"
"","","","choice","60ed200c728ab881912aac11","bdp_cybrbll","Sun Mar 26 2023 23:53:50 GMT-0400 (Eastern Daylight Time)","549200","3","1","image-keyboard-response","71","155791","0.0-5.0-1.33","","827","","img/2to1/1.png","2","192","518","0.5","0.5","2","3","",""
"","","","","60ed200c728ab881912aac11","bdp_cybrbll","Sun Mar 26 2023 23:53:50 GMT-0400 (Eastern Daylight Time)","549200","3","1","animation","72","157213","0.0-5.0-2.33","","","","","","192","","","","2","3","[{""stimulus"":""img/2to3/1.png"",""time"":108},{""stimulus"":""img/2to3/2.png"",""time"":218},{""stimulus"":""img/2to3/3.png"",""time"":328},{""stimulus"":""img/2to3/4.png"",""time"":437},{""stimulus"":""img/2to3/5.png"",""time"":546},{""stimulus"":""img/2to3/6.png"",""time"":656},{""stimulus"":""img/2to3/7.png"",""time"":765},{""stimulus"":""img/2to3/8.png"",""time"":874},{""stimulus"":""img/2to3/9.png"",""time"":984},{""stimulus"":""img/2to3/10.png"",""time"":1094},{""stimulus"":""img/2to3/11.png"",""time"":1203},{""stimulus"":""img/2to3/12.png"",""time"":1312}]","[]"
"","","","observe","60ed200c728ab881912aac11","bdp_cybrbll","Sun Mar 26 2023 23:53:50 GMT-0400 (Eastern Daylight Time)","549200","3","1","image-keyboard-response","73","157509","0.0-5.0-1.34","","null","","img/3to2/1.png","null","191","281","0.5","0.5","3","1","",""
"","","","","60ed200c728ab881912aac11","bdp_cybrbll","Sun Mar 26 2023 23:53:50 GMT-0400 (Eastern Daylight Time)","549200","3","1","animation","74","158931","0.0-5.0-2.34","","","","","","191","","","","3","1","[{""stimulus"":""img/3to1/1.png"",""time"":110},{""stimulus"":""img/3to1/2.png"",""time"":219},{""stimulus"":""img/3to1/3.png"",""time"":328},{""stimulus"":""img/3to1/4.png"",""time"":438},{""stimulus"":""img/3to1/5.png"",""time"":548},{""stimulus"":""img/3to1/6.png"",""time"":656},{""stimulus"":""img/3to1/7.png"",""time"":766},{""stimulus"":""img/3to1/8.png"",""time"":876},{""stimulus"":""img/3to1/9.png"",""time"":985},{""stimulus"":""img/3to1/10.png"",""time"":1094},{""stimulus"":""img/3to1/11.png"",""time"":1203},{""stimulus"":""img/3to1/12.png"",""time"":1313}]","[]"
"","","","observe","60ed200c728ab881912aac11","bdp_cybrbll","Sun Mar 26 2023 23:53:50 GMT-0400 (Eastern Daylight Time)","549200","3","1","image-keyboard-response","75","159119","0.0-5.0-1.35","","null","","img/1to3/1.png","null","190","180","0.5","0.5","1","3","",""
"","","","","60ed200c728ab881912aac11","bdp_cybrbll","Sun Mar 26 2023 23:53:50 GMT-0400 (Eastern Daylight Time)","549200","3","1","animation","76","160541","0.0-5.0-2.35","","","","","","190","","","","1","3","[{""stimulus"":""img/1to3/1.png"",""time"":110},{""stimulus"":""img/1to3/2.png"",""time"":219},{""stimulus"":""img/1to3/3.png"",""time"":328},{""stimulus"":""img/1to3/4.png"",""time"":438},{""stimulus"":""img/1to3/5.png"",""time"":548},{""stimulus"":""img/1to3/6.png"",""time"":657},{""stimulus"":""img/1to3/7.png"",""time"":767},{""stimulus"":""img/1to3/8.png"",""time"":875},{""stimulus"":""img/1to3/9.png"",""time"":985},{""stimulus"":""img/1to3/10.png"",""time"":1095},{""stimulus"":""img/1to3/11.png"",""time"":1204},{""stimulus"":""img/1to3/12.png"",""time"":1313}]","[]"
"","","","observe","60ed200c728ab881912aac11","bdp_cybrbll","Sun Mar 26 2023 23:53:50 GMT-0400 (Eastern Daylight Time)","549200","3","1","image-keyboard-response","77","161056","0.0-5.0-1.36","","null","","img/3to2/1.png","null","189","505","0.5","0.5","3","1","",""
"","","","","60ed200c728ab881912aac11","bdp_cybrbll","Sun Mar 26 2023 23:53:50 GMT-0400 (Eastern Daylight Time)","549200","3","1","animation","78","162478","0.0-5.0-2.36","","","","","","189","","","","3","1","[{""stimulus"":""img/3to1/1.png"",""time"":109},{""stimulus"":""img/3to1/2.png"",""time"":219},{""stimulus"":""img/3to1/3.png"",""time"":328},{""stimulus"":""img/3to1/4.png"",""time"":437},{""stimulus"":""img/3to1/5.png"",""time"":547},{""stimulus"":""img/3to1/6.png"",""time"":657},{""stimulus"":""img/3to1/7.png"",""time"":766},{""stimulus"":""img/3to1/8.png"",""time"":875},{""stimulus"":""img/3to1/9.png"",""time"":985},{""stimulus"":""img/3to1/10.png"",""time"":1094},{""stimulus"":""img/3to1/11.png"",""time"":1203},{""stimulus"":""img/3to1/12.png"",""time"":1313}]","[]"
"","","","observe","60ed200c728ab881912aac11","bdp_cybrbll","Sun Mar 26 2023 23:53:50 GMT-0400 (Eastern Daylight Time)","549200","3","1","image-keyboard-response","79","164353","0.0-5.0-1.37","","null","","img/1to3/1.png","null","188","1869","0.5","0.5","1","2","",""
"","","","","60ed200c728ab881912aac11","bdp_cybrbll","Sun Mar 26 2023 23:53:50 GMT-0400 (Eastern Daylight Time)","549200","3","1","animation","80","165775","0.0-5.0-2.37","","","","","","188","","","","1","2","[{""stimulus"":""img/1to2/1.png"",""time"":111},{""stimulus"":""img/1to2/2.png"",""time"":220},{""stimulus"":""img/1to2/3.png"",""time"":329},{""stimulus"":""img/1to2/4.png"",""time"":438},{""stimulus"":""img/1to2/5.png"",""time"":548},{""stimulus"":""img/1to2/6.png"",""time"":657},{""stimulus"":""img/1to2/7.png"",""time"":767},{""stimulus"":""img/1to2/8.png"",""time"":876},{""stimulus"":""img/1to2/9.png"",""time"":986},{""stimulus"":""img/1to2/10.png"",""time"":1095},{""stimulus"":""img/1to2/11.png"",""time"":1204},{""stimulus"":""img/1to2/12.png"",""time"":1313}]","[]"
"","","","choice","60ed200c728ab881912aac11","bdp_cybrbll","Sun Mar 26 2023 23:53:50 GMT-0400 (Eastern Daylight Time)","549200","3","1","image-keyboard-response","81","167113","0.0-5.0-1.38","","1336","","img/2to1/1.png","1","187","735","0.5","0.5","2","1","",""
"","","","","60ed200c728ab881912aac11","bdp_cybrbll","Sun Mar 26 2023 23:53:50 GMT-0400 (Eastern Daylight Time)","549200","3","1","animation","82","168541","0.0-5.0-2.38","","","","","","187","","","","2","1","[{""stimulus"":""img/2to1/1.png"",""time"":115},{""stimulus"":""img/2to1/2.png"",""time"":224},{""stimulus"":""img/2to1/3.png"",""time"":333},{""stimulus"":""img/2to1/4.png"",""time"":443},{""stimulus"":""img/2to1/5.png"",""time"":553},{""stimulus"":""img/2to1/6.png"",""time"":662},{""stimulus"":""img/2to1/7.png"",""time"":772},{""stimulus"":""img/2to1/8.png"",""time"":881},{""stimulus"":""img/2to1/9.png"",""time"":990},{""stimulus"":""img/2to1/10.png"",""time"":1099},{""stimulus"":""img/2to1/11.png"",""time"":1209},{""stimulus"":""img/2to1/12.png"",""time"":1319}]","[]"
"","","","observe","60ed200c728ab881912aac11","bdp_cybrbll","Sun Mar 26 2023 23:53:50 GMT-0400 (Eastern Daylight Time)","549200","3","1","image-keyboard-response","83","169291","0.0-5.0-1.39","","null","","img/1to3/1.png","null","186","739","0.5","0.5","1","3","",""
"","","","","60ed200c728ab881912aac11","bdp_cybrbll","Sun Mar 26 2023 23:53:50 GMT-0400 (Eastern Daylight Time)","549200","3","1","animation","84","170713","0.0-5.0-2.39","","","","","","186","","","","1","3","[{""stimulus"":""img/1to3/1.png"",""time"":110},{""stimulus"":""img/1to3/2.png"",""time"":219},{""stimulus"":""img/1to3/3.png"",""time"":329},{""stimulus"":""img/1to3/4.png"",""time"":438},{""stimulus"":""img/1to3/5.png"",""time"":547},{""stimulus"":""img/1to3/6.png"",""time"":656},{""stimulus"":""img/1to3/7.png"",""time"":766},{""stimulus"":""img/1to3/8.png"",""time"":875},{""stimulus"":""img/1to3/9.png"",""time"":985},{""stimulus"":""img/1to3/10.png"",""time"":1095},{""stimulus"":""img/1to3/11.png"",""time"":1204},{""stimulus"":""img/1to3/12.png"",""time"":1313}]","[]"
"","","","observe","60ed200c728ab881912aac11","bdp_cybrbll","Sun Mar 26 2023 23:53:50 GMT-0400 (Eastern Daylight Time)","549200","3","1","image-keyboard-response","85","172291","0.0-5.0-1.40","","null","","img/3to2/1.png","null","185","1564","0.5","0.5","3","1","",""
"","","","","60ed200c728ab881912aac11","bdp_cybrbll","Sun Mar 26 2023 23:53:50 GMT-0400 (Eastern Daylight Time)","549200","3","1","animation","86","173713","0.0-5.0-2.40","","","","","","185","","","","3","1","[{""stimulus"":""img/3to1/1.png"",""time"":109},{""stimulus"":""img/3to1/2.png"",""time"":218},{""stimulus"":""img/3to1/3.png"",""time"":329},{""stimulus"":""img/3to1/4.png"",""time"":437},{""stimulus"":""img/3to1/5.png"",""time"":547},{""stimulus"":""img/3to1/6.png"",""time"":656},{""stimulus"":""img/3to1/7.png"",""time"":765},{""stimulus"":""img/3to1/8.png"",""time"":874},{""stimulus"":""img/3to1/9.png"",""time"":983},{""stimulus"":""img/3to1/10.png"",""time"":1094},{""stimulus"":""img/3to1/11.png"",""time"":1203},{""stimulus"":""img/3to1/12.png"",""time"":1312}]","[]"
"","","","observe","60ed200c728ab881912aac11","bdp_cybrbll","Sun Mar 26 2023 23:53:50 GMT-0400 (Eastern Daylight Time)","549200","3","1","image-keyboard-response","87","174119","0.0-5.0-1.41","","null","","img/1to3/1.png","null","184","391","0.5","0.5","1","2","",""
"","","","","60ed200c728ab881912aac11","bdp_cybrbll","Sun Mar 26 2023 23:53:50 GMT-0400 (Eastern Daylight Time)","549200","3","1","animation","88","175541","0.0-5.0-2.41","","","","","","184","","","","1","2","[{""stimulus"":""img/1to2/1.png"",""time"":110},{""stimulus"":""img/1to2/2.png"",""time"":219},{""stimulus"":""img/1to2/3.png"",""time"":328},{""stimulus"":""img/1to2/4.png"",""time"":439},{""stimulus"":""img/1to2/5.png"",""time"":547},{""stimulus"":""img/1to2/6.png"",""time"":657},{""stimulus"":""img/1to2/7.png"",""time"":766},{""stimulus"":""img/1to2/8.png"",""time"":876},{""stimulus"":""img/1to2/9.png"",""time"":985},{""stimulus"":""img/1to2/10.png"",""time"":1095},{""stimulus"":""img/1to2/11.png"",""time"":1203},{""stimulus"":""img/1to2/12.png"",""time"":1313}]","[]"
"","","","choice","60ed200c728ab881912aac11","bdp_cybrbll","Sun Mar 26 2023 23:53:50 GMT-0400 (Eastern Daylight Time)","549200","3","1","image-keyboard-response","89","175634","0.0-5.0-1.42","","92","","img/2to1/1.png","2","183","685","0.5","0.5","2","3","",""
"","","","","60ed200c728ab881912aac11","bdp_cybrbll","Sun Mar 26 2023 23:53:50 GMT-0400 (Eastern Daylight Time)","549200","3","1","animation","90","177056","0.0-5.0-2.42","","","","","","183","","","","2","3","[{""stimulus"":""img/2to3/1.png"",""time"":110},{""stimulus"":""img/2to3/2.png"",""time"":219},{""stimulus"":""img/2to3/3.png"",""time"":330},{""stimulus"":""img/2to3/4.png"",""time"":438},{""stimulus"":""img/2to3/5.png"",""time"":547},{""stimulus"":""img/2to3/6.png"",""time"":657},{""stimulus"":""img/2to3/7.png"",""time"":766},{""stimulus"":""img/2to3/8.png"",""time"":875},{""stimulus"":""img/2to3/9.png"",""time"":984},{""stimulus"":""img/2to3/10.png"",""time"":1094},{""stimulus"":""img/2to3/11.png"",""time"":1203},{""stimulus"":""img/2to3/12.png"",""time"":1313}]","[]"
"","","","observe","60ed200c728ab881912aac11","bdp_cybrbll","Sun Mar 26 2023 23:53:50 GMT-0400 (Eastern Daylight Time)","549200","3","1","image-keyboard-response","91","177385","0.0-5.0-1.43","","null","","img/3to2/1.png","null","182","326","0.5","0.5","3","1","",""
"","","","","60ed200c728ab881912aac11","bdp_cybrbll","Sun Mar 26 2023 23:53:50 GMT-0400 (Eastern Daylight Time)","549200","3","1","animation","92","178806","0.0-5.0-2.43","","","","","","182","","","","3","1","[{""stimulus"":""img/3to1/1.png"",""time"":110},{""stimulus"":""img/3to1/2.png"",""time"":220},{""stimulus"":""img/3to1/3.png"",""time"":328},{""stimulus"":""img/3to1/4.png"",""time"":438},{""stimulus"":""img/3to1/5.png"",""time"":547},{""stimulus"":""img/3to1/6.png"",""time"":657},{""stimulus"":""img/3to1/7.png"",""time"":766},{""stimulus"":""img/3to1/8.png"",""time"":875},{""stimulus"":""img/3to1/9.png"",""time"":985},{""stimulus"":""img/3to1/10.png"",""time"":1094},{""stimulus"":""img/3to1/11.png"",""time"":1204},{""stimulus"":""img/3to1/12.png"",""time"":1313}]","[]"
"","","","observe","60ed200c728ab881912aac11","bdp_cybrbll","Sun Mar 26 2023 23:53:50 GMT-0400 (Eastern Daylight Time)","549200","3","1","image-keyboard-response","93","179166","0.0-5.0-1.44","","null","","img/1to3/1.png","null","181","345","0.5","0.5","1","2","",""
"","","","","60ed200c728ab881912aac11","bdp_cybrbll","Sun Mar 26 2023 23:53:50 GMT-0400 (Eastern Daylight Time)","549200","3","1","animation","94","180589","0.0-5.0-2.44","","","","","","181","","","","1","2","[{""stimulus"":""img/1to2/1.png"",""time"":108},{""stimulus"":""img/1to2/2.png"",""time"":218},{""stimulus"":""img/1to2/3.png"",""time"":326},{""stimulus"":""img/1to2/4.png"",""time"":436},{""stimulus"":""img/1to2/5.png"",""time"":546},{""stimulus"":""img/1to2/6.png"",""time"":655},{""stimulus"":""img/1to2/7.png"",""time"":765},{""stimulus"":""img/1to2/8.png"",""time"":873},{""stimulus"":""img/1to2/9.png"",""time"":983},{""stimulus"":""img/1to2/10.png"",""time"":1092},{""stimulus"":""img/1to2/11.png"",""time"":1202},{""stimulus"":""img/1to2/12.png"",""time"":1311}]","[]"
"","","","choice","60ed200c728ab881912aac11","bdp_cybrbll","Sun Mar 26 2023 23:53:50 GMT-0400 (Eastern Daylight Time)","549200","3","1","image-keyboard-response","95","183998","0.0-5.0-1.45","","3406","","img/2to1/1.png","1","180","291","0.5","0.5","2","1","",""
"","","","","60ed200c728ab881912aac11","bdp_cybrbll","Sun Mar 26 2023 23:53:50 GMT-0400 (Eastern Daylight Time)","549200","3","1","animation","96","185416","0.0-5.0-2.45","","","","","","180","","","","2","1","[{""stimulus"":""img/2to1/1.png"",""time"":106},{""stimulus"":""img/2to1/2.png"",""time"":215},{""stimulus"":""img/2to1/3.png"",""time"":324},{""stimulus"":""img/2to1/4.png"",""time"":433},{""stimulus"":""img/2to1/5.png"",""time"":543},{""stimulus"":""img/2to1/6.png"",""time"":652},{""stimulus"":""img/2to1/7.png"",""time"":761},{""stimulus"":""img/2to1/8.png"",""time"":870},{""stimulus"":""img/2to1/9.png"",""time"":980},{""stimulus"":""img/2to1/10.png"",""time"":1090},{""stimulus"":""img/2to1/11.png"",""time"":1199},{""stimulus"":""img/2to1/12.png"",""time"":1308}]","[]"
"","","","observe","60ed200c728ab881912aac11","bdp_cybrbll","Sun Mar 26 2023 23:53:50 GMT-0400 (Eastern Daylight Time)","549200","3","1","image-keyboard-response","97","185698","0.0-5.0-1.46","","null","","img/1to3/1.png","null","179","276","0.5","0.5","1","3","",""
"","","","","60ed200c728ab881912aac11","bdp_cybrbll","Sun Mar 26 2023 23:53:50 GMT-0400 (Eastern Daylight Time)","549200","3","1","animation","98","187120","0.0-5.0-2.46","","","","","","179","","","","1","3","[{""stimulus"":""img/1to3/1.png"",""time"":110},{""stimulus"":""img/1to3/2.png"",""time"":219},{""stimulus"":""img/1to3/3.png"",""time"":328},{""stimulus"":""img/1to3/4.png"",""time"":437},{""stimulus"":""img/1to3/5.png"",""time"":546},{""stimulus"":""img/1to3/6.png"",""time"":655},{""stimulus"":""img/1to3/7.png"",""time"":765},{""stimulus"":""img/1to3/8.png"",""time"":875},{""stimulus"":""img/1to3/9.png"",""time"":984},{""stimulus"":""img/1to3/10.png"",""time"":1093},{""stimulus"":""img/1to3/11.png"",""time"":1203},{""stimulus"":""img/1to3/12.png"",""time"":1312}]","[]"
"","","","observe","60ed200c728ab881912aac11","bdp_cybrbll","Sun Mar 26 2023 23:53:50 GMT-0400 (Eastern Daylight Time)","549200","3","1","image-keyboard-response","99","187900","0.0-5.0-1.47","","null","","img/3to2/1.png","null","178","778","0.5","0.5","3","2","",""
"","","","","60ed200c728ab881912aac11","bdp_cybrbll","Sun Mar 26 2023 23:53:50 GMT-0400 (Eastern Daylight Time)","549200","3","1","animation","100","189322","0.0-5.0-2.47","","","","","","178","","","","3","2","[{""stimulus"":""img/3to2/1.png"",""time"":109},{""stimulus"":""img/3to2/2.png"",""time"":218},{""stimulus"":""img/3to2/3.png"",""time"":327},{""stimulus"":""img/3to2/4.png"",""time"":437},{""stimulus"":""img/3to2/5.png"",""time"":546},{""stimulus"":""img/3to2/6.png"",""time"":655},{""stimulus"":""img/3to2/7.png"",""time"":764},{""stimulus"":""img/3to2/8.png"",""time"":874},{""stimulus"":""img/3to2/9.png"",""time"":983},{""stimulus"":""img/3to2/10.png"",""time"":1093},{""stimulus"":""img/3to2/11.png"",""time"":1202},{""stimulus"":""img/3to2/12.png"",""time"":1311}]","[]"
"","","","choice","60ed200c728ab881912aac11","bdp_cybrbll","Sun Mar 26 2023 23:53:50 GMT-0400 (Eastern Daylight Time)","549200","3","1","image-keyboard-response","101","189678","0.0-5.0-1.48","","354","","img/2to1/1.png","1","177","363","0.5","0.5","2","1","",""
"","","","","60ed200c728ab881912aac11","bdp_cybrbll","Sun Mar 26 2023 23:53:50 GMT-0400 (Eastern Daylight Time)","549200","3","1","animation","102","191104","0.0-5.0-2.48","","","","","","177","","","","2","1","[{""stimulus"":""img/2to1/1.png"",""time"":113},{""stimulus"":""img/2to1/2.png"",""time"":221},{""stimulus"":""img/2to1/3.png"",""time"":331},{""stimulus"":""img/2to1/4.png"",""time"":441},{""stimulus"":""img/2to1/5.png"",""time"":550},{""stimulus"":""img/2to1/6.png"",""time"":660},{""stimulus"":""img/2to1/7.png"",""time"":769},{""stimulus"":""img/2to1/8.png"",""time"":878},{""stimulus"":""img/2to1/9.png"",""time"":988},{""stimulus"":""img/2to1/10.png"",""time"":1096},{""stimulus"":""img/2to1/11.png"",""time"":1206},{""stimulus"":""img/2to1/12.png"",""time"":1316}]","[]"
"","","","observe","60ed200c728ab881912aac11","bdp_cybrbll","Sun Mar 26 2023 23:53:50 GMT-0400 (Eastern Daylight Time)","549200","3","1","image-keyboard-response","103","191682","0.0-5.0-1.49","","null","","img/1to3/1.png","null","176","567","0.5","0.5","1","2","",""
"","","","","60ed200c728ab881912aac11","bdp_cybrbll","Sun Mar 26 2023 23:53:50 GMT-0400 (Eastern Daylight Time)","549200","3","1","animation","104","193103","0.0-5.0-2.49","","","","","","176","","","","1","2","[{""stimulus"":""img/1to2/1.png"",""time"":110},{""stimulus"":""img/1to2/2.png"",""time"":219},{""stimulus"":""img/1to2/3.png"",""time"":329},{""stimulus"":""img/1to2/4.png"",""time"":438},{""stimulus"":""img/1to2/5.png"",""time"":547},{""stimulus"":""img/1to2/6.png"",""time"":656},{""stimulus"":""img/1to2/7.png"",""time"":766},{""stimulus"":""img/1to2/8.png"",""time"":875},{""stimulus"":""img/1to2/9.png"",""time"":985},{""stimulus"":""img/1to2/10.png"",""time"":1094},{""stimulus"":""img/1to2/11.png"",""time"":1204},{""stimulus"":""img/1to2/12.png"",""time"":1313}]","[]"
"","","","choice","60ed200c728ab881912aac11","bdp_cybrbll","Sun Mar 26 2023 23:53:50 GMT-0400 (Eastern Daylight Time)","549200","3","1","image-keyboard-response","105","194208","0.0-5.0-1.50","","1102","","img/2to1/1.png","2","175","130","0.5","0.5","2","3","",""
"","","","","60ed200c728ab881912aac11","bdp_cybrbll","Sun Mar 26 2023 23:53:50 GMT-0400 (Eastern Daylight Time)","549200","3","1","animation","106","195635","0.0-5.0-2.50","","","","","","175","","","","2","3","[{""stimulus"":""img/2to3/1.png"",""time"":113},{""stimulus"":""img/2to3/2.png"",""time"":222},{""stimulus"":""img/2to3/3.png"",""time"":332},{""stimulus"":""img/2to3/4.png"",""time"":441},{""stimulus"":""img/2to3/5.png"",""time"":550},{""stimulus"":""img/2to3/6.png"",""time"":660},{""stimulus"":""img/2to3/7.png"",""time"":769},{""stimulus"":""img/2to3/8.png"",""time"":884},{""stimulus"":""img/2to3/9.png"",""time"":988},{""stimulus"":""img/2to3/10.png"",""time"":1097},{""stimulus"":""img/2to3/11.png"",""time"":1207},{""stimulus"":""img/2to3/12.png"",""time"":1315}]","[]"
"","","","observe","60ed200c728ab881912aac11","bdp_cybrbll","Sun Mar 26 2023 23:53:50 GMT-0400 (Eastern Daylight Time)","549200","3","1","image-keyboard-response","107","196135","0.0-5.0-1.51","","null","","img/3to2/1.png","null","174","490","0.5","0.5","3","1","",""
"","","","","60ed200c728ab881912aac11","bdp_cybrbll","Sun Mar 26 2023 23:53:50 GMT-0400 (Eastern Daylight Time)","549200","3","1","animation","108","197557","0.0-5.0-2.51","","","","","","174","","","","3","1","[{""stimulus"":""img/3to1/1.png"",""time"":110},{""stimulus"":""img/3to1/2.png"",""time"":219},{""stimulus"":""img/3to1/3.png"",""time"":328},{""stimulus"":""img/3to1/4.png"",""time"":437},{""stimulus"":""img/3to1/5.png"",""time"":547},{""stimulus"":""img/3to1/6.png"",""time"":657},{""stimulus"":""img/3to1/7.png"",""time"":766},{""stimulus"":""img/3to1/8.png"",""time"":875},{""stimulus"":""img/3to1/9.png"",""time"":985},{""stimulus"":""img/3to1/10.png"",""time"":1094},{""stimulus"":""img/3to1/11.png"",""time"":1204},{""stimulus"":""img/3to1/12.png"",""time"":1312}]","[]"
"","","","observe","60ed200c728ab881912aac11","bdp_cybrbll","Sun Mar 26 2023 23:53:50 GMT-0400 (Eastern Daylight Time)","549200","3","1","image-keyboard-response","109","198370","0.0-5.0-1.52","","null","","img/1to3/1.png","null","173","800","0.5","0.5","1","3","",""
"","","","","60ed200c728ab881912aac11","bdp_cybrbll","Sun Mar 26 2023 23:53:50 GMT-0400 (Eastern Daylight Time)","549200","3","1","animation","110","199791","0.0-5.0-2.52","","","","","","173","","","","1","3","[{""stimulus"":""img/1to3/1.png"",""time"":109},{""stimulus"":""img/1to3/2.png"",""time"":217},{""stimulus"":""img/1to3/3.png"",""time"":328},{""stimulus"":""img/1to3/4.png"",""time"":436},{""stimulus"":""img/1to3/5.png"",""time"":546},{""stimulus"":""img/1to3/6.png"",""time"":655},{""stimulus"":""img/1to3/7.png"",""time"":765},{""stimulus"":""img/1to3/8.png"",""time"":874},{""stimulus"":""img/1to3/9.png"",""time"":983},{""stimulus"":""img/1to3/10.png"",""time"":1092},{""stimulus"":""img/1to3/11.png"",""time"":1202},{""stimulus"":""img/1to3/12.png"",""time"":1312}]","[]"
"","","","observe","60ed200c728ab881912aac11","bdp_cybrbll","Sun Mar 26 2023 23:53:50 GMT-0400 (Eastern Daylight Time)","549200","3","1","image-keyboard-response","111","200182","0.0-5.0-1.53","","null","","img/3to2/1.png","null","172","382","0.5","0.5","3","1","",""
"","","","","60ed200c728ab881912aac11","bdp_cybrbll","Sun Mar 26 2023 23:53:50 GMT-0400 (Eastern Daylight Time)","549200","3","1","animation","112","201603","0.0-5.0-2.53","","","","","","172","","","","3","1","[{""stimulus"":""img/3to1/1.png"",""time"":110},{""stimulus"":""img/3to1/2.png"",""time"":219},{""stimulus"":""img/3to1/3.png"",""time"":328},{""stimulus"":""img/3to1/4.png"",""time"":438},{""stimulus"":""img/3to1/5.png"",""time"":547},{""stimulus"":""img/3to1/6.png"",""time"":656},{""stimulus"":""img/3to1/7.png"",""time"":767},{""stimulus"":""img/3to1/8.png"",""time"":875},{""stimulus"":""img/3to1/9.png"",""time"":985},{""stimulus"":""img/3to1/10.png"",""time"":1094},{""stimulus"":""img/3to1/11.png"",""time"":1203},{""stimulus"":""img/3to1/12.png"",""time"":1313}]","[]"
"","","","observe","60ed200c728ab881912aac11","bdp_cybrbll","Sun Mar 26 2023 23:53:50 GMT-0400 (Eastern Daylight Time)","549200","3","1","image-keyboard-response","113","202494","0.0-5.0-1.54","","null","","img/1to3/1.png","null","171","881","0.5","0.5","1","3","",""
"","","","","60ed200c728ab881912aac11","bdp_cybrbll","Sun Mar 26 2023 23:53:50 GMT-0400 (Eastern Daylight Time)","549200","3","1","animation","114","203916","0.0-5.0-2.54","","","","","","171","","","","1","3","[{""stimulus"":""img/1to3/1.png"",""time"":111},{""stimulus"":""img/1to3/2.png"",""time"":220},{""stimulus"":""img/1to3/3.png"",""time"":329},{""stimulus"":""img/1to3/4.png"",""time"":438},{""stimulus"":""img/1to3/5.png"",""time"":548},{""stimulus"":""img/1to3/6.png"",""time"":657},{""stimulus"":""img/1to3/7.png"",""time"":766},{""stimulus"":""img/1to3/8.png"",""time"":876},{""stimulus"":""img/1to3/9.png"",""time"":985},{""stimulus"":""img/1to3/10.png"",""time"":1095},{""stimulus"":""img/1to3/11.png"",""time"":1203},{""stimulus"":""img/1to3/12.png"",""time"":1313}]","[]"
"","","","observe","60ed200c728ab881912aac11","bdp_cybrbll","Sun Mar 26 2023 23:53:50 GMT-0400 (Eastern Daylight Time)","549200","3","1","image-keyboard-response","115","204620","0.0-5.0-1.55","","null","","img/3to2/1.png","null","170","687","0.5","0.5","3","1","",""
"","","","","60ed200c728ab881912aac11","bdp_cybrbll","Sun Mar 26 2023 23:53:50 GMT-0400 (Eastern Daylight Time)","549200","3","1","animation","116","206041","0.0-5.0-2.55","","","","","","170","","","","3","1","[{""stimulus"":""img/3to1/1.png"",""time"":109},{""stimulus"":""img/3to1/2.png"",""time"":218},{""stimulus"":""img/3to1/3.png"",""time"":327},{""stimulus"":""img/3to1/4.png"",""time"":437},{""stimulus"":""img/3to1/5.png"",""time"":546},{""stimulus"":""img/3to1/6.png"",""time"":655},{""stimulus"":""img/3to1/7.png"",""time"":764},{""stimulus"":""img/3to1/8.png"",""time"":873},{""stimulus"":""img/3to1/9.png"",""time"":984},{""stimulus"":""img/3to1/10.png"",""time"":1092},{""stimulus"":""img/3to1/11.png"",""time"":1202},{""stimulus"":""img/3to1/12.png"",""time"":1311}]","[]"
"","","","observe","60ed200c728ab881912aac11","bdp_cybrbll","Sun Mar 26 2023 23:53:50 GMT-0400 (Eastern Daylight Time)","549200","3","1","image-keyboard-response","117","206369","0.0-5.0-1.56","","null","","img/1to3/1.png","null","169","311","0.5","0.5","1","2","",""
"","","","","60ed200c728ab881912aac11","bdp_cybrbll","Sun Mar 26 2023 23:53:50 GMT-0400 (Eastern Daylight Time)","549200","3","1","animation","118","207791","0.0-5.0-2.56","","","","","","169","","","","1","2","[{""stimulus"":""img/1to2/1.png"",""time"":110},{""stimulus"":""img/1to2/2.png"",""time"":220},{""stimulus"":""img/1to2/3.png"",""time"":329},{""stimulus"":""img/1to2/4.png"",""time"":439},{""stimulus"":""img/1to2/5.png"",""time"":547},{""stimulus"":""img/1to2/6.png"",""time"":657},{""stimulus"":""img/1to2/7.png"",""time"":767},{""stimulus"":""img/1to2/8.png"",""time"":876},{""stimulus"":""img/1to2/9.png"",""time"":986},{""stimulus"":""img/1to2/10.png"",""time"":1094},{""stimulus"":""img/1to2/11.png"",""time"":1204},{""stimulus"":""img/1to2/12.png"",""time"":1313}]","[]"
"","","","choice","60ed200c728ab881912aac11","bdp_cybrbll","Sun Mar 26 2023 23:53:50 GMT-0400 (Eastern Daylight Time)","549200","3","1","image-keyboard-response","119","208778","0.0-5.0-1.57","","984","","img/2to1/1.png","2","168","791","0.5","0.5","2","3","",""
"","","","","60ed200c728ab881912aac11","bdp_cybrbll","Sun Mar 26 2023 23:53:50 GMT-0400 (Eastern Daylight Time)","549200","3","1","animation","120","210197","0.0-5.0-2.57","","","","","","168","","","","2","3","[{""stimulus"":""img/2to3/1.png"",""time"":110},{""stimulus"":""img/2to3/2.png"",""time"":217},{""stimulus"":""img/2to3/3.png"",""time"":326},{""stimulus"":""img/2to3/4.png"",""time"":436},{""stimulus"":""img/2to3/5.png"",""time"":545},{""stimulus"":""img/2to3/6.png"",""time"":654},{""stimulus"":""img/2to3/7.png"",""time"":763},{""stimulus"":""img/2to3/8.png"",""time"":873},{""stimulus"":""img/2to3/9.png"",""time"":982},{""stimulus"":""img/2to3/10.png"",""time"":1093},{""stimulus"":""img/2to3/11.png"",""time"":1202},{""stimulus"":""img/2to3/12.png"",""time"":1316}]","[]"
"","","","observe","60ed200c728ab881912aac11","bdp_cybrbll","Sun Mar 26 2023 23:53:50 GMT-0400 (Eastern Daylight Time)","549200","3","1","image-keyboard-response","121","210775","0.0-5.0-1.58","","null","","img/3to2/1.png","null","167","571","0.5","0.5","3","1","",""
"","","","","60ed200c728ab881912aac11","bdp_cybrbll","Sun Mar 26 2023 23:53:50 GMT-0400 (Eastern Daylight Time)","549200","3","1","animation","122","212197","0.0-5.0-2.58","","","","","","167","","","","3","1","[{""stimulus"":""img/3to1/1.png"",""time"":109},{""stimulus"":""img/3to1/2.png"",""time"":219},{""stimulus"":""img/3to1/3.png"",""time"":329},{""stimulus"":""img/3to1/4.png"",""time"":437},{""stimulus"":""img/3to1/5.png"",""time"":547},{""stimulus"":""img/3to1/6.png"",""time"":656},{""stimulus"":""img/3to1/7.png"",""time"":765},{""stimulus"":""img/3to1/8.png"",""time"":875},{""stimulus"":""img/3to1/9.png"",""time"":984},{""stimulus"":""img/3to1/10.png"",""time"":1094},{""stimulus"":""img/3to1/11.png"",""time"":1203},{""stimulus"":""img/3to1/12.png"",""time"":1313}]","[]"
"","","","observe","60ed200c728ab881912aac11","bdp_cybrbll","Sun Mar 26 2023 23:53:50 GMT-0400 (Eastern Daylight Time)","549200","3","1","image-keyboard-response","123","212760","0.0-5.0-1.59","","null","","img/1to3/1.png","null","166","552","0.5","0.5","1","3","",""
"","","","","60ed200c728ab881912aac11","bdp_cybrbll","Sun Mar 26 2023 23:53:50 GMT-0400 (Eastern Daylight Time)","549200","3","1","animation","124","214181","0.0-5.0-2.59","","","","","","166","","","","1","3","[{""stimulus"":""img/1to3/1.png"",""time"":110},{""stimulus"":""img/1to3/2.png"",""time"":219},{""stimulus"":""img/1to3/3.png"",""time"":328},{""stimulus"":""img/1to3/4.png"",""time"":437},{""stimulus"":""img/1to3/5.png"",""time"":547},{""stimulus"":""img/1to3/6.png"",""time"":658},{""stimulus"":""img/1to3/7.png"",""time"":766},{""stimulus"":""img/1to3/8.png"",""time"":876},{""stimulus"":""img/1to3/9.png"",""time"":985},{""stimulus"":""img/1to3/10.png"",""time"":1094},{""stimulus"":""img/1to3/11.png"",""time"":1203},{""stimulus"":""img/1to3/12.png"",""time"":1312}]","[]"
"","","","observe","60ed200c728ab881912aac11","bdp_cybrbll","Sun Mar 26 2023 23:53:50 GMT-0400 (Eastern Daylight Time)","549200","3","1","image-keyboard-response","125","214744","0.0-5.0-1.60","","null","","img/3to2/1.png","null","165","555","0.5","0.5","3","1","",""
"","","","","60ed200c728ab881912aac11","bdp_cybrbll","Sun Mar 26 2023 23:53:50 GMT-0400 (Eastern Daylight Time)","549200","3","1","animation","126","216166","0.0-5.0-2.60","","","","","","165","","","","3","1","[{""stimulus"":""img/3to1/1.png"",""time"":109},{""stimulus"":""img/3to1/2.png"",""time"":218},{""stimulus"":""img/3to1/3.png"",""time"":327},{""stimulus"":""img/3to1/4.png"",""time"":438},{""stimulus"":""img/3to1/5.png"",""time"":547},{""stimulus"":""img/3to1/6.png"",""time"":656},{""stimulus"":""img/3to1/7.png"",""time"":766},{""stimulus"":""img/3to1/8.png"",""time"":875},{""stimulus"":""img/3to1/9.png"",""time"":984},{""stimulus"":""img/3to1/10.png"",""time"":1093},{""stimulus"":""img/3to1/11.png"",""time"":1202},{""stimulus"":""img/3to1/12.png"",""time"":1314}]","[]"
"","","","observe","60ed200c728ab881912aac11","bdp_cybrbll","Sun Mar 26 2023 23:53:50 GMT-0400 (Eastern Daylight Time)","549200","3","1","image-keyboard-response","127","216868","0.0-5.0-1.61","","null","","img/1to3/1.png","null","164","686","0.5","0.5","1","2","",""
"","","","","60ed200c728ab881912aac11","bdp_cybrbll","Sun Mar 26 2023 23:53:50 GMT-0400 (Eastern Daylight Time)","549200","3","1","animation","128","218291","0.0-5.0-2.61","","","","","","164","","","","1","2","[{""stimulus"":""img/1to2/1.png"",""time"":111},{""stimulus"":""img/1to2/2.png"",""time"":220},{""stimulus"":""img/1to2/3.png"",""time"":330},{""stimulus"":""img/1to2/4.png"",""time"":438},{""stimulus"":""img/1to2/5.png"",""time"":547},{""stimulus"":""img/1to2/6.png"",""time"":657},{""stimulus"":""img/1to2/7.png"",""time"":766},{""stimulus"":""img/1to2/8.png"",""time"":876},{""stimulus"":""img/1to2/9.png"",""time"":985},{""stimulus"":""img/1to2/10.png"",""time"":1095},{""stimulus"":""img/1to2/11.png"",""time"":1204},{""stimulus"":""img/1to2/12.png"",""time"":1313}]","[]"
"","","","choice","60ed200c728ab881912aac11","bdp_cybrbll","Sun Mar 26 2023 23:53:50 GMT-0400 (Eastern Daylight Time)","549200","3","1","image-keyboard-response","129","218882","0.0-5.0-1.62","","589","","img/2to1/1.png","2","163","463","0.5","0.5","2","3","",""
"","","","","60ed200c728ab881912aac11","bdp_cybrbll","Sun Mar 26 2023 23:53:50 GMT-0400 (Eastern Daylight Time)","549200","3","1","animation","130","220307","0.0-5.0-2.62","","","","","","163","","","","2","3","[{""stimulus"":""img/2to3/1.png"",""time"":113},{""stimulus"":""img/2to3/2.png"",""time"":223},{""stimulus"":""img/2to3/3.png"",""time"":335},{""stimulus"":""img/2to3/4.png"",""time"":441},{""stimulus"":""img/2to3/5.png"",""time"":550},{""stimulus"":""img/2to3/6.png"",""time"":660},{""stimulus"":""img/2to3/7.png"",""time"":769},{""stimulus"":""img/2to3/8.png"",""time"":878},{""stimulus"":""img/2to3/9.png"",""time"":987},{""stimulus"":""img/2to3/10.png"",""time"":1097},{""stimulus"":""img/2to3/11.png"",""time"":1212},{""stimulus"":""img/2to3/12.png"",""time"":1316}]","[]"
"","","","observe","60ed200c728ab881912aac11","bdp_cybrbll","Sun Mar 26 2023 23:53:50 GMT-0400 (Eastern Daylight Time)","549200","3","1","image-keyboard-response","131","220760","0.0-5.0-1.63","","null","","img/3to2/1.png","null","162","448","0.5","0.5","3","1","",""
"","","","","60ed200c728ab881912aac11","bdp_cybrbll","Sun Mar 26 2023 23:53:50 GMT-0400 (Eastern Daylight Time)","549200","3","1","animation","132","222182","0.0-5.0-2.63","","","","","","162","","","","3","1","[{""stimulus"":""img/3to1/1.png"",""time"":109},{""stimulus"":""img/3to1/2.png"",""time"":218},{""stimulus"":""img/3to1/3.png"",""time"":328},{""stimulus"":""img/3to1/4.png"",""time"":437},{""stimulus"":""img/3to1/5.png"",""time"":546},{""stimulus"":""img/3to1/6.png"",""time"":655},{""stimulus"":""img/3to1/7.png"",""time"":765},{""stimulus"":""img/3to1/8.png"",""time"":875},{""stimulus"":""img/3to1/9.png"",""time"":983},{""stimulus"":""img/3to1/10.png"",""time"":1094},{""stimulus"":""img/3to1/11.png"",""time"":1203},{""stimulus"":""img/3to1/12.png"",""time"":1312}]","[]"
"","","","observe","60ed200c728ab881912aac11","bdp_cybrbll","Sun Mar 26 2023 23:53:50 GMT-0400 (Eastern Daylight Time)","549200","3","1","image-keyboard-response","133","222525","0.0-5.0-1.64","","null","","img/1to3/1.png","null","161","337","0.5","0.5","1","2","",""
"","","","","60ed200c728ab881912aac11","bdp_cybrbll","Sun Mar 26 2023 23:53:50 GMT-0400 (Eastern Daylight Time)","549200","3","1","animation","134","223947","0.0-5.0-2.64","","","","","","161","","","","1","2","[{""stimulus"":""img/1to2/1.png"",""time"":110},{""stimulus"":""img/1to2/2.png"",""time"":219},{""stimulus"":""img/1to2/3.png"",""time"":329},{""stimulus"":""img/1to2/4.png"",""time"":437},{""stimulus"":""img/1to2/5.png"",""time"":547},{""stimulus"":""img/1to2/6.png"",""time"":656},{""stimulus"":""img/1to2/7.png"",""time"":766},{""stimulus"":""img/1to2/8.png"",""time"":875},{""stimulus"":""img/1to2/9.png"",""time"":985},{""stimulus"":""img/1to2/10.png"",""time"":1094},{""stimulus"":""img/1to2/11.png"",""time"":1203},{""stimulus"":""img/1to2/12.png"",""time"":1312}]","[]"
"","","","choice","60ed200c728ab881912aac11","bdp_cybrbll","Sun Mar 26 2023 23:53:50 GMT-0400 (Eastern Daylight Time)","549200","3","1","image-keyboard-response","135","224966","0.0-5.0-1.65","","1016","","img/2to1/1.png","2","160","544","0.5","0.5","2","3","",""
"","","","","60ed200c728ab881912aac11","bdp_cybrbll","Sun Mar 26 2023 23:53:50 GMT-0400 (Eastern Daylight Time)","549200","3","1","animation","136","226385","0.0-5.0-2.65","","","","","","160","","","","2","3","[{""stimulus"":""img/2to3/1.png"",""time"":107},{""stimulus"":""img/2to3/2.png"",""time"":216},{""stimulus"":""img/2to3/3.png"",""time"":326},{""stimulus"":""img/2to3/4.png"",""time"":434},{""stimulus"":""img/2to3/5.png"",""time"":544},{""stimulus"":""img/2to3/6.png"",""time"":653},{""stimulus"":""img/2to3/7.png"",""time"":763},{""stimulus"":""img/2to3/8.png"",""time"":873},{""stimulus"":""img/2to3/9.png"",""time"":982},{""stimulus"":""img/2to3/10.png"",""time"":1091},{""stimulus"":""img/2to3/11.png"",""time"":1200},{""stimulus"":""img/2to3/12.png"",""time"":1310}]","[]"
"","","","observe","60ed200c728ab881912aac11","bdp_cybrbll","Sun Mar 26 2023 23:53:50 GMT-0400 (Eastern Daylight Time)","549200","3","1","image-keyboard-response","137","227963","0.0-5.0-1.66","","null","","img/3to2/1.png","null","159","1562","0.5","0.5","3","1","",""
"","","","","60ed200c728ab881912aac11","bdp_cybrbll","Sun Mar 26 2023 23:53:50 GMT-0400 (Eastern Daylight Time)","549200","3","1","animation","138","229384","0.0-5.0-2.66","","","","","","159","","","","3","1","[{""stimulus"":""img/3to1/1.png"",""time"":110},{""stimulus"":""img/3to1/2.png"",""time"":219},{""stimulus"":""img/3to1/3.png"",""time"":329},{""stimulus"":""img/3to1/4.png"",""time"":438},{""stimulus"":""img/3to1/5.png"",""time"":547},{""stimulus"":""img/3to1/6.png"",""time"":657},{""stimulus"":""img/3to1/7.png"",""time"":766},{""stimulus"":""img/3to1/8.png"",""time"":875},{""stimulus"":""img/3to1/9.png"",""time"":985},{""stimulus"":""img/3to1/10.png"",""time"":1094},{""stimulus"":""img/3to1/11.png"",""time"":1204},{""stimulus"":""img/3to1/12.png"",""time"":1313}]","[]"
"","","","observe","60ed200c728ab881912aac11","bdp_cybrbll","Sun Mar 26 2023 23:53:50 GMT-0400 (Eastern Daylight Time)","549200","3","1","image-keyboard-response","139","230463","0.0-5.0-1.67","","null","","img/1to3/1.png","null","158","1062","0.5","0.5","1","2","",""
"","","","","60ed200c728ab881912aac11","bdp_cybrbll","Sun Mar 26 2023 23:53:50 GMT-0400 (Eastern Daylight Time)","549200","3","1","animation","140","231884","0.0-5.0-2.67","","","","","","158","","","","1","2","[{""stimulus"":""img/1to2/1.png"",""time"":110},{""stimulus"":""img/1to2/2.png"",""time"":220},{""stimulus"":""img/1to2/3.png"",""time"":328},{""stimulus"":""img/1to2/4.png"",""time"":438},{""stimulus"":""img/1to2/5.png"",""time"":547},{""stimulus"":""img/1to2/6.png"",""time"":656},{""stimulus"":""img/1to2/7.png"",""time"":766},{""stimulus"":""img/1to2/8.png"",""time"":875},{""stimulus"":""img/1to2/9.png"",""time"":985},{""stimulus"":""img/1to2/10.png"",""time"":1094},{""stimulus"":""img/1to2/11.png"",""time"":1203},{""stimulus"":""img/1to2/12.png"",""time"":1313}]","[]"
"","","","choice","60ed200c728ab881912aac11","bdp_cybrbll","Sun Mar 26 2023 23:53:50 GMT-0400 (Eastern Daylight Time)","549200","3","1","image-keyboard-response","141","232557","0.0-5.0-1.68","","670","","img/2to1/1.png","2","157","734","0.5","0.5","2","3","",""
"","","","","60ed200c728ab881912aac11","bdp_cybrbll","Sun Mar 26 2023 23:53:50 GMT-0400 (Eastern Daylight Time)","549200","3","1","animation","142","233979","0.0-5.0-2.68","","","","","","157","","","","2","3","[{""stimulus"":""img/2to3/1.png"",""time"":110},{""stimulus"":""img/2to3/2.png"",""time"":219},{""stimulus"":""img/2to3/3.png"",""time"":328},{""stimulus"":""img/2to3/4.png"",""time"":437},{""stimulus"":""img/2to3/5.png"",""time"":547},{""stimulus"":""img/2to3/6.png"",""time"":656},{""stimulus"":""img/2to3/7.png"",""time"":765},{""stimulus"":""img/2to3/8.png"",""time"":874},{""stimulus"":""img/2to3/9.png"",""time"":984},{""stimulus"":""img/2to3/10.png"",""time"":1093},{""stimulus"":""img/2to3/11.png"",""time"":1204},{""stimulus"":""img/2to3/12.png"",""time"":1313}]","[]"
"","","","observe","60ed200c728ab881912aac11","bdp_cybrbll","Sun Mar 26 2023 23:53:50 GMT-0400 (Eastern Daylight Time)","549200","3","1","image-keyboard-response","143","234573","0.0-5.0-1.69","","null","","img/3to2/1.png","null","156","579","0.5","0.5","3","2","",""
"","","","","60ed200c728ab881912aac11","bdp_cybrbll","Sun Mar 26 2023 23:53:50 GMT-0400 (Eastern Daylight Time)","549200","3","1","animation","144","235994","0.0-5.0-2.69","","","","","","156","","","","3","2","[{""stimulus"":""img/3to2/1.png"",""time"":110},{""stimulus"":""img/3to2/2.png"",""time"":218},{""stimulus"":""img/3to2/3.png"",""time"":328},{""stimulus"":""img/3to2/4.png"",""time"":437},{""stimulus"":""img/3to2/5.png"",""time"":547},{""stimulus"":""img/3to2/6.png"",""time"":656},{""stimulus"":""img/3to2/7.png"",""time"":765},{""stimulus"":""img/3to2/8.png"",""time"":874},{""stimulus"":""img/3to2/9.png"",""time"":984},{""stimulus"":""img/3to2/10.png"",""time"":1093},{""stimulus"":""img/3to2/11.png"",""time"":1203},{""stimulus"":""img/3to2/12.png"",""time"":1313}]","[]"
"","","","choice","60ed200c728ab881912aac11","bdp_cybrbll","Sun Mar 26 2023 23:53:50 GMT-0400 (Eastern Daylight Time)","549200","3","1","image-keyboard-response","145","236547","0.0-5.0-1.70","","551","","img/2to1/1.png","1","155","644","0.5","0.5","2","1","",""
"","","","","60ed200c728ab881912aac11","bdp_cybrbll","Sun Mar 26 2023 23:53:50 GMT-0400 (Eastern Daylight Time)","549200","3","1","animation","146","237963","0.0-5.0-2.70","","","","","","155","","","","2","1","[{""stimulus"":""img/2to1/1.png"",""time"":104},{""stimulus"":""img/2to1/2.png"",""time"":212},{""stimulus"":""img/2to1/3.png"",""time"":322},{""stimulus"":""img/2to1/4.png"",""time"":431},{""stimulus"":""img/2to1/5.png"",""time"":541},{""stimulus"":""img/2to1/6.png"",""time"":650},{""stimulus"":""img/2to1/7.png"",""time"":759},{""stimulus"":""img/2to1/8.png"",""time"":869},{""stimulus"":""img/2to1/9.png"",""time"":978},{""stimulus"":""img/2to1/10.png"",""time"":1087},{""stimulus"":""img/2to1/11.png"",""time"":1197},{""stimulus"":""img/2to1/12.png"",""time"":1306}]","[]"
"","","","observe","60ed200c728ab881912aac11","bdp_cybrbll","Sun Mar 26 2023 23:53:50 GMT-0400 (Eastern Daylight Time)","549200","3","1","image-keyboard-response","147","238197","0.0-5.0-1.71","","null","","img/1to3/1.png","null","154","220","0.5","0.5","1","2","",""
"","","","","60ed200c728ab881912aac11","bdp_cybrbll","Sun Mar 26 2023 23:53:50 GMT-0400 (Eastern Daylight Time)","549200","3","1","animation","148","239619","0.0-5.0-2.71","","","","","","154","","","","1","2","[{""stimulus"":""img/1to2/1.png"",""time"":110},{""stimulus"":""img/1to2/2.png"",""time"":219},{""stimulus"":""img/1to2/3.png"",""time"":328},{""stimulus"":""img/1to2/4.png"",""time"":437},{""stimulus"":""img/1to2/5.png"",""time"":547},{""stimulus"":""img/1to2/6.png"",""time"":656},{""stimulus"":""img/1to2/7.png"",""time"":765},{""stimulus"":""img/1to2/8.png"",""time"":874},{""stimulus"":""img/1to2/9.png"",""time"":985},{""stimulus"":""img/1to2/10.png"",""time"":1094},{""stimulus"":""img/1to2/11.png"",""time"":1203},{""stimulus"":""img/1to2/12.png"",""time"":1312}]","[]"
"","","","choice","60ed200c728ab881912aac11","bdp_cybrbll","Sun Mar 26 2023 23:53:50 GMT-0400 (Eastern Daylight Time)","549200","3","1","image-keyboard-response","149","240055","0.0-5.0-1.72","","431","","img/2to1/1.png","2","153","433","0.5","0.5","2","3","",""
"","","","","60ed200c728ab881912aac11","bdp_cybrbll","Sun Mar 26 2023 23:53:50 GMT-0400 (Eastern Daylight Time)","549200","3","1","animation","150","241479","0.0-5.0-2.72","","","","","","153","","","","2","3","[{""stimulus"":""img/2to3/1.png"",""time"":112},{""stimulus"":""img/2to3/2.png"",""time"":221},{""stimulus"":""img/2to3/3.png"",""time"":330},{""stimulus"":""img/2to3/4.png"",""time"":440},{""stimulus"":""img/2to3/5.png"",""time"":549},{""stimulus"":""img/2to3/6.png"",""time"":660},{""stimulus"":""img/2to3/7.png"",""time"":768},{""stimulus"":""img/2to3/8.png"",""time"":877},{""stimulus"":""img/2to3/9.png"",""time"":987},{""stimulus"":""img/2to3/10.png"",""time"":1096},{""stimulus"":""img/2to3/11.png"",""time"":1205},{""stimulus"":""img/2to3/12.png"",""time"":1315}]","[]"
"","","","observe","60ed200c728ab881912aac11","bdp_cybrbll","Sun Mar 26 2023 23:53:50 GMT-0400 (Eastern Daylight Time)","549200","3","1","image-keyboard-response","151","241916","0.0-5.0-1.73","","null","","img/3to2/1.png","null","152","433","0.5","0.5","3","2","",""
"","","","","60ed200c728ab881912aac11","bdp_cybrbll","Sun Mar 26 2023 23:53:50 GMT-0400 (Eastern Daylight Time)","549200","3","1","animation","152","243338","0.0-5.0-2.73","","","","","","152","","","","3","2","[{""stimulus"":""img/3to2/1.png"",""time"":109},{""stimulus"":""img/3to2/2.png"",""time"":218},{""stimulus"":""img/3to2/3.png"",""time"":328},{""stimulus"":""img/3to2/4.png"",""time"":438},{""stimulus"":""img/3to2/5.png"",""time"":546},{""stimulus"":""img/3to2/6.png"",""time"":656},{""stimulus"":""img/3to2/7.png"",""time"":766},{""stimulus"":""img/3to2/8.png"",""time"":875},{""stimulus"":""img/3to2/9.png"",""time"":984},{""stimulus"":""img/3to2/10.png"",""time"":1094},{""stimulus"":""img/3to2/11.png"",""time"":1203},{""stimulus"":""img/3to2/12.png"",""time"":1313}]","[]"
"","","","choice","60ed200c728ab881912aac11","bdp_cybrbll","Sun Mar 26 2023 23:53:50 GMT-0400 (Eastern Daylight Time)","549200","3","1","image-keyboard-response","153","245540","0.0-5.0-1.74","","2199","","img/2to1/1.png","1","151","764","0.5","0.5","2","1","",""
"","","","","60ed200c728ab881912aac11","bdp_cybrbll","Sun Mar 26 2023 23:53:50 GMT-0400 (Eastern Daylight Time)","549200","3","1","animation","154","246963","0.0-5.0-2.74","","","","","","151","","","","2","1","[{""stimulus"":""img/2to1/1.png"",""time"":111},{""stimulus"":""img/2to1/2.png"",""time"":221},{""stimulus"":""img/2to1/3.png"",""time"":330},{""stimulus"":""img/2to1/4.png"",""time"":439},{""stimulus"":""img/2to1/5.png"",""time"":555},{""stimulus"":""img/2to1/6.png"",""time"":658},{""stimulus"":""img/2to1/7.png"",""time"":767},{""stimulus"":""img/2to1/8.png"",""time"":876},{""stimulus"":""img/2to1/9.png"",""time"":985},{""stimulus"":""img/2to1/10.png"",""time"":1095},{""stimulus"":""img/2to1/11.png"",""time"":1205},{""stimulus"":""img/2to1/12.png"",""time"":1315}]","[]"
"","","","observe","60ed200c728ab881912aac11","bdp_cybrbll","Sun Mar 26 2023 23:53:50 GMT-0400 (Eastern Daylight Time)","549200","3","1","image-keyboard-response","155","247260","0.0-5.0-1.75","","null","","img/1to3/1.png","null","150","283","0.5","0.5","1","3","",""
"","","","","60ed200c728ab881912aac11","bdp_cybrbll","Sun Mar 26 2023 23:53:50 GMT-0400 (Eastern Daylight Time)","549200","3","1","animation","156","248682","0.0-5.0-2.75","","","","","","150","","","","1","3","[{""stimulus"":""img/1to3/1.png"",""time"":110},{""stimulus"":""img/1to3/2.png"",""time"":219},{""stimulus"":""img/1to3/3.png"",""time"":328},{""stimulus"":""img/1to3/4.png"",""time"":438},{""stimulus"":""img/1to3/5.png"",""time"":548},{""stimulus"":""img/1to3/6.png"",""time"":656},{""stimulus"":""img/1to3/7.png"",""time"":766},{""stimulus"":""img/1to3/8.png"",""time"":876},{""stimulus"":""img/1to3/9.png"",""time"":985},{""stimulus"":""img/1to3/10.png"",""time"":1094},{""stimulus"":""img/1to3/11.png"",""time"":1204},{""stimulus"":""img/1to3/12.png"",""time"":1312}]","[]"
"","","","observe","60ed200c728ab881912aac11","bdp_cybrbll","Sun Mar 26 2023 23:53:50 GMT-0400 (Eastern Daylight Time)","549200","3","1","image-keyboard-response","157","248916","0.0-5.0-1.76","","null","","img/3to2/1.png","null","149","229","0.5","0.1","3","1","",""
"","","","","60ed200c728ab881912aac11","bdp_cybrbll","Sun Mar 26 2023 23:53:50 GMT-0400 (Eastern Daylight Time)","549200","3","1","animation","158","250339","0.0-5.0-2.76","","","","","","149","","","","3","1","[{""stimulus"":""img/3to1/1.png"",""time"":110},{""stimulus"":""img/3to1/2.png"",""time"":219},{""stimulus"":""img/3to1/3.png"",""time"":329},{""stimulus"":""img/3to1/4.png"",""time"":438},{""stimulus"":""img/3to1/5.png"",""time"":548},{""stimulus"":""img/3to1/6.png"",""time"":656},{""stimulus"":""img/3to1/7.png"",""time"":766},{""stimulus"":""img/3to1/8.png"",""time"":875},{""stimulus"":""img/3to1/9.png"",""time"":985},{""stimulus"":""img/3to1/10.png"",""time"":1095},{""stimulus"":""img/3to1/11.png"",""time"":1203},{""stimulus"":""img/3to1/12.png"",""time"":1313}]","[]"
"","","","observe","60ed200c728ab881912aac11","bdp_cybrbll","Sun Mar 26 2023 23:53:50 GMT-0400 (Eastern Daylight Time)","549200","3","1","image-keyboard-response","159","251041","0.0-5.0-1.77","","null","","img/1to3/1.png","null","148","689","0.5","0.1","1","3","",""
"","","","","60ed200c728ab881912aac11","bdp_cybrbll","Sun Mar 26 2023 23:53:50 GMT-0400 (Eastern Daylight Time)","549200","3","1","animation","160","252463","0.0-5.0-2.77","","","","","","148","","","","1","3","[{""stimulus"":""img/1to3/1.png"",""time"":110},{""stimulus"":""img/1to3/2.png"",""time"":219},{""stimulus"":""img/1to3/3.png"",""time"":329},{""stimulus"":""img/1to3/4.png"",""time"":439},{""stimulus"":""img/1to3/5.png"",""time"":548},{""stimulus"":""img/1to3/6.png"",""time"":658},{""stimulus"":""img/1to3/7.png"",""time"":767},{""stimulus"":""img/1to3/8.png"",""time"":876},{""stimulus"":""img/1to3/9.png"",""time"":985},{""stimulus"":""img/1to3/10.png"",""time"":1094},{""stimulus"":""img/1to3/11.png"",""time"":1204},{""stimulus"":""img/1to3/12.png"",""time"":1313}]","[]"
"","","","observe","60ed200c728ab881912aac11","bdp_cybrbll","Sun Mar 26 2023 23:53:50 GMT-0400 (Eastern Daylight Time)","549200","3","1","image-keyboard-response","161","252869","0.0-5.0-1.78","","null","","img/3to2/1.png","null","147","399","0.5","0.1","3","2","",""
"","","","","60ed200c728ab881912aac11","bdp_cybrbll","Sun Mar 26 2023 23:53:50 GMT-0400 (Eastern Daylight Time)","549200","3","1","animation","162","254291","0.0-5.0-2.78","","","","","","147","","","","3","2","[{""stimulus"":""img/3to2/1.png"",""time"":110},{""stimulus"":""img/3to2/2.png"",""time"":226},{""stimulus"":""img/3to2/3.png"",""time"":330},{""stimulus"":""img/3to2/4.png"",""time"":439},{""stimulus"":""img/3to2/5.png"",""time"":548},{""stimulus"":""img/3to2/6.png"",""time"":657},{""stimulus"":""img/3to2/7.png"",""time"":766},{""stimulus"":""img/3to2/8.png"",""time"":876},{""stimulus"":""img/3to2/9.png"",""time"":985},{""stimulus"":""img/3to2/10.png"",""time"":1094},{""stimulus"":""img/3to2/11.png"",""time"":1204},{""stimulus"":""img/3to2/12.png"",""time"":1314}]","[]"
"","","","choice","60ed200c728ab881912aac11","bdp_cybrbll","Sun Mar 26 2023 23:53:50 GMT-0400 (Eastern Daylight Time)","549200","3","1","image-keyboard-response","163","254550","0.0-5.0-1.79","","258","","img/2to1/1.png","1","146","459","0.5","0.1","2","1","",""
"","","","","60ed200c728ab881912aac11","bdp_cybrbll","Sun Mar 26 2023 23:53:50 GMT-0400 (Eastern Daylight Time)","549200","3","1","animation","164","255963","0.0-5.0-2.79","","","","","","146","","","","2","1","[{""stimulus"":""img/2to1/1.png"",""time"":100},{""stimulus"":""img/2to1/2.png"",""time"":210},{""stimulus"":""img/2to1/3.png"",""time"":319},{""stimulus"":""img/2to1/4.png"",""time"":428},{""stimulus"":""img/2to1/5.png"",""time"":538},{""stimulus"":""img/2to1/6.png"",""time"":647},{""stimulus"":""img/2to1/7.png"",""time"":756},{""stimulus"":""img/2to1/8.png"",""time"":865},{""stimulus"":""img/2to1/9.png"",""time"":975},{""stimulus"":""img/2to1/10.png"",""time"":1084},{""stimulus"":""img/2to1/11.png"",""time"":1194},{""stimulus"":""img/2to1/12.png"",""time"":1303}]","[]"
"","","","observe","60ed200c728ab881912aac11","bdp_cybrbll","Sun Mar 26 2023 23:53:50 GMT-0400 (Eastern Daylight Time)","549200","3","1","image-keyboard-response","165","256385","0.0-5.0-1.80","","null","","img/1to3/1.png","null","145","416","0.5","0.1","1","3","",""
"","","","","60ed200c728ab881912aac11","bdp_cybrbll","Sun Mar 26 2023 23:53:50 GMT-0400 (Eastern Daylight Time)","549200","3","1","animation","166","257807","0.0-5.0-2.80","","","","","","145","","","","1","3","[{""stimulus"":""img/1to3/1.png"",""time"":110},{""stimulus"":""img/1to3/2.png"",""time"":219},{""stimulus"":""img/1to3/3.png"",""time"":329},{""stimulus"":""img/1to3/4.png"",""time"":437},{""stimulus"":""img/1to3/5.png"",""time"":548},{""stimulus"":""img/1to3/6.png"",""time"":657},{""stimulus"":""img/1to3/7.png"",""time"":766},{""stimulus"":""img/1to3/8.png"",""time"":876},{""stimulus"":""img/1to3/9.png"",""time"":985},{""stimulus"":""img/1to3/10.png"",""time"":1094},{""stimulus"":""img/1to3/11.png"",""time"":1204},{""stimulus"":""img/1to3/12.png"",""time"":1313}]","[]"
"","","","observe","60ed200c728ab881912aac11","bdp_cybrbll","Sun Mar 26 2023 23:53:50 GMT-0400 (Eastern Daylight Time)","549200","3","1","image-keyboard-response","167","258479","0.0-5.0-1.81","","null","","img/3to2/1.png","null","144","668","0.5","0.1","3","1","",""
"","","","","60ed200c728ab881912aac11","bdp_cybrbll","Sun Mar 26 2023 23:53:50 GMT-0400 (Eastern Daylight Time)","549200","3","1","animation","168","259901","0.0-5.0-2.81","","","","","","144","","","","3","1","[{""stimulus"":""img/3to1/1.png"",""time"":110},{""stimulus"":""img/3to1/2.png"",""time"":218},{""stimulus"":""img/3to1/3.png"",""time"":328},{""stimulus"":""img/3to1/4.png"",""time"":438},{""stimulus"":""img/3to1/5.png"",""time"":547},{""stimulus"":""img/3to1/6.png"",""time"":657},{""stimulus"":""img/3to1/7.png"",""time"":766},{""stimulus"":""img/3to1/8.png"",""time"":875},{""stimulus"":""img/3to1/9.png"",""time"":984},{""stimulus"":""img/3to1/10.png"",""time"":1094},{""stimulus"":""img/3to1/11.png"",""time"":1203},{""stimulus"":""img/3to1/12.png"",""time"":1312}]","[]"
"","","","observe","60ed200c728ab881912aac11","bdp_cybrbll","Sun Mar 26 2023 23:53:50 GMT-0400 (Eastern Daylight Time)","549200","3","1","image-keyboard-response","169","260212","0.0-5.0-1.82","","null","","img/1to3/1.png","null","143","309","0.5","0.1","1","3","",""
"","","","","60ed200c728ab881912aac11","bdp_cybrbll","Sun Mar 26 2023 23:53:50 GMT-0400 (Eastern Daylight Time)","549200","3","1","animation","170","261635","0.0-5.0-2.82","","","","","","143","","","","1","3","[{""stimulus"":""img/1to3/1.png"",""time"":110},{""stimulus"":""img/1to3/2.png"",""time"":220},{""stimulus"":""img/1to3/3.png"",""time"":329},{""stimulus"":""img/1to3/4.png"",""time"":438},{""stimulus"":""img/1to3/5.png"",""time"":547},{""stimulus"":""img/1to3/6.png"",""time"":657},{""stimulus"":""img/1to3/7.png"",""time"":766},{""stimulus"":""img/1to3/8.png"",""time"":882},{""stimulus"":""img/1to3/9.png"",""time"":985},{""stimulus"":""img/1to3/10.png"",""time"":1094},{""stimulus"":""img/1to3/11.png"",""time"":1204},{""stimulus"":""img/1to3/12.png"",""time"":1313}]","[]"
"","","","observe","60ed200c728ab881912aac11","bdp_cybrbll","Sun Mar 26 2023 23:53:50 GMT-0400 (Eastern Daylight Time)","549200","3","1","image-keyboard-response","171","261901","0.0-5.0-1.83","","null","","img/3to2/1.png","null","142","259","0.5","0.1","3","2","",""
"","","","","60ed200c728ab881912aac11","bdp_cybrbll","Sun Mar 26 2023 23:53:50 GMT-0400 (Eastern Daylight Time)","549200","3","1","animation","172","263323","0.0-5.0-2.83","","","","","","142","","","","3","2","[{""stimulus"":""img/3to2/1.png"",""time"":110},{""stimulus"":""img/3to2/2.png"",""time"":219},{""stimulus"":""img/3to2/3.png"",""time"":328},{""stimulus"":""img/3to2/4.png"",""time"":438},{""stimulus"":""img/3to2/5.png"",""time"":547},{""stimulus"":""img/3to2/6.png"",""time"":656},{""stimulus"":""img/3to2/7.png"",""time"":767},{""stimulus"":""img/3to2/8.png"",""time"":875},{""stimulus"":""img/3to2/9.png"",""time"":984},{""stimulus"":""img/3to2/10.png"",""time"":1094},{""stimulus"":""img/3to2/11.png"",""time"":1203},{""stimulus"":""img/3to2/12.png"",""time"":1313}]","[]"
"","","","choice","60ed200c728ab881912aac11","bdp_cybrbll","Sun Mar 26 2023 23:53:50 GMT-0400 (Eastern Daylight Time)","549200","3","1","image-keyboard-response","173","264727","0.0-5.0-1.84","","1403","","img/2to1/1.png","1","141","321","0.5","0.1","2","1","",""
"","","","","60ed200c728ab881912aac11","bdp_cybrbll","Sun Mar 26 2023 23:53:50 GMT-0400 (Eastern Daylight Time)","549200","3","1","animation","174","266151","0.0-5.0-2.84","","","","","","141","","","","2","1","[{""stimulus"":""img/2to1/1.png"",""time"":111},{""stimulus"":""img/2to1/2.png"",""time"":220},{""stimulus"":""img/2to1/3.png"",""time"":329},{""stimulus"":""img/2to1/4.png"",""time"":439},{""stimulus"":""img/2to1/5.png"",""time"":548},{""stimulus"":""img/2to1/6.png"",""time"":658},{""stimulus"":""img/2to1/7.png"",""time"":767},{""stimulus"":""img/2to1/8.png"",""time"":876},{""stimulus"":""img/2to1/9.png"",""time"":985},{""stimulus"":""img/2to1/10.png"",""time"":1095},{""stimulus"":""img/2to1/11.png"",""time"":1204},{""stimulus"":""img/2to1/12.png"",""time"":1314}]","[]"
"","","","observe","60ed200c728ab881912aac11","bdp_cybrbll","Sun Mar 26 2023 23:53:50 GMT-0400 (Eastern Daylight Time)","549200","3","1","image-keyboard-response","175","266464","0.0-5.0-1.85","","null","","img/1to3/1.png","null","140","309","0.5","0.1","1","3","",""
"","","","","60ed200c728ab881912aac11","bdp_cybrbll","Sun Mar 26 2023 23:53:50 GMT-0400 (Eastern Daylight Time)","549200","3","1","animation","176","267885","0.0-5.0-2.85","","","","","","140","","","","1","3","[{""stimulus"":""img/1to3/1.png"",""time"":108},{""stimulus"":""img/1to3/2.png"",""time"":218},{""stimulus"":""img/1to3/3.png"",""time"":327},{""stimulus"":""img/1to3/4.png"",""time"":436},{""stimulus"":""img/1to3/5.png"",""time"":546},{""stimulus"":""img/1to3/6.png"",""time"":655},{""stimulus"":""img/1to3/7.png"",""time"":764},{""stimulus"":""img/1to3/8.png"",""time"":874},{""stimulus"":""img/1to3/9.png"",""time"":983},{""stimulus"":""img/1to3/10.png"",""time"":1092},{""stimulus"":""img/1to3/11.png"",""time"":1202},{""stimulus"":""img/1to3/12.png"",""time"":1311}]","[]"
"","","","observe","60ed200c728ab881912aac11","bdp_cybrbll","Sun Mar 26 2023 23:53:50 GMT-0400 (Eastern Daylight Time)","549200","3","1","image-keyboard-response","177","268120","0.0-5.0-1.86","","null","","img/3to2/1.png","null","139","219","0.5","0.1","3","2","",""
"","","","","60ed200c728ab881912aac11","bdp_cybrbll","Sun Mar 26 2023 23:53:50 GMT-0400 (Eastern Daylight Time)","549200","3","1","animation","178","269541","0.0-5.0-2.86","","","","","","139","","","","3","2","[{""stimulus"":""img/3to2/1.png"",""time"":110},{""stimulus"":""img/3to2/2.png"",""time"":219},{""stimulus"":""img/3to2/3.png"",""time"":328},{""stimulus"":""img/3to2/4.png"",""time"":437},{""stimulus"":""img/3to2/5.png"",""time"":547},{""stimulus"":""img/3to2/6.png"",""time"":656},{""stimulus"":""img/3to2/7.png"",""time"":766},{""stimulus"":""img/3to2/8.png"",""time"":875},{""stimulus"":""img/3to2/9.png"",""time"":984},{""stimulus"":""img/3to2/10.png"",""time"":1093},{""stimulus"":""img/3to2/11.png"",""time"":1204},{""stimulus"":""img/3to2/12.png"",""time"":1312}]","[]"
"","","","choice","60ed200c728ab881912aac11","bdp_cybrbll","Sun Mar 26 2023 23:53:50 GMT-0400 (Eastern Daylight Time)","549200","3","1","image-keyboard-response","179","270951","0.0-5.0-1.87","","1409","","img/2to1/1.png","2","138","1737","0.5","0.1","2","3","",""
"","","","","60ed200c728ab881912aac11","bdp_cybrbll","Sun Mar 26 2023 23:53:50 GMT-0400 (Eastern Daylight Time)","549200","3","1","animation","180","272370","0.0-5.0-2.87","","","","","","138","","","","2","3","[{""stimulus"":""img/2to3/1.png"",""time"":106},{""stimulus"":""img/2to3/2.png"",""time"":215},{""stimulus"":""img/2to3/3.png"",""time"":324},{""stimulus"":""img/2to3/4.png"",""time"":434},{""stimulus"":""img/2to3/5.png"",""time"":542},{""stimulus"":""img/2to3/6.png"",""time"":653},{""stimulus"":""img/2to3/7.png"",""time"":762},{""stimulus"":""img/2to3/8.png"",""time"":871},{""stimulus"":""img/2to3/9.png"",""time"":980},{""stimulus"":""img/2to3/10.png"",""time"":1090},{""stimulus"":""img/2to3/11.png"",""time"":1199},{""stimulus"":""img/2to3/12.png"",""time"":1309}]","[]"
"","","","observe","60ed200c728ab881912aac11","bdp_cybrbll","Sun Mar 26 2023 23:53:50 GMT-0400 (Eastern Daylight Time)","549200","3","1","image-keyboard-response","181","273182","0.0-5.0-1.88","","null","","img/3to2/1.png","null","137","800","0.5","0.1","3","1","",""
"","","","","60ed200c728ab881912aac11","bdp_cybrbll","Sun Mar 26 2023 23:53:50 GMT-0400 (Eastern Daylight Time)","549200","3","1","animation","182","274604","0.0-5.0-2.88","","","","","","137","","","","3","1","[{""stimulus"":""img/3to1/1.png"",""time"":110},{""stimulus"":""img/3to1/2.png"",""time"":219},{""stimulus"":""img/3to1/3.png"",""time"":328},{""stimulus"":""img/3to1/4.png"",""time"":438},{""stimulus"":""img/3to1/5.png"",""time"":548},{""stimulus"":""img/3to1/6.png"",""time"":657},{""stimulus"":""img/3to1/7.png"",""time"":766},{""stimulus"":""img/3to1/8.png"",""time"":875},{""stimulus"":""img/3to1/9.png"",""time"":984},{""stimulus"":""img/3to1/10.png"",""time"":1094},{""stimulus"":""img/3to1/11.png"",""time"":1203},{""stimulus"":""img/3to1/12.png"",""time"":1312}]","[]"
"","","","observe","60ed200c728ab881912aac11","bdp_cybrbll","Sun Mar 26 2023 23:53:50 GMT-0400 (Eastern Daylight Time)","549200","3","1","image-keyboard-response","183","274947","0.0-5.0-1.89","","null","","img/1to3/1.png","null","136","333","0.5","0.1","1","3","",""
"","","","","60ed200c728ab881912aac11","bdp_cybrbll","Sun Mar 26 2023 23:53:50 GMT-0400 (Eastern Daylight Time)","549200","3","1","animation","184","276369","0.0-5.0-2.89","","","","","","136","","","","1","3","[{""stimulus"":""img/1to3/1.png"",""time"":110},{""stimulus"":""img/1to3/2.png"",""time"":219},{""stimulus"":""img/1to3/3.png"",""time"":328},{""stimulus"":""img/1to3/4.png"",""time"":438},{""stimulus"":""img/1to3/5.png"",""time"":547},{""stimulus"":""img/1to3/6.png"",""time"":656},{""stimulus"":""img/1to3/7.png"",""time"":765},{""stimulus"":""img/1to3/8.png"",""time"":876},{""stimulus"":""img/1to3/9.png"",""time"":985},{""stimulus"":""img/1to3/10.png"",""time"":1094},{""stimulus"":""img/1to3/11.png"",""time"":1203},{""stimulus"":""img/1to3/12.png"",""time"":1312}]","[]"
"","","","observe","60ed200c728ab881912aac11","bdp_cybrbll","Sun Mar 26 2023 23:53:50 GMT-0400 (Eastern Daylight Time)","549200","3","1","image-keyboard-response","185","276885","0.0-5.0-1.90","","null","","img/3to2/1.png","null","135","503","0.5","0.1","3","1","",""
"","","","","60ed200c728ab881912aac11","bdp_cybrbll","Sun Mar 26 2023 23:53:50 GMT-0400 (Eastern Daylight Time)","549200","3","1","animation","186","278306","0.0-5.0-2.90","","","","","","135","","","","3","1","[{""stimulus"":""img/3to1/1.png"",""time"":110},{""stimulus"":""img/3to1/2.png"",""time"":220},{""stimulus"":""img/3to1/3.png"",""time"":329},{""stimulus"":""img/3to1/4.png"",""time"":438},{""stimulus"":""img/3to1/5.png"",""time"":547},{""stimulus"":""img/3to1/6.png"",""time"":657},{""stimulus"":""img/3to1/7.png"",""time"":767},{""stimulus"":""img/3to1/8.png"",""time"":876},{""stimulus"":""img/3to1/9.png"",""time"":985},{""stimulus"":""img/3to1/10.png"",""time"":1094},{""stimulus"":""img/3to1/11.png"",""time"":1204},{""stimulus"":""img/3to1/12.png"",""time"":1313}]","[]"
"","","","observe","60ed200c728ab881912aac11","bdp_cybrbll","Sun Mar 26 2023 23:53:50 GMT-0400 (Eastern Daylight Time)","549200","3","1","image-keyboard-response","187","279181","0.0-5.0-1.91","","null","","img/1to3/1.png","null","134","858","0.5","0.1","1","3","",""
"","","","","60ed200c728ab881912aac11","bdp_cybrbll","Sun Mar 26 2023 23:53:50 GMT-0400 (Eastern Daylight Time)","549200","3","1","animation","188","280604","0.0-5.0-2.91","","","","","","134","","","","1","3","[{""stimulus"":""img/1to3/1.png"",""time"":110},{""stimulus"":""img/1to3/2.png"",""time"":219},{""stimulus"":""img/1to3/3.png"",""time"":328},{""stimulus"":""img/1to3/4.png"",""time"":438},{""stimulus"":""img/1to3/5.png"",""time"":547},{""stimulus"":""img/1to3/6.png"",""time"":657},{""stimulus"":""img/1to3/7.png"",""time"":766},{""stimulus"":""img/1to3/8.png"",""time"":876},{""stimulus"":""img/1to3/9.png"",""time"":985},{""stimulus"":""img/1to3/10.png"",""time"":1094},{""stimulus"":""img/1to3/11.png"",""time"":1203},{""stimulus"":""img/1to3/12.png"",""time"":1312}]","[]"
"","","","observe","60ed200c728ab881912aac11","bdp_cybrbll","Sun Mar 26 2023 23:53:50 GMT-0400 (Eastern Daylight Time)","549200","3","1","image-keyboard-response","189","282119","0.0-5.0-1.92","","null","","img/3to2/1.png","null","133","1509","0.5","0.1","3","2","",""
"","","","","60ed200c728ab881912aac11","bdp_cybrbll","Sun Mar 26 2023 23:53:50 GMT-0400 (Eastern Daylight Time)","549200","3","1","animation","190","283541","0.0-5.0-2.92","","","","","","133","","","","3","2","[{""stimulus"":""img/3to2/1.png"",""time"":110},{""stimulus"":""img/3to2/2.png"",""time"":218},{""stimulus"":""img/3to2/3.png"",""time"":328},{""stimulus"":""img/3to2/4.png"",""time"":438},{""stimulus"":""img/3to2/5.png"",""time"":547},{""stimulus"":""img/3to2/6.png"",""time"":657},{""stimulus"":""img/3to2/7.png"",""time"":766},{""stimulus"":""img/3to2/8.png"",""time"":875},{""stimulus"":""img/3to2/9.png"",""time"":984},{""stimulus"":""img/3to2/10.png"",""time"":1094},{""stimulus"":""img/3to2/11.png"",""time"":1203},{""stimulus"":""img/3to2/12.png"",""time"":1312}]","[]"
