"trial_type","trial_index","time_elapsed","internal_node_id","subject_id","task","startTime","totalTime","fairPartner","unfairPartner","view_history","rt","event","trial","time","trialtype","success","stimulus","key_press","throwsLeft","rtDur","pFair","pUnfair","holder","receiver","animation_sequence","responses"
"pavlovia","0","3","0.0-0.0","571144323d47e800096358d9","bdp_cybrbll","Sun Mar 26 2023 14:49:52 GMT-0400 (Eastern Daylight Time)","413050","1","3","","","","","","","","","","","","","","","","",""
"instructions","1","1700","0.0-1.0","571144323d47e800096358d9","bdp_cybrbll","Sun Mar 26 2023 14:49:52 GMT-0400 (Eastern Daylight Time)","413050","1","3","[{""page_index"":0,""viewing_time"":1697}]","1697","","","","","","","","","","","","","","",""
"","","","","571144323d47e800096358d9","bdp_cybrbll","Sun Mar 26 2023 14:49:52 GMT-0400 (Eastern Daylight Time)","413050","1","3","","","fullscreenenter","2","3502","fullscreenenter","","","","","","","","","","",""
"fullscreen","2","4492","0.0-2.0","571144323d47e800096358d9","bdp_cybrbll","Sun Mar 26 2023 14:49:52 GMT-0400 (Eastern Daylight Time)","413050","1","3","","","","","","","true","","","","","","","","","",""
"instructions","3","30804","0.0-4.0","571144323d47e800096358d9","bdp_cybrbll","Sun Mar 26 2023 14:49:52 GMT-0400 (Eastern Daylight Time)","413050","1","3","[{""page_index"":0,""viewing_time"":26311}]","26311","","","","","","","","","","","","","","",""
"image-keyboard-response","4","32052","0.0-5.0-1.0","571144323d47e800096358d9","bdp_cybrbll","Sun Mar 26 2023 14:49:52 GMT-0400 (Eastern Daylight Time)","413050","1","3","","1247","","","","choice","","img/2to1/1.png","1","225","450","0.5","0.5","2","1","",""
"animation","5","33340","0.0-5.0-2.0","571144323d47e800096358d9","bdp_cybrbll","Sun Mar 26 2023 14:49:52 GMT-0400 (Eastern Daylight Time)","413050","1","3","","","","","","","","","","225","","","","2","1","[{""stimulus"":""img/2to1/1.png"",""time"":100},{""stimulus"":""img/2to1/2.png"",""time"":199},{""stimulus"":""img/2to1/3.png"",""time"":298},{""stimulus"":""img/2to1/4.png"",""time"":397},{""stimulus"":""img/2to1/5.png"",""time"":496},{""stimulus"":""img/2to1/6.png"",""time"":595},{""stimulus"":""img/2to1/7.png"",""time"":695},{""stimulus"":""img/2to1/8.png"",""time"":793},{""stimulus"":""img/2to1/9.png"",""time"":892},{""stimulus"":""img/2to1/10.png"",""time"":991},{""stimulus"":""img/2to1/11.png"",""time"":1090},{""stimulus"":""img/2to1/12.png"",""time"":1190}]","[]"
"image-keyboard-response","6","34050","0.0-5.0-1.1","571144323d47e800096358d9","bdp_cybrbll","Sun Mar 26 2023 14:49:52 GMT-0400 (Eastern Daylight Time)","413050","1","3","","null","","","","observe","","img/1to3/1.png","null","224","709","0.5","0.5","1","2","",""
"animation","7","35338","0.0-5.0-2.1","571144323d47e800096358d9","bdp_cybrbll","Sun Mar 26 2023 14:49:52 GMT-0400 (Eastern Daylight Time)","413050","1","3","","","","","","","","","","224","","","","1","2","[{""stimulus"":""img/1to2/1.png"",""time"":100},{""stimulus"":""img/1to2/2.png"",""time"":199},{""stimulus"":""img/1to2/3.png"",""time"":297},{""stimulus"":""img/1to2/4.png"",""time"":396},{""stimulus"":""img/1to2/5.png"",""time"":495},{""stimulus"":""img/1to2/6.png"",""time"":594},{""stimulus"":""img/1to2/7.png"",""time"":693},{""stimulus"":""img/1to2/8.png"",""time"":803},{""stimulus"":""img/1to2/9.png"",""time"":891},{""stimulus"":""img/1to2/10.png"",""time"":990},{""stimulus"":""img/1to2/11.png"",""time"":1089},{""stimulus"":""img/1to2/12.png"",""time"":1188}]","[]"
"image-keyboard-response","8","35548","0.0-5.0-1.2","571144323d47e800096358d9","bdp_cybrbll","Sun Mar 26 2023 14:49:52 GMT-0400 (Eastern Daylight Time)","413050","1","3","","210","","","","choice","","img/2to1/1.png","2","223","254","0.5","0.5","2","3","",""
"animation","9","36836","0.0-5.0-2.2","571144323d47e800096358d9","bdp_cybrbll","Sun Mar 26 2023 14:49:52 GMT-0400 (Eastern Daylight Time)","413050","1","3","","","","","","","","","","223","","","","2","3","[{""stimulus"":""img/2to3/1.png"",""time"":99},{""stimulus"":""img/2to3/2.png"",""time"":199},{""stimulus"":""img/2to3/3.png"",""time"":298},{""stimulus"":""img/2to3/4.png"",""time"":400},{""stimulus"":""img/2to3/5.png"",""time"":496},{""stimulus"":""img/2to3/6.png"",""time"":595},{""stimulus"":""img/2to3/7.png"",""time"":694},{""stimulus"":""img/2to3/8.png"",""time"":793},{""stimulus"":""img/2to3/9.png"",""time"":891},{""stimulus"":""img/2to3/10.png"",""time"":991},{""stimulus"":""img/2to3/11.png"",""time"":1089},{""stimulus"":""img/2to3/12.png"",""time"":1189}]","[]"
"image-keyboard-response","10","37106","0.0-5.0-1.3","571144323d47e800096358d9","bdp_cybrbll","Sun Mar 26 2023 14:49:52 GMT-0400 (Eastern Daylight Time)","413050","1","3","","null","","","","observe","","img/3to2/1.png","null","222","267","0.5","0.5","3","1","",""
"animation","11","38394","0.0-5.0-2.3","571144323d47e800096358d9","bdp_cybrbll","Sun Mar 26 2023 14:49:52 GMT-0400 (Eastern Daylight Time)","413050","1","3","","","","","","","","","","222","","","","3","1","[{""stimulus"":""img/3to1/1.png"",""time"":100},{""stimulus"":""img/3to1/2.png"",""time"":199},{""stimulus"":""img/3to1/3.png"",""time"":298},{""stimulus"":""img/3to1/4.png"",""time"":397},{""stimulus"":""img/3to1/5.png"",""time"":496},{""stimulus"":""img/3to1/6.png"",""time"":595},{""stimulus"":""img/3to1/7.png"",""time"":693},{""stimulus"":""img/3to1/8.png"",""time"":793},{""stimulus"":""img/3to1/9.png"",""time"":892},{""stimulus"":""img/3to1/10.png"",""time"":991},{""stimulus"":""img/3to1/11.png"",""time"":1090},{""stimulus"":""img/3to1/12.png"",""time"":1189}]","[]"
"image-keyboard-response","12","39167","0.0-5.0-1.4","571144323d47e800096358d9","bdp_cybrbll","Sun Mar 26 2023 14:49:52 GMT-0400 (Eastern Daylight Time)","413050","1","3","","null","","","","observe","","img/1to3/1.png","null","221","771","0.5","0.5","1","2","",""
"animation","13","40455","0.0-5.0-2.4","571144323d47e800096358d9","bdp_cybrbll","Sun Mar 26 2023 14:49:52 GMT-0400 (Eastern Daylight Time)","413050","1","3","","","","","","","","","","221","","","","1","2","[{""stimulus"":""img/1to2/1.png"",""time"":100},{""stimulus"":""img/1to2/2.png"",""time"":200},{""stimulus"":""img/1to2/3.png"",""time"":298},{""stimulus"":""img/1to2/4.png"",""time"":397},{""stimulus"":""img/1to2/5.png"",""time"":496},{""stimulus"":""img/1to2/6.png"",""time"":595},{""stimulus"":""img/1to2/7.png"",""time"":694},{""stimulus"":""img/1to2/8.png"",""time"":793},{""stimulus"":""img/1to2/9.png"",""time"":892},{""stimulus"":""img/1to2/10.png"",""time"":991},{""stimulus"":""img/1to2/11.png"",""time"":1090},{""stimulus"":""img/1to2/12.png"",""time"":1190}]","[]"
"image-keyboard-response","14","40572","0.0-5.0-1.5","571144323d47e800096358d9","bdp_cybrbll","Sun Mar 26 2023 14:49:52 GMT-0400 (Eastern Daylight Time)","413050","1","3","","117","","","","choice","","img/2to1/1.png","2","220","513","0.5","0.5","2","3","",""
"animation","15","41860","0.0-5.0-2.5","571144323d47e800096358d9","bdp_cybrbll","Sun Mar 26 2023 14:49:52 GMT-0400 (Eastern Daylight Time)","413050","1","3","","","","","","","","","","220","","","","2","3","[{""stimulus"":""img/2to3/1.png"",""time"":99},{""stimulus"":""img/2to3/2.png"",""time"":198},{""stimulus"":""img/2to3/3.png"",""time"":297},{""stimulus"":""img/2to3/4.png"",""time"":396},{""stimulus"":""img/2to3/5.png"",""time"":496},{""stimulus"":""img/2to3/6.png"",""time"":595},{""stimulus"":""img/2to3/7.png"",""time"":694},{""stimulus"":""img/2to3/8.png"",""time"":792},{""stimulus"":""img/2to3/9.png"",""time"":891},{""stimulus"":""img/2to3/10.png"",""time"":990},{""stimulus"":""img/2to3/11.png"",""time"":1090},{""stimulus"":""img/2to3/12.png"",""time"":1189}]","[]"
"image-keyboard-response","16","42056","0.0-5.0-1.6","571144323d47e800096358d9","bdp_cybrbll","Sun Mar 26 2023 14:49:52 GMT-0400 (Eastern Daylight Time)","413050","1","3","","null","","","","observe","","img/3to2/1.png","null","219","195","0.5","0.5","3","1","",""
"animation","17","43344","0.0-5.0-2.6","571144323d47e800096358d9","bdp_cybrbll","Sun Mar 26 2023 14:49:52 GMT-0400 (Eastern Daylight Time)","413050","1","3","","","","","","","","","","219","","","","3","1","[{""stimulus"":""img/3to1/1.png"",""time"":100},{""stimulus"":""img/3to1/2.png"",""time"":199},{""stimulus"":""img/3to1/3.png"",""time"":297},{""stimulus"":""img/3to1/4.png"",""time"":398},{""stimulus"":""img/3to1/5.png"",""time"":496},{""stimulus"":""img/3to1/6.png"",""time"":595},{""stimulus"":""img/3to1/7.png"",""time"":694},{""stimulus"":""img/3to1/8.png"",""time"":793},{""stimulus"":""img/3to1/9.png"",""time"":892},{""stimulus"":""img/3to1/10.png"",""time"":991},{""stimulus"":""img/3to1/11.png"",""time"":1090},{""stimulus"":""img/3to1/12.png"",""time"":1189}]","[]"
"image-keyboard-response","18","43982","0.0-5.0-1.7","571144323d47e800096358d9","bdp_cybrbll","Sun Mar 26 2023 14:49:52 GMT-0400 (Eastern Daylight Time)","413050","1","3","","null","","","","observe","","img/1to3/1.png","null","218","637","0.5","0.5","1","2","",""
"animation","19","45270","0.0-5.0-2.7","571144323d47e800096358d9","bdp_cybrbll","Sun Mar 26 2023 14:49:52 GMT-0400 (Eastern Daylight Time)","413050","1","3","","","","","","","","","","218","","","","1","2","[{""stimulus"":""img/1to2/1.png"",""time"":99},{""stimulus"":""img/1to2/2.png"",""time"":200},{""stimulus"":""img/1to2/3.png"",""time"":298},{""stimulus"":""img/1to2/4.png"",""time"":397},{""stimulus"":""img/1to2/5.png"",""time"":497},{""stimulus"":""img/1to2/6.png"",""time"":594},{""stimulus"":""img/1to2/7.png"",""time"":695},{""stimulus"":""img/1to2/8.png"",""time"":793},{""stimulus"":""img/1to2/9.png"",""time"":892},{""stimulus"":""img/1to2/10.png"",""time"":990},{""stimulus"":""img/1to2/11.png"",""time"":1090},{""stimulus"":""img/1to2/12.png"",""time"":1189}]","[]"
"image-keyboard-response","20","45372","0.0-5.0-1.8","571144323d47e800096358d9","bdp_cybrbll","Sun Mar 26 2023 14:49:52 GMT-0400 (Eastern Daylight Time)","413050","1","3","","102","","","","choice","","img/2to1/1.png","2","217","455","0.5","0.5","2","3","",""
"animation","21","46660","0.0-5.0-2.8","571144323d47e800096358d9","bdp_cybrbll","Sun Mar 26 2023 14:49:52 GMT-0400 (Eastern Daylight Time)","413050","1","3","","","","","","","","","","217","","","","2","3","[{""stimulus"":""img/2to3/1.png"",""time"":100},{""stimulus"":""img/2to3/2.png"",""time"":199},{""stimulus"":""img/2to3/3.png"",""time"":299},{""stimulus"":""img/2to3/4.png"",""time"":398},{""stimulus"":""img/2to3/5.png"",""time"":496},{""stimulus"":""img/2to3/6.png"",""time"":595},{""stimulus"":""img/2to3/7.png"",""time"":694},{""stimulus"":""img/2to3/8.png"",""time"":793},{""stimulus"":""img/2to3/9.png"",""time"":892},{""stimulus"":""img/2to3/10.png"",""time"":991},{""stimulus"":""img/2to3/11.png"",""time"":1091},{""stimulus"":""img/2to3/12.png"",""time"":1189}]","[]"
"image-keyboard-response","22","46805","0.0-5.0-1.9","571144323d47e800096358d9","bdp_cybrbll","Sun Mar 26 2023 14:49:52 GMT-0400 (Eastern Daylight Time)","413050","1","3","","null","","","","observe","","img/3to2/1.png","null","216","144","0.5","0.5","3","1","",""
"animation","23","48092","0.0-5.0-2.9","571144323d47e800096358d9","bdp_cybrbll","Sun Mar 26 2023 14:49:52 GMT-0400 (Eastern Daylight Time)","413050","1","3","","","","","","","","","","216","","","","3","1","[{""stimulus"":""img/3to1/1.png"",""time"":115},{""stimulus"":""img/3to1/2.png"",""time"":199},{""stimulus"":""img/3to1/3.png"",""time"":298},{""stimulus"":""img/3to1/4.png"",""time"":397},{""stimulus"":""img/3to1/5.png"",""time"":496},{""stimulus"":""img/3to1/6.png"",""time"":595},{""stimulus"":""img/3to1/7.png"",""time"":694},{""stimulus"":""img/3to1/8.png"",""time"":793},{""stimulus"":""img/3to1/9.png"",""time"":892},{""stimulus"":""img/3to1/10.png"",""time"":991},{""stimulus"":""img/3to1/11.png"",""time"":1090},{""stimulus"":""img/3to1/12.png"",""time"":1189}]","[]"
"image-keyboard-response","24","48373","0.0-5.0-1.10","571144323d47e800096358d9","bdp_cybrbll","Sun Mar 26 2023 14:49:52 GMT-0400 (Eastern Daylight Time)","413050","1","3","","null","","","","observe","","img/1to3/1.png","null","215","280","0.5","0.5","1","2","",""
"animation","25","49661","0.0-5.0-2.10","571144323d47e800096358d9","bdp_cybrbll","Sun Mar 26 2023 14:49:52 GMT-0400 (Eastern Daylight Time)","413050","1","3","","","","","","","","","","215","","","","1","2","[{""stimulus"":""img/1to2/1.png"",""time"":100},{""stimulus"":""img/1to2/2.png"",""time"":199},{""stimulus"":""img/1to2/3.png"",""time"":298},{""stimulus"":""img/1to2/4.png"",""time"":396},{""stimulus"":""img/1to2/5.png"",""time"":496},{""stimulus"":""img/1to2/6.png"",""time"":595},{""stimulus"":""img/1to2/7.png"",""time"":694},{""stimulus"":""img/1to2/8.png"",""time"":793},{""stimulus"":""img/1to2/9.png"",""time"":892},{""stimulus"":""img/1to2/10.png"",""time"":991},{""stimulus"":""img/1to2/11.png"",""time"":1090},{""stimulus"":""img/1to2/12.png"",""time"":1189}]","[]"
"image-keyboard-response","26","49836","0.0-5.0-1.11","571144323d47e800096358d9","bdp_cybrbll","Sun Mar 26 2023 14:49:52 GMT-0400 (Eastern Daylight Time)","413050","1","3","","175","","","","choice","","img/2to1/1.png","2","214","341","0.5","0.5","2","3","",""
"animation","27","51123","0.0-5.0-2.11","571144323d47e800096358d9","bdp_cybrbll","Sun Mar 26 2023 14:49:52 GMT-0400 (Eastern Daylight Time)","413050","1","3","","","","","","","","","","214","","","","2","3","[{""stimulus"":""img/2to3/1.png"",""time"":100},{""stimulus"":""img/2to3/2.png"",""time"":199},{""stimulus"":""img/2to3/3.png"",""time"":297},{""stimulus"":""img/2to3/4.png"",""time"":397},{""stimulus"":""img/2to3/5.png"",""time"":496},{""stimulus"":""img/2to3/6.png"",""time"":595},{""stimulus"":""img/2to3/7.png"",""time"":693},{""stimulus"":""img/2to3/8.png"",""time"":793},{""stimulus"":""img/2to3/9.png"",""time"":892},{""stimulus"":""img/2to3/10.png"",""time"":991},{""stimulus"":""img/2to3/11.png"",""time"":1091},{""stimulus"":""img/2to3/12.png"",""time"":1189}]","[]"
"image-keyboard-response","28","51997","0.0-5.0-1.12","571144323d47e800096358d9","bdp_cybrbll","Sun Mar 26 2023 14:49:52 GMT-0400 (Eastern Daylight Time)","413050","1","3","","null","","","","observe","","img/3to2/1.png","null","213","872","0.5","0.5","3","2","",""
"animation","29","53285","0.0-5.0-2.12","571144323d47e800096358d9","bdp_cybrbll","Sun Mar 26 2023 14:49:52 GMT-0400 (Eastern Daylight Time)","413050","1","3","","","","","","","","","","213","","","","3","2","[{""stimulus"":""img/3to2/1.png"",""time"":100},{""stimulus"":""img/3to2/2.png"",""time"":199},{""stimulus"":""img/3to2/3.png"",""time"":298},{""stimulus"":""img/3to2/4.png"",""time"":397},{""stimulus"":""img/3to2/5.png"",""time"":496},{""stimulus"":""img/3to2/6.png"",""time"":595},{""stimulus"":""img/3to2/7.png"",""time"":694},{""stimulus"":""img/3to2/8.png"",""time"":793},{""stimulus"":""img/3to2/9.png"",""time"":891},{""stimulus"":""img/3to2/10.png"",""time"":990},{""stimulus"":""img/3to2/11.png"",""time"":1090},{""stimulus"":""img/3to2/12.png"",""time"":1189}]","[]"
"image-keyboard-response","30","53404","0.0-5.0-1.13","571144323d47e800096358d9","bdp_cybrbll","Sun Mar 26 2023 14:49:52 GMT-0400 (Eastern Daylight Time)","413050","1","3","","119","","","","choice","","img/2to1/1.png","1","212","642","0.5","0.5","2","1","",""
"animation","31","54691","0.0-5.0-2.13","571144323d47e800096358d9","bdp_cybrbll","Sun Mar 26 2023 14:49:52 GMT-0400 (Eastern Daylight Time)","413050","1","3","","","","","","","","","","212","","","","2","1","[{""stimulus"":""img/2to1/1.png"",""time"":100},{""stimulus"":""img/2to1/2.png"",""time"":199},{""stimulus"":""img/2to1/3.png"",""time"":298},{""stimulus"":""img/2to1/4.png"",""time"":397},{""stimulus"":""img/2to1/5.png"",""time"":495},{""stimulus"":""img/2to1/6.png"",""time"":595},{""stimulus"":""img/2to1/7.png"",""time"":694},{""stimulus"":""img/2to1/8.png"",""time"":793},{""stimulus"":""img/2to1/9.png"",""time"":893},{""stimulus"":""img/2to1/10.png"",""time"":990},{""stimulus"":""img/2to1/11.png"",""time"":1089},{""stimulus"":""img/2to1/12.png"",""time"":1189}]","[]"
"image-keyboard-response","32","54971","0.0-5.0-1.14","571144323d47e800096358d9","bdp_cybrbll","Sun Mar 26 2023 14:49:52 GMT-0400 (Eastern Daylight Time)","413050","1","3","","null","","","","observe","","img/1to3/1.png","null","211","278","0.5","0.5","1","2","",""
"animation","33","56259","0.0-5.0-2.14","571144323d47e800096358d9","bdp_cybrbll","Sun Mar 26 2023 14:49:52 GMT-0400 (Eastern Daylight Time)","413050","1","3","","","","","","","","","","211","","","","1","2","[{""stimulus"":""img/1to2/1.png"",""time"":101},{""stimulus"":""img/1to2/2.png"",""time"":199},{""stimulus"":""img/1to2/3.png"",""time"":300},{""stimulus"":""img/1to2/4.png"",""time"":398},{""stimulus"":""img/1to2/5.png"",""time"":496},{""stimulus"":""img/1to2/6.png"",""time"":596},{""stimulus"":""img/1to2/7.png"",""time"":694},{""stimulus"":""img/1to2/8.png"",""time"":793},{""stimulus"":""img/1to2/9.png"",""time"":892},{""stimulus"":""img/1to2/10.png"",""time"":991},{""stimulus"":""img/1to2/11.png"",""time"":1091},{""stimulus"":""img/1to2/12.png"",""time"":1189}]","[]"
"image-keyboard-response","34","56316","0.0-5.0-1.15","571144323d47e800096358d9","bdp_cybrbll","Sun Mar 26 2023 14:49:52 GMT-0400 (Eastern Daylight Time)","413050","1","3","","57","","","","choice","","img/2to1/1.png","2","210","502","0.5","0.5","2","3","",""
"animation","35","57604","0.0-5.0-2.15","571144323d47e800096358d9","bdp_cybrbll","Sun Mar 26 2023 14:49:52 GMT-0400 (Eastern Daylight Time)","413050","1","3","","","","","","","","","","210","","","","2","3","[{""stimulus"":""img/2to3/1.png"",""time"":99},{""stimulus"":""img/2to3/2.png"",""time"":199},{""stimulus"":""img/2to3/3.png"",""time"":297},{""stimulus"":""img/2to3/4.png"",""time"":397},{""stimulus"":""img/2to3/5.png"",""time"":496},{""stimulus"":""img/2to3/6.png"",""time"":595},{""stimulus"":""img/2to3/7.png"",""time"":707},{""stimulus"":""img/2to3/8.png"",""time"":793},{""stimulus"":""img/2to3/9.png"",""time"":891},{""stimulus"":""img/2to3/10.png"",""time"":991},{""stimulus"":""img/2to3/11.png"",""time"":1090},{""stimulus"":""img/2to3/12.png"",""time"":1188}]","[]"
"image-keyboard-response","36","58148","0.0-5.0-1.16","571144323d47e800096358d9","bdp_cybrbll","Sun Mar 26 2023 14:49:52 GMT-0400 (Eastern Daylight Time)","413050","1","3","","null","","","","observe","","img/3to2/1.png","null","209","543","0.5","0.5","3","1","",""
"animation","37","59436","0.0-5.0-2.16","571144323d47e800096358d9","bdp_cybrbll","Sun Mar 26 2023 14:49:52 GMT-0400 (Eastern Daylight Time)","413050","1","3","","","","","","","","","","209","","","","3","1","[{""stimulus"":""img/3to1/1.png"",""time"":100},{""stimulus"":""img/3to1/2.png"",""time"":199},{""stimulus"":""img/3to1/3.png"",""time"":298},{""stimulus"":""img/3to1/4.png"",""time"":397},{""stimulus"":""img/3to1/5.png"",""time"":496},{""stimulus"":""img/3to1/6.png"",""time"":595},{""stimulus"":""img/3to1/7.png"",""time"":695},{""stimulus"":""img/3to1/8.png"",""time"":793},{""stimulus"":""img/3to1/9.png"",""time"":892},{""stimulus"":""img/3to1/10.png"",""time"":992},{""stimulus"":""img/3to1/11.png"",""time"":1089},{""stimulus"":""img/3to1/12.png"",""time"":1189}]","[]"
"image-keyboard-response","38","59656","0.0-5.0-1.17","571144323d47e800096358d9","bdp_cybrbll","Sun Mar 26 2023 14:49:52 GMT-0400 (Eastern Daylight Time)","413050","1","3","","null","","","","observe","","img/1to3/1.png","null","208","219","0.5","0.5","1","2","",""
"animation","39","60944","0.0-5.0-2.17","571144323d47e800096358d9","bdp_cybrbll","Sun Mar 26 2023 14:49:52 GMT-0400 (Eastern Daylight Time)","413050","1","3","","","","","","","","","","208","","","","1","2","[{""stimulus"":""img/1to2/1.png"",""time"":99},{""stimulus"":""img/1to2/2.png"",""time"":200},{""stimulus"":""img/1to2/3.png"",""time"":298},{""stimulus"":""img/1to2/4.png"",""time"":396},{""stimulus"":""img/1to2/5.png"",""time"":495},{""stimulus"":""img/1to2/6.png"",""time"":594},{""stimulus"":""img/1to2/7.png"",""time"":694},{""stimulus"":""img/1to2/8.png"",""time"":792},{""stimulus"":""img/1to2/9.png"",""time"":892},{""stimulus"":""img/1to2/10.png"",""time"":990},{""stimulus"":""img/1to2/11.png"",""time"":1090},{""stimulus"":""img/1to2/12.png"",""time"":1189}]","[]"
"image-keyboard-response","40","60979","0.0-5.0-1.18","571144323d47e800096358d9","bdp_cybrbll","Sun Mar 26 2023 14:49:52 GMT-0400 (Eastern Daylight Time)","413050","1","3","","34","","","","choice","","img/2to1/1.png","2","207","496","0.5","0.5","2","3","",""
"animation","41","62267","0.0-5.0-2.18","571144323d47e800096358d9","bdp_cybrbll","Sun Mar 26 2023 14:49:52 GMT-0400 (Eastern Daylight Time)","413050","1","3","","","","","","","","","","207","","","","2","3","[{""stimulus"":""img/2to3/1.png"",""time"":101},{""stimulus"":""img/2to3/2.png"",""time"":199},{""stimulus"":""img/2to3/3.png"",""time"":298},{""stimulus"":""img/2to3/4.png"",""time"":398},{""stimulus"":""img/2to3/5.png"",""time"":496},{""stimulus"":""img/2to3/6.png"",""time"":595},{""stimulus"":""img/2to3/7.png"",""time"":694},{""stimulus"":""img/2to3/8.png"",""time"":794},{""stimulus"":""img/2to3/9.png"",""time"":892},{""stimulus"":""img/2to3/10.png"",""time"":991},{""stimulus"":""img/2to3/11.png"",""time"":1091},{""stimulus"":""img/2to3/12.png"",""time"":1190}]","[]"
"image-keyboard-response","42","62535","0.0-5.0-1.19","571144323d47e800096358d9","bdp_cybrbll","Sun Mar 26 2023 14:49:52 GMT-0400 (Eastern Daylight Time)","413050","1","3","","null","","","","observe","","img/3to2/1.png","null","206","266","0.5","0.5","3","1","",""
"animation","43","63823","0.0-5.0-2.19","571144323d47e800096358d9","bdp_cybrbll","Sun Mar 26 2023 14:49:52 GMT-0400 (Eastern Daylight Time)","413050","1","3","","","","","","","","","","206","","","","3","1","[{""stimulus"":""img/3to1/1.png"",""time"":99},{""stimulus"":""img/3to1/2.png"",""time"":199},{""stimulus"":""img/3to1/3.png"",""time"":298},{""stimulus"":""img/3to1/4.png"",""time"":397},{""stimulus"":""img/3to1/5.png"",""time"":495},{""stimulus"":""img/3to1/6.png"",""time"":594},{""stimulus"":""img/3to1/7.png"",""time"":693},{""stimulus"":""img/3to1/8.png"",""time"":792},{""stimulus"":""img/3to1/9.png"",""time"":892},{""stimulus"":""img/3to1/10.png"",""time"":991},{""stimulus"":""img/3to1/11.png"",""time"":1090},{""stimulus"":""img/3to1/12.png"",""time"":1188}]","[]"
"image-keyboard-response","44","64268","0.0-5.0-1.20","571144323d47e800096358d9","bdp_cybrbll","Sun Mar 26 2023 14:49:52 GMT-0400 (Eastern Daylight Time)","413050","1","3","","null","","","","observe","","img/1to3/1.png","null","205","444","0.5","0.5","1","2","",""
"animation","45","65557","0.0-5.0-2.20","571144323d47e800096358d9","bdp_cybrbll","Sun Mar 26 2023 14:49:52 GMT-0400 (Eastern Daylight Time)","413050","1","3","","","","","","","","","","205","","","","1","2","[{""stimulus"":""img/1to2/1.png"",""time"":101},{""stimulus"":""img/1to2/2.png"",""time"":199},{""stimulus"":""img/1to2/3.png"",""time"":298},{""stimulus"":""img/1to2/4.png"",""time"":397},{""stimulus"":""img/1to2/5.png"",""time"":496},{""stimulus"":""img/1to2/6.png"",""time"":595},{""stimulus"":""img/1to2/7.png"",""time"":694},{""stimulus"":""img/1to2/8.png"",""time"":794},{""stimulus"":""img/1to2/9.png"",""time"":892},{""stimulus"":""img/1to2/10.png"",""time"":991},{""stimulus"":""img/1to2/11.png"",""time"":1091},{""stimulus"":""img/1to2/12.png"",""time"":1189}]","[]"
"image-keyboard-response","46","65635","0.0-5.0-1.21","571144323d47e800096358d9","bdp_cybrbll","Sun Mar 26 2023 14:49:52 GMT-0400 (Eastern Daylight Time)","413050","1","3","","78","","","","choice","","img/2to1/1.png","2","204","370","0.5","0.5","2","3","",""
"animation","47","66924","0.0-5.0-2.21","571144323d47e800096358d9","bdp_cybrbll","Sun Mar 26 2023 14:49:52 GMT-0400 (Eastern Daylight Time)","413050","1","3","","","","","","","","","","204","","","","2","3","[{""stimulus"":""img/2to3/1.png"",""time"":99},{""stimulus"":""img/2to3/2.png"",""time"":199},{""stimulus"":""img/2to3/3.png"",""time"":298},{""stimulus"":""img/2to3/4.png"",""time"":397},{""stimulus"":""img/2to3/5.png"",""time"":495},{""stimulus"":""img/2to3/6.png"",""time"":594},{""stimulus"":""img/2to3/7.png"",""time"":693},{""stimulus"":""img/2to3/8.png"",""time"":792},{""stimulus"":""img/2to3/9.png"",""time"":891},{""stimulus"":""img/2to3/10.png"",""time"":990},{""stimulus"":""img/2to3/11.png"",""time"":1090},{""stimulus"":""img/2to3/12.png"",""time"":1204}]","[]"
"image-keyboard-response","48","67351","0.0-5.0-1.22","571144323d47e800096358d9","bdp_cybrbll","Sun Mar 26 2023 14:49:52 GMT-0400 (Eastern Daylight Time)","413050","1","3","","null","","","","observe","","img/3to2/1.png","null","203","425","0.5","0.5","3","1","",""
"animation","49","68638","0.0-5.0-2.22","571144323d47e800096358d9","bdp_cybrbll","Sun Mar 26 2023 14:49:52 GMT-0400 (Eastern Daylight Time)","413050","1","3","","","","","","","","","","203","","","","3","1","[{""stimulus"":""img/3to1/1.png"",""time"":100},{""stimulus"":""img/3to1/2.png"",""time"":198},{""stimulus"":""img/3to1/3.png"",""time"":298},{""stimulus"":""img/3to1/4.png"",""time"":397},{""stimulus"":""img/3to1/5.png"",""time"":496},{""stimulus"":""img/3to1/6.png"",""time"":596},{""stimulus"":""img/3to1/7.png"",""time"":694},{""stimulus"":""img/3to1/8.png"",""time"":793},{""stimulus"":""img/3to1/9.png"",""time"":891},{""stimulus"":""img/3to1/10.png"",""time"":991},{""stimulus"":""img/3to1/11.png"",""time"":1090},{""stimulus"":""img/3to1/12.png"",""time"":1189}]","[]"
"image-keyboard-response","50","69228","0.0-5.0-1.23","571144323d47e800096358d9","bdp_cybrbll","Sun Mar 26 2023 14:49:52 GMT-0400 (Eastern Daylight Time)","413050","1","3","","null","","","","observe","","img/1to3/1.png","null","202","589","0.5","0.5","1","3","",""
"animation","51","70516","0.0-5.0-2.23","571144323d47e800096358d9","bdp_cybrbll","Sun Mar 26 2023 14:49:52 GMT-0400 (Eastern Daylight Time)","413050","1","3","","","","","","","","","","202","","","","1","3","[{""stimulus"":""img/1to3/1.png"",""time"":101},{""stimulus"":""img/1to3/2.png"",""time"":199},{""stimulus"":""img/1to3/3.png"",""time"":299},{""stimulus"":""img/1to3/4.png"",""time"":397},{""stimulus"":""img/1to3/5.png"",""time"":497},{""stimulus"":""img/1to3/6.png"",""time"":596},{""stimulus"":""img/1to3/7.png"",""time"":695},{""stimulus"":""img/1to3/8.png"",""time"":793},{""stimulus"":""img/1to3/9.png"",""time"":892},{""stimulus"":""img/1to3/10.png"",""time"":993},{""stimulus"":""img/1to3/11.png"",""time"":1090},{""stimulus"":""img/1to3/12.png"",""time"":1189}]","[]"
"image-keyboard-response","52","70882","0.0-5.0-1.24","571144323d47e800096358d9","bdp_cybrbll","Sun Mar 26 2023 14:49:52 GMT-0400 (Eastern Daylight Time)","413050","1","3","","null","","","","observe","","img/3to2/1.png","null","201","365","0.5","0.5","3","2","",""
"animation","53","72170","0.0-5.0-2.24","571144323d47e800096358d9","bdp_cybrbll","Sun Mar 26 2023 14:49:52 GMT-0400 (Eastern Daylight Time)","413050","1","3","","","","","","","","","","201","","","","3","2","[{""stimulus"":""img/3to2/1.png"",""time"":100},{""stimulus"":""img/3to2/2.png"",""time"":199},{""stimulus"":""img/3to2/3.png"",""time"":298},{""stimulus"":""img/3to2/4.png"",""time"":397},{""stimulus"":""img/3to2/5.png"",""time"":496},{""stimulus"":""img/3to2/6.png"",""time"":595},{""stimulus"":""img/3to2/7.png"",""time"":695},{""stimulus"":""img/3to2/8.png"",""time"":794},{""stimulus"":""img/3to2/9.png"",""time"":892},{""stimulus"":""img/3to2/10.png"",""time"":991},{""stimulus"":""img/3to2/11.png"",""time"":1090},{""stimulus"":""img/3to2/12.png"",""time"":1189}]","[]"
"image-keyboard-response","54","72276","0.0-5.0-1.25","571144323d47e800096358d9","bdp_cybrbll","Sun Mar 26 2023 14:49:52 GMT-0400 (Eastern Daylight Time)","413050","1","3","","106","","","","choice","","img/2to1/1.png","1","200","284","0.5","0.5","2","1","",""
"animation","55","73564","0.0-5.0-2.25","571144323d47e800096358d9","bdp_cybrbll","Sun Mar 26 2023 14:49:52 GMT-0400 (Eastern Daylight Time)","413050","1","3","","","","","","","","","","200","","","","2","1","[{""stimulus"":""img/2to1/1.png"",""time"":101},{""stimulus"":""img/2to1/2.png"",""time"":199},{""stimulus"":""img/2to1/3.png"",""time"":298},{""stimulus"":""img/2to1/4.png"",""time"":397},{""stimulus"":""img/2to1/5.png"",""time"":496},{""stimulus"":""img/2to1/6.png"",""time"":595},{""stimulus"":""img/2to1/7.png"",""time"":694},{""stimulus"":""img/2to1/8.png"",""time"":793},{""stimulus"":""img/2to1/9.png"",""time"":892},{""stimulus"":""img/2to1/10.png"",""time"":991},{""stimulus"":""img/2to1/11.png"",""time"":1090},{""stimulus"":""img/2to1/12.png"",""time"":1189}]","[]"
"image-keyboard-response","56","73904","0.0-5.0-1.26","571144323d47e800096358d9","bdp_cybrbll","Sun Mar 26 2023 14:49:52 GMT-0400 (Eastern Daylight Time)","413050","1","3","","null","","","","observe","","img/1to3/1.png","null","199","339","0.5","0.5","1","3","",""
"animation","57","75193","0.0-5.0-2.26","571144323d47e800096358d9","bdp_cybrbll","Sun Mar 26 2023 14:49:52 GMT-0400 (Eastern Daylight Time)","413050","1","3","","","","","","","","","","199","","","","1","3","[{""stimulus"":""img/1to3/1.png"",""time"":99},{""stimulus"":""img/1to3/2.png"",""time"":198},{""stimulus"":""img/1to3/3.png"",""time"":298},{""stimulus"":""img/1to3/4.png"",""time"":396},{""stimulus"":""img/1to3/5.png"",""time"":496},{""stimulus"":""img/1to3/6.png"",""time"":594},{""stimulus"":""img/1to3/7.png"",""time"":693},{""stimulus"":""img/1to3/8.png"",""time"":792},{""stimulus"":""img/1to3/9.png"",""time"":892},{""stimulus"":""img/1to3/10.png"",""time"":991},{""stimulus"":""img/1to3/11.png"",""time"":1089},{""stimulus"":""img/1to3/12.png"",""time"":1189}]","[]"
"image-keyboard-response","58","75588","0.0-5.0-1.27","571144323d47e800096358d9","bdp_cybrbll","Sun Mar 26 2023 14:49:52 GMT-0400 (Eastern Daylight Time)","413050","1","3","","null","","","","observe","","img/3to2/1.png","null","198","394","0.5","0.5","3","1","",""
"animation","59","76877","0.0-5.0-2.27","571144323d47e800096358d9","bdp_cybrbll","Sun Mar 26 2023 14:49:52 GMT-0400 (Eastern Daylight Time)","413050","1","3","","","","","","","","","","198","","","","3","1","[{""stimulus"":""img/3to1/1.png"",""time"":100},{""stimulus"":""img/3to1/2.png"",""time"":199},{""stimulus"":""img/3to1/3.png"",""time"":298},{""stimulus"":""img/3to1/4.png"",""time"":397},{""stimulus"":""img/3to1/5.png"",""time"":496},{""stimulus"":""img/3to1/6.png"",""time"":595},{""stimulus"":""img/3to1/7.png"",""time"":694},{""stimulus"":""img/3to1/8.png"",""time"":792},{""stimulus"":""img/3to1/9.png"",""time"":891},{""stimulus"":""img/3to1/10.png"",""time"":991},{""stimulus"":""img/3to1/11.png"",""time"":1090},{""stimulus"":""img/3to1/12.png"",""time"":1189}]","[]"
"image-keyboard-response","60","77081","0.0-5.0-1.28","571144323d47e800096358d9","bdp_cybrbll","Sun Mar 26 2023 14:49:52 GMT-0400 (Eastern Daylight Time)","413050","1","3","","null","","","","observe","","img/1to3/1.png","null","197","203","0.5","0.5","1","2","",""
"animation","61","78368","0.0-5.0-2.28","571144323d47e800096358d9","bdp_cybrbll","Sun Mar 26 2023 14:49:52 GMT-0400 (Eastern Daylight Time)","413050","1","3","","","","","","","","","","197","","","","1","2","[{""stimulus"":""img/1to2/1.png"",""time"":100},{""stimulus"":""img/1to2/2.png"",""time"":199},{""stimulus"":""img/1to2/3.png"",""time"":298},{""stimulus"":""img/1to2/4.png"",""time"":397},{""stimulus"":""img/1to2/5.png"",""time"":496},{""stimulus"":""img/1to2/6.png"",""time"":595},{""stimulus"":""img/1to2/7.png"",""time"":694},{""stimulus"":""img/1to2/8.png"",""time"":794},{""stimulus"":""img/1to2/9.png"",""time"":892},{""stimulus"":""img/1to2/10.png"",""time"":991},{""stimulus"":""img/1to2/11.png"",""time"":1090},{""stimulus"":""img/1to2/12.png"",""time"":1189}]","[]"
"image-keyboard-response","62","78547","0.0-5.0-1.29","571144323d47e800096358d9","bdp_cybrbll","Sun Mar 26 2023 14:49:52 GMT-0400 (Eastern Daylight Time)","413050","1","3","","178","","","","choice","","img/2to1/1.png","2","196","144","0.5","0.5","2","3","",""
"animation","63","79835","0.0-5.0-2.29","571144323d47e800096358d9","bdp_cybrbll","Sun Mar 26 2023 14:49:52 GMT-0400 (Eastern Daylight Time)","413050","1","3","","","","","","","","","","196","","","","2","3","[{""stimulus"":""img/2to3/1.png"",""time"":99},{""stimulus"":""img/2to3/2.png"",""time"":198},{""stimulus"":""img/2to3/3.png"",""time"":298},{""stimulus"":""img/2to3/4.png"",""time"":397},{""stimulus"":""img/2to3/5.png"",""time"":495},{""stimulus"":""img/2to3/6.png"",""time"":594},{""stimulus"":""img/2to3/7.png"",""time"":694},{""stimulus"":""img/2to3/8.png"",""time"":793},{""stimulus"":""img/2to3/9.png"",""time"":891},{""stimulus"":""img/2to3/10.png"",""time"":991},{""stimulus"":""img/2to3/11.png"",""time"":1089},{""stimulus"":""img/2to3/12.png"",""time"":1189}]","[]"
"image-keyboard-response","64","80095","0.0-5.0-1.30","571144323d47e800096358d9","bdp_cybrbll","Sun Mar 26 2023 14:49:52 GMT-0400 (Eastern Daylight Time)","413050","1","3","","null","","","","observe","","img/3to2/1.png","null","195","258","0.5","0.5","3","1","",""
"animation","65","81383","0.0-5.0-2.30","571144323d47e800096358d9","bdp_cybrbll","Sun Mar 26 2023 14:49:52 GMT-0400 (Eastern Daylight Time)","413050","1","3","","","","","","","","","","195","","","","3","1","[{""stimulus"":""img/3to1/1.png"",""time"":99},{""stimulus"":""img/3to1/2.png"",""time"":199},{""stimulus"":""img/3to1/3.png"",""time"":298},{""stimulus"":""img/3to1/4.png"",""time"":397},{""stimulus"":""img/3to1/5.png"",""time"":496},{""stimulus"":""img/3to1/6.png"",""time"":595},{""stimulus"":""img/3to1/7.png"",""time"":694},{""stimulus"":""img/3to1/8.png"",""time"":793},{""stimulus"":""img/3to1/9.png"",""time"":892},{""stimulus"":""img/3to1/10.png"",""time"":991},{""stimulus"":""img/3to1/11.png"",""time"":1090},{""stimulus"":""img/3to1/12.png"",""time"":1188}]","[]"
"image-keyboard-response","66","81914","0.0-5.0-1.31","571144323d47e800096358d9","bdp_cybrbll","Sun Mar 26 2023 14:49:52 GMT-0400 (Eastern Daylight Time)","413050","1","3","","null","","","","observe","","img/1to3/1.png","null","194","529","0.5","0.5","1","3","",""
"animation","67","83202","0.0-5.0-2.31","571144323d47e800096358d9","bdp_cybrbll","Sun Mar 26 2023 14:49:52 GMT-0400 (Eastern Daylight Time)","413050","1","3","","","","","","","","","","194","","","","1","3","[{""stimulus"":""img/1to3/1.png"",""time"":100},{""stimulus"":""img/1to3/2.png"",""time"":199},{""stimulus"":""img/1to3/3.png"",""time"":298},{""stimulus"":""img/1to3/4.png"",""time"":396},{""stimulus"":""img/1to3/5.png"",""time"":496},{""stimulus"":""img/1to3/6.png"",""time"":596},{""stimulus"":""img/1to3/7.png"",""time"":694},{""stimulus"":""img/1to3/8.png"",""time"":793},{""stimulus"":""img/1to3/9.png"",""time"":892},{""stimulus"":""img/1to3/10.png"",""time"":991},{""stimulus"":""img/1to3/11.png"",""time"":1090},{""stimulus"":""img/1to3/12.png"",""time"":1188}]","[]"
"image-keyboard-response","68","83525","0.0-5.0-1.32","571144323d47e800096358d9","bdp_cybrbll","Sun Mar 26 2023 14:49:52 GMT-0400 (Eastern Daylight Time)","413050","1","3","","null","","","","observe","","img/3to2/1.png","null","193","322","0.5","0.5","3","2","",""
"animation","69","84813","0.0-5.0-2.32","571144323d47e800096358d9","bdp_cybrbll","Sun Mar 26 2023 14:49:52 GMT-0400 (Eastern Daylight Time)","413050","1","3","","","","","","","","","","193","","","","3","2","[{""stimulus"":""img/3to2/1.png"",""time"":99},{""stimulus"":""img/3to2/2.png"",""time"":199},{""stimulus"":""img/3to2/3.png"",""time"":298},{""stimulus"":""img/3to2/4.png"",""time"":398},{""stimulus"":""img/3to2/5.png"",""time"":496},{""stimulus"":""img/3to2/6.png"",""time"":594},{""stimulus"":""img/3to2/7.png"",""time"":693},{""stimulus"":""img/3to2/8.png"",""time"":793},{""stimulus"":""img/3to2/9.png"",""time"":892},{""stimulus"":""img/3to2/10.png"",""time"":991},{""stimulus"":""img/3to2/11.png"",""time"":1089},{""stimulus"":""img/3to2/12.png"",""time"":1189}]","[]"
"image-keyboard-response","70","84939","0.0-5.0-1.33","571144323d47e800096358d9","bdp_cybrbll","Sun Mar 26 2023 14:49:52 GMT-0400 (Eastern Daylight Time)","413050","1","3","","125","","","","choice","","img/2to1/1.png","1","192","803","0.5","0.5","2","1","",""
"animation","71","86227","0.0-5.0-2.33","571144323d47e800096358d9","bdp_cybrbll","Sun Mar 26 2023 14:49:52 GMT-0400 (Eastern Daylight Time)","413050","1","3","","","","","","","","","","192","","","","2","1","[{""stimulus"":""img/2to1/1.png"",""time"":100},{""stimulus"":""img/2to1/2.png"",""time"":198},{""stimulus"":""img/2to1/3.png"",""time"":298},{""stimulus"":""img/2to1/4.png"",""time"":396},{""stimulus"":""img/2to1/5.png"",""time"":495},{""stimulus"":""img/2to1/6.png"",""time"":595},{""stimulus"":""img/2to1/7.png"",""time"":694},{""stimulus"":""img/2to1/8.png"",""time"":792},{""stimulus"":""img/2to1/9.png"",""time"":892},{""stimulus"":""img/2to1/10.png"",""time"":991},{""stimulus"":""img/2to1/11.png"",""time"":1089},{""stimulus"":""img/2to1/12.png"",""time"":1189}]","[]"
"image-keyboard-response","72","87063","0.0-5.0-1.34","571144323d47e800096358d9","bdp_cybrbll","Sun Mar 26 2023 14:49:52 GMT-0400 (Eastern Daylight Time)","413050","1","3","","null","","","","observe","","img/1to3/1.png","null","191","835","0.5","0.5","1","2","",""
"animation","73","88350","0.0-5.0-2.34","571144323d47e800096358d9","bdp_cybrbll","Sun Mar 26 2023 14:49:52 GMT-0400 (Eastern Daylight Time)","413050","1","3","","","","","","","","","","191","","","","1","2","[{""stimulus"":""img/1to2/1.png"",""time"":100},{""stimulus"":""img/1to2/2.png"",""time"":199},{""stimulus"":""img/1to2/3.png"",""time"":298},{""stimulus"":""img/1to2/4.png"",""time"":396},{""stimulus"":""img/1to2/5.png"",""time"":495},{""stimulus"":""img/1to2/6.png"",""time"":595},{""stimulus"":""img/1to2/7.png"",""time"":694},{""stimulus"":""img/1to2/8.png"",""time"":792},{""stimulus"":""img/1to2/9.png"",""time"":892},{""stimulus"":""img/1to2/10.png"",""time"":991},{""stimulus"":""img/1to2/11.png"",""time"":1090},{""stimulus"":""img/1to2/12.png"",""time"":1189}]","[]"
"image-keyboard-response","74","88411","0.0-5.0-1.35","571144323d47e800096358d9","bdp_cybrbll","Sun Mar 26 2023 14:49:52 GMT-0400 (Eastern Daylight Time)","413050","1","3","","60","","","","choice","","img/2to1/1.png","2","190","914","0.5","0.5","2","3","",""
"animation","75","89699","0.0-5.0-2.35","571144323d47e800096358d9","bdp_cybrbll","Sun Mar 26 2023 14:49:52 GMT-0400 (Eastern Daylight Time)","413050","1","3","","","","","","","","","","190","","","","2","3","[{""stimulus"":""img/2to3/1.png"",""time"":99},{""stimulus"":""img/2to3/2.png"",""time"":199},{""stimulus"":""img/2to3/3.png"",""time"":298},{""stimulus"":""img/2to3/4.png"",""time"":396},{""stimulus"":""img/2to3/5.png"",""time"":496},{""stimulus"":""img/2to3/6.png"",""time"":594},{""stimulus"":""img/2to3/7.png"",""time"":694},{""stimulus"":""img/2to3/8.png"",""time"":793},{""stimulus"":""img/2to3/9.png"",""time"":892},{""stimulus"":""img/2to3/10.png"",""time"":990},{""stimulus"":""img/2to3/11.png"",""time"":1089},{""stimulus"":""img/2to3/12.png"",""time"":1189}]","[]"
"image-keyboard-response","76","90448","0.0-5.0-1.36","571144323d47e800096358d9","bdp_cybrbll","Sun Mar 26 2023 14:49:52 GMT-0400 (Eastern Daylight Time)","413050","1","3","","null","","","","observe","","img/3to2/1.png","null","189","747","0.5","0.5","3","2","",""
"animation","77","91735","0.0-5.0-2.36","571144323d47e800096358d9","bdp_cybrbll","Sun Mar 26 2023 14:49:52 GMT-0400 (Eastern Daylight Time)","413050","1","3","","","","","","","","","","189","","","","3","2","[{""stimulus"":""img/3to2/1.png"",""time"":100},{""stimulus"":""img/3to2/2.png"",""time"":199},{""stimulus"":""img/3to2/3.png"",""time"":298},{""stimulus"":""img/3to2/4.png"",""time"":397},{""stimulus"":""img/3to2/5.png"",""time"":496},{""stimulus"":""img/3to2/6.png"",""time"":596},{""stimulus"":""img/3to2/7.png"",""time"":694},{""stimulus"":""img/3to2/8.png"",""time"":793},{""stimulus"":""img/3to2/9.png"",""time"":892},{""stimulus"":""img/3to2/10.png"",""time"":991},{""stimulus"":""img/3to2/11.png"",""time"":1090},{""stimulus"":""img/3to2/12.png"",""time"":1190}]","[]"
"image-keyboard-response","78","91755","0.0-5.0-1.37","571144323d47e800096358d9","bdp_cybrbll","Sun Mar 26 2023 14:49:52 GMT-0400 (Eastern Daylight Time)","413050","1","3","","19","","","","choice","","img/2to1/1.png","1","188","1010","0.5","0.5","2","1","",""
"animation","79","93043","0.0-5.0-2.37","571144323d47e800096358d9","bdp_cybrbll","Sun Mar 26 2023 14:49:52 GMT-0400 (Eastern Daylight Time)","413050","1","3","","","","","","","","","","188","","","","2","1","[{""stimulus"":""img/2to1/1.png"",""time"":101},{""stimulus"":""img/2to1/2.png"",""time"":198},{""stimulus"":""img/2to1/3.png"",""time"":297},{""stimulus"":""img/2to1/4.png"",""time"":396},{""stimulus"":""img/2to1/5.png"",""time"":496},{""stimulus"":""img/2to1/6.png"",""time"":595},{""stimulus"":""img/2to1/7.png"",""time"":693},{""stimulus"":""img/2to1/8.png"",""time"":792},{""stimulus"":""img/2to1/9.png"",""time"":891},{""stimulus"":""img/2to1/10.png"",""time"":991},{""stimulus"":""img/2to1/11.png"",""time"":1089},{""stimulus"":""img/2to1/12.png"",""time"":1188}]","[]"
"image-keyboard-response","80","93457","0.0-5.0-1.38","571144323d47e800096358d9","bdp_cybrbll","Sun Mar 26 2023 14:49:52 GMT-0400 (Eastern Daylight Time)","413050","1","3","","null","","","","observe","","img/1to3/1.png","null","187","413","0.5","0.5","1","3","",""
"animation","81","94745","0.0-5.0-2.38","571144323d47e800096358d9","bdp_cybrbll","Sun Mar 26 2023 14:49:52 GMT-0400 (Eastern Daylight Time)","413050","1","3","","","","","","","","","","187","","","","1","3","[{""stimulus"":""img/1to3/1.png"",""time"":100},{""stimulus"":""img/1to3/2.png"",""time"":199},{""stimulus"":""img/1to3/3.png"",""time"":298},{""stimulus"":""img/1to3/4.png"",""time"":397},{""stimulus"":""img/1to3/5.png"",""time"":496},{""stimulus"":""img/1to3/6.png"",""time"":595},{""stimulus"":""img/1to3/7.png"",""time"":694},{""stimulus"":""img/1to3/8.png"",""time"":793},{""stimulus"":""img/1to3/9.png"",""time"":893},{""stimulus"":""img/1to3/10.png"",""time"":991},{""stimulus"":""img/1to3/11.png"",""time"":1090},{""stimulus"":""img/1to3/12.png"",""time"":1190}]","[]"
"image-keyboard-response","82","95252","0.0-5.0-1.39","571144323d47e800096358d9","bdp_cybrbll","Sun Mar 26 2023 14:49:52 GMT-0400 (Eastern Daylight Time)","413050","1","3","","null","","","","observe","","img/3to2/1.png","null","186","506","0.5","0.5","3","2","",""
"animation","83","96540","0.0-5.0-2.39","571144323d47e800096358d9","bdp_cybrbll","Sun Mar 26 2023 14:49:52 GMT-0400 (Eastern Daylight Time)","413050","1","3","","","","","","","","","","186","","","","3","2","[{""stimulus"":""img/3to2/1.png"",""time"":100},{""stimulus"":""img/3to2/2.png"",""time"":199},{""stimulus"":""img/3to2/3.png"",""time"":298},{""stimulus"":""img/3to2/4.png"",""time"":397},{""stimulus"":""img/3to2/5.png"",""time"":496},{""stimulus"":""img/3to2/6.png"",""time"":595},{""stimulus"":""img/3to2/7.png"",""time"":694},{""stimulus"":""img/3to2/8.png"",""time"":795},{""stimulus"":""img/3to2/9.png"",""time"":892},{""stimulus"":""img/3to2/10.png"",""time"":991},{""stimulus"":""img/3to2/11.png"",""time"":1090},{""stimulus"":""img/3to2/12.png"",""time"":1189}]","[]"
"image-keyboard-response","84","96676","0.0-5.0-1.40","571144323d47e800096358d9","bdp_cybrbll","Sun Mar 26 2023 14:49:52 GMT-0400 (Eastern Daylight Time)","413050","1","3","","136","","","","choice","","img/2to1/1.png","1","185","178","0.5","0.5","2","1","",""
"animation","85","97964","0.0-5.0-2.40","571144323d47e800096358d9","bdp_cybrbll","Sun Mar 26 2023 14:49:52 GMT-0400 (Eastern Daylight Time)","413050","1","3","","","","","","","","","","185","","","","2","1","[{""stimulus"":""img/2to1/1.png"",""time"":100},{""stimulus"":""img/2to1/2.png"",""time"":200},{""stimulus"":""img/2to1/3.png"",""time"":298},{""stimulus"":""img/2to1/4.png"",""time"":396},{""stimulus"":""img/2to1/5.png"",""time"":495},{""stimulus"":""img/2to1/6.png"",""time"":595},{""stimulus"":""img/2to1/7.png"",""time"":694},{""stimulus"":""img/2to1/8.png"",""time"":793},{""stimulus"":""img/2to1/9.png"",""time"":892},{""stimulus"":""img/2to1/10.png"",""time"":992},{""stimulus"":""img/2to1/11.png"",""time"":1091},{""stimulus"":""img/2to1/12.png"",""time"":1189}]","[]"
"image-keyboard-response","86","98476","0.0-5.0-1.41","571144323d47e800096358d9","bdp_cybrbll","Sun Mar 26 2023 14:49:52 GMT-0400 (Eastern Daylight Time)","413050","1","3","","null","","","","observe","","img/1to3/1.png","null","184","511","0.5","0.5","1","3","",""
"animation","87","99763","0.0-5.0-2.41","571144323d47e800096358d9","bdp_cybrbll","Sun Mar 26 2023 14:49:52 GMT-0400 (Eastern Daylight Time)","413050","1","3","","","","","","","","","","184","","","","1","3","[{""stimulus"":""img/1to3/1.png"",""time"":113},{""stimulus"":""img/1to3/2.png"",""time"":198},{""stimulus"":""img/1to3/3.png"",""time"":298},{""stimulus"":""img/1to3/4.png"",""time"":397},{""stimulus"":""img/1to3/5.png"",""time"":495},{""stimulus"":""img/1to3/6.png"",""time"":595},{""stimulus"":""img/1to3/7.png"",""time"":693},{""stimulus"":""img/1to3/8.png"",""time"":792},{""stimulus"":""img/1to3/9.png"",""time"":891},{""stimulus"":""img/1to3/10.png"",""time"":991},{""stimulus"":""img/1to3/11.png"",""time"":1090},{""stimulus"":""img/1to3/12.png"",""time"":1189}]","[]"
"image-keyboard-response","88","100553","0.0-5.0-1.42","571144323d47e800096358d9","bdp_cybrbll","Sun Mar 26 2023 14:49:52 GMT-0400 (Eastern Daylight Time)","413050","1","3","","null","","","","observe","","img/3to2/1.png","null","183","788","0.5","0.5","3","1","",""
"animation","89","101841","0.0-5.0-2.42","571144323d47e800096358d9","bdp_cybrbll","Sun Mar 26 2023 14:49:52 GMT-0400 (Eastern Daylight Time)","413050","1","3","","","","","","","","","","183","","","","3","1","[{""stimulus"":""img/3to1/1.png"",""time"":100},{""stimulus"":""img/3to1/2.png"",""time"":199},{""stimulus"":""img/3to1/3.png"",""time"":298},{""stimulus"":""img/3to1/4.png"",""time"":397},{""stimulus"":""img/3to1/5.png"",""time"":496},{""stimulus"":""img/3to1/6.png"",""time"":595},{""stimulus"":""img/3to1/7.png"",""time"":693},{""stimulus"":""img/3to1/8.png"",""time"":792},{""stimulus"":""img/3to1/9.png"",""time"":892},{""stimulus"":""img/3to1/10.png"",""time"":991},{""stimulus"":""img/3to1/11.png"",""time"":1089},{""stimulus"":""img/3to1/12.png"",""time"":1188}]","[]"
"image-keyboard-response","90","102200","0.0-5.0-1.43","571144323d47e800096358d9","bdp_cybrbll","Sun Mar 26 2023 14:49:52 GMT-0400 (Eastern Daylight Time)","413050","1","3","","null","","","","observe","","img/1to3/1.png","null","182","358","0.5","0.5","1","3","",""
"animation","91","103488","0.0-5.0-2.43","571144323d47e800096358d9","bdp_cybrbll","Sun Mar 26 2023 14:49:52 GMT-0400 (Eastern Daylight Time)","413050","1","3","","","","","","","","","","182","","","","1","3","[{""stimulus"":""img/1to3/1.png"",""time"":101},{""stimulus"":""img/1to3/2.png"",""time"":199},{""stimulus"":""img/1to3/3.png"",""time"":298},{""stimulus"":""img/1to3/4.png"",""time"":397},{""stimulus"":""img/1to3/5.png"",""time"":496},{""stimulus"":""img/1to3/6.png"",""time"":595},{""stimulus"":""img/1to3/7.png"",""time"":694},{""stimulus"":""img/1to3/8.png"",""time"":793},{""stimulus"":""img/1to3/9.png"",""time"":893},{""stimulus"":""img/1to3/10.png"",""time"":992},{""stimulus"":""img/1to3/11.png"",""time"":1090},{""stimulus"":""img/1to3/12.png"",""time"":1189}]","[]"
"image-keyboard-response","92","104585","0.0-5.0-1.44","571144323d47e800096358d9","bdp_cybrbll","Sun Mar 26 2023 14:49:52 GMT-0400 (Eastern Daylight Time)","413050","1","3","","null","","","","observe","","img/3to2/1.png","null","181","1097","0.5","0.5","3","1","",""
"animation","93","105873","0.0-5.0-2.44","571144323d47e800096358d9","bdp_cybrbll","Sun Mar 26 2023 14:49:52 GMT-0400 (Eastern Daylight Time)","413050","1","3","","","","","","","","","","181","","","","3","1","[{""stimulus"":""img/3to1/1.png"",""time"":99},{""stimulus"":""img/3to1/2.png"",""time"":199},{""stimulus"":""img/3to1/3.png"",""time"":297},{""stimulus"":""img/3to1/4.png"",""time"":396},{""stimulus"":""img/3to1/5.png"",""time"":495},{""stimulus"":""img/3to1/6.png"",""time"":595},{""stimulus"":""img/3to1/7.png"",""time"":693},{""stimulus"":""img/3to1/8.png"",""time"":792},{""stimulus"":""img/3to1/9.png"",""time"":891},{""stimulus"":""img/3to1/10.png"",""time"":990},{""stimulus"":""img/3to1/11.png"",""time"":1090},{""stimulus"":""img/3to1/12.png"",""time"":1189}]","[]"
"image-keyboard-response","94","106262","0.0-5.0-1.45","571144323d47e800096358d9","bdp_cybrbll","Sun Mar 26 2023 14:49:52 GMT-0400 (Eastern Daylight Time)","413050","1","3","","null","","","","observe","","img/1to3/1.png","null","180","388","0.5","0.5","1","2","",""
"animation","95","107550","0.0-5.0-2.45","571144323d47e800096358d9","bdp_cybrbll","Sun Mar 26 2023 14:49:52 GMT-0400 (Eastern Daylight Time)","413050","1","3","","","","","","","","","","180","","","","1","2","[{""stimulus"":""img/1to2/1.png"",""time"":100},{""stimulus"":""img/1to2/2.png"",""time"":199},{""stimulus"":""img/1to2/3.png"",""time"":298},{""stimulus"":""img/1to2/4.png"",""time"":398},{""stimulus"":""img/1to2/5.png"",""time"":497},{""stimulus"":""img/1to2/6.png"",""time"":595},{""stimulus"":""img/1to2/7.png"",""time"":694},{""stimulus"":""img/1to2/8.png"",""time"":793},{""stimulus"":""img/1to2/9.png"",""time"":893},{""stimulus"":""img/1to2/10.png"",""time"":992},{""stimulus"":""img/1to2/11.png"",""time"":1090},{""stimulus"":""img/1to2/12.png"",""time"":1189}]","[]"
"image-keyboard-response","96","108395","0.0-5.0-1.46","571144323d47e800096358d9","bdp_cybrbll","Sun Mar 26 2023 14:49:52 GMT-0400 (Eastern Daylight Time)","413050","1","3","","844","","","","choice","","img/2to1/1.png","2","179","916","0.5","0.5","2","3","",""
"animation","97","109683","0.0-5.0-2.46","571144323d47e800096358d9","bdp_cybrbll","Sun Mar 26 2023 14:49:52 GMT-0400 (Eastern Daylight Time)","413050","1","3","","","","","","","","","","179","","","","2","3","[{""stimulus"":""img/2to3/1.png"",""time"":100},{""stimulus"":""img/2to3/2.png"",""time"":200},{""stimulus"":""img/2to3/3.png"",""time"":298},{""stimulus"":""img/2to3/4.png"",""time"":397},{""stimulus"":""img/2to3/5.png"",""time"":497},{""stimulus"":""img/2to3/6.png"",""time"":595},{""stimulus"":""img/2to3/7.png"",""time"":694},{""stimulus"":""img/2to3/8.png"",""time"":793},{""stimulus"":""img/2to3/9.png"",""time"":893},{""stimulus"":""img/2to3/10.png"",""time"":991},{""stimulus"":""img/2to3/11.png"",""time"":1091},{""stimulus"":""img/2to3/12.png"",""time"":1189}]","[]"
"image-keyboard-response","98","110173","0.0-5.0-1.47","571144323d47e800096358d9","bdp_cybrbll","Sun Mar 26 2023 14:49:52 GMT-0400 (Eastern Daylight Time)","413050","1","3","","null","","","","observe","","img/3to2/1.png","null","178","488","0.5","0.5","3","2","",""
"animation","99","111460","0.0-5.0-2.47","571144323d47e800096358d9","bdp_cybrbll","Sun Mar 26 2023 14:49:52 GMT-0400 (Eastern Daylight Time)","413050","1","3","","","","","","","","","","178","","","","3","2","[{""stimulus"":""img/3to2/1.png"",""time"":99},{""stimulus"":""img/3to2/2.png"",""time"":199},{""stimulus"":""img/3to2/3.png"",""time"":298},{""stimulus"":""img/3to2/4.png"",""time"":397},{""stimulus"":""img/3to2/5.png"",""time"":496},{""stimulus"":""img/3to2/6.png"",""time"":595},{""stimulus"":""img/3to2/7.png"",""time"":696},{""stimulus"":""img/3to2/8.png"",""time"":793},{""stimulus"":""img/3to2/9.png"",""time"":892},{""stimulus"":""img/3to2/10.png"",""time"":990},{""stimulus"":""img/3to2/11.png"",""time"":1089},{""stimulus"":""img/3to2/12.png"",""time"":1189}]","[]"
"image-keyboard-response","100","111476","0.0-5.0-1.48","571144323d47e800096358d9","bdp_cybrbll","Sun Mar 26 2023 14:49:52 GMT-0400 (Eastern Daylight Time)","413050","1","3","","15","","","","choice","","img/2to1/1.png","1","177","440","0.5","0.5","2","1","",""
"animation","101","112764","0.0-5.0-2.48","571144323d47e800096358d9","bdp_cybrbll","Sun Mar 26 2023 14:49:52 GMT-0400 (Eastern Daylight Time)","413050","1","3","","","","","","","","","","177","","","","2","1","[{""stimulus"":""img/2to1/1.png"",""time"":101},{""stimulus"":""img/2to1/2.png"",""time"":199},{""stimulus"":""img/2to1/3.png"",""time"":298},{""stimulus"":""img/2to1/4.png"",""time"":397},{""stimulus"":""img/2to1/5.png"",""time"":496},{""stimulus"":""img/2to1/6.png"",""time"":595},{""stimulus"":""img/2to1/7.png"",""time"":693},{""stimulus"":""img/2to1/8.png"",""time"":793},{""stimulus"":""img/2to1/9.png"",""time"":892},{""stimulus"":""img/2to1/10.png"",""time"":991},{""stimulus"":""img/2to1/11.png"",""time"":1090},{""stimulus"":""img/2to1/12.png"",""time"":1188}]","[]"
"image-keyboard-response","102","113303","0.0-5.0-1.49","571144323d47e800096358d9","bdp_cybrbll","Sun Mar 26 2023 14:49:52 GMT-0400 (Eastern Daylight Time)","413050","1","3","","null","","","","observe","","img/1to3/1.png","null","176","538","0.5","0.5","1","3","",""
"animation","103","114591","0.0-5.0-2.49","571144323d47e800096358d9","bdp_cybrbll","Sun Mar 26 2023 14:49:52 GMT-0400 (Eastern Daylight Time)","413050","1","3","","","","","","","","","","176","","","","1","3","[{""stimulus"":""img/1to3/1.png"",""time"":100},{""stimulus"":""img/1to3/2.png"",""time"":199},{""stimulus"":""img/1to3/3.png"",""time"":298},{""stimulus"":""img/1to3/4.png"",""time"":398},{""stimulus"":""img/1to3/5.png"",""time"":496},{""stimulus"":""img/1to3/6.png"",""time"":595},{""stimulus"":""img/1to3/7.png"",""time"":695},{""stimulus"":""img/1to3/8.png"",""time"":793},{""stimulus"":""img/1to3/9.png"",""time"":893},{""stimulus"":""img/1to3/10.png"",""time"":992},{""stimulus"":""img/1to3/11.png"",""time"":1089},{""stimulus"":""img/1to3/12.png"",""time"":1190}]","[]"
"image-keyboard-response","104","115730","0.0-5.0-1.50","571144323d47e800096358d9","bdp_cybrbll","Sun Mar 26 2023 14:49:52 GMT-0400 (Eastern Daylight Time)","413050","1","3","","null","","","","observe","","img/3to2/1.png","null","175","1137","0.5","0.5","3","1","",""
"animation","105","117018","0.0-5.0-2.50","571144323d47e800096358d9","bdp_cybrbll","Sun Mar 26 2023 14:49:52 GMT-0400 (Eastern Daylight Time)","413050","1","3","","","","","","","","","","175","","","","3","1","[{""stimulus"":""img/3to1/1.png"",""time"":100},{""stimulus"":""img/3to1/2.png"",""time"":199},{""stimulus"":""img/3to1/3.png"",""time"":298},{""stimulus"":""img/3to1/4.png"",""time"":396},{""stimulus"":""img/3to1/5.png"",""time"":496},{""stimulus"":""img/3to1/6.png"",""time"":594},{""stimulus"":""img/3to1/7.png"",""time"":694},{""stimulus"":""img/3to1/8.png"",""time"":793},{""stimulus"":""img/3to1/9.png"",""time"":891},{""stimulus"":""img/3to1/10.png"",""time"":991},{""stimulus"":""img/3to1/11.png"",""time"":1089},{""stimulus"":""img/3to1/12.png"",""time"":1188}]","[]"
"image-keyboard-response","106","117475","0.0-5.0-1.51","571144323d47e800096358d9","bdp_cybrbll","Sun Mar 26 2023 14:49:52 GMT-0400 (Eastern Daylight Time)","413050","1","3","","null","","","","observe","","img/1to3/1.png","null","174","456","0.5","0.5","1","2","",""
"animation","107","118762","0.0-5.0-2.51","571144323d47e800096358d9","bdp_cybrbll","Sun Mar 26 2023 14:49:52 GMT-0400 (Eastern Daylight Time)","413050","1","3","","","","","","","","","","174","","","","1","2","[{""stimulus"":""img/1to2/1.png"",""time"":100},{""stimulus"":""img/1to2/2.png"",""time"":199},{""stimulus"":""img/1to2/3.png"",""time"":298},{""stimulus"":""img/1to2/4.png"",""time"":397},{""stimulus"":""img/1to2/5.png"",""time"":496},{""stimulus"":""img/1to2/6.png"",""time"":594},{""stimulus"":""img/1to2/7.png"",""time"":694},{""stimulus"":""img/1to2/8.png"",""time"":792},{""stimulus"":""img/1to2/9.png"",""time"":892},{""stimulus"":""img/1to2/10.png"",""time"":992},{""stimulus"":""img/1to2/11.png"",""time"":1090},{""stimulus"":""img/1to2/12.png"",""time"":1189}]","[]"
"image-keyboard-response","108","118795","0.0-5.0-1.52","571144323d47e800096358d9","bdp_cybrbll","Sun Mar 26 2023 14:49:52 GMT-0400 (Eastern Daylight Time)","413050","1","3","","32","","","","choice","","img/2to1/1.png","2","173","526","0.5","0.5","2","3","",""
"animation","109","120083","0.0-5.0-2.52","571144323d47e800096358d9","bdp_cybrbll","Sun Mar 26 2023 14:49:52 GMT-0400 (Eastern Daylight Time)","413050","1","3","","","","","","","","","","173","","","","2","3","[{""stimulus"":""img/2to3/1.png"",""time"":100},{""stimulus"":""img/2to3/2.png"",""time"":198},{""stimulus"":""img/2to3/3.png"",""time"":298},{""stimulus"":""img/2to3/4.png"",""time"":397},{""stimulus"":""img/2to3/5.png"",""time"":496},{""stimulus"":""img/2to3/6.png"",""time"":594},{""stimulus"":""img/2to3/7.png"",""time"":693},{""stimulus"":""img/2to3/8.png"",""time"":792},{""stimulus"":""img/2to3/9.png"",""time"":892},{""stimulus"":""img/2to3/10.png"",""time"":990},{""stimulus"":""img/2to3/11.png"",""time"":1089},{""stimulus"":""img/2to3/12.png"",""time"":1188}]","[]"
"image-keyboard-response","110","120421","0.0-5.0-1.53","571144323d47e800096358d9","bdp_cybrbll","Sun Mar 26 2023 14:49:52 GMT-0400 (Eastern Daylight Time)","413050","1","3","","null","","","","observe","","img/3to2/1.png","null","172","337","0.5","0.5","3","2","",""
"animation","111","121709","0.0-5.0-2.53","571144323d47e800096358d9","bdp_cybrbll","Sun Mar 26 2023 14:49:52 GMT-0400 (Eastern Daylight Time)","413050","1","3","","","","","","","","","","172","","","","3","2","[{""stimulus"":""img/3to2/1.png"",""time"":100},{""stimulus"":""img/3to2/2.png"",""time"":198},{""stimulus"":""img/3to2/3.png"",""time"":297},{""stimulus"":""img/3to2/4.png"",""time"":396},{""stimulus"":""img/3to2/5.png"",""time"":496},{""stimulus"":""img/3to2/6.png"",""time"":596},{""stimulus"":""img/3to2/7.png"",""time"":694},{""stimulus"":""img/3to2/8.png"",""time"":793},{""stimulus"":""img/3to2/9.png"",""time"":891},{""stimulus"":""img/3to2/10.png"",""time"":990},{""stimulus"":""img/3to2/11.png"",""time"":1089},{""stimulus"":""img/3to2/12.png"",""time"":1188}]","[]"
"image-keyboard-response","112","121851","0.0-5.0-1.54","571144323d47e800096358d9","bdp_cybrbll","Sun Mar 26 2023 14:49:52 GMT-0400 (Eastern Daylight Time)","413050","1","3","","142","","","","choice","","img/2to1/1.png","1","171","911","0.5","0.5","2","1","",""
"animation","113","123139","0.0-5.0-2.54","571144323d47e800096358d9","bdp_cybrbll","Sun Mar 26 2023 14:49:52 GMT-0400 (Eastern Daylight Time)","413050","1","3","","","","","","","","","","171","","","","2","1","[{""stimulus"":""img/2to1/1.png"",""time"":99},{""stimulus"":""img/2to1/2.png"",""time"":198},{""stimulus"":""img/2to1/3.png"",""time"":298},{""stimulus"":""img/2to1/4.png"",""time"":397},{""stimulus"":""img/2to1/5.png"",""time"":495},{""stimulus"":""img/2to1/6.png"",""time"":595},{""stimulus"":""img/2to1/7.png"",""time"":694},{""stimulus"":""img/2to1/8.png"",""time"":793},{""stimulus"":""img/2to1/9.png"",""time"":892},{""stimulus"":""img/2to1/10.png"",""time"":990},{""stimulus"":""img/2to1/11.png"",""time"":1090},{""stimulus"":""img/2to1/12.png"",""time"":1189}]","[]"
"image-keyboard-response","114","123691","0.0-5.0-1.55","571144323d47e800096358d9","bdp_cybrbll","Sun Mar 26 2023 14:49:52 GMT-0400 (Eastern Daylight Time)","413050","1","3","","null","","","","observe","","img/1to3/1.png","null","170","551","0.5","0.5","1","2","",""
"animation","115","124979","0.0-5.0-2.55","571144323d47e800096358d9","bdp_cybrbll","Sun Mar 26 2023 14:49:52 GMT-0400 (Eastern Daylight Time)","413050","1","3","","","","","","","","","","170","","","","1","2","[{""stimulus"":""img/1to2/1.png"",""time"":100},{""stimulus"":""img/1to2/2.png"",""time"":199},{""stimulus"":""img/1to2/3.png"",""time"":298},{""stimulus"":""img/1to2/4.png"",""time"":397},{""stimulus"":""img/1to2/5.png"",""time"":496},{""stimulus"":""img/1to2/6.png"",""time"":595},{""stimulus"":""img/1to2/7.png"",""time"":695},{""stimulus"":""img/1to2/8.png"",""time"":793},{""stimulus"":""img/1to2/9.png"",""time"":892},{""stimulus"":""img/1to2/10.png"",""time"":991},{""stimulus"":""img/1to2/11.png"",""time"":1090},{""stimulus"":""img/1to2/12.png"",""time"":1189}]","[]"
"image-keyboard-response","116","125171","0.0-5.0-1.56","571144323d47e800096358d9","bdp_cybrbll","Sun Mar 26 2023 14:49:52 GMT-0400 (Eastern Daylight Time)","413050","1","3","","192","","","","choice","","img/2to1/1.png","2","169","880","0.5","0.5","2","3","",""
"animation","117","126459","0.0-5.0-2.56","571144323d47e800096358d9","bdp_cybrbll","Sun Mar 26 2023 14:49:52 GMT-0400 (Eastern Daylight Time)","413050","1","3","","","","","","","","","","169","","","","2","3","[{""stimulus"":""img/2to3/1.png"",""time"":99},{""stimulus"":""img/2to3/2.png"",""time"":198},{""stimulus"":""img/2to3/3.png"",""time"":297},{""stimulus"":""img/2to3/4.png"",""time"":396},{""stimulus"":""img/2to3/5.png"",""time"":495},{""stimulus"":""img/2to3/6.png"",""time"":594},{""stimulus"":""img/2to3/7.png"",""time"":694},{""stimulus"":""img/2to3/8.png"",""time"":793},{""stimulus"":""img/2to3/9.png"",""time"":891},{""stimulus"":""img/2to3/10.png"",""time"":990},{""stimulus"":""img/2to3/11.png"",""time"":1089},{""stimulus"":""img/2to3/12.png"",""time"":1188}]","[]"
"image-keyboard-response","118","127850","0.0-5.0-1.57","571144323d47e800096358d9","bdp_cybrbll","Sun Mar 26 2023 14:49:52 GMT-0400 (Eastern Daylight Time)","413050","1","3","","null","","","","observe","","img/3to2/1.png","null","168","1390","0.5","0.5","3","2","",""
"animation","119","129138","0.0-5.0-2.57","571144323d47e800096358d9","bdp_cybrbll","Sun Mar 26 2023 14:49:52 GMT-0400 (Eastern Daylight Time)","413050","1","3","","","","","","","","","","168","","","","3","2","[{""stimulus"":""img/3to2/1.png"",""time"":100},{""stimulus"":""img/3to2/2.png"",""time"":199},{""stimulus"":""img/3to2/3.png"",""time"":297},{""stimulus"":""img/3to2/4.png"",""time"":397},{""stimulus"":""img/3to2/5.png"",""time"":496},{""stimulus"":""img/3to2/6.png"",""time"":595},{""stimulus"":""img/3to2/7.png"",""time"":693},{""stimulus"":""img/3to2/8.png"",""time"":793},{""stimulus"":""img/3to2/9.png"",""time"":892},{""stimulus"":""img/3to2/10.png"",""time"":991},{""stimulus"":""img/3to2/11.png"",""time"":1090},{""stimulus"":""img/3to2/12.png"",""time"":1189}]","[]"
"image-keyboard-response","120","129299","0.0-5.0-1.58","571144323d47e800096358d9","bdp_cybrbll","Sun Mar 26 2023 14:49:52 GMT-0400 (Eastern Daylight Time)","413050","1","3","","161","","","","choice","","img/2to1/1.png","1","167","764","0.5","0.5","2","1","",""
"animation","121","130587","0.0-5.0-2.58","571144323d47e800096358d9","bdp_cybrbll","Sun Mar 26 2023 14:49:52 GMT-0400 (Eastern Daylight Time)","413050","1","3","","","","","","","","","","167","","","","2","1","[{""stimulus"":""img/2to1/1.png"",""time"":100},{""stimulus"":""img/2to1/2.png"",""time"":199},{""stimulus"":""img/2to1/3.png"",""time"":297},{""stimulus"":""img/2to1/4.png"",""time"":397},{""stimulus"":""img/2to1/5.png"",""time"":496},{""stimulus"":""img/2to1/6.png"",""time"":596},{""stimulus"":""img/2to1/7.png"",""time"":694},{""stimulus"":""img/2to1/8.png"",""time"":793},{""stimulus"":""img/2to1/9.png"",""time"":891},{""stimulus"":""img/2to1/10.png"",""time"":991},{""stimulus"":""img/2to1/11.png"",""time"":1090},{""stimulus"":""img/2to1/12.png"",""time"":1189}]","[]"
"image-keyboard-response","122","130922","0.0-5.0-1.59","571144323d47e800096358d9","bdp_cybrbll","Sun Mar 26 2023 14:49:52 GMT-0400 (Eastern Daylight Time)","413050","1","3","","null","","","","observe","","img/1to3/1.png","null","166","334","0.5","0.5","1","2","",""
"animation","123","132211","0.0-5.0-2.59","571144323d47e800096358d9","bdp_cybrbll","Sun Mar 26 2023 14:49:52 GMT-0400 (Eastern Daylight Time)","413050","1","3","","","","","","","","","","166","","","","1","2","[{""stimulus"":""img/1to2/1.png"",""time"":101},{""stimulus"":""img/1to2/2.png"",""time"":199},{""stimulus"":""img/1to2/3.png"",""time"":298},{""stimulus"":""img/1to2/4.png"",""time"":397},{""stimulus"":""img/1to2/5.png"",""time"":496},{""stimulus"":""img/1to2/6.png"",""time"":595},{""stimulus"":""img/1to2/7.png"",""time"":695},{""stimulus"":""img/1to2/8.png"",""time"":794},{""stimulus"":""img/1to2/9.png"",""time"":892},{""stimulus"":""img/1to2/10.png"",""time"":992},{""stimulus"":""img/1to2/11.png"",""time"":1090},{""stimulus"":""img/1to2/12.png"",""time"":1189}]","[]"
"image-keyboard-response","124","132212","0.0-5.0-1.60","571144323d47e800096358d9","bdp_cybrbll","Sun Mar 26 2023 14:49:52 GMT-0400 (Eastern Daylight Time)","413050","1","3","","1","","","","choice","","img/2to1/1.png","2","165","1265","0.5","0.5","2","3","",""
"animation","125","133500","0.0-5.0-2.60","571144323d47e800096358d9","bdp_cybrbll","Sun Mar 26 2023 14:49:52 GMT-0400 (Eastern Daylight Time)","413050","1","3","","","","","","","","","","165","","","","2","3","[{""stimulus"":""img/2to3/1.png"",""time"":99},{""stimulus"":""img/2to3/2.png"",""time"":198},{""stimulus"":""img/2to3/3.png"",""time"":297},{""stimulus"":""img/2to3/4.png"",""time"":396},{""stimulus"":""img/2to3/5.png"",""time"":495},{""stimulus"":""img/2to3/6.png"",""time"":595},{""stimulus"":""img/2to3/7.png"",""time"":693},{""stimulus"":""img/2to3/8.png"",""time"":793},{""stimulus"":""img/2to3/9.png"",""time"":891},{""stimulus"":""img/2to3/10.png"",""time"":991},{""stimulus"":""img/2to3/11.png"",""time"":1089},{""stimulus"":""img/2to3/12.png"",""time"":1188}]","[]"
"image-keyboard-response","126","134151","0.0-5.0-1.61","571144323d47e800096358d9","bdp_cybrbll","Sun Mar 26 2023 14:49:52 GMT-0400 (Eastern Daylight Time)","413050","1","3","","null","","","","observe","","img/3to2/1.png","null","164","650","0.5","0.5","3","1","",""
"animation","127","135438","0.0-5.0-2.61","571144323d47e800096358d9","bdp_cybrbll","Sun Mar 26 2023 14:49:52 GMT-0400 (Eastern Daylight Time)","413050","1","3","","","","","","","","","","164","","","","3","1","[{""stimulus"":""img/3to1/1.png"",""time"":100},{""stimulus"":""img/3to1/2.png"",""time"":198},{""stimulus"":""img/3to1/3.png"",""time"":297},{""stimulus"":""img/3to1/4.png"",""time"":396},{""stimulus"":""img/3to1/5.png"",""time"":496},{""stimulus"":""img/3to1/6.png"",""time"":595},{""stimulus"":""img/3to1/7.png"",""time"":694},{""stimulus"":""img/3to1/8.png"",""time"":793},{""stimulus"":""img/3to1/9.png"",""time"":891},{""stimulus"":""img/3to1/10.png"",""time"":991},{""stimulus"":""img/3to1/11.png"",""time"":1089},{""stimulus"":""img/3to1/12.png"",""time"":1189}]","[]"
"image-keyboard-response","128","135733","0.0-5.0-1.62","571144323d47e800096358d9","bdp_cybrbll","Sun Mar 26 2023 14:49:52 GMT-0400 (Eastern Daylight Time)","413050","1","3","","null","","","","observe","","img/1to3/1.png","null","163","293","0.5","0.5","1","3","",""
"animation","129","137020","0.0-5.0-2.62","571144323d47e800096358d9","bdp_cybrbll","Sun Mar 26 2023 14:49:52 GMT-0400 (Eastern Daylight Time)","413050","1","3","","","","","","","","","","163","","","","1","3","[{""stimulus"":""img/1to3/1.png"",""time"":100},{""stimulus"":""img/1to3/2.png"",""time"":199},{""stimulus"":""img/1to3/3.png"",""time"":298},{""stimulus"":""img/1to3/4.png"",""time"":397},{""stimulus"":""img/1to3/5.png"",""time"":496},{""stimulus"":""img/1to3/6.png"",""time"":595},{""stimulus"":""img/1to3/7.png"",""time"":694},{""stimulus"":""img/1to3/8.png"",""time"":794},{""stimulus"":""img/1to3/9.png"",""time"":893},{""stimulus"":""img/1to3/10.png"",""time"":991},{""stimulus"":""img/1to3/11.png"",""time"":1090},{""stimulus"":""img/1to3/12.png"",""time"":1189}]","[]"
"image-keyboard-response","130","137501","0.0-5.0-1.63","571144323d47e800096358d9","bdp_cybrbll","Sun Mar 26 2023 14:49:52 GMT-0400 (Eastern Daylight Time)","413050","1","3","","null","","","","observe","","img/3to2/1.png","null","162","480","0.5","0.5","3","1","",""
"animation","131","138789","0.0-5.0-2.63","571144323d47e800096358d9","bdp_cybrbll","Sun Mar 26 2023 14:49:52 GMT-0400 (Eastern Daylight Time)","413050","1","3","","","","","","","","","","162","","","","3","1","[{""stimulus"":""img/3to1/1.png"",""time"":100},{""stimulus"":""img/3to1/2.png"",""time"":199},{""stimulus"":""img/3to1/3.png"",""time"":298},{""stimulus"":""img/3to1/4.png"",""time"":397},{""stimulus"":""img/3to1/5.png"",""time"":496},{""stimulus"":""img/3to1/6.png"",""time"":595},{""stimulus"":""img/3to1/7.png"",""time"":694},{""stimulus"":""img/3to1/8.png"",""time"":793},{""stimulus"":""img/3to1/9.png"",""time"":892},{""stimulus"":""img/3to1/10.png"",""time"":991},{""stimulus"":""img/3to1/11.png"",""time"":1090},{""stimulus"":""img/3to1/12.png"",""time"":1190}]","[]"
"image-keyboard-response","132","139162","0.0-5.0-1.64","571144323d47e800096358d9","bdp_cybrbll","Sun Mar 26 2023 14:49:52 GMT-0400 (Eastern Daylight Time)","413050","1","3","","null","","","","observe","","img/1to3/1.png","null","161","372","0.5","0.5","1","2","",""
"animation","133","140450","0.0-5.0-2.64","571144323d47e800096358d9","bdp_cybrbll","Sun Mar 26 2023 14:49:52 GMT-0400 (Eastern Daylight Time)","413050","1","3","","","","","","","","","","161","","","","1","2","[{""stimulus"":""img/1to2/1.png"",""time"":100},{""stimulus"":""img/1to2/2.png"",""time"":199},{""stimulus"":""img/1to2/3.png"",""time"":298},{""stimulus"":""img/1to2/4.png"",""time"":397},{""stimulus"":""img/1to2/5.png"",""time"":496},{""stimulus"":""img/1to2/6.png"",""time"":595},{""stimulus"":""img/1to2/7.png"",""time"":695},{""stimulus"":""img/1to2/8.png"",""time"":793},{""stimulus"":""img/1to2/9.png"",""time"":892},{""stimulus"":""img/1to2/10.png"",""time"":991},{""stimulus"":""img/1to2/11.png"",""time"":1090},{""stimulus"":""img/1to2/12.png"",""time"":1190}]","[]"
"image-keyboard-response","134","140539","0.0-5.0-1.65","571144323d47e800096358d9","bdp_cybrbll","Sun Mar 26 2023 14:49:52 GMT-0400 (Eastern Daylight Time)","413050","1","3","","89","","","","choice","","img/2to1/1.png","2","160","196","0.5","0.5","2","3","",""
"animation","135","141827","0.0-5.0-2.65","571144323d47e800096358d9","bdp_cybrbll","Sun Mar 26 2023 14:49:52 GMT-0400 (Eastern Daylight Time)","413050","1","3","","","","","","","","","","160","","","","2","3","[{""stimulus"":""img/2to3/1.png"",""time"":100},{""stimulus"":""img/2to3/2.png"",""time"":199},{""stimulus"":""img/2to3/3.png"",""time"":298},{""stimulus"":""img/2to3/4.png"",""time"":396},{""stimulus"":""img/2to3/5.png"",""time"":496},{""stimulus"":""img/2to3/6.png"",""time"":594},{""stimulus"":""img/2to3/7.png"",""time"":693},{""stimulus"":""img/2to3/8.png"",""time"":792},{""stimulus"":""img/2to3/9.png"",""time"":891},{""stimulus"":""img/2to3/10.png"",""time"":991},{""stimulus"":""img/2to3/11.png"",""time"":1089},{""stimulus"":""img/2to3/12.png"",""time"":1188}]","[]"
"image-keyboard-response","136","143077","0.0-5.0-1.66","571144323d47e800096358d9","bdp_cybrbll","Sun Mar 26 2023 14:49:52 GMT-0400 (Eastern Daylight Time)","413050","1","3","","null","","","","observe","","img/3to2/1.png","null","159","1249","0.5","0.5","3","1","",""
"animation","137","144365","0.0-5.0-2.66","571144323d47e800096358d9","bdp_cybrbll","Sun Mar 26 2023 14:49:52 GMT-0400 (Eastern Daylight Time)","413050","1","3","","","","","","","","","","159","","","","3","1","[{""stimulus"":""img/3to1/1.png"",""time"":101},{""stimulus"":""img/3to1/2.png"",""time"":200},{""stimulus"":""img/3to1/3.png"",""time"":299},{""stimulus"":""img/3to1/4.png"",""time"":397},{""stimulus"":""img/3to1/5.png"",""time"":497},{""stimulus"":""img/3to1/6.png"",""time"":596},{""stimulus"":""img/3to1/7.png"",""time"":694},{""stimulus"":""img/3to1/8.png"",""time"":794},{""stimulus"":""img/3to1/9.png"",""time"":893},{""stimulus"":""img/3to1/10.png"",""time"":991},{""stimulus"":""img/3to1/11.png"",""time"":1091},{""stimulus"":""img/3to1/12.png"",""time"":1189}]","[]"
"image-keyboard-response","138","144904","0.0-5.0-1.67","571144323d47e800096358d9","bdp_cybrbll","Sun Mar 26 2023 14:49:52 GMT-0400 (Eastern Daylight Time)","413050","1","3","","null","","","","observe","","img/1to3/1.png","null","158","535","0.5","0.5","1","3","",""
"animation","139","146192","0.0-5.0-2.67","571144323d47e800096358d9","bdp_cybrbll","Sun Mar 26 2023 14:49:52 GMT-0400 (Eastern Daylight Time)","413050","1","3","","","","","","","","","","158","","","","1","3","[{""stimulus"":""img/1to3/1.png"",""time"":100},{""stimulus"":""img/1to3/2.png"",""time"":199},{""stimulus"":""img/1to3/3.png"",""time"":299},{""stimulus"":""img/1to3/4.png"",""time"":397},{""stimulus"":""img/1to3/5.png"",""time"":496},{""stimulus"":""img/1to3/6.png"",""time"":595},{""stimulus"":""img/1to3/7.png"",""time"":694},{""stimulus"":""img/1to3/8.png"",""time"":793},{""stimulus"":""img/1to3/9.png"",""time"":892},{""stimulus"":""img/1to3/10.png"",""time"":991},{""stimulus"":""img/1to3/11.png"",""time"":1090},{""stimulus"":""img/1to3/12.png"",""time"":1189}]","[]"
"image-keyboard-response","140","146884","0.0-5.0-1.68","571144323d47e800096358d9","bdp_cybrbll","Sun Mar 26 2023 14:49:52 GMT-0400 (Eastern Daylight Time)","413050","1","3","","null","","","","observe","","img/3to2/1.png","null","157","691","0.5","0.5","3","2","",""
"animation","141","148173","0.0-5.0-2.68","571144323d47e800096358d9","bdp_cybrbll","Sun Mar 26 2023 14:49:52 GMT-0400 (Eastern Daylight Time)","413050","1","3","","","","","","","","","","157","","","","3","2","[{""stimulus"":""img/3to2/1.png"",""time"":100},{""stimulus"":""img/3to2/2.png"",""time"":199},{""stimulus"":""img/3to2/3.png"",""time"":298},{""stimulus"":""img/3to2/4.png"",""time"":397},{""stimulus"":""img/3to2/5.png"",""time"":496},{""stimulus"":""img/3to2/6.png"",""time"":595},{""stimulus"":""img/3to2/7.png"",""time"":694},{""stimulus"":""img/3to2/8.png"",""time"":794},{""stimulus"":""img/3to2/9.png"",""time"":893},{""stimulus"":""img/3to2/10.png"",""time"":991},{""stimulus"":""img/3to2/11.png"",""time"":1091},{""stimulus"":""img/3to2/12.png"",""time"":1189}]","[]"
"image-keyboard-response","142","148339","0.0-5.0-1.69","571144323d47e800096358d9","bdp_cybrbll","Sun Mar 26 2023 14:49:52 GMT-0400 (Eastern Daylight Time)","413050","1","3","","166","","","","choice","","img/2to1/1.png","1","156","402","0.5","0.5","2","1","",""
"animation","143","149627","0.0-5.0-2.69","571144323d47e800096358d9","bdp_cybrbll","Sun Mar 26 2023 14:49:52 GMT-0400 (Eastern Daylight Time)","413050","1","3","","","","","","","","","","156","","","","2","1","[{""stimulus"":""img/2to1/1.png"",""time"":99},{""stimulus"":""img/2to1/2.png"",""time"":198},{""stimulus"":""img/2to1/3.png"",""time"":298},{""stimulus"":""img/2to1/4.png"",""time"":397},{""stimulus"":""img/2to1/5.png"",""time"":496},{""stimulus"":""img/2to1/6.png"",""time"":594},{""stimulus"":""img/2to1/7.png"",""time"":693},{""stimulus"":""img/2to1/8.png"",""time"":793},{""stimulus"":""img/2to1/9.png"",""time"":892},{""stimulus"":""img/2to1/10.png"",""time"":990},{""stimulus"":""img/2to1/11.png"",""time"":1089},{""stimulus"":""img/2to1/12.png"",""time"":1188}]","[]"
"image-keyboard-response","144","150419","0.0-5.0-1.70","571144323d47e800096358d9","bdp_cybrbll","Sun Mar 26 2023 14:49:52 GMT-0400 (Eastern Daylight Time)","413050","1","3","","null","","","","observe","","img/1to3/1.png","null","155","791","0.5","0.5","1","2","",""
"animation","145","151707","0.0-5.0-2.70","571144323d47e800096358d9","bdp_cybrbll","Sun Mar 26 2023 14:49:52 GMT-0400 (Eastern Daylight Time)","413050","1","3","","","","","","","","","","155","","","","1","2","[{""stimulus"":""img/1to2/1.png"",""time"":100},{""stimulus"":""img/1to2/2.png"",""time"":199},{""stimulus"":""img/1to2/3.png"",""time"":297},{""stimulus"":""img/1to2/4.png"",""time"":396},{""stimulus"":""img/1to2/5.png"",""time"":496},{""stimulus"":""img/1to2/6.png"",""time"":595},{""stimulus"":""img/1to2/7.png"",""time"":693},{""stimulus"":""img/1to2/8.png"",""time"":793},{""stimulus"":""img/1to2/9.png"",""time"":891},{""stimulus"":""img/1to2/10.png"",""time"":991},{""stimulus"":""img/1to2/11.png"",""time"":1089},{""stimulus"":""img/1to2/12.png"",""time"":1188}]","[]"
"image-keyboard-response","146","151739","0.0-5.0-1.71","571144323d47e800096358d9","bdp_cybrbll","Sun Mar 26 2023 14:49:52 GMT-0400 (Eastern Daylight Time)","413050","1","3","","32","","","","choice","","img/2to1/1.png","2","154","609","0.5","0.5","2","3","",""
"animation","147","153027","0.0-5.0-2.71","571144323d47e800096358d9","bdp_cybrbll","Sun Mar 26 2023 14:49:52 GMT-0400 (Eastern Daylight Time)","413050","1","3","","","","","","","","","","154","","","","2","3","[{""stimulus"":""img/2to3/1.png"",""time"":100},{""stimulus"":""img/2to3/2.png"",""time"":198},{""stimulus"":""img/2to3/3.png"",""time"":297},{""stimulus"":""img/2to3/4.png"",""time"":397},{""stimulus"":""img/2to3/5.png"",""time"":502},{""stimulus"":""img/2to3/6.png"",""time"":596},{""stimulus"":""img/2to3/7.png"",""time"":693},{""stimulus"":""img/2to3/8.png"",""time"":792},{""stimulus"":""img/2to3/9.png"",""time"":891},{""stimulus"":""img/2to3/10.png"",""time"":990},{""stimulus"":""img/2to3/11.png"",""time"":1089},{""stimulus"":""img/2to3/12.png"",""time"":1189}]","[]"
"image-keyboard-response","148","153536","0.0-5.0-1.72","571144323d47e800096358d9","bdp_cybrbll","Sun Mar 26 2023 14:49:52 GMT-0400 (Eastern Daylight Time)","413050","1","3","","null","","","","observe","","img/3to2/1.png","null","153","502","0.5","0.5","3","2","",""
"animation","149","154823","0.0-5.0-2.72","571144323d47e800096358d9","bdp_cybrbll","Sun Mar 26 2023 14:49:52 GMT-0400 (Eastern Daylight Time)","413050","1","3","","","","","","","","","","153","","","","3","2","[{""stimulus"":""img/3to2/1.png"",""time"":99},{""stimulus"":""img/3to2/2.png"",""time"":199},{""stimulus"":""img/3to2/3.png"",""time"":298},{""stimulus"":""img/3to2/4.png"",""time"":398},{""stimulus"":""img/3to2/5.png"",""time"":495},{""stimulus"":""img/3to2/6.png"",""time"":595},{""stimulus"":""img/3to2/7.png"",""time"":694},{""stimulus"":""img/3to2/8.png"",""time"":792},{""stimulus"":""img/3to2/9.png"",""time"":892},{""stimulus"":""img/3to2/10.png"",""time"":990},{""stimulus"":""img/3to2/11.png"",""time"":1090},{""stimulus"":""img/3to2/12.png"",""time"":1189}]","[]"
"image-keyboard-response","150","154931","0.0-5.0-1.73","571144323d47e800096358d9","bdp_cybrbll","Sun Mar 26 2023 14:49:52 GMT-0400 (Eastern Daylight Time)","413050","1","3","","107","","","","choice","","img/2to1/1.png","1","152","507","0.5","0.5","2","1","",""
"animation","151","156219","0.0-5.0-2.73","571144323d47e800096358d9","bdp_cybrbll","Sun Mar 26 2023 14:49:52 GMT-0400 (Eastern Daylight Time)","413050","1","3","","","","","","","","","","152","","","","2","1","[{""stimulus"":""img/2to1/1.png"",""time"":101},{""stimulus"":""img/2to1/2.png"",""time"":200},{""stimulus"":""img/2to1/3.png"",""time"":298},{""stimulus"":""img/2to1/4.png"",""time"":398},{""stimulus"":""img/2to1/5.png"",""time"":496},{""stimulus"":""img/2to1/6.png"",""time"":595},{""stimulus"":""img/2to1/7.png"",""time"":695},{""stimulus"":""img/2to1/8.png"",""time"":793},{""stimulus"":""img/2to1/9.png"",""time"":893},{""stimulus"":""img/2to1/10.png"",""time"":993},{""stimulus"":""img/2to1/11.png"",""time"":1091},{""stimulus"":""img/2to1/12.png"",""time"":1189}]","[]"
"image-keyboard-response","152","156589","0.0-5.0-1.74","571144323d47e800096358d9","bdp_cybrbll","Sun Mar 26 2023 14:49:52 GMT-0400 (Eastern Daylight Time)","413050","1","3","","null","","","","observe","","img/1to3/1.png","null","151","369","0.5","0.5","1","2","",""
"animation","153","157876","0.0-5.0-2.74","571144323d47e800096358d9","bdp_cybrbll","Sun Mar 26 2023 14:49:52 GMT-0400 (Eastern Daylight Time)","413050","1","3","","","","","","","","","","151","","","","1","2","[{""stimulus"":""img/1to2/1.png"",""time"":100},{""stimulus"":""img/1to2/2.png"",""time"":199},{""stimulus"":""img/1to2/3.png"",""time"":298},{""stimulus"":""img/1to2/4.png"",""time"":397},{""stimulus"":""img/1to2/5.png"",""time"":495},{""stimulus"":""img/1to2/6.png"",""time"":595},{""stimulus"":""img/1to2/7.png"",""time"":693},{""stimulus"":""img/1to2/8.png"",""time"":793},{""stimulus"":""img/1to2/9.png"",""time"":892},{""stimulus"":""img/1to2/10.png"",""time"":990},{""stimulus"":""img/1to2/11.png"",""time"":1089},{""stimulus"":""img/1to2/12.png"",""time"":1188}]","[]"
"image-keyboard-response","154","157995","0.0-5.0-1.75","571144323d47e800096358d9","bdp_cybrbll","Sun Mar 26 2023 14:49:52 GMT-0400 (Eastern Daylight Time)","413050","1","3","","118","","","","choice","","img/2to1/1.png","2","150","265","0.5","0.5","2","3","",""
"animation","155","159282","0.0-5.0-2.75","571144323d47e800096358d9","bdp_cybrbll","Sun Mar 26 2023 14:49:52 GMT-0400 (Eastern Daylight Time)","413050","1","3","","","","","","","","","","150","","","","2","3","[{""stimulus"":""img/2to3/1.png"",""time"":100},{""stimulus"":""img/2to3/2.png"",""time"":199},{""stimulus"":""img/2to3/3.png"",""time"":298},{""stimulus"":""img/2to3/4.png"",""time"":397},{""stimulus"":""img/2to3/5.png"",""time"":496},{""stimulus"":""img/2to3/6.png"",""time"":595},{""stimulus"":""img/2to3/7.png"",""time"":694},{""stimulus"":""img/2to3/8.png"",""time"":793},{""stimulus"":""img/2to3/9.png"",""time"":892},{""stimulus"":""img/2to3/10.png"",""time"":991},{""stimulus"":""img/2to3/11.png"",""time"":1090},{""stimulus"":""img/2to3/12.png"",""time"":1190}]","[]"
"image-keyboard-response","156","159991","0.0-5.0-1.76","571144323d47e800096358d9","bdp_cybrbll","Sun Mar 26 2023 14:49:52 GMT-0400 (Eastern Daylight Time)","413050","1","3","","null","","","","observe","","img/3to2/1.png","null","149","707","0.5","0.1","3","2","",""
"animation","157","161279","0.0-5.0-2.76","571144323d47e800096358d9","bdp_cybrbll","Sun Mar 26 2023 14:49:52 GMT-0400 (Eastern Daylight Time)","413050","1","3","","","","","","","","","","149","","","","3","2","[{""stimulus"":""img/3to2/1.png"",""time"":100},{""stimulus"":""img/3to2/2.png"",""time"":199},{""stimulus"":""img/3to2/3.png"",""time"":298},{""stimulus"":""img/3to2/4.png"",""time"":397},{""stimulus"":""img/3to2/5.png"",""time"":496},{""stimulus"":""img/3to2/6.png"",""time"":596},{""stimulus"":""img/3to2/7.png"",""time"":694},{""stimulus"":""img/3to2/8.png"",""time"":793},{""stimulus"":""img/3to2/9.png"",""time"":892},{""stimulus"":""img/3to2/10.png"",""time"":991},{""stimulus"":""img/3to2/11.png"",""time"":1090},{""stimulus"":""img/3to2/12.png"",""time"":1189}]","[]"
"image-keyboard-response","158","161332","0.0-5.0-1.77","571144323d47e800096358d9","bdp_cybrbll","Sun Mar 26 2023 14:49:52 GMT-0400 (Eastern Daylight Time)","413050","1","3","","53","","","","choice","","img/2to1/1.png","1","148","359","0.5","0.1","2","1","",""
"animation","159","162620","0.0-5.0-2.77","571144323d47e800096358d9","bdp_cybrbll","Sun Mar 26 2023 14:49:52 GMT-0400 (Eastern Daylight Time)","413050","1","3","","","","","","","","","","148","","","","2","1","[{""stimulus"":""img/2to1/1.png"",""time"":100},{""stimulus"":""img/2to1/2.png"",""time"":199},{""stimulus"":""img/2to1/3.png"",""time"":298},{""stimulus"":""img/2to1/4.png"",""time"":396},{""stimulus"":""img/2to1/5.png"",""time"":496},{""stimulus"":""img/2to1/6.png"",""time"":594},{""stimulus"":""img/2to1/7.png"",""time"":694},{""stimulus"":""img/2to1/8.png"",""time"":794},{""stimulus"":""img/2to1/9.png"",""time"":892},{""stimulus"":""img/2to1/10.png"",""time"":991},{""stimulus"":""img/2to1/11.png"",""time"":1090},{""stimulus"":""img/2to1/12.png"",""time"":1189}]","[]"
"image-keyboard-response","160","163122","0.0-5.0-1.78","571144323d47e800096358d9","bdp_cybrbll","Sun Mar 26 2023 14:49:52 GMT-0400 (Eastern Daylight Time)","413050","1","3","","null","","","","observe","","img/1to3/1.png","null","147","501","0.5","0.1","1","3","",""
"animation","161","164411","0.0-5.0-2.78","571144323d47e800096358d9","bdp_cybrbll","Sun Mar 26 2023 14:49:52 GMT-0400 (Eastern Daylight Time)","413050","1","3","","","","","","","","","","147","","","","1","3","[{""stimulus"":""img/1to3/1.png"",""time"":99},{""stimulus"":""img/1to3/2.png"",""time"":199},{""stimulus"":""img/1to3/3.png"",""time"":298},{""stimulus"":""img/1to3/4.png"",""time"":396},{""stimulus"":""img/1to3/5.png"",""time"":496},{""stimulus"":""img/1to3/6.png"",""time"":594},{""stimulus"":""img/1to3/7.png"",""time"":693},{""stimulus"":""img/1to3/8.png"",""time"":793},{""stimulus"":""img/1to3/9.png"",""time"":892},{""stimulus"":""img/1to3/10.png"",""time"":990},{""stimulus"":""img/1to3/11.png"",""time"":1090},{""stimulus"":""img/1to3/12.png"",""time"":1188}]","[]"
"image-keyboard-response","162","164660","0.0-5.0-1.79","571144323d47e800096358d9","bdp_cybrbll","Sun Mar 26 2023 14:49:52 GMT-0400 (Eastern Daylight Time)","413050","1","3","","null","","","","observe","","img/3to2/1.png","null","146","249","0.5","0.1","3","1","",""
"animation","163","165948","0.0-5.0-2.79","571144323d47e800096358d9","bdp_cybrbll","Sun Mar 26 2023 14:49:52 GMT-0400 (Eastern Daylight Time)","413050","1","3","","","","","","","","","","146","","","","3","1","[{""stimulus"":""img/3to1/1.png"",""time"":100},{""stimulus"":""img/3to1/2.png"",""time"":199},{""stimulus"":""img/3to1/3.png"",""time"":298},{""stimulus"":""img/3to1/4.png"",""time"":397},{""stimulus"":""img/3to1/5.png"",""time"":495},{""stimulus"":""img/3to1/6.png"",""time"":594},{""stimulus"":""img/3to1/7.png"",""time"":694},{""stimulus"":""img/3to1/8.png"",""time"":792},{""stimulus"":""img/3to1/9.png"",""time"":891},{""stimulus"":""img/3to1/10.png"",""time"":990},{""stimulus"":""img/3to1/11.png"",""time"":1090},{""stimulus"":""img/3to1/12.png"",""time"":1188}]","[]"
"image-keyboard-response","164","166210","0.0-5.0-1.80","571144323d47e800096358d9","bdp_cybrbll","Sun Mar 26 2023 14:49:52 GMT-0400 (Eastern Daylight Time)","413050","1","3","","null","","","","observe","","img/1to3/1.png","null","145","262","0.5","0.1","1","2","",""
"animation","165","167498","0.0-5.0-2.80","571144323d47e800096358d9","bdp_cybrbll","Sun Mar 26 2023 14:49:52 GMT-0400 (Eastern Daylight Time)","413050","1","3","","","","","","","","","","145","","","","1","2","[{""stimulus"":""img/1to2/1.png"",""time"":100},{""stimulus"":""img/1to2/2.png"",""time"":199},{""stimulus"":""img/1to2/3.png"",""time"":298},{""stimulus"":""img/1to2/4.png"",""time"":397},{""stimulus"":""img/1to2/5.png"",""time"":496},{""stimulus"":""img/1to2/6.png"",""time"":594},{""stimulus"":""img/1to2/7.png"",""time"":694},{""stimulus"":""img/1to2/8.png"",""time"":793},{""stimulus"":""img/1to2/9.png"",""time"":891},{""stimulus"":""img/1to2/10.png"",""time"":991},{""stimulus"":""img/1to2/11.png"",""time"":1089},{""stimulus"":""img/1to2/12.png"",""time"":1188}]","[]"
"image-keyboard-response","166","167563","0.0-5.0-1.81","571144323d47e800096358d9","bdp_cybrbll","Sun Mar 26 2023 14:49:52 GMT-0400 (Eastern Daylight Time)","413050","1","3","","65","","","","choice","","img/2to1/1.png","2","144","859","0.5","0.1","2","3","",""
"animation","167","168851","0.0-5.0-2.81","571144323d47e800096358d9","bdp_cybrbll","Sun Mar 26 2023 14:49:52 GMT-0400 (Eastern Daylight Time)","413050","1","3","","","","","","","","","","144","","","","2","3","[{""stimulus"":""img/2to3/1.png"",""time"":100},{""stimulus"":""img/2to3/2.png"",""time"":199},{""stimulus"":""img/2to3/3.png"",""time"":299},{""stimulus"":""img/2to3/4.png"",""time"":398},{""stimulus"":""img/2to3/5.png"",""time"":497},{""stimulus"":""img/2to3/6.png"",""time"":596},{""stimulus"":""img/2to3/7.png"",""time"":694},{""stimulus"":""img/2to3/8.png"",""time"":793},{""stimulus"":""img/2to3/9.png"",""time"":893},{""stimulus"":""img/2to3/10.png"",""time"":991},{""stimulus"":""img/2to3/11.png"",""time"":1090},{""stimulus"":""img/2to3/12.png"",""time"":1190}]","[]"
"image-keyboard-response","168","169591","0.0-5.0-1.82","571144323d47e800096358d9","bdp_cybrbll","Sun Mar 26 2023 14:49:52 GMT-0400 (Eastern Daylight Time)","413050","1","3","","null","","","","observe","","img/3to2/1.png","null","143","739","0.5","0.1","3","1","",""
"animation","169","170879","0.0-5.0-2.82","571144323d47e800096358d9","bdp_cybrbll","Sun Mar 26 2023 14:49:52 GMT-0400 (Eastern Daylight Time)","413050","1","3","","","","","","","","","","143","","","","3","1","[{""stimulus"":""img/3to1/1.png"",""time"":100},{""stimulus"":""img/3to1/2.png"",""time"":200},{""stimulus"":""img/3to1/3.png"",""time"":298},{""stimulus"":""img/3to1/4.png"",""time"":397},{""stimulus"":""img/3to1/5.png"",""time"":496},{""stimulus"":""img/3to1/6.png"",""time"":596},{""stimulus"":""img/3to1/7.png"",""time"":695},{""stimulus"":""img/3to1/8.png"",""time"":794},{""stimulus"":""img/3to1/9.png"",""time"":892},{""stimulus"":""img/3to1/10.png"",""time"":991},{""stimulus"":""img/3to1/11.png"",""time"":1090},{""stimulus"":""img/3to1/12.png"",""time"":1190}]","[]"
"image-keyboard-response","170","171492","0.0-5.0-1.83","571144323d47e800096358d9","bdp_cybrbll","Sun Mar 26 2023 14:49:52 GMT-0400 (Eastern Daylight Time)","413050","1","3","","null","","","","observe","","img/1to3/1.png","null","142","612","0.5","0.1","1","2","",""
"animation","171","172779","0.0-5.0-2.83","571144323d47e800096358d9","bdp_cybrbll","Sun Mar 26 2023 14:49:52 GMT-0400 (Eastern Daylight Time)","413050","1","3","","","","","","","","","","142","","","","1","2","[{""stimulus"":""img/1to2/1.png"",""time"":100},{""stimulus"":""img/1to2/2.png"",""time"":199},{""stimulus"":""img/1to2/3.png"",""time"":297},{""stimulus"":""img/1to2/4.png"",""time"":396},{""stimulus"":""img/1to2/5.png"",""time"":496},{""stimulus"":""img/1to2/6.png"",""time"":595},{""stimulus"":""img/1to2/7.png"",""time"":695},{""stimulus"":""img/1to2/8.png"",""time"":792},{""stimulus"":""img/1to2/9.png"",""time"":892},{""stimulus"":""img/1to2/10.png"",""time"":990},{""stimulus"":""img/1to2/11.png"",""time"":1090},{""stimulus"":""img/1to2/12.png"",""time"":1188}]","[]"
"image-keyboard-response","172","172972","0.0-5.0-1.84","571144323d47e800096358d9","bdp_cybrbll","Sun Mar 26 2023 14:49:52 GMT-0400 (Eastern Daylight Time)","413050","1","3","","192","","","","choice","","img/2to1/1.png","2","141","415","0.5","0.1","2","3","",""
"animation","173","174260","0.0-5.0-2.84","571144323d47e800096358d9","bdp_cybrbll","Sun Mar 26 2023 14:49:52 GMT-0400 (Eastern Daylight Time)","413050","1","3","","","","","","","","","","141","","","","2","3","[{""stimulus"":""img/2to3/1.png"",""time"":100},{""stimulus"":""img/2to3/2.png"",""time"":199},{""stimulus"":""img/2to3/3.png"",""time"":298},{""stimulus"":""img/2to3/4.png"",""time"":397},{""stimulus"":""img/2to3/5.png"",""time"":496},{""stimulus"":""img/2to3/6.png"",""time"":595},{""stimulus"":""img/2to3/7.png"",""time"":695},{""stimulus"":""img/2to3/8.png"",""time"":793},{""stimulus"":""img/2to3/9.png"",""time"":892},{""stimulus"":""img/2to3/10.png"",""time"":991},{""stimulus"":""img/2to3/11.png"",""time"":1090},{""stimulus"":""img/2to3/12.png"",""time"":1189}]","[]"
"image-keyboard-response","174","174587","0.0-5.0-1.85","571144323d47e800096358d9","bdp_cybrbll","Sun Mar 26 2023 14:49:52 GMT-0400 (Eastern Daylight Time)","413050","1","3","","null","","","","observe","","img/3to2/1.png","null","140","326","0.5","0.1","3","1","",""
"animation","175","175874","0.0-5.0-2.85","571144323d47e800096358d9","bdp_cybrbll","Sun Mar 26 2023 14:49:52 GMT-0400 (Eastern Daylight Time)","413050","1","3","","","","","","","","","","140","","","","3","1","[{""stimulus"":""img/3to1/1.png"",""time"":100},{""stimulus"":""img/3to1/2.png"",""time"":198},{""stimulus"":""img/3to1/3.png"",""time"":298},{""stimulus"":""img/3to1/4.png"",""time"":396},{""stimulus"":""img/3to1/5.png"",""time"":496},{""stimulus"":""img/3to1/6.png"",""time"":595},{""stimulus"":""img/3to1/7.png"",""time"":693},{""stimulus"":""img/3to1/8.png"",""time"":792},{""stimulus"":""img/3to1/9.png"",""time"":892},{""stimulus"":""img/3to1/10.png"",""time"":990},{""stimulus"":""img/3to1/11.png"",""time"":1089},{""stimulus"":""img/3to1/12.png"",""time"":1189}]","[]"
"image-keyboard-response","176","176367","0.0-5.0-1.86","571144323d47e800096358d9","bdp_cybrbll","Sun Mar 26 2023 14:49:52 GMT-0400 (Eastern Daylight Time)","413050","1","3","","null","","","","observe","","img/1to3/1.png","null","139","492","0.5","0.1","1","2","",""
"animation","177","177655","0.0-5.0-2.86","571144323d47e800096358d9","bdp_cybrbll","Sun Mar 26 2023 14:49:52 GMT-0400 (Eastern Daylight Time)","413050","1","3","","","","","","","","","","139","","","","1","2","[{""stimulus"":""img/1to2/1.png"",""time"":100},{""stimulus"":""img/1to2/2.png"",""time"":200},{""stimulus"":""img/1to2/3.png"",""time"":298},{""stimulus"":""img/1to2/4.png"",""time"":397},{""stimulus"":""img/1to2/5.png"",""time"":496},{""stimulus"":""img/1to2/6.png"",""time"":595},{""stimulus"":""img/1to2/7.png"",""time"":694},{""stimulus"":""img/1to2/8.png"",""time"":793},{""stimulus"":""img/1to2/9.png"",""time"":891},{""stimulus"":""img/1to2/10.png"",""time"":991},{""stimulus"":""img/1to2/11.png"",""time"":1089},{""stimulus"":""img/1to2/12.png"",""time"":1190}]","[]"
"image-keyboard-response","178","177699","0.0-5.0-1.87","571144323d47e800096358d9","bdp_cybrbll","Sun Mar 26 2023 14:49:52 GMT-0400 (Eastern Daylight Time)","413050","1","3","","44","","","","choice","","img/2to1/1.png","2","138","368","0.5","0.1","2","3","",""
"animation","179","178987","0.0-5.0-2.87","571144323d47e800096358d9","bdp_cybrbll","Sun Mar 26 2023 14:49:52 GMT-0400 (Eastern Daylight Time)","413050","1","3","","","","","","","","","","138","","","","2","3","[{""stimulus"":""img/2to3/1.png"",""time"":100},{""stimulus"":""img/2to3/2.png"",""time"":198},{""stimulus"":""img/2to3/3.png"",""time"":298},{""stimulus"":""img/2to3/4.png"",""time"":397},{""stimulus"":""img/2to3/5.png"",""time"":496},{""stimulus"":""img/2to3/6.png"",""time"":595},{""stimulus"":""img/2to3/7.png"",""time"":693},{""stimulus"":""img/2to3/8.png"",""time"":792},{""stimulus"":""img/2to3/9.png"",""time"":891},{""stimulus"":""img/2to3/10.png"",""time"":990},{""stimulus"":""img/2to3/11.png"",""time"":1089},{""stimulus"":""img/2to3/12.png"",""time"":1189}]","[]"
"image-keyboard-response","180","179286","0.0-5.0-1.88","571144323d47e800096358d9","bdp_cybrbll","Sun Mar 26 2023 14:49:52 GMT-0400 (Eastern Daylight Time)","413050","1","3","","null","","","","observe","","img/3to2/1.png","null","137","298","0.5","0.1","3","1","",""
"animation","181","180574","0.0-5.0-2.88","571144323d47e800096358d9","bdp_cybrbll","Sun Mar 26 2023 14:49:52 GMT-0400 (Eastern Daylight Time)","413050","1","3","","","","","","","","","","137","","","","3","1","[{""stimulus"":""img/3to1/1.png"",""time"":100},{""stimulus"":""img/3to1/2.png"",""time"":200},{""stimulus"":""img/3to1/3.png"",""time"":298},{""stimulus"":""img/3to1/4.png"",""time"":397},{""stimulus"":""img/3to1/5.png"",""time"":496},{""stimulus"":""img/3to1/6.png"",""time"":595},{""stimulus"":""img/3to1/7.png"",""time"":694},{""stimulus"":""img/3to1/8.png"",""time"":793},{""stimulus"":""img/3to1/9.png"",""time"":892},{""stimulus"":""img/3to1/10.png"",""time"":991},{""stimulus"":""img/3to1/11.png"",""time"":1090},{""stimulus"":""img/3to1/12.png"",""time"":1189}]","[]"
"image-keyboard-response","182","180964","0.0-5.0-1.89","571144323d47e800096358d9","bdp_cybrbll","Sun Mar 26 2023 14:49:52 GMT-0400 (Eastern Daylight Time)","413050","1","3","","null","","","","observe","","img/1to3/1.png","null","136","388","0.5","0.1","1","2","",""
"animation","183","182252","0.0-5.0-2.89","571144323d47e800096358d9","bdp_cybrbll","Sun Mar 26 2023 14:49:52 GMT-0400 (Eastern Daylight Time)","413050","1","3","","","","","","","","","","136","","","","1","2","[{""stimulus"":""img/1to2/1.png"",""time"":99},{""stimulus"":""img/1to2/2.png"",""time"":198},{""stimulus"":""img/1to2/3.png"",""time"":298},{""stimulus"":""img/1to2/4.png"",""time"":397},{""stimulus"":""img/1to2/5.png"",""time"":496},{""stimulus"":""img/1to2/6.png"",""time"":595},{""stimulus"":""img/1to2/7.png"",""time"":694},{""stimulus"":""img/1to2/8.png"",""time"":793},{""stimulus"":""img/1to2/9.png"",""time"":892},{""stimulus"":""img/1to2/10.png"",""time"":991},{""stimulus"":""img/1to2/11.png"",""time"":1090},{""stimulus"":""img/1to2/12.png"",""time"":1188}]","[]"
"image-keyboard-response","184","182484","0.0-5.0-1.90","571144323d47e800096358d9","bdp_cybrbll","Sun Mar 26 2023 14:49:52 GMT-0400 (Eastern Daylight Time)","413050","1","3","","232","","","","choice","","img/2to1/1.png","2","135","450","0.5","0.1","2","3","",""
"animation","185","183771","0.0-5.0-2.90","571144323d47e800096358d9","bdp_cybrbll","Sun Mar 26 2023 14:49:52 GMT-0400 (Eastern Daylight Time)","413050","1","3","","","","","","","","","","135","","","","2","3","[{""stimulus"":""img/2to3/1.png"",""time"":100},{""stimulus"":""img/2to3/2.png"",""time"":199},{""stimulus"":""img/2to3/3.png"",""time"":298},{""stimulus"":""img/2to3/4.png"",""time"":404},{""stimulus"":""img/2to3/5.png"",""time"":496},{""stimulus"":""img/2to3/6.png"",""time"":595},{""stimulus"":""img/2to3/7.png"",""time"":694},{""stimulus"":""img/2to3/8.png"",""time"":793},{""stimulus"":""img/2to3/9.png"",""time"":892},{""stimulus"":""img/2to3/10.png"",""time"":991},{""stimulus"":""img/2to3/11.png"",""time"":1090},{""stimulus"":""img/2to3/12.png"",""time"":1189}]","[]"
"image-keyboard-response","186","184017","0.0-5.0-1.91","571144323d47e800096358d9","bdp_cybrbll","Sun Mar 26 2023 14:49:52 GMT-0400 (Eastern Daylight Time)","413050","1","3","","null","","","","observe","","img/3to2/1.png","null","134","245","0.5","0.1","3","1","",""
"animation","187","185305","0.0-5.0-2.91","571144323d47e800096358d9","bdp_cybrbll","Sun Mar 26 2023 14:49:52 GMT-0400 (Eastern Daylight Time)","413050","1","3","","","","","","","","","","134","","","","3","1","[{""stimulus"":""img/3to1/1.png"",""time"":100},{""stimulus"":""img/3to1/2.png"",""time"":199},{""stimulus"":""img/3to1/3.png"",""time"":297},{""stimulus"":""img/3to1/4.png"",""time"":396},{""stimulus"":""img/3to1/5.png"",""time"":495},{""stimulus"":""img/3to1/6.png"",""time"":594},{""stimulus"":""img/3to1/7.png"",""time"":693},{""stimulus"":""img/3to1/8.png"",""time"":793},{""stimulus"":""img/3to1/9.png"",""time"":892},{""stimulus"":""img/3to1/10.png"",""time"":990},{""stimulus"":""img/3to1/11.png"",""time"":1089},{""stimulus"":""img/3to1/12.png"",""time"":1188}]","[]"
"image-keyboard-response","188","185666","0.0-5.0-1.92","571144323d47e800096358d9","bdp_cybrbll","Sun Mar 26 2023 14:49:52 GMT-0400 (Eastern Daylight Time)","413050","1","3","","null","","","","observe","","img/1to3/1.png","null","133","359","0.5","0.1","1","3","",""
"animation","189","186953","0.0-5.0-2.92","571144323d47e800096358d9","bdp_cybrbll","Sun Mar 26 2023 14:49:52 GMT-0400 (Eastern Daylight Time)","413050","1","3","","","","","","","","","","133","","","","1","3","[{""stimulus"":""img/1to3/1.png"",""time"":99},{""stimulus"":""img/1to3/2.png"",""time"":198},{""stimulus"":""img/1to3/3.png"",""time"":298},{""stimulus"":""img/1to3/4.png"",""time"":396},{""stimulus"":""img/1to3/5.png"",""time"":496},{""stimulus"":""img/1to3/6.png"",""time"":595},{""stimulus"":""img/1to3/7.png"",""time"":693},{""stimulus"":""img/1to3/8.png"",""time"":793},{""stimulus"":""img/1to3/9.png"",""time"":892},{""stimulus"":""img/1to3/10.png"",""time"":991},{""stimulus"":""img/1to3/11.png"",""time"":1090},{""stimulus"":""img/1to3/12.png"",""time"":1190}]","[]"
"image-keyboard-response","190","187317","0.0-5.0-1.93","571144323d47e800096358d9","bdp_cybrbll","Sun Mar 26 2023 14:49:52 GMT-0400 (Eastern Daylight Time)","413050","1","3","","null","","","","observe","","img/3to2/1.png","null","132","363","0.5","0.1","3","1","",""
