"trial_type","trial_index","time_elapsed","internal_node_id","subject_id","task","startTime","totalTime","fairPartner","unfairPartner","event","trial","time","trialtype","numBlurs","view_history","rt","success","stimulus","key_press","throwsLeft","rtDur","pFair","pUnfair","holder","receiver","animation_sequence","responses"
"pavlovia","0","7","0.0-0.0","5df5b9f661721940c46c3cd3","bdp_cybrbll","Sun Mar 26 2023 02:09:56 GMT-0400 (Eastern Daylight Time)","456520","3","1","","","","","","","","","","","","","","","","","",""
"","","","","5df5b9f661721940c46c3cd3","bdp_cybrbll","Sun Mar 26 2023 02:09:56 GMT-0400 (Eastern Daylight Time)","456520","3","1","blur","1","798","blurevent","1","","","","","","","","","","","","",""
"","","","","5df5b9f661721940c46c3cd3","bdp_cybrbll","Sun Mar 26 2023 02:09:56 GMT-0400 (Eastern Daylight Time)","456520","3","1","focus","1","3932","focusevent","","","","","","","","","","","","","",""
"instructions","1","9955","0.0-1.0","5df5b9f661721940c46c3cd3","bdp_cybrbll","Sun Mar 26 2023 02:09:56 GMT-0400 (Eastern Daylight Time)","456520","3","1","","","","","","[{""page_index"":0,""viewing_time"":9947}]","9947","","","","","","","","","","",""
"","","","","5df5b9f661721940c46c3cd3","bdp_cybrbll","Sun Mar 26 2023 02:09:56 GMT-0400 (Eastern Daylight Time)","456520","3","1","fullscreenenter","2","11502","fullscreenenter","","","","","","","","","","","","","",""
"fullscreen","2","12469","0.0-2.0","5df5b9f661721940c46c3cd3","bdp_cybrbll","Sun Mar 26 2023 02:09:56 GMT-0400 (Eastern Daylight Time)","456520","3","1","","","","","","","","true","","","","","","","","","",""
"instructions","3","48995","0.0-4.0","5df5b9f661721940c46c3cd3","bdp_cybrbll","Sun Mar 26 2023 02:09:56 GMT-0400 (Eastern Daylight Time)","456520","3","1","","","","","","[{""page_index"":0,""viewing_time"":36525}]","36525","","","","","","","","","","",""
"image-keyboard-response","4","64194","0.0-5.0-0.0-0.0","5df5b9f661721940c46c3cd3","bdp_cybrbll","Sun Mar 26 2023 02:09:56 GMT-0400 (Eastern Daylight Time)","456520","3","1","","","","blurwarn","1","","15196","","","49","","","","","","","",""
"image-keyboard-response","5","65670","0.0-5.0-1.0","5df5b9f661721940c46c3cd3","bdp_cybrbll","Sun Mar 26 2023 02:09:56 GMT-0400 (Eastern Daylight Time)","456520","3","1","","","","choice","","","1217","","img/2to1/1.png","1","225","1042","0.5","0.5","2","1","",""
"animation","6","66959","0.0-5.0-2.0","5df5b9f661721940c46c3cd3","bdp_cybrbll","Sun Mar 26 2023 02:09:56 GMT-0400 (Eastern Daylight Time)","456520","3","1","","","","","","","","","","","225","","","","2","1","[{""stimulus"":""img/2to1/1.png"",""time"":103},{""stimulus"":""img/2to1/2.png"",""time"":199},{""stimulus"":""img/2to1/3.png"",""time"":303},{""stimulus"":""img/2to1/4.png"",""time"":401},{""stimulus"":""img/2to1/5.png"",""time"":501},{""stimulus"":""img/2to1/6.png"",""time"":600},{""stimulus"":""img/2to1/7.png"",""time"":699},{""stimulus"":""img/2to1/8.png"",""time"":799},{""stimulus"":""img/2to1/9.png"",""time"":898},{""stimulus"":""img/2to1/10.png"",""time"":998},{""stimulus"":""img/2to1/11.png"",""time"":1098},{""stimulus"":""img/2to1/12.png"",""time"":1190}]","[]"
"image-keyboard-response","7","67341","0.0-5.0-1.1","5df5b9f661721940c46c3cd3","bdp_cybrbll","Sun Mar 26 2023 02:09:56 GMT-0400 (Eastern Daylight Time)","456520","3","1","","","","observe","","","null","","img/1to3/1.png","null","224","372","0.5","0.5","1","3","",""
"animation","8","68630","0.0-5.0-2.1","5df5b9f661721940c46c3cd3","bdp_cybrbll","Sun Mar 26 2023 02:09:56 GMT-0400 (Eastern Daylight Time)","456520","3","1","","","","","","","","","","","224","","","","1","3","[{""stimulus"":""img/1to3/1.png"",""time"":101},{""stimulus"":""img/1to3/2.png"",""time"":202},{""stimulus"":""img/1to3/3.png"",""time"":302},{""stimulus"":""img/1to3/4.png"",""time"":410},{""stimulus"":""img/1to3/5.png"",""time"":499},{""stimulus"":""img/1to3/6.png"",""time"":599},{""stimulus"":""img/1to3/7.png"",""time"":700},{""stimulus"":""img/1to3/8.png"",""time"":809},{""stimulus"":""img/1to3/9.png"",""time"":899},{""stimulus"":""img/1to3/10.png"",""time"":991},{""stimulus"":""img/1to3/11.png"",""time"":1107},{""stimulus"":""img/1to3/12.png"",""time"":1189}]","[]"
"image-keyboard-response","9","68853","0.0-5.0-1.2","5df5b9f661721940c46c3cd3","bdp_cybrbll","Sun Mar 26 2023 02:09:56 GMT-0400 (Eastern Daylight Time)","456520","3","1","","","","observe","","","null","","img/3to2/1.png","null","223","222","0.5","0.5","3","1","",""
"animation","10","70157","0.0-5.0-2.2","5df5b9f661721940c46c3cd3","bdp_cybrbll","Sun Mar 26 2023 02:09:56 GMT-0400 (Eastern Daylight Time)","456520","3","1","","","","","","","","","","","223","","","","3","1","[{""stimulus"":""img/3to1/1.png"",""time"":108},{""stimulus"":""img/3to1/2.png"",""time"":201},{""stimulus"":""img/3to1/3.png"",""time"":301},{""stimulus"":""img/3to1/4.png"",""time"":400},{""stimulus"":""img/3to1/5.png"",""time"":498},{""stimulus"":""img/3to1/6.png"",""time"":598},{""stimulus"":""img/3to1/7.png"",""time"":696},{""stimulus"":""img/3to1/8.png"",""time"":801},{""stimulus"":""img/3to1/9.png"",""time"":900},{""stimulus"":""img/3to1/10.png"",""time"":997},{""stimulus"":""img/3to1/11.png"",""time"":1090},{""stimulus"":""img/3to1/12.png"",""time"":1189}]","[]"
"image-keyboard-response","11","70412","0.0-5.0-1.3","5df5b9f661721940c46c3cd3","bdp_cybrbll","Sun Mar 26 2023 02:09:56 GMT-0400 (Eastern Daylight Time)","456520","3","1","","","","observe","","","null","","img/1to3/1.png","null","222","248","0.5","0.5","1","2","",""
"animation","12","71703","0.0-5.0-2.3","5df5b9f661721940c46c3cd3","bdp_cybrbll","Sun Mar 26 2023 02:09:56 GMT-0400 (Eastern Daylight Time)","456520","3","1","","","","","","","","","","","222","","","","1","2","[{""stimulus"":""img/1to2/1.png"",""time"":100},{""stimulus"":""img/1to2/2.png"",""time"":199},{""stimulus"":""img/1to2/3.png"",""time"":300},{""stimulus"":""img/1to2/4.png"",""time"":399},{""stimulus"":""img/1to2/5.png"",""time"":499},{""stimulus"":""img/1to2/6.png"",""time"":599},{""stimulus"":""img/1to2/7.png"",""time"":700},{""stimulus"":""img/1to2/8.png"",""time"":800},{""stimulus"":""img/1to2/9.png"",""time"":897},{""stimulus"":""img/1to2/10.png"",""time"":997},{""stimulus"":""img/1to2/11.png"",""time"":1095},{""stimulus"":""img/1to2/12.png"",""time"":1189}]","[]"
"image-keyboard-response","13","72259","0.0-5.0-1.4","5df5b9f661721940c46c3cd3","bdp_cybrbll","Sun Mar 26 2023 02:09:56 GMT-0400 (Eastern Daylight Time)","456520","3","1","","","","choice","","","556","","img/2to1/1.png","2","221","785","0.5","0.5","2","3","",""
"animation","14","73552","0.0-5.0-2.4","5df5b9f661721940c46c3cd3","bdp_cybrbll","Sun Mar 26 2023 02:09:56 GMT-0400 (Eastern Daylight Time)","456520","3","1","","","","","","","","","","","221","","","","2","3","[{""stimulus"":""img/2to3/1.png"",""time"":100},{""stimulus"":""img/2to3/2.png"",""time"":198},{""stimulus"":""img/2to3/3.png"",""time"":309},{""stimulus"":""img/2to3/4.png"",""time"":401},{""stimulus"":""img/2to3/5.png"",""time"":501},{""stimulus"":""img/2to3/6.png"",""time"":600},{""stimulus"":""img/2to3/7.png"",""time"":709},{""stimulus"":""img/2to3/8.png"",""time"":800},{""stimulus"":""img/2to3/9.png"",""time"":900},{""stimulus"":""img/2to3/10.png"",""time"":993},{""stimulus"":""img/2to3/11.png"",""time"":1092},{""stimulus"":""img/2to3/12.png"",""time"":1190}]","[]"
"image-keyboard-response","15","73807","0.0-5.0-1.5","5df5b9f661721940c46c3cd3","bdp_cybrbll","Sun Mar 26 2023 02:09:56 GMT-0400 (Eastern Daylight Time)","456520","3","1","","","","observe","","","null","","img/3to2/1.png","null","220","249","0.5","0.5","3","1","",""
"animation","16","75102","0.0-5.0-2.5","5df5b9f661721940c46c3cd3","bdp_cybrbll","Sun Mar 26 2023 02:09:56 GMT-0400 (Eastern Daylight Time)","456520","3","1","","","","","","","","","","","220","","","","3","1","[{""stimulus"":""img/3to1/1.png"",""time"":105},{""stimulus"":""img/3to1/2.png"",""time"":205},{""stimulus"":""img/3to1/3.png"",""time"":304},{""stimulus"":""img/3to1/4.png"",""time"":405},{""stimulus"":""img/3to1/5.png"",""time"":496},{""stimulus"":""img/3to1/6.png"",""time"":596},{""stimulus"":""img/3to1/7.png"",""time"":695},{""stimulus"":""img/3to1/8.png"",""time"":796},{""stimulus"":""img/3to1/9.png"",""time"":896},{""stimulus"":""img/3to1/10.png"",""time"":995},{""stimulus"":""img/3to1/11.png"",""time"":1094},{""stimulus"":""img/3to1/12.png"",""time"":1193}]","[]"
"image-keyboard-response","17","75581","0.0-5.0-1.6","5df5b9f661721940c46c3cd3","bdp_cybrbll","Sun Mar 26 2023 02:09:56 GMT-0400 (Eastern Daylight Time)","456520","3","1","","","","observe","","","null","","img/1to3/1.png","null","219","474","0.5","0.5","1","3","",""
"animation","18","76872","0.0-5.0-2.6","5df5b9f661721940c46c3cd3","bdp_cybrbll","Sun Mar 26 2023 02:09:56 GMT-0400 (Eastern Daylight Time)","456520","3","1","","","","","","","","","","","219","","","","1","3","[{""stimulus"":""img/1to3/1.png"",""time"":102},{""stimulus"":""img/1to3/2.png"",""time"":202},{""stimulus"":""img/1to3/3.png"",""time"":302},{""stimulus"":""img/1to3/4.png"",""time"":401},{""stimulus"":""img/1to3/5.png"",""time"":503},{""stimulus"":""img/1to3/6.png"",""time"":601},{""stimulus"":""img/1to3/7.png"",""time"":699},{""stimulus"":""img/1to3/8.png"",""time"":798},{""stimulus"":""img/1to3/9.png"",""time"":898},{""stimulus"":""img/1to3/10.png"",""time"":997},{""stimulus"":""img/1to3/11.png"",""time"":1098},{""stimulus"":""img/1to3/12.png"",""time"":1192}]","[]"
"image-keyboard-response","19","77368","0.0-5.0-1.7","5df5b9f661721940c46c3cd3","bdp_cybrbll","Sun Mar 26 2023 02:09:56 GMT-0400 (Eastern Daylight Time)","456520","3","1","","","","observe","","","null","","img/3to2/1.png","null","218","494","0.5","0.5","3","1","",""
"animation","20","78658","0.0-5.0-2.7","5df5b9f661721940c46c3cd3","bdp_cybrbll","Sun Mar 26 2023 02:09:56 GMT-0400 (Eastern Daylight Time)","456520","3","1","","","","","","","","","","","218","","","","3","1","[{""stimulus"":""img/3to1/1.png"",""time"":103},{""stimulus"":""img/3to1/2.png"",""time"":203},{""stimulus"":""img/3to1/3.png"",""time"":303},{""stimulus"":""img/3to1/4.png"",""time"":403},{""stimulus"":""img/3to1/5.png"",""time"":502},{""stimulus"":""img/3to1/6.png"",""time"":602},{""stimulus"":""img/3to1/7.png"",""time"":701},{""stimulus"":""img/3to1/8.png"",""time"":794},{""stimulus"":""img/3to1/9.png"",""time"":893},{""stimulus"":""img/3to1/10.png"",""time"":992},{""stimulus"":""img/3to1/11.png"",""time"":1090},{""stimulus"":""img/3to1/12.png"",""time"":1190}]","[]"
"image-keyboard-response","21","78967","0.0-5.0-1.8","5df5b9f661721940c46c3cd3","bdp_cybrbll","Sun Mar 26 2023 02:09:56 GMT-0400 (Eastern Daylight Time)","456520","3","1","","","","observe","","","null","","img/1to3/1.png","null","217","302","0.5","0.5","1","2","",""
"animation","22","80263","0.0-5.0-2.8","5df5b9f661721940c46c3cd3","bdp_cybrbll","Sun Mar 26 2023 02:09:56 GMT-0400 (Eastern Daylight Time)","456520","3","1","","","","","","","","","","","217","","","","1","2","[{""stimulus"":""img/1to2/1.png"",""time"":104},{""stimulus"":""img/1to2/2.png"",""time"":204},{""stimulus"":""img/1to2/3.png"",""time"":303},{""stimulus"":""img/1to2/4.png"",""time"":402},{""stimulus"":""img/1to2/5.png"",""time"":502},{""stimulus"":""img/1to2/6.png"",""time"":602},{""stimulus"":""img/1to2/7.png"",""time"":695},{""stimulus"":""img/1to2/8.png"",""time"":795},{""stimulus"":""img/1to2/9.png"",""time"":894},{""stimulus"":""img/1to2/10.png"",""time"":994},{""stimulus"":""img/1to2/11.png"",""time"":1095},{""stimulus"":""img/1to2/12.png"",""time"":1195}]","[]"
"image-keyboard-response","23","80544","0.0-5.0-1.9","5df5b9f661721940c46c3cd3","bdp_cybrbll","Sun Mar 26 2023 02:09:56 GMT-0400 (Eastern Daylight Time)","456520","3","1","","","","choice","","","281","","img/2to1/1.png","1","216","741","0.5","0.5","2","1","",""
"animation","24","81837","0.0-5.0-2.9","5df5b9f661721940c46c3cd3","bdp_cybrbll","Sun Mar 26 2023 02:09:56 GMT-0400 (Eastern Daylight Time)","456520","3","1","","","","","","","","","","","216","","","","2","1","[{""stimulus"":""img/2to1/1.png"",""time"":104},{""stimulus"":""img/2to1/2.png"",""time"":204},{""stimulus"":""img/2to1/3.png"",""time"":303},{""stimulus"":""img/2to1/4.png"",""time"":403},{""stimulus"":""img/2to1/5.png"",""time"":502},{""stimulus"":""img/2to1/6.png"",""time"":594},{""stimulus"":""img/2to1/7.png"",""time"":702},{""stimulus"":""img/2to1/8.png"",""time"":794},{""stimulus"":""img/2to1/9.png"",""time"":894},{""stimulus"":""img/2to1/10.png"",""time"":993},{""stimulus"":""img/2to1/11.png"",""time"":1094},{""stimulus"":""img/2to1/12.png"",""time"":1202}]","[]"
"image-keyboard-response","25","82209","0.0-5.0-1.10","5df5b9f661721940c46c3cd3","bdp_cybrbll","Sun Mar 26 2023 02:09:56 GMT-0400 (Eastern Daylight Time)","456520","3","1","","","","observe","","","null","","img/1to3/1.png","null","215","363","0.5","0.5","1","2","",""
"animation","26","83502","0.0-5.0-2.10","5df5b9f661721940c46c3cd3","bdp_cybrbll","Sun Mar 26 2023 02:09:56 GMT-0400 (Eastern Daylight Time)","456520","3","1","","","","","","","","","","","215","","","","1","2","[{""stimulus"":""img/1to2/1.png"",""time"":104},{""stimulus"":""img/1to2/2.png"",""time"":204},{""stimulus"":""img/1to2/3.png"",""time"":303},{""stimulus"":""img/1to2/4.png"",""time"":403},{""stimulus"":""img/1to2/5.png"",""time"":503},{""stimulus"":""img/1to2/6.png"",""time"":603},{""stimulus"":""img/1to2/7.png"",""time"":695},{""stimulus"":""img/1to2/8.png"",""time"":794},{""stimulus"":""img/1to2/9.png"",""time"":894},{""stimulus"":""img/1to2/10.png"",""time"":994},{""stimulus"":""img/1to2/11.png"",""time"":1094},{""stimulus"":""img/1to2/12.png"",""time"":1193}]","[]"
"image-keyboard-response","27","83704","0.0-5.0-1.11","5df5b9f661721940c46c3cd3","bdp_cybrbll","Sun Mar 26 2023 02:09:56 GMT-0400 (Eastern Daylight Time)","456520","3","1","","","","choice","","","201","","img/2to1/1.png","1","214","468","0.5","0.5","2","1","",""
"animation","28","84999","0.0-5.0-2.11","5df5b9f661721940c46c3cd3","bdp_cybrbll","Sun Mar 26 2023 02:09:56 GMT-0400 (Eastern Daylight Time)","456520","3","1","","","","","","","","","","","214","","","","2","1","[{""stimulus"":""img/2to1/1.png"",""time"":111},{""stimulus"":""img/2to1/2.png"",""time"":202},{""stimulus"":""img/2to1/3.png"",""time"":299},{""stimulus"":""img/2to1/4.png"",""time"":406},{""stimulus"":""img/2to1/5.png"",""time"":497},{""stimulus"":""img/2to1/6.png"",""time"":597},{""stimulus"":""img/2to1/7.png"",""time"":696},{""stimulus"":""img/2to1/8.png"",""time"":796},{""stimulus"":""img/2to1/9.png"",""time"":899},{""stimulus"":""img/2to1/10.png"",""time"":999},{""stimulus"":""img/2to1/11.png"",""time"":1090},{""stimulus"":""img/2to1/12.png"",""time"":1190}]","[]"
"image-keyboard-response","29","85317","0.0-5.0-1.12","5df5b9f661721940c46c3cd3","bdp_cybrbll","Sun Mar 26 2023 02:09:56 GMT-0400 (Eastern Daylight Time)","456520","3","1","","","","observe","","","null","","img/1to3/1.png","null","213","312","0.5","0.5","1","3","",""
"animation","30","86613","0.0-5.0-2.12","5df5b9f661721940c46c3cd3","bdp_cybrbll","Sun Mar 26 2023 02:09:56 GMT-0400 (Eastern Daylight Time)","456520","3","1","","","","","","","","","","","213","","","","1","3","[{""stimulus"":""img/1to3/1.png"",""time"":106},{""stimulus"":""img/1to3/2.png"",""time"":205},{""stimulus"":""img/1to3/3.png"",""time"":306},{""stimulus"":""img/1to3/4.png"",""time"":406},{""stimulus"":""img/1to3/5.png"",""time"":497},{""stimulus"":""img/1to3/6.png"",""time"":597},{""stimulus"":""img/1to3/7.png"",""time"":697},{""stimulus"":""img/1to3/8.png"",""time"":797},{""stimulus"":""img/1to3/9.png"",""time"":896},{""stimulus"":""img/1to3/10.png"",""time"":996},{""stimulus"":""img/1to3/11.png"",""time"":1095},{""stimulus"":""img/1to3/12.png"",""time"":1196}]","[]"
"image-keyboard-response","31","86970","0.0-5.0-1.13","5df5b9f661721940c46c3cd3","bdp_cybrbll","Sun Mar 26 2023 02:09:56 GMT-0400 (Eastern Daylight Time)","456520","3","1","","","","observe","","","null","","img/3to2/1.png","null","212","350","0.5","0.5","3","2","",""
"animation","32","88261","0.0-5.0-2.13","5df5b9f661721940c46c3cd3","bdp_cybrbll","Sun Mar 26 2023 02:09:56 GMT-0400 (Eastern Daylight Time)","456520","3","1","","","","","","","","","","","212","","","","3","2","[{""stimulus"":""img/3to2/1.png"",""time"":102},{""stimulus"":""img/3to2/2.png"",""time"":201},{""stimulus"":""img/3to2/3.png"",""time"":301},{""stimulus"":""img/3to2/4.png"",""time"":400},{""stimulus"":""img/3to2/5.png"",""time"":499},{""stimulus"":""img/3to2/6.png"",""time"":598},{""stimulus"":""img/3to2/7.png"",""time"":696},{""stimulus"":""img/3to2/8.png"",""time"":794},{""stimulus"":""img/3to2/9.png"",""time"":893},{""stimulus"":""img/3to2/10.png"",""time"":992},{""stimulus"":""img/3to2/11.png"",""time"":1091},{""stimulus"":""img/3to2/12.png"",""time"":1191}]","[]"
"image-keyboard-response","33","89121","0.0-5.0-1.14","5df5b9f661721940c46c3cd3","bdp_cybrbll","Sun Mar 26 2023 02:09:56 GMT-0400 (Eastern Daylight Time)","456520","3","1","","","","choice","","","859","","img/2to1/1.png","2","211","350","0.5","0.5","2","3","",""
"animation","34","90413","0.0-5.0-2.14","5df5b9f661721940c46c3cd3","bdp_cybrbll","Sun Mar 26 2023 02:09:56 GMT-0400 (Eastern Daylight Time)","456520","3","1","","","","","","","","","","","211","","","","2","3","[{""stimulus"":""img/2to3/1.png"",""time"":101},{""stimulus"":""img/2to3/2.png"",""time"":200},{""stimulus"":""img/2to3/3.png"",""time"":300},{""stimulus"":""img/2to3/4.png"",""time"":400},{""stimulus"":""img/2to3/5.png"",""time"":501},{""stimulus"":""img/2to3/6.png"",""time"":601},{""stimulus"":""img/2to3/7.png"",""time"":701},{""stimulus"":""img/2to3/8.png"",""time"":792},{""stimulus"":""img/2to3/9.png"",""time"":892},{""stimulus"":""img/2to3/10.png"",""time"":994},{""stimulus"":""img/2to3/11.png"",""time"":1093},{""stimulus"":""img/2to3/12.png"",""time"":1194}]","[]"
"image-keyboard-response","35","90838","0.0-5.0-1.15","5df5b9f661721940c46c3cd3","bdp_cybrbll","Sun Mar 26 2023 02:09:56 GMT-0400 (Eastern Daylight Time)","456520","3","1","","","","observe","","","null","","img/3to2/1.png","null","210","414","0.5","0.5","3","2","",""
"animation","36","92140","0.0-5.0-2.15","5df5b9f661721940c46c3cd3","bdp_cybrbll","Sun Mar 26 2023 02:09:56 GMT-0400 (Eastern Daylight Time)","456520","3","1","","","","","","","","","","","210","","","","3","2","[{""stimulus"":""img/3to2/1.png"",""time"":105},{""stimulus"":""img/3to2/2.png"",""time"":204},{""stimulus"":""img/3to2/3.png"",""time"":303},{""stimulus"":""img/3to2/4.png"",""time"":402},{""stimulus"":""img/3to2/5.png"",""time"":502},{""stimulus"":""img/3to2/6.png"",""time"":595},{""stimulus"":""img/3to2/7.png"",""time"":703},{""stimulus"":""img/3to2/8.png"",""time"":795},{""stimulus"":""img/3to2/9.png"",""time"":895},{""stimulus"":""img/3to2/10.png"",""time"":994},{""stimulus"":""img/3to2/11.png"",""time"":1094},{""stimulus"":""img/3to2/12.png"",""time"":1195}]","[]"
"image-keyboard-response","37","92317","0.0-5.0-1.16","5df5b9f661721940c46c3cd3","bdp_cybrbll","Sun Mar 26 2023 02:09:56 GMT-0400 (Eastern Daylight Time)","456520","3","1","","","","choice","","","176","","img/2to1/1.png","2","209","674","0.5","0.5","2","3","",""
"animation","38","93610","0.0-5.0-2.16","5df5b9f661721940c46c3cd3","bdp_cybrbll","Sun Mar 26 2023 02:09:56 GMT-0400 (Eastern Daylight Time)","456520","3","1","","","","","","","","","","","209","","","","2","3","[{""stimulus"":""img/2to3/1.png"",""time"":102},{""stimulus"":""img/2to3/2.png"",""time"":203},{""stimulus"":""img/2to3/3.png"",""time"":303},{""stimulus"":""img/2to3/4.png"",""time"":402},{""stimulus"":""img/2to3/5.png"",""time"":502},{""stimulus"":""img/2to3/6.png"",""time"":601},{""stimulus"":""img/2to3/7.png"",""time"":695},{""stimulus"":""img/2to3/8.png"",""time"":797},{""stimulus"":""img/2to3/9.png"",""time"":896},{""stimulus"":""img/2to3/10.png"",""time"":1003},{""stimulus"":""img/2to3/11.png"",""time"":1095},{""stimulus"":""img/2to3/12.png"",""time"":1194}]","[]"
"image-keyboard-response","39","94237","0.0-5.0-1.17","5df5b9f661721940c46c3cd3","bdp_cybrbll","Sun Mar 26 2023 02:09:56 GMT-0400 (Eastern Daylight Time)","456520","3","1","","","","observe","","","null","","img/3to2/1.png","null","208","619","0.5","0.5","3","1","",""
"animation","40","95527","0.0-5.0-2.17","5df5b9f661721940c46c3cd3","bdp_cybrbll","Sun Mar 26 2023 02:09:56 GMT-0400 (Eastern Daylight Time)","456520","3","1","","","","","","","","","","","208","","","","3","1","[{""stimulus"":""img/3to1/1.png"",""time"":102},{""stimulus"":""img/3to1/2.png"",""time"":203},{""stimulus"":""img/3to1/3.png"",""time"":303},{""stimulus"":""img/3to1/4.png"",""time"":412},{""stimulus"":""img/3to1/5.png"",""time"":497},{""stimulus"":""img/3to1/6.png"",""time"":599},{""stimulus"":""img/3to1/7.png"",""time"":698},{""stimulus"":""img/3to1/8.png"",""time"":797},{""stimulus"":""img/3to1/9.png"",""time"":899},{""stimulus"":""img/3to1/10.png"",""time"":999},{""stimulus"":""img/3to1/11.png"",""time"":1107},{""stimulus"":""img/3to1/12.png"",""time"":1189}]","[]"
"image-keyboard-response","41","96017","0.0-5.0-1.18","5df5b9f661721940c46c3cd3","bdp_cybrbll","Sun Mar 26 2023 02:09:56 GMT-0400 (Eastern Daylight Time)","456520","3","1","","","","observe","","","null","","img/1to3/1.png","null","207","487","0.5","0.5","1","2","",""
"animation","42","97310","0.0-5.0-2.18","5df5b9f661721940c46c3cd3","bdp_cybrbll","Sun Mar 26 2023 02:09:56 GMT-0400 (Eastern Daylight Time)","456520","3","1","","","","","","","","","","","207","","","","1","2","[{""stimulus"":""img/1to2/1.png"",""time"":102},{""stimulus"":""img/1to2/2.png"",""time"":205},{""stimulus"":""img/1to2/3.png"",""time"":304},{""stimulus"":""img/1to2/4.png"",""time"":403},{""stimulus"":""img/1to2/5.png"",""time"":503},{""stimulus"":""img/1to2/6.png"",""time"":595},{""stimulus"":""img/1to2/7.png"",""time"":693},{""stimulus"":""img/1to2/8.png"",""time"":792},{""stimulus"":""img/1to2/9.png"",""time"":893},{""stimulus"":""img/1to2/10.png"",""time"":992},{""stimulus"":""img/1to2/11.png"",""time"":1092},{""stimulus"":""img/1to2/12.png"",""time"":1193}]","[]"
"image-keyboard-response","43","97579","0.0-5.0-1.19","5df5b9f661721940c46c3cd3","bdp_cybrbll","Sun Mar 26 2023 02:09:56 GMT-0400 (Eastern Daylight Time)","456520","3","1","","","","choice","","","268","","img/2to1/1.png","1","206","468","0.5","0.5","2","1","",""
"animation","44","98872","0.0-5.0-2.19","5df5b9f661721940c46c3cd3","bdp_cybrbll","Sun Mar 26 2023 02:09:56 GMT-0400 (Eastern Daylight Time)","456520","3","1","","","","","","","","","","","206","","","","2","1","[{""stimulus"":""img/2to1/1.png"",""time"":101},{""stimulus"":""img/2to1/2.png"",""time"":200},{""stimulus"":""img/2to1/3.png"",""time"":299},{""stimulus"":""img/2to1/4.png"",""time"":398},{""stimulus"":""img/2to1/5.png"",""time"":498},{""stimulus"":""img/2to1/6.png"",""time"":609},{""stimulus"":""img/2to1/7.png"",""time"":694},{""stimulus"":""img/2to1/8.png"",""time"":794},{""stimulus"":""img/2to1/9.png"",""time"":894},{""stimulus"":""img/2to1/10.png"",""time"":992},{""stimulus"":""img/2to1/11.png"",""time"":1094},{""stimulus"":""img/2to1/12.png"",""time"":1194}]","[]"
"image-keyboard-response","45","99276","0.0-5.0-1.20","5df5b9f661721940c46c3cd3","bdp_cybrbll","Sun Mar 26 2023 02:09:56 GMT-0400 (Eastern Daylight Time)","456520","3","1","","","","observe","","","null","","img/1to3/1.png","null","205","398","0.5","0.5","1","3","",""
"animation","46","100579","0.0-5.0-2.20","5df5b9f661721940c46c3cd3","bdp_cybrbll","Sun Mar 26 2023 02:09:56 GMT-0400 (Eastern Daylight Time)","456520","3","1","","","","","","","","","","","205","","","","1","3","[{""stimulus"":""img/1to3/1.png"",""time"":102},{""stimulus"":""img/1to3/2.png"",""time"":201},{""stimulus"":""img/1to3/3.png"",""time"":302},{""stimulus"":""img/1to3/4.png"",""time"":401},{""stimulus"":""img/1to3/5.png"",""time"":501},{""stimulus"":""img/1to3/6.png"",""time"":601},{""stimulus"":""img/1to3/7.png"",""time"":694},{""stimulus"":""img/1to3/8.png"",""time"":794},{""stimulus"":""img/1to3/9.png"",""time"":894},{""stimulus"":""img/1to3/10.png"",""time"":993},{""stimulus"":""img/1to3/11.png"",""time"":1094},{""stimulus"":""img/1to3/12.png"",""time"":1193}]","[]"
"image-keyboard-response","47","101004","0.0-5.0-1.21","5df5b9f661721940c46c3cd3","bdp_cybrbll","Sun Mar 26 2023 02:09:56 GMT-0400 (Eastern Daylight Time)","456520","3","1","","","","observe","","","null","","img/3to2/1.png","null","204","414","0.5","0.5","3","1","",""
"animation","48","102293","0.0-5.0-2.21","5df5b9f661721940c46c3cd3","bdp_cybrbll","Sun Mar 26 2023 02:09:56 GMT-0400 (Eastern Daylight Time)","456520","3","1","","","","","","","","","","","204","","","","3","1","[{""stimulus"":""img/3to1/1.png"",""time"":102},{""stimulus"":""img/3to1/2.png"",""time"":201},{""stimulus"":""img/3to1/3.png"",""time"":302},{""stimulus"":""img/3to1/4.png"",""time"":402},{""stimulus"":""img/3to1/5.png"",""time"":502},{""stimulus"":""img/3to1/6.png"",""time"":601},{""stimulus"":""img/3to1/7.png"",""time"":701},{""stimulus"":""img/3to1/8.png"",""time"":796},{""stimulus"":""img/3to1/9.png"",""time"":898},{""stimulus"":""img/3to1/10.png"",""time"":998},{""stimulus"":""img/3to1/11.png"",""time"":1097},{""stimulus"":""img/3to1/12.png"",""time"":1188}]","[]"
"image-keyboard-response","49","102522","0.0-5.0-1.22","5df5b9f661721940c46c3cd3","bdp_cybrbll","Sun Mar 26 2023 02:09:56 GMT-0400 (Eastern Daylight Time)","456520","3","1","","","","observe","","","null","","img/1to3/1.png","null","203","225","0.5","0.5","1","3","",""
"animation","50","103823","0.0-5.0-2.22","5df5b9f661721940c46c3cd3","bdp_cybrbll","Sun Mar 26 2023 02:09:56 GMT-0400 (Eastern Daylight Time)","456520","3","1","","","","","","","","","","","203","","","","1","3","[{""stimulus"":""img/1to3/1.png"",""time"":100},{""stimulus"":""img/1to3/2.png"",""time"":200},{""stimulus"":""img/1to3/3.png"",""time"":300},{""stimulus"":""img/1to3/4.png"",""time"":399},{""stimulus"":""img/1to3/5.png"",""time"":500},{""stimulus"":""img/1to3/6.png"",""time"":599},{""stimulus"":""img/1to3/7.png"",""time"":698},{""stimulus"":""img/1to3/8.png"",""time"":798},{""stimulus"":""img/1to3/9.png"",""time"":906},{""stimulus"":""img/1to3/10.png"",""time"":995},{""stimulus"":""img/1to3/11.png"",""time"":1093},{""stimulus"":""img/1to3/12.png"",""time"":1191}]","[]"
"image-keyboard-response","51","104393","0.0-5.0-1.23","5df5b9f661721940c46c3cd3","bdp_cybrbll","Sun Mar 26 2023 02:09:56 GMT-0400 (Eastern Daylight Time)","456520","3","1","","","","observe","","","null","","img/3to2/1.png","null","202","568","0.5","0.5","3","2","",""
"animation","52","105683","0.0-5.0-2.23","5df5b9f661721940c46c3cd3","bdp_cybrbll","Sun Mar 26 2023 02:09:56 GMT-0400 (Eastern Daylight Time)","456520","3","1","","","","","","","","","","","202","","","","3","2","[{""stimulus"":""img/3to2/1.png"",""time"":101},{""stimulus"":""img/3to2/2.png"",""time"":201},{""stimulus"":""img/3to2/3.png"",""time"":308},{""stimulus"":""img/3to2/4.png"",""time"":398},{""stimulus"":""img/3to2/5.png"",""time"":498},{""stimulus"":""img/3to2/6.png"",""time"":598},{""stimulus"":""img/3to2/7.png"",""time"":700},{""stimulus"":""img/3to2/8.png"",""time"":799},{""stimulus"":""img/3to2/9.png"",""time"":898},{""stimulus"":""img/3to2/10.png"",""time"":997},{""stimulus"":""img/3to2/11.png"",""time"":1097},{""stimulus"":""img/3to2/12.png"",""time"":1190}]","[]"
"image-keyboard-response","53","105802","0.0-5.0-1.24","5df5b9f661721940c46c3cd3","bdp_cybrbll","Sun Mar 26 2023 02:09:56 GMT-0400 (Eastern Daylight Time)","456520","3","1","","","","choice","","","119","","img/2to1/1.png","2","201","367","0.5","0.5","2","3","",""
"animation","54","107092","0.0-5.0-2.24","5df5b9f661721940c46c3cd3","bdp_cybrbll","Sun Mar 26 2023 02:09:56 GMT-0400 (Eastern Daylight Time)","456520","3","1","","","","","","","","","","","201","","","","2","3","[{""stimulus"":""img/2to3/1.png"",""time"":101},{""stimulus"":""img/2to3/2.png"",""time"":201},{""stimulus"":""img/2to3/3.png"",""time"":310},{""stimulus"":""img/2to3/4.png"",""time"":398},{""stimulus"":""img/2to3/5.png"",""time"":511},{""stimulus"":""img/2to3/6.png"",""time"":602},{""stimulus"":""img/2to3/7.png"",""time"":701},{""stimulus"":""img/2to3/8.png"",""time"":808},{""stimulus"":""img/2to3/9.png"",""time"":901},{""stimulus"":""img/2to3/10.png"",""time"":991},{""stimulus"":""img/2to3/11.png"",""time"":1091},{""stimulus"":""img/2to3/12.png"",""time"":1190}]","[]"
"image-keyboard-response","55","107448","0.0-5.0-1.25","5df5b9f661721940c46c3cd3","bdp_cybrbll","Sun Mar 26 2023 02:09:56 GMT-0400 (Eastern Daylight Time)","456520","3","1","","","","observe","","","null","","img/3to2/1.png","null","200","346","0.5","0.5","3","1","",""
"animation","56","108739","0.0-5.0-2.25","5df5b9f661721940c46c3cd3","bdp_cybrbll","Sun Mar 26 2023 02:09:56 GMT-0400 (Eastern Daylight Time)","456520","3","1","","","","","","","","","","","200","","","","3","1","[{""stimulus"":""img/3to1/1.png"",""time"":100},{""stimulus"":""img/3to1/2.png"",""time"":200},{""stimulus"":""img/3to1/3.png"",""time"":301},{""stimulus"":""img/3to1/4.png"",""time"":400},{""stimulus"":""img/3to1/5.png"",""time"":501},{""stimulus"":""img/3to1/6.png"",""time"":600},{""stimulus"":""img/3to1/7.png"",""time"":700},{""stimulus"":""img/3to1/8.png"",""time"":792},{""stimulus"":""img/3to1/9.png"",""time"":892},{""stimulus"":""img/3to1/10.png"",""time"":991},{""stimulus"":""img/3to1/11.png"",""time"":1090},{""stimulus"":""img/3to1/12.png"",""time"":1190}]","[]"
"image-keyboard-response","57","109136","0.0-5.0-1.26","5df5b9f661721940c46c3cd3","bdp_cybrbll","Sun Mar 26 2023 02:09:56 GMT-0400 (Eastern Daylight Time)","456520","3","1","","","","observe","","","null","","img/1to3/1.png","null","199","395","0.5","0.5","1","2","",""
"animation","58","110424","0.0-5.0-2.26","5df5b9f661721940c46c3cd3","bdp_cybrbll","Sun Mar 26 2023 02:09:56 GMT-0400 (Eastern Daylight Time)","456520","3","1","","","","","","","","","","","199","","","","1","2","[{""stimulus"":""img/1to2/1.png"",""time"":107},{""stimulus"":""img/1to2/2.png"",""time"":206},{""stimulus"":""img/1to2/3.png"",""time"":305},{""stimulus"":""img/1to2/4.png"",""time"":403},{""stimulus"":""img/1to2/5.png"",""time"":504},{""stimulus"":""img/1to2/6.png"",""time"":595},{""stimulus"":""img/1to2/7.png"",""time"":696},{""stimulus"":""img/1to2/8.png"",""time"":795},{""stimulus"":""img/1to2/9.png"",""time"":895},{""stimulus"":""img/1to2/10.png"",""time"":997},{""stimulus"":""img/1to2/11.png"",""time"":1099},{""stimulus"":""img/1to2/12.png"",""time"":1197}]","[]"
"image-keyboard-response","59","111456","0.0-5.0-1.27","5df5b9f661721940c46c3cd3","bdp_cybrbll","Sun Mar 26 2023 02:09:56 GMT-0400 (Eastern Daylight Time)","456520","3","1","","","","choice","","","1032","","img/2to1/1.png","2","198","1010","0.5","0.5","2","3","",""
"animation","60","112748","0.0-5.0-2.27","5df5b9f661721940c46c3cd3","bdp_cybrbll","Sun Mar 26 2023 02:09:56 GMT-0400 (Eastern Daylight Time)","456520","3","1","","","","","","","","","","","198","","","","2","3","[{""stimulus"":""img/2to3/1.png"",""time"":100},{""stimulus"":""img/2to3/2.png"",""time"":206},{""stimulus"":""img/2to3/3.png"",""time"":306},{""stimulus"":""img/2to3/4.png"",""time"":404},{""stimulus"":""img/2to3/5.png"",""time"":503},{""stimulus"":""img/2to3/6.png"",""time"":611},{""stimulus"":""img/2to3/7.png"",""time"":701},{""stimulus"":""img/2to3/8.png"",""time"":793},{""stimulus"":""img/2to3/9.png"",""time"":892},{""stimulus"":""img/2to3/10.png"",""time"":992},{""stimulus"":""img/2to3/11.png"",""time"":1091},{""stimulus"":""img/2to3/12.png"",""time"":1192}]","[]"
"image-keyboard-response","61","114556","0.0-5.0-1.28","5df5b9f661721940c46c3cd3","bdp_cybrbll","Sun Mar 26 2023 02:09:56 GMT-0400 (Eastern Daylight Time)","456520","3","1","","","","observe","","","null","","img/3to2/1.png","null","197","1805","0.5","0.5","3","1","",""
"animation","62","115851","0.0-5.0-2.28","5df5b9f661721940c46c3cd3","bdp_cybrbll","Sun Mar 26 2023 02:09:56 GMT-0400 (Eastern Daylight Time)","456520","3","1","","","","","","","","","","","197","","","","3","1","[{""stimulus"":""img/3to1/1.png"",""time"":103},{""stimulus"":""img/3to1/2.png"",""time"":203},{""stimulus"":""img/3to1/3.png"",""time"":302},{""stimulus"":""img/3to1/4.png"",""time"":405},{""stimulus"":""img/3to1/5.png"",""time"":497},{""stimulus"":""img/3to1/6.png"",""time"":597},{""stimulus"":""img/3to1/7.png"",""time"":696},{""stimulus"":""img/3to1/8.png"",""time"":795},{""stimulus"":""img/3to1/9.png"",""time"":894},{""stimulus"":""img/3to1/10.png"",""time"":993},{""stimulus"":""img/3to1/11.png"",""time"":1097},{""stimulus"":""img/3to1/12.png"",""time"":1195}]","[]"
"image-keyboard-response","63","116691","0.0-5.0-1.29","5df5b9f661721940c46c3cd3","bdp_cybrbll","Sun Mar 26 2023 02:09:56 GMT-0400 (Eastern Daylight Time)","456520","3","1","","","","observe","","","null","","img/1to3/1.png","null","196","836","0.5","0.5","1","2","",""
"animation","64","117982","0.0-5.0-2.29","5df5b9f661721940c46c3cd3","bdp_cybrbll","Sun Mar 26 2023 02:09:56 GMT-0400 (Eastern Daylight Time)","456520","3","1","","","","","","","","","","","196","","","","1","2","[{""stimulus"":""img/1to2/1.png"",""time"":101},{""stimulus"":""img/1to2/2.png"",""time"":202},{""stimulus"":""img/1to2/3.png"",""time"":300},{""stimulus"":""img/1to2/4.png"",""time"":398},{""stimulus"":""img/1to2/5.png"",""time"":497},{""stimulus"":""img/1to2/6.png"",""time"":596},{""stimulus"":""img/1to2/7.png"",""time"":695},{""stimulus"":""img/1to2/8.png"",""time"":794},{""stimulus"":""img/1to2/9.png"",""time"":904},{""stimulus"":""img/1to2/10.png"",""time"":994},{""stimulus"":""img/1to2/11.png"",""time"":1092},{""stimulus"":""img/1to2/12.png"",""time"":1192}]","[]"
"image-keyboard-response","65","118730","0.0-5.0-1.30","5df5b9f661721940c46c3cd3","bdp_cybrbll","Sun Mar 26 2023 02:09:56 GMT-0400 (Eastern Daylight Time)","456520","3","1","","","","choice","","","747","","img/2to1/1.png","1","195","287","0.5","0.5","2","1","",""
"animation","66","120022","0.0-5.0-2.30","5df5b9f661721940c46c3cd3","bdp_cybrbll","Sun Mar 26 2023 02:09:56 GMT-0400 (Eastern Daylight Time)","456520","3","1","","","","","","","","","","","195","","","","2","1","[{""stimulus"":""img/2to1/1.png"",""time"":104},{""stimulus"":""img/2to1/2.png"",""time"":203},{""stimulus"":""img/2to1/3.png"",""time"":302},{""stimulus"":""img/2to1/4.png"",""time"":411},{""stimulus"":""img/2to1/5.png"",""time"":501},{""stimulus"":""img/2to1/6.png"",""time"":602},{""stimulus"":""img/2to1/7.png"",""time"":694},{""stimulus"":""img/2to1/8.png"",""time"":793},{""stimulus"":""img/2to1/9.png"",""time"":893},{""stimulus"":""img/2to1/10.png"",""time"":993},{""stimulus"":""img/2to1/11.png"",""time"":1093},{""stimulus"":""img/2to1/12.png"",""time"":1193}]","[]"
"image-keyboard-response","67","120330","0.0-5.0-1.31","5df5b9f661721940c46c3cd3","bdp_cybrbll","Sun Mar 26 2023 02:09:56 GMT-0400 (Eastern Daylight Time)","456520","3","1","","","","observe","","","null","","img/1to3/1.png","null","194","307","0.5","0.5","1","2","",""
"animation","68","121622","0.0-5.0-2.31","5df5b9f661721940c46c3cd3","bdp_cybrbll","Sun Mar 26 2023 02:09:56 GMT-0400 (Eastern Daylight Time)","456520","3","1","","","","","","","","","","","194","","","","1","2","[{""stimulus"":""img/1to2/1.png"",""time"":102},{""stimulus"":""img/1to2/2.png"",""time"":202},{""stimulus"":""img/1to2/3.png"",""time"":302},{""stimulus"":""img/1to2/4.png"",""time"":410},{""stimulus"":""img/1to2/5.png"",""time"":501},{""stimulus"":""img/1to2/6.png"",""time"":601},{""stimulus"":""img/1to2/7.png"",""time"":701},{""stimulus"":""img/1to2/8.png"",""time"":801},{""stimulus"":""img/1to2/9.png"",""time"":900},{""stimulus"":""img/1to2/10.png"",""time"":993},{""stimulus"":""img/1to2/11.png"",""time"":1093},{""stimulus"":""img/1to2/12.png"",""time"":1193}]","[]"
"image-keyboard-response","69","121856","0.0-5.0-1.32","5df5b9f661721940c46c3cd3","bdp_cybrbll","Sun Mar 26 2023 02:09:56 GMT-0400 (Eastern Daylight Time)","456520","3","1","","","","choice","","","233","","img/2to1/1.png","1","193","411","0.5","0.5","2","1","",""
"animation","70","123149","0.0-5.0-2.32","5df5b9f661721940c46c3cd3","bdp_cybrbll","Sun Mar 26 2023 02:09:56 GMT-0400 (Eastern Daylight Time)","456520","3","1","","","","","","","","","","","193","","","","2","1","[{""stimulus"":""img/2to1/1.png"",""time"":100},{""stimulus"":""img/2to1/2.png"",""time"":201},{""stimulus"":""img/2to1/3.png"",""time"":301},{""stimulus"":""img/2to1/4.png"",""time"":404},{""stimulus"":""img/2to1/5.png"",""time"":497},{""stimulus"":""img/2to1/6.png"",""time"":596},{""stimulus"":""img/2to1/7.png"",""time"":696},{""stimulus"":""img/2to1/8.png"",""time"":796},{""stimulus"":""img/2to1/9.png"",""time"":895},{""stimulus"":""img/2to1/10.png"",""time"":994},{""stimulus"":""img/2to1/11.png"",""time"":1093},{""stimulus"":""img/2to1/12.png"",""time"":1193}]","[]"
"image-keyboard-response","71","123607","0.0-5.0-1.33","5df5b9f661721940c46c3cd3","bdp_cybrbll","Sun Mar 26 2023 02:09:56 GMT-0400 (Eastern Daylight Time)","456520","3","1","","","","observe","","","null","","img/1to3/1.png","null","192","453","0.5","0.5","1","2","",""
"animation","72","124903","0.0-5.0-2.33","5df5b9f661721940c46c3cd3","bdp_cybrbll","Sun Mar 26 2023 02:09:56 GMT-0400 (Eastern Daylight Time)","456520","3","1","","","","","","","","","","","192","","","","1","2","[{""stimulus"":""img/1to2/1.png"",""time"":103},{""stimulus"":""img/1to2/2.png"",""time"":203},{""stimulus"":""img/1to2/3.png"",""time"":302},{""stimulus"":""img/1to2/4.png"",""time"":402},{""stimulus"":""img/1to2/5.png"",""time"":501},{""stimulus"":""img/1to2/6.png"",""time"":604},{""stimulus"":""img/1to2/7.png"",""time"":705},{""stimulus"":""img/1to2/8.png"",""time"":796},{""stimulus"":""img/1to2/9.png"",""time"":897},{""stimulus"":""img/1to2/10.png"",""time"":995},{""stimulus"":""img/1to2/11.png"",""time"":1095},{""stimulus"":""img/1to2/12.png"",""time"":1195}]","[]"
"image-keyboard-response","73","125139","0.0-5.0-1.34","5df5b9f661721940c46c3cd3","bdp_cybrbll","Sun Mar 26 2023 02:09:56 GMT-0400 (Eastern Daylight Time)","456520","3","1","","","","choice","","","235","","img/2to1/1.png","1","191","589","0.5","0.5","2","1","",""
"animation","74","126430","0.0-5.0-2.34","5df5b9f661721940c46c3cd3","bdp_cybrbll","Sun Mar 26 2023 02:09:56 GMT-0400 (Eastern Daylight Time)","456520","3","1","","","","","","","","","","","191","","","","2","1","[{""stimulus"":""img/2to1/1.png"",""time"":102},{""stimulus"":""img/2to1/2.png"",""time"":201},{""stimulus"":""img/2to1/3.png"",""time"":303},{""stimulus"":""img/2to1/4.png"",""time"":403},{""stimulus"":""img/2to1/5.png"",""time"":502},{""stimulus"":""img/2to1/6.png"",""time"":602},{""stimulus"":""img/2to1/7.png"",""time"":695},{""stimulus"":""img/2to1/8.png"",""time"":793},{""stimulus"":""img/2to1/9.png"",""time"":895},{""stimulus"":""img/2to1/10.png"",""time"":993},{""stimulus"":""img/2to1/11.png"",""time"":1092},{""stimulus"":""img/2to1/12.png"",""time"":1191}]","[]"
"image-keyboard-response","75","126755","0.0-5.0-1.35","5df5b9f661721940c46c3cd3","bdp_cybrbll","Sun Mar 26 2023 02:09:56 GMT-0400 (Eastern Daylight Time)","456520","3","1","","","","observe","","","null","","img/1to3/1.png","null","190","322","0.5","0.5","1","3","",""
"animation","76","128043","0.0-5.0-2.35","5df5b9f661721940c46c3cd3","bdp_cybrbll","Sun Mar 26 2023 02:09:56 GMT-0400 (Eastern Daylight Time)","456520","3","1","","","","","","","","","","","190","","","","1","3","[{""stimulus"":""img/1to3/1.png"",""time"":101},{""stimulus"":""img/1to3/2.png"",""time"":201},{""stimulus"":""img/1to3/3.png"",""time"":299},{""stimulus"":""img/1to3/4.png"",""time"":400},{""stimulus"":""img/1to3/5.png"",""time"":499},{""stimulus"":""img/1to3/6.png"",""time"":599},{""stimulus"":""img/1to3/7.png"",""time"":700},{""stimulus"":""img/1to3/8.png"",""time"":802},{""stimulus"":""img/1to3/9.png"",""time"":896},{""stimulus"":""img/1to3/10.png"",""time"":1003},{""stimulus"":""img/1to3/11.png"",""time"":1094},{""stimulus"":""img/1to3/12.png"",""time"":1196}]","[]"
"image-keyboard-response","77","128519","0.0-5.0-1.36","5df5b9f661721940c46c3cd3","bdp_cybrbll","Sun Mar 26 2023 02:09:56 GMT-0400 (Eastern Daylight Time)","456520","3","1","","","","observe","","","null","","img/3to2/1.png","null","189","472","0.5","0.5","3","1","",""
"animation","78","129812","0.0-5.0-2.36","5df5b9f661721940c46c3cd3","bdp_cybrbll","Sun Mar 26 2023 02:09:56 GMT-0400 (Eastern Daylight Time)","456520","3","1","","","","","","","","","","","189","","","","3","1","[{""stimulus"":""img/3to1/1.png"",""time"":103},{""stimulus"":""img/3to1/2.png"",""time"":203},{""stimulus"":""img/3to1/3.png"",""time"":300},{""stimulus"":""img/3to1/4.png"",""time"":399},{""stimulus"":""img/3to1/5.png"",""time"":498},{""stimulus"":""img/3to1/6.png"",""time"":597},{""stimulus"":""img/3to1/7.png"",""time"":695},{""stimulus"":""img/3to1/8.png"",""time"":796},{""stimulus"":""img/3to1/9.png"",""time"":894},{""stimulus"":""img/3to1/10.png"",""time"":994},{""stimulus"":""img/3to1/11.png"",""time"":1093},{""stimulus"":""img/3to1/12.png"",""time"":1193}]","[]"
"image-keyboard-response","79","130198","0.0-5.0-1.37","5df5b9f661721940c46c3cd3","bdp_cybrbll","Sun Mar 26 2023 02:09:56 GMT-0400 (Eastern Daylight Time)","456520","3","1","","","","observe","","","null","","img/1to3/1.png","null","188","379","0.5","0.5","1","3","",""
"animation","80","131491","0.0-5.0-2.37","5df5b9f661721940c46c3cd3","bdp_cybrbll","Sun Mar 26 2023 02:09:56 GMT-0400 (Eastern Daylight Time)","456520","3","1","","","","","","","","","","","188","","","","1","3","[{""stimulus"":""img/1to3/1.png"",""time"":102},{""stimulus"":""img/1to3/2.png"",""time"":206},{""stimulus"":""img/1to3/3.png"",""time"":306},{""stimulus"":""img/1to3/4.png"",""time"":406},{""stimulus"":""img/1to3/5.png"",""time"":496},{""stimulus"":""img/1to3/6.png"",""time"":596},{""stimulus"":""img/1to3/7.png"",""time"":695},{""stimulus"":""img/1to3/8.png"",""time"":795},{""stimulus"":""img/1to3/9.png"",""time"":895},{""stimulus"":""img/1to3/10.png"",""time"":996},{""stimulus"":""img/1to3/11.png"",""time"":1096},{""stimulus"":""img/1to3/12.png"",""time"":1195}]","[]"
"image-keyboard-response","81","132391","0.0-5.0-1.38","5df5b9f661721940c46c3cd3","bdp_cybrbll","Sun Mar 26 2023 02:09:56 GMT-0400 (Eastern Daylight Time)","456520","3","1","","","","observe","","","null","","img/3to2/1.png","null","187","897","0.5","0.5","3","2","",""
"animation","82","133683","0.0-5.0-2.38","5df5b9f661721940c46c3cd3","bdp_cybrbll","Sun Mar 26 2023 02:09:56 GMT-0400 (Eastern Daylight Time)","456520","3","1","","","","","","","","","","","187","","","","3","2","[{""stimulus"":""img/3to2/1.png"",""time"":102},{""stimulus"":""img/3to2/2.png"",""time"":201},{""stimulus"":""img/3to2/3.png"",""time"":302},{""stimulus"":""img/3to2/4.png"",""time"":410},{""stimulus"":""img/3to2/5.png"",""time"":501},{""stimulus"":""img/3to2/6.png"",""time"":601},{""stimulus"":""img/3to2/7.png"",""time"":702},{""stimulus"":""img/3to2/8.png"",""time"":795},{""stimulus"":""img/3to2/9.png"",""time"":895},{""stimulus"":""img/3to2/10.png"",""time"":995},{""stimulus"":""img/3to2/11.png"",""time"":1092},{""stimulus"":""img/3to2/12.png"",""time"":1192}]","[]"
"image-keyboard-response","83","134032","0.0-5.0-1.39","5df5b9f661721940c46c3cd3","bdp_cybrbll","Sun Mar 26 2023 02:09:56 GMT-0400 (Eastern Daylight Time)","456520","3","1","","","","choice","","","348","","img/2to1/1.png","2","186","354","0.5","0.5","2","3","",""
"animation","84","135322","0.0-5.0-2.39","5df5b9f661721940c46c3cd3","bdp_cybrbll","Sun Mar 26 2023 02:09:56 GMT-0400 (Eastern Daylight Time)","456520","3","1","","","","","","","","","","","186","","","","2","3","[{""stimulus"":""img/2to3/1.png"",""time"":102},{""stimulus"":""img/2to3/2.png"",""time"":203},{""stimulus"":""img/2to3/3.png"",""time"":302},{""stimulus"":""img/2to3/4.png"",""time"":402},{""stimulus"":""img/2to3/5.png"",""time"":502},{""stimulus"":""img/2to3/6.png"",""time"":601},{""stimulus"":""img/2to3/7.png"",""time"":701},{""stimulus"":""img/2to3/8.png"",""time"":800},{""stimulus"":""img/2to3/9.png"",""time"":898},{""stimulus"":""img/2to3/10.png"",""time"":997},{""stimulus"":""img/2to3/11.png"",""time"":1091},{""stimulus"":""img/2to3/12.png"",""time"":1191}]","[]"
"image-keyboard-response","85","135499","0.0-5.0-1.40","5df5b9f661721940c46c3cd3","bdp_cybrbll","Sun Mar 26 2023 02:09:56 GMT-0400 (Eastern Daylight Time)","456520","3","1","","","","observe","","","null","","img/3to2/1.png","null","185","167","0.5","0.5","3","1","",""
"animation","86","136794","0.0-5.0-2.40","5df5b9f661721940c46c3cd3","bdp_cybrbll","Sun Mar 26 2023 02:09:56 GMT-0400 (Eastern Daylight Time)","456520","3","1","","","","","","","","","","","185","","","","3","1","[{""stimulus"":""img/3to1/1.png"",""time"":105},{""stimulus"":""img/3to1/2.png"",""time"":204},{""stimulus"":""img/3to1/3.png"",""time"":304},{""stimulus"":""img/3to1/4.png"",""time"":403},{""stimulus"":""img/3to1/5.png"",""time"":503},{""stimulus"":""img/3to1/6.png"",""time"":602},{""stimulus"":""img/3to1/7.png"",""time"":694},{""stimulus"":""img/3to1/8.png"",""time"":794},{""stimulus"":""img/3to1/9.png"",""time"":893},{""stimulus"":""img/3to1/10.png"",""time"":995},{""stimulus"":""img/3to1/11.png"",""time"":1095},{""stimulus"":""img/3to1/12.png"",""time"":1196}]","[]"
"image-keyboard-response","87","137669","0.0-5.0-1.41","5df5b9f661721940c46c3cd3","bdp_cybrbll","Sun Mar 26 2023 02:09:56 GMT-0400 (Eastern Daylight Time)","456520","3","1","","","","observe","","","null","","img/1to3/1.png","null","184","872","0.5","0.5","1","3","",""
"animation","88","138964","0.0-5.0-2.41","5df5b9f661721940c46c3cd3","bdp_cybrbll","Sun Mar 26 2023 02:09:56 GMT-0400 (Eastern Daylight Time)","456520","3","1","","","","","","","","","","","184","","","","1","3","[{""stimulus"":""img/1to3/1.png"",""time"":101},{""stimulus"":""img/1to3/2.png"",""time"":200},{""stimulus"":""img/1to3/3.png"",""time"":301},{""stimulus"":""img/1to3/4.png"",""time"":403},{""stimulus"":""img/1to3/5.png"",""time"":501},{""stimulus"":""img/1to3/6.png"",""time"":601},{""stimulus"":""img/1to3/7.png"",""time"":702},{""stimulus"":""img/1to3/8.png"",""time"":810},{""stimulus"":""img/1to3/9.png"",""time"":897},{""stimulus"":""img/1to3/10.png"",""time"":995},{""stimulus"":""img/1to3/11.png"",""time"":1094},{""stimulus"":""img/1to3/12.png"",""time"":1197}]","[]"
"image-keyboard-response","89","139618","0.0-5.0-1.42","5df5b9f661721940c46c3cd3","bdp_cybrbll","Sun Mar 26 2023 02:09:56 GMT-0400 (Eastern Daylight Time)","456520","3","1","","","","observe","","","null","","img/3to2/1.png","null","183","651","0.5","0.5","3","2","",""
"animation","90","140907","0.0-5.0-2.42","5df5b9f661721940c46c3cd3","bdp_cybrbll","Sun Mar 26 2023 02:09:56 GMT-0400 (Eastern Daylight Time)","456520","3","1","","","","","","","","","","","183","","","","3","2","[{""stimulus"":""img/3to2/1.png"",""time"":105},{""stimulus"":""img/3to2/2.png"",""time"":206},{""stimulus"":""img/3to2/3.png"",""time"":305},{""stimulus"":""img/3to2/4.png"",""time"":396},{""stimulus"":""img/3to2/5.png"",""time"":496},{""stimulus"":""img/3to2/6.png"",""time"":595},{""stimulus"":""img/3to2/7.png"",""time"":694},{""stimulus"":""img/3to2/8.png"",""time"":794},{""stimulus"":""img/3to2/9.png"",""time"":895},{""stimulus"":""img/3to2/10.png"",""time"":995},{""stimulus"":""img/3to2/11.png"",""time"":1095},{""stimulus"":""img/3to2/12.png"",""time"":1197}]","[]"
"image-keyboard-response","91","140954","0.0-5.0-1.43","5df5b9f661721940c46c3cd3","bdp_cybrbll","Sun Mar 26 2023 02:09:56 GMT-0400 (Eastern Daylight Time)","456520","3","1","","","","choice","","","46","","img/2to1/1.png","2","182","382","0.5","0.5","2","3","",""
"animation","92","142243","0.0-5.0-2.43","5df5b9f661721940c46c3cd3","bdp_cybrbll","Sun Mar 26 2023 02:09:56 GMT-0400 (Eastern Daylight Time)","456520","3","1","","","","","","","","","","","182","","","","2","3","[{""stimulus"":""img/2to3/1.png"",""time"":102},{""stimulus"":""img/2to3/2.png"",""time"":202},{""stimulus"":""img/2to3/3.png"",""time"":301},{""stimulus"":""img/2to3/4.png"",""time"":409},{""stimulus"":""img/2to3/5.png"",""time"":498},{""stimulus"":""img/2to3/6.png"",""time"":607},{""stimulus"":""img/2to3/7.png"",""time"":698},{""stimulus"":""img/2to3/8.png"",""time"":798},{""stimulus"":""img/2to3/9.png"",""time"":898},{""stimulus"":""img/2to3/10.png"",""time"":998},{""stimulus"":""img/2to3/11.png"",""time"":1090},{""stimulus"":""img/2to3/12.png"",""time"":1189}]","[]"
"image-keyboard-response","93","142469","0.0-5.0-1.44","5df5b9f661721940c46c3cd3","bdp_cybrbll","Sun Mar 26 2023 02:09:56 GMT-0400 (Eastern Daylight Time)","456520","3","1","","","","observe","","","null","","img/3to2/1.png","null","181","225","0.5","0.5","3","1","",""
"animation","94","143763","0.0-5.0-2.44","5df5b9f661721940c46c3cd3","bdp_cybrbll","Sun Mar 26 2023 02:09:56 GMT-0400 (Eastern Daylight Time)","456520","3","1","","","","","","","","","","","181","","","","3","1","[{""stimulus"":""img/3to1/1.png"",""time"":102},{""stimulus"":""img/3to1/2.png"",""time"":204},{""stimulus"":""img/3to1/3.png"",""time"":302},{""stimulus"":""img/3to1/4.png"",""time"":410},{""stimulus"":""img/3to1/5.png"",""time"":502},{""stimulus"":""img/3to1/6.png"",""time"":609},{""stimulus"":""img/3to1/7.png"",""time"":693},{""stimulus"":""img/3to1/8.png"",""time"":794},{""stimulus"":""img/3to1/9.png"",""time"":895},{""stimulus"":""img/3to1/10.png"",""time"":994},{""stimulus"":""img/3to1/11.png"",""time"":1097},{""stimulus"":""img/3to1/12.png"",""time"":1196}]","[]"
"image-keyboard-response","95","144292","0.0-5.0-1.45","5df5b9f661721940c46c3cd3","bdp_cybrbll","Sun Mar 26 2023 02:09:56 GMT-0400 (Eastern Daylight Time)","456520","3","1","","","","observe","","","null","","img/1to3/1.png","null","180","522","0.5","0.5","1","3","",""
"animation","96","145585","0.0-5.0-2.45","5df5b9f661721940c46c3cd3","bdp_cybrbll","Sun Mar 26 2023 02:09:56 GMT-0400 (Eastern Daylight Time)","456520","3","1","","","","","","","","","","","180","","","","1","3","[{""stimulus"":""img/1to3/1.png"",""time"":101},{""stimulus"":""img/1to3/2.png"",""time"":200},{""stimulus"":""img/1to3/3.png"",""time"":299},{""stimulus"":""img/1to3/4.png"",""time"":403},{""stimulus"":""img/1to3/5.png"",""time"":502},{""stimulus"":""img/1to3/6.png"",""time"":602},{""stimulus"":""img/1to3/7.png"",""time"":694},{""stimulus"":""img/1to3/8.png"",""time"":800},{""stimulus"":""img/1to3/9.png"",""time"":891},{""stimulus"":""img/1to3/10.png"",""time"":992},{""stimulus"":""img/1to3/11.png"",""time"":1091},{""stimulus"":""img/1to3/12.png"",""time"":1190}]","[]"
"image-keyboard-response","97","145954","0.0-5.0-1.46","5df5b9f661721940c46c3cd3","bdp_cybrbll","Sun Mar 26 2023 02:09:56 GMT-0400 (Eastern Daylight Time)","456520","3","1","","","","observe","","","null","","img/3to2/1.png","null","179","366","0.5","0.5","3","2","",""
"animation","98","147244","0.0-5.0-2.46","5df5b9f661721940c46c3cd3","bdp_cybrbll","Sun Mar 26 2023 02:09:56 GMT-0400 (Eastern Daylight Time)","456520","3","1","","","","","","","","","","","179","","","","3","2","[{""stimulus"":""img/3to2/1.png"",""time"":101},{""stimulus"":""img/3to2/2.png"",""time"":201},{""stimulus"":""img/3to2/3.png"",""time"":300},{""stimulus"":""img/3to2/4.png"",""time"":399},{""stimulus"":""img/3to2/5.png"",""time"":499},{""stimulus"":""img/3to2/6.png"",""time"":599},{""stimulus"":""img/3to2/7.png"",""time"":700},{""stimulus"":""img/3to2/8.png"",""time"":799},{""stimulus"":""img/3to2/9.png"",""time"":907},{""stimulus"":""img/3to2/10.png"",""time"":998},{""stimulus"":""img/3to2/11.png"",""time"":1092},{""stimulus"":""img/3to2/12.png"",""time"":1191}]","[]"
"image-keyboard-response","99","147724","0.0-5.0-1.47","5df5b9f661721940c46c3cd3","bdp_cybrbll","Sun Mar 26 2023 02:09:56 GMT-0400 (Eastern Daylight Time)","456520","3","1","","","","choice","","","479","","img/2to1/1.png","2","178","394","0.5","0.5","2","3","",""
"animation","100","149015","0.0-5.0-2.47","5df5b9f661721940c46c3cd3","bdp_cybrbll","Sun Mar 26 2023 02:09:56 GMT-0400 (Eastern Daylight Time)","456520","3","1","","","","","","","","","","","178","","","","2","3","[{""stimulus"":""img/2to3/1.png"",""time"":105},{""stimulus"":""img/2to3/2.png"",""time"":204},{""stimulus"":""img/2to3/3.png"",""time"":303},{""stimulus"":""img/2to3/4.png"",""time"":402},{""stimulus"":""img/2to3/5.png"",""time"":502},{""stimulus"":""img/2to3/6.png"",""time"":597},{""stimulus"":""img/2to3/7.png"",""time"":698},{""stimulus"":""img/2to3/8.png"",""time"":798},{""stimulus"":""img/2to3/9.png"",""time"":898},{""stimulus"":""img/2to3/10.png"",""time"":991},{""stimulus"":""img/2to3/11.png"",""time"":1091},{""stimulus"":""img/2to3/12.png"",""time"":1191}]","[]"
"image-keyboard-response","101","149346","0.0-5.0-1.48","5df5b9f661721940c46c3cd3","bdp_cybrbll","Sun Mar 26 2023 02:09:56 GMT-0400 (Eastern Daylight Time)","456520","3","1","","","","observe","","","null","","img/3to2/1.png","null","177","325","0.5","0.5","3","2","",""
"animation","102","150640","0.0-5.0-2.48","5df5b9f661721940c46c3cd3","bdp_cybrbll","Sun Mar 26 2023 02:09:56 GMT-0400 (Eastern Daylight Time)","456520","3","1","","","","","","","","","","","177","","","","3","2","[{""stimulus"":""img/3to2/1.png"",""time"":101},{""stimulus"":""img/3to2/2.png"",""time"":208},{""stimulus"":""img/3to2/3.png"",""time"":297},{""stimulus"":""img/3to2/4.png"",""time"":398},{""stimulus"":""img/3to2/5.png"",""time"":497},{""stimulus"":""img/3to2/6.png"",""time"":603},{""stimulus"":""img/3to2/7.png"",""time"":698},{""stimulus"":""img/3to2/8.png"",""time"":796},{""stimulus"":""img/3to2/9.png"",""time"":896},{""stimulus"":""img/3to2/10.png"",""time"":995},{""stimulus"":""img/3to2/11.png"",""time"":1095},{""stimulus"":""img/3to2/12.png"",""time"":1203}]","[]"
"image-keyboard-response","103","151153","0.0-5.0-1.49","5df5b9f661721940c46c3cd3","bdp_cybrbll","Sun Mar 26 2023 02:09:56 GMT-0400 (Eastern Daylight Time)","456520","3","1","","","","choice","","","512","","img/2to1/1.png","2","176","638","0.5","0.5","2","3","",""
"animation","104","152446","0.0-5.0-2.49","5df5b9f661721940c46c3cd3","bdp_cybrbll","Sun Mar 26 2023 02:09:56 GMT-0400 (Eastern Daylight Time)","456520","3","1","","","","","","","","","","","176","","","","2","3","[{""stimulus"":""img/2to3/1.png"",""time"":105},{""stimulus"":""img/2to3/2.png"",""time"":206},{""stimulus"":""img/2to3/3.png"",""time"":299},{""stimulus"":""img/2to3/4.png"",""time"":398},{""stimulus"":""img/2to3/5.png"",""time"":497},{""stimulus"":""img/2to3/6.png"",""time"":600},{""stimulus"":""img/2to3/7.png"",""time"":702},{""stimulus"":""img/2to3/8.png"",""time"":793},{""stimulus"":""img/2to3/9.png"",""time"":893},{""stimulus"":""img/2to3/10.png"",""time"":992},{""stimulus"":""img/2to3/11.png"",""time"":1093},{""stimulus"":""img/2to3/12.png"",""time"":1193}]","[]"
"image-keyboard-response","105","152709","0.0-5.0-1.50","5df5b9f661721940c46c3cd3","bdp_cybrbll","Sun Mar 26 2023 02:09:56 GMT-0400 (Eastern Daylight Time)","456520","3","1","","","","observe","","","null","","img/3to2/1.png","null","175","247","0.5","0.5","3","1","",""
"animation","106","154002","0.0-5.0-2.50","5df5b9f661721940c46c3cd3","bdp_cybrbll","Sun Mar 26 2023 02:09:56 GMT-0400 (Eastern Daylight Time)","456520","3","1","","","","","","","","","","","175","","","","3","1","[{""stimulus"":""img/3to1/1.png"",""time"":104},{""stimulus"":""img/3to1/2.png"",""time"":203},{""stimulus"":""img/3to1/3.png"",""time"":311},{""stimulus"":""img/3to1/4.png"",""time"":404},{""stimulus"":""img/3to1/5.png"",""time"":503},{""stimulus"":""img/3to1/6.png"",""time"":611},{""stimulus"":""img/3to1/7.png"",""time"":695},{""stimulus"":""img/3to1/8.png"",""time"":794},{""stimulus"":""img/3to1/9.png"",""time"":894},{""stimulus"":""img/3to1/10.png"",""time"":994},{""stimulus"":""img/3to1/11.png"",""time"":1093},{""stimulus"":""img/3to1/12.png"",""time"":1201}]","[]"
"image-keyboard-response","107","154324","0.0-5.0-1.51","5df5b9f661721940c46c3cd3","bdp_cybrbll","Sun Mar 26 2023 02:09:56 GMT-0400 (Eastern Daylight Time)","456520","3","1","","","","observe","","","null","","img/1to3/1.png","null","174","318","0.5","0.5","1","3","",""
"animation","108","155613","0.0-5.0-2.51","5df5b9f661721940c46c3cd3","bdp_cybrbll","Sun Mar 26 2023 02:09:56 GMT-0400 (Eastern Daylight Time)","456520","3","1","","","","","","","","","","","174","","","","1","3","[{""stimulus"":""img/1to3/1.png"",""time"":103},{""stimulus"":""img/1to3/2.png"",""time"":202},{""stimulus"":""img/1to3/3.png"",""time"":301},{""stimulus"":""img/1to3/4.png"",""time"":400},{""stimulus"":""img/1to3/5.png"",""time"":499},{""stimulus"":""img/1to3/6.png"",""time"":599},{""stimulus"":""img/1to3/7.png"",""time"":698},{""stimulus"":""img/1to3/8.png"",""time"":798},{""stimulus"":""img/1to3/9.png"",""time"":898},{""stimulus"":""img/1to3/10.png"",""time"":992},{""stimulus"":""img/1to3/11.png"",""time"":1091},{""stimulus"":""img/1to3/12.png"",""time"":1190}]","[]"
"image-keyboard-response","109","156060","0.0-5.0-1.52","5df5b9f661721940c46c3cd3","bdp_cybrbll","Sun Mar 26 2023 02:09:56 GMT-0400 (Eastern Daylight Time)","456520","3","1","","","","observe","","","null","","img/3to2/1.png","null","173","442","0.5","0.5","3","1","",""
"animation","110","157355","0.0-5.0-2.52","5df5b9f661721940c46c3cd3","bdp_cybrbll","Sun Mar 26 2023 02:09:56 GMT-0400 (Eastern Daylight Time)","456520","3","1","","","","","","","","","","","173","","","","3","1","[{""stimulus"":""img/3to1/1.png"",""time"":102},{""stimulus"":""img/3to1/2.png"",""time"":202},{""stimulus"":""img/3to1/3.png"",""time"":304},{""stimulus"":""img/3to1/4.png"",""time"":401},{""stimulus"":""img/3to1/5.png"",""time"":501},{""stimulus"":""img/3to1/6.png"",""time"":602},{""stimulus"":""img/3to1/7.png"",""time"":695},{""stimulus"":""img/3to1/8.png"",""time"":794},{""stimulus"":""img/3to1/9.png"",""time"":894},{""stimulus"":""img/3to1/10.png"",""time"":995},{""stimulus"":""img/3to1/11.png"",""time"":1095},{""stimulus"":""img/3to1/12.png"",""time"":1195}]","[]"
"image-keyboard-response","111","158231","0.0-5.0-1.53","5df5b9f661721940c46c3cd3","bdp_cybrbll","Sun Mar 26 2023 02:09:56 GMT-0400 (Eastern Daylight Time)","456520","3","1","","","","observe","","","null","","img/1to3/1.png","null","172","859","0.5","0.5","1","3","",""
"animation","112","159523","0.0-5.0-2.53","5df5b9f661721940c46c3cd3","bdp_cybrbll","Sun Mar 26 2023 02:09:56 GMT-0400 (Eastern Daylight Time)","456520","3","1","","","","","","","","","","","172","","","","1","3","[{""stimulus"":""img/1to3/1.png"",""time"":102},{""stimulus"":""img/1to3/2.png"",""time"":203},{""stimulus"":""img/1to3/3.png"",""time"":303},{""stimulus"":""img/1to3/4.png"",""time"":403},{""stimulus"":""img/1to3/5.png"",""time"":504},{""stimulus"":""img/1to3/6.png"",""time"":603},{""stimulus"":""img/1to3/7.png"",""time"":694},{""stimulus"":""img/1to3/8.png"",""time"":795},{""stimulus"":""img/1to3/9.png"",""time"":894},{""stimulus"":""img/1to3/10.png"",""time"":993},{""stimulus"":""img/1to3/11.png"",""time"":1091},{""stimulus"":""img/1to3/12.png"",""time"":1191}]","[]"
"image-keyboard-response","113","159689","0.0-5.0-1.54","5df5b9f661721940c46c3cd3","bdp_cybrbll","Sun Mar 26 2023 02:09:56 GMT-0400 (Eastern Daylight Time)","456520","3","1","","","","observe","","","null","","img/3to2/1.png","null","171","165","0.5","0.5","3","1","",""
"animation","114","160984","0.0-5.0-2.54","5df5b9f661721940c46c3cd3","bdp_cybrbll","Sun Mar 26 2023 02:09:56 GMT-0400 (Eastern Daylight Time)","456520","3","1","","","","","","","","","","","171","","","","3","1","[{""stimulus"":""img/3to1/1.png"",""time"":104},{""stimulus"":""img/3to1/2.png"",""time"":203},{""stimulus"":""img/3to1/3.png"",""time"":303},{""stimulus"":""img/3to1/4.png"",""time"":403},{""stimulus"":""img/3to1/5.png"",""time"":502},{""stimulus"":""img/3to1/6.png"",""time"":596},{""stimulus"":""img/3to1/7.png"",""time"":695},{""stimulus"":""img/3to1/8.png"",""time"":795},{""stimulus"":""img/3to1/9.png"",""time"":896},{""stimulus"":""img/3to1/10.png"",""time"":995},{""stimulus"":""img/3to1/11.png"",""time"":1096},{""stimulus"":""img/3to1/12.png"",""time"":1195}]","[]"
"image-keyboard-response","115","161527","0.0-5.0-1.55","5df5b9f661721940c46c3cd3","bdp_cybrbll","Sun Mar 26 2023 02:09:56 GMT-0400 (Eastern Daylight Time)","456520","3","1","","","","observe","","","null","","img/1to3/1.png","null","170","534","0.5","0.5","1","3","",""
"animation","116","162815","0.0-5.0-2.55","5df5b9f661721940c46c3cd3","bdp_cybrbll","Sun Mar 26 2023 02:09:56 GMT-0400 (Eastern Daylight Time)","456520","3","1","","","","","","","","","","","170","","","","1","3","[{""stimulus"":""img/1to3/1.png"",""time"":101},{""stimulus"":""img/1to3/2.png"",""time"":202},{""stimulus"":""img/1to3/3.png"",""time"":302},{""stimulus"":""img/1to3/4.png"",""time"":397},{""stimulus"":""img/1to3/5.png"",""time"":498},{""stimulus"":""img/1to3/6.png"",""time"":596},{""stimulus"":""img/1to3/7.png"",""time"":696},{""stimulus"":""img/1to3/8.png"",""time"":795},{""stimulus"":""img/1to3/9.png"",""time"":896},{""stimulus"":""img/1to3/10.png"",""time"":998},{""stimulus"":""img/1to3/11.png"",""time"":1098},{""stimulus"":""img/1to3/12.png"",""time"":1196}]","[]"
"image-keyboard-response","117","163585","0.0-5.0-1.56","5df5b9f661721940c46c3cd3","bdp_cybrbll","Sun Mar 26 2023 02:09:56 GMT-0400 (Eastern Daylight Time)","456520","3","1","","","","observe","","","null","","img/3to2/1.png","null","169","764","0.5","0.5","3","2","",""
"animation","118","164875","0.0-5.0-2.56","5df5b9f661721940c46c3cd3","bdp_cybrbll","Sun Mar 26 2023 02:09:56 GMT-0400 (Eastern Daylight Time)","456520","3","1","","","","","","","","","","","169","","","","3","2","[{""stimulus"":""img/3to2/1.png"",""time"":104},{""stimulus"":""img/3to2/2.png"",""time"":204},{""stimulus"":""img/3to2/3.png"",""time"":311},{""stimulus"":""img/3to2/4.png"",""time"":412},{""stimulus"":""img/3to2/5.png"",""time"":503},{""stimulus"":""img/3to2/6.png"",""time"":596},{""stimulus"":""img/3to2/7.png"",""time"":698},{""stimulus"":""img/3to2/8.png"",""time"":797},{""stimulus"":""img/3to2/9.png"",""time"":896},{""stimulus"":""img/3to2/10.png"",""time"":997},{""stimulus"":""img/3to2/11.png"",""time"":1089},{""stimulus"":""img/3to2/12.png"",""time"":1190}]","[]"
"image-keyboard-response","119","165009","0.0-5.0-1.57","5df5b9f661721940c46c3cd3","bdp_cybrbll","Sun Mar 26 2023 02:09:56 GMT-0400 (Eastern Daylight Time)","456520","3","1","","","","choice","","","133","","img/2to1/1.png","1","168","394","0.5","0.5","2","1","",""
"animation","120","166303","0.0-5.0-2.57","5df5b9f661721940c46c3cd3","bdp_cybrbll","Sun Mar 26 2023 02:09:56 GMT-0400 (Eastern Daylight Time)","456520","3","1","","","","","","","","","","","168","","","","2","1","[{""stimulus"":""img/2to1/1.png"",""time"":101},{""stimulus"":""img/2to1/2.png"",""time"":201},{""stimulus"":""img/2to1/3.png"",""time"":305},{""stimulus"":""img/2to1/4.png"",""time"":403},{""stimulus"":""img/2to1/5.png"",""time"":501},{""stimulus"":""img/2to1/6.png"",""time"":602},{""stimulus"":""img/2to1/7.png"",""time"":710},{""stimulus"":""img/2to1/8.png"",""time"":809},{""stimulus"":""img/2to1/9.png"",""time"":908},{""stimulus"":""img/2to1/10.png"",""time"":997},{""stimulus"":""img/2to1/11.png"",""time"":1096},{""stimulus"":""img/2to1/12.png"",""time"":1195}]","[]"
"image-keyboard-response","121","166762","0.0-5.0-1.58","5df5b9f661721940c46c3cd3","bdp_cybrbll","Sun Mar 26 2023 02:09:56 GMT-0400 (Eastern Daylight Time)","456520","3","1","","","","observe","","","null","","img/1to3/1.png","null","167","449","0.5","0.5","1","2","",""
"animation","122","168053","0.0-5.0-2.58","5df5b9f661721940c46c3cd3","bdp_cybrbll","Sun Mar 26 2023 02:09:56 GMT-0400 (Eastern Daylight Time)","456520","3","1","","","","","","","","","","","167","","","","1","2","[{""stimulus"":""img/1to2/1.png"",""time"":104},{""stimulus"":""img/1to2/2.png"",""time"":204},{""stimulus"":""img/1to2/3.png"",""time"":303},{""stimulus"":""img/1to2/4.png"",""time"":403},{""stimulus"":""img/1to2/5.png"",""time"":503},{""stimulus"":""img/1to2/6.png"",""time"":602},{""stimulus"":""img/1to2/7.png"",""time"":694},{""stimulus"":""img/1to2/8.png"",""time"":803},{""stimulus"":""img/1to2/9.png"",""time"":894},{""stimulus"":""img/1to2/10.png"",""time"":993},{""stimulus"":""img/1to2/11.png"",""time"":1092},{""stimulus"":""img/1to2/12.png"",""time"":1191}]","[]"
"image-keyboard-response","123","168309","0.0-5.0-1.59","5df5b9f661721940c46c3cd3","bdp_cybrbll","Sun Mar 26 2023 02:09:56 GMT-0400 (Eastern Daylight Time)","456520","3","1","","","","choice","","","255","","img/2to1/1.png","1","166","512","0.5","0.5","2","1","",""
"animation","124","169605","0.0-5.0-2.59","5df5b9f661721940c46c3cd3","bdp_cybrbll","Sun Mar 26 2023 02:09:56 GMT-0400 (Eastern Daylight Time)","456520","3","1","","","","","","","","","","","166","","","","2","1","[{""stimulus"":""img/2to1/1.png"",""time"":103},{""stimulus"":""img/2to1/2.png"",""time"":202},{""stimulus"":""img/2to1/3.png"",""time"":304},{""stimulus"":""img/2to1/4.png"",""time"":405},{""stimulus"":""img/2to1/5.png"",""time"":496},{""stimulus"":""img/2to1/6.png"",""time"":595},{""stimulus"":""img/2to1/7.png"",""time"":696},{""stimulus"":""img/2to1/8.png"",""time"":796},{""stimulus"":""img/2to1/9.png"",""time"":895},{""stimulus"":""img/2to1/10.png"",""time"":994},{""stimulus"":""img/2to1/11.png"",""time"":1095},{""stimulus"":""img/2to1/12.png"",""time"":1194}]","[]"
"image-keyboard-response","125","169848","0.0-5.0-1.60","5df5b9f661721940c46c3cd3","bdp_cybrbll","Sun Mar 26 2023 02:09:56 GMT-0400 (Eastern Daylight Time)","456520","3","1","","","","observe","","","null","","img/1to3/1.png","null","165","236","0.5","0.5","1","2","",""
"animation","126","171144","0.0-5.0-2.60","5df5b9f661721940c46c3cd3","bdp_cybrbll","Sun Mar 26 2023 02:09:56 GMT-0400 (Eastern Daylight Time)","456520","3","1","","","","","","","","","","","165","","","","1","2","[{""stimulus"":""img/1to2/1.png"",""time"":114},{""stimulus"":""img/1to2/2.png"",""time"":205},{""stimulus"":""img/1to2/3.png"",""time"":306},{""stimulus"":""img/1to2/4.png"",""time"":404},{""stimulus"":""img/1to2/5.png"",""time"":502},{""stimulus"":""img/1to2/6.png"",""time"":601},{""stimulus"":""img/1to2/7.png"",""time"":696},{""stimulus"":""img/1to2/8.png"",""time"":797},{""stimulus"":""img/1to2/9.png"",""time"":895},{""stimulus"":""img/1to2/10.png"",""time"":995},{""stimulus"":""img/1to2/11.png"",""time"":1094},{""stimulus"":""img/1to2/12.png"",""time"":1195}]","[]"
"image-keyboard-response","127","171394","0.0-5.0-1.61","5df5b9f661721940c46c3cd3","bdp_cybrbll","Sun Mar 26 2023 02:09:56 GMT-0400 (Eastern Daylight Time)","456520","3","1","","","","choice","","","250","","img/2to1/1.png","1","164","1818","0.5","0.5","2","1","",""
"animation","128","172685","0.0-5.0-2.61","5df5b9f661721940c46c3cd3","bdp_cybrbll","Sun Mar 26 2023 02:09:56 GMT-0400 (Eastern Daylight Time)","456520","3","1","","","","","","","","","","","164","","","","2","1","[{""stimulus"":""img/2to1/1.png"",""time"":101},{""stimulus"":""img/2to1/2.png"",""time"":201},{""stimulus"":""img/2to1/3.png"",""time"":300},{""stimulus"":""img/2to1/4.png"",""time"":400},{""stimulus"":""img/2to1/5.png"",""time"":500},{""stimulus"":""img/2to1/6.png"",""time"":600},{""stimulus"":""img/2to1/7.png"",""time"":699},{""stimulus"":""img/2to1/8.png"",""time"":800},{""stimulus"":""img/2to1/9.png"",""time"":900},{""stimulus"":""img/2to1/10.png"",""time"":992},{""stimulus"":""img/2to1/11.png"",""time"":1092},{""stimulus"":""img/2to1/12.png"",""time"":1191}]","[]"
"image-keyboard-response","129","173148","0.0-5.0-1.62","5df5b9f661721940c46c3cd3","bdp_cybrbll","Sun Mar 26 2023 02:09:56 GMT-0400 (Eastern Daylight Time)","456520","3","1","","","","observe","","","null","","img/1to3/1.png","null","163","454","0.5","0.5","1","2","",""
"animation","130","174443","0.0-5.0-2.62","5df5b9f661721940c46c3cd3","bdp_cybrbll","Sun Mar 26 2023 02:09:56 GMT-0400 (Eastern Daylight Time)","456520","3","1","","","","","","","","","","","163","","","","1","2","[{""stimulus"":""img/1to2/1.png"",""time"":103},{""stimulus"":""img/1to2/2.png"",""time"":201},{""stimulus"":""img/1to2/3.png"",""time"":302},{""stimulus"":""img/1to2/4.png"",""time"":401},{""stimulus"":""img/1to2/5.png"",""time"":497},{""stimulus"":""img/1to2/6.png"",""time"":597},{""stimulus"":""img/1to2/7.png"",""time"":696},{""stimulus"":""img/1to2/8.png"",""time"":797},{""stimulus"":""img/1to2/9.png"",""time"":896},{""stimulus"":""img/1to2/10.png"",""time"":995},{""stimulus"":""img/1to2/11.png"",""time"":1095},{""stimulus"":""img/1to2/12.png"",""time"":1195}]","[]"
"image-keyboard-response","131","174725","0.0-5.0-1.63","5df5b9f661721940c46c3cd3","bdp_cybrbll","Sun Mar 26 2023 02:09:56 GMT-0400 (Eastern Daylight Time)","456520","3","1","","","","choice","","","282","","img/2to1/1.png","1","162","443","0.5","0.5","2","1","",""
"animation","132","176018","0.0-5.0-2.63","5df5b9f661721940c46c3cd3","bdp_cybrbll","Sun Mar 26 2023 02:09:56 GMT-0400 (Eastern Daylight Time)","456520","3","1","","","","","","","","","","","162","","","","2","1","[{""stimulus"":""img/2to1/1.png"",""time"":107},{""stimulus"":""img/2to1/2.png"",""time"":207},{""stimulus"":""img/2to1/3.png"",""time"":298},{""stimulus"":""img/2to1/4.png"",""time"":400},{""stimulus"":""img/2to1/5.png"",""time"":499},{""stimulus"":""img/2to1/6.png"",""time"":601},{""stimulus"":""img/2to1/7.png"",""time"":702},{""stimulus"":""img/2to1/8.png"",""time"":797},{""stimulus"":""img/2to1/9.png"",""time"":896},{""stimulus"":""img/2to1/10.png"",""time"":996},{""stimulus"":""img/2to1/11.png"",""time"":1095},{""stimulus"":""img/2to1/12.png"",""time"":1194}]","[]"
"image-keyboard-response","133","176608","0.0-5.0-1.64","5df5b9f661721940c46c3cd3","bdp_cybrbll","Sun Mar 26 2023 02:09:56 GMT-0400 (Eastern Daylight Time)","456520","3","1","","","","observe","","","null","","img/1to3/1.png","null","161","584","0.5","0.5","1","3","",""
"animation","134","177903","0.0-5.0-2.64","5df5b9f661721940c46c3cd3","bdp_cybrbll","Sun Mar 26 2023 02:09:56 GMT-0400 (Eastern Daylight Time)","456520","3","1","","","","","","","","","","","161","","","","1","3","[{""stimulus"":""img/1to3/1.png"",""time"":101},{""stimulus"":""img/1to3/2.png"",""time"":200},{""stimulus"":""img/1to3/3.png"",""time"":303},{""stimulus"":""img/1to3/4.png"",""time"":397},{""stimulus"":""img/1to3/5.png"",""time"":496},{""stimulus"":""img/1to3/6.png"",""time"":596},{""stimulus"":""img/1to3/7.png"",""time"":695},{""stimulus"":""img/1to3/8.png"",""time"":794},{""stimulus"":""img/1to3/9.png"",""time"":894},{""stimulus"":""img/1to3/10.png"",""time"":994},{""stimulus"":""img/1to3/11.png"",""time"":1102},{""stimulus"":""img/1to3/12.png"",""time"":1194}]","[]"
"image-keyboard-response","135","178532","0.0-5.0-1.65","5df5b9f661721940c46c3cd3","bdp_cybrbll","Sun Mar 26 2023 02:09:56 GMT-0400 (Eastern Daylight Time)","456520","3","1","","","","observe","","","null","","img/3to2/1.png","null","160","618","0.5","0.5","3","2","",""
"animation","136","179822","0.0-5.0-2.65","5df5b9f661721940c46c3cd3","bdp_cybrbll","Sun Mar 26 2023 02:09:56 GMT-0400 (Eastern Daylight Time)","456520","3","1","","","","","","","","","","","160","","","","3","2","[{""stimulus"":""img/3to2/1.png"",""time"":100},{""stimulus"":""img/3to2/2.png"",""time"":201},{""stimulus"":""img/3to2/3.png"",""time"":301},{""stimulus"":""img/3to2/4.png"",""time"":402},{""stimulus"":""img/3to2/5.png"",""time"":502},{""stimulus"":""img/3to2/6.png"",""time"":602},{""stimulus"":""img/3to2/7.png"",""time"":701},{""stimulus"":""img/3to2/8.png"",""time"":801},{""stimulus"":""img/3to2/9.png"",""time"":892},{""stimulus"":""img/3to2/10.png"",""time"":992},{""stimulus"":""img/3to2/11.png"",""time"":1090},{""stimulus"":""img/3to2/12.png"",""time"":1190}]","[]"
"image-keyboard-response","137","179910","0.0-5.0-1.66","5df5b9f661721940c46c3cd3","bdp_cybrbll","Sun Mar 26 2023 02:09:56 GMT-0400 (Eastern Daylight Time)","456520","3","1","","","","choice","","","87","","img/2to1/1.png","2","159","178","0.5","0.5","2","3","",""
"animation","138","181200","0.0-5.0-2.66","5df5b9f661721940c46c3cd3","bdp_cybrbll","Sun Mar 26 2023 02:09:56 GMT-0400 (Eastern Daylight Time)","456520","3","1","","","","","","","","","","","159","","","","2","3","[{""stimulus"":""img/2to3/1.png"",""time"":102},{""stimulus"":""img/2to3/2.png"",""time"":204},{""stimulus"":""img/2to3/3.png"",""time"":303},{""stimulus"":""img/2to3/4.png"",""time"":404},{""stimulus"":""img/2to3/5.png"",""time"":503},{""stimulus"":""img/2to3/6.png"",""time"":603},{""stimulus"":""img/2to3/7.png"",""time"":702},{""stimulus"":""img/2to3/8.png"",""time"":793},{""stimulus"":""img/2to3/9.png"",""time"":895},{""stimulus"":""img/2to3/10.png"",""time"":994},{""stimulus"":""img/2to3/11.png"",""time"":1092},{""stimulus"":""img/2to3/12.png"",""time"":1190}]","[]"
"image-keyboard-response","139","181537","0.0-5.0-1.67","5df5b9f661721940c46c3cd3","bdp_cybrbll","Sun Mar 26 2023 02:09:56 GMT-0400 (Eastern Daylight Time)","456520","3","1","","","","observe","","","null","","img/3to2/1.png","null","158","334","0.5","0.5","3","1","",""
"animation","140","182827","0.0-5.0-2.67","5df5b9f661721940c46c3cd3","bdp_cybrbll","Sun Mar 26 2023 02:09:56 GMT-0400 (Eastern Daylight Time)","456520","3","1","","","","","","","","","","","158","","","","3","1","[{""stimulus"":""img/3to1/1.png"",""time"":103},{""stimulus"":""img/3to1/2.png"",""time"":204},{""stimulus"":""img/3to1/3.png"",""time"":313},{""stimulus"":""img/3to1/4.png"",""time"":397},{""stimulus"":""img/3to1/5.png"",""time"":496},{""stimulus"":""img/3to1/6.png"",""time"":599},{""stimulus"":""img/3to1/7.png"",""time"":698},{""stimulus"":""img/3to1/8.png"",""time"":798},{""stimulus"":""img/3to1/9.png"",""time"":899},{""stimulus"":""img/3to1/10.png"",""time"":991},{""stimulus"":""img/3to1/11.png"",""time"":1091},{""stimulus"":""img/3to1/12.png"",""time"":1191}]","[]"
"image-keyboard-response","141","183365","0.0-5.0-1.68","5df5b9f661721940c46c3cd3","bdp_cybrbll","Sun Mar 26 2023 02:09:56 GMT-0400 (Eastern Daylight Time)","456520","3","1","","","","observe","","","null","","img/1to3/1.png","null","157","523","0.5","0.5","1","2","",""
"animation","142","184669","0.0-5.0-2.68","5df5b9f661721940c46c3cd3","bdp_cybrbll","Sun Mar 26 2023 02:09:56 GMT-0400 (Eastern Daylight Time)","456520","3","1","","","","","","","","","","","157","","","","1","2","[{""stimulus"":""img/1to2/1.png"",""time"":101},{""stimulus"":""img/1to2/2.png"",""time"":201},{""stimulus"":""img/1to2/3.png"",""time"":301},{""stimulus"":""img/1to2/4.png"",""time"":400},{""stimulus"":""img/1to2/5.png"",""time"":499},{""stimulus"":""img/1to2/6.png"",""time"":599},{""stimulus"":""img/1to2/7.png"",""time"":700},{""stimulus"":""img/1to2/8.png"",""time"":801},{""stimulus"":""img/1to2/9.png"",""time"":899},{""stimulus"":""img/1to2/10.png"",""time"":998},{""stimulus"":""img/1to2/11.png"",""time"":1090},{""stimulus"":""img/1to2/12.png"",""time"":1197}]","[]"
"image-keyboard-response","143","185266","0.0-5.0-1.69","5df5b9f661721940c46c3cd3","bdp_cybrbll","Sun Mar 26 2023 02:09:56 GMT-0400 (Eastern Daylight Time)","456520","3","1","","","","choice","","","597","","img/2to1/1.png","1","156","344","0.5","0.5","2","1","",""
"animation","144","186561","0.0-5.0-2.69","5df5b9f661721940c46c3cd3","bdp_cybrbll","Sun Mar 26 2023 02:09:56 GMT-0400 (Eastern Daylight Time)","456520","3","1","","","","","","","","","","","156","","","","2","1","[{""stimulus"":""img/2to1/1.png"",""time"":103},{""stimulus"":""img/2to1/2.png"",""time"":204},{""stimulus"":""img/2to1/3.png"",""time"":303},{""stimulus"":""img/2to1/4.png"",""time"":402},{""stimulus"":""img/2to1/5.png"",""time"":503},{""stimulus"":""img/2to1/6.png"",""time"":603},{""stimulus"":""img/2to1/7.png"",""time"":696},{""stimulus"":""img/2to1/8.png"",""time"":796},{""stimulus"":""img/2to1/9.png"",""time"":895},{""stimulus"":""img/2to1/10.png"",""time"":995},{""stimulus"":""img/2to1/11.png"",""time"":1094},{""stimulus"":""img/2to1/12.png"",""time"":1193}]","[]"
"image-keyboard-response","145","186880","0.0-5.0-1.70","5df5b9f661721940c46c3cd3","bdp_cybrbll","Sun Mar 26 2023 02:09:56 GMT-0400 (Eastern Daylight Time)","456520","3","1","","","","observe","","","null","","img/1to3/1.png","null","155","317","0.5","0.5","1","3","",""
"animation","146","188173","0.0-5.0-2.70","5df5b9f661721940c46c3cd3","bdp_cybrbll","Sun Mar 26 2023 02:09:56 GMT-0400 (Eastern Daylight Time)","456520","3","1","","","","","","","","","","","155","","","","1","3","[{""stimulus"":""img/1to3/1.png"",""time"":101},{""stimulus"":""img/1to3/2.png"",""time"":201},{""stimulus"":""img/1to3/3.png"",""time"":303},{""stimulus"":""img/1to3/4.png"",""time"":403},{""stimulus"":""img/1to3/5.png"",""time"":502},{""stimulus"":""img/1to3/6.png"",""time"":602},{""stimulus"":""img/1to3/7.png"",""time"":694},{""stimulus"":""img/1to3/8.png"",""time"":794},{""stimulus"":""img/1to3/9.png"",""time"":893},{""stimulus"":""img/1to3/10.png"",""time"":993},{""stimulus"":""img/1to3/11.png"",""time"":1093},{""stimulus"":""img/1to3/12.png"",""time"":1193}]","[]"
"image-keyboard-response","147","188680","0.0-5.0-1.71","5df5b9f661721940c46c3cd3","bdp_cybrbll","Sun Mar 26 2023 02:09:56 GMT-0400 (Eastern Daylight Time)","456520","3","1","","","","observe","","","null","","img/3to2/1.png","null","154","500","0.5","0.5","3","1","",""
"animation","148","189972","0.0-5.0-2.71","5df5b9f661721940c46c3cd3","bdp_cybrbll","Sun Mar 26 2023 02:09:56 GMT-0400 (Eastern Daylight Time)","456520","3","1","","","","","","","","","","","154","","","","3","1","[{""stimulus"":""img/3to1/1.png"",""time"":101},{""stimulus"":""img/3to1/2.png"",""time"":200},{""stimulus"":""img/3to1/3.png"",""time"":300},{""stimulus"":""img/3to1/4.png"",""time"":399},{""stimulus"":""img/3to1/5.png"",""time"":499},{""stimulus"":""img/3to1/6.png"",""time"":599},{""stimulus"":""img/3to1/7.png"",""time"":710},{""stimulus"":""img/3to1/8.png"",""time"":809},{""stimulus"":""img/3to1/9.png"",""time"":894},{""stimulus"":""img/3to1/10.png"",""time"":994},{""stimulus"":""img/3to1/11.png"",""time"":1094},{""stimulus"":""img/3to1/12.png"",""time"":1192}]","[]"
"image-keyboard-response","149","190255","0.0-5.0-1.72","5df5b9f661721940c46c3cd3","bdp_cybrbll","Sun Mar 26 2023 02:09:56 GMT-0400 (Eastern Daylight Time)","456520","3","1","","","","observe","","","null","","img/1to3/1.png","null","153","272","0.5","0.5","1","3","",""
"animation","150","191544","0.0-5.0-2.72","5df5b9f661721940c46c3cd3","bdp_cybrbll","Sun Mar 26 2023 02:09:56 GMT-0400 (Eastern Daylight Time)","456520","3","1","","","","","","","","","","","153","","","","1","3","[{""stimulus"":""img/1to3/1.png"",""time"":101},{""stimulus"":""img/1to3/2.png"",""time"":201},{""stimulus"":""img/1to3/3.png"",""time"":304},{""stimulus"":""img/1to3/4.png"",""time"":398},{""stimulus"":""img/1to3/5.png"",""time"":501},{""stimulus"":""img/1to3/6.png"",""time"":600},{""stimulus"":""img/1to3/7.png"",""time"":700},{""stimulus"":""img/1to3/8.png"",""time"":800},{""stimulus"":""img/1to3/9.png"",""time"":891},{""stimulus"":""img/1to3/10.png"",""time"":991},{""stimulus"":""img/1to3/11.png"",""time"":1090},{""stimulus"":""img/1to3/12.png"",""time"":1190}]","[]"
"image-keyboard-response","151","191817","0.0-5.0-1.73","5df5b9f661721940c46c3cd3","bdp_cybrbll","Sun Mar 26 2023 02:09:56 GMT-0400 (Eastern Daylight Time)","456520","3","1","","","","observe","","","null","","img/3to2/1.png","null","152","267","0.5","0.5","3","2","",""
"animation","152","193104","0.0-5.0-2.73","5df5b9f661721940c46c3cd3","bdp_cybrbll","Sun Mar 26 2023 02:09:56 GMT-0400 (Eastern Daylight Time)","456520","3","1","","","","","","","","","","","152","","","","3","2","[{""stimulus"":""img/3to2/1.png"",""time"":105},{""stimulus"":""img/3to2/2.png"",""time"":213},{""stimulus"":""img/3to2/3.png"",""time"":305},{""stimulus"":""img/3to2/4.png"",""time"":404},{""stimulus"":""img/3to2/5.png"",""time"":497},{""stimulus"":""img/3to2/6.png"",""time"":599},{""stimulus"":""img/3to2/7.png"",""time"":698},{""stimulus"":""img/3to2/8.png"",""time"":798},{""stimulus"":""img/3to2/9.png"",""time"":896},{""stimulus"":""img/3to2/10.png"",""time"":996},{""stimulus"":""img/3to2/11.png"",""time"":1096},{""stimulus"":""img/3to2/12.png"",""time"":1196}]","[]"
"image-keyboard-response","153","193287","0.0-5.0-1.74","5df5b9f661721940c46c3cd3","bdp_cybrbll","Sun Mar 26 2023 02:09:56 GMT-0400 (Eastern Daylight Time)","456520","3","1","","","","choice","","","182","","img/2to1/1.png","2","151","675","0.5","0.5","2","3","",""
"animation","154","194576","0.0-5.0-2.74","5df5b9f661721940c46c3cd3","bdp_cybrbll","Sun Mar 26 2023 02:09:56 GMT-0400 (Eastern Daylight Time)","456520","3","1","","","","","","","","","","","151","","","","2","3","[{""stimulus"":""img/2to3/1.png"",""time"":99},{""stimulus"":""img/2to3/2.png"",""time"":198},{""stimulus"":""img/2to3/3.png"",""time"":297},{""stimulus"":""img/2to3/4.png"",""time"":398},{""stimulus"":""img/2to3/5.png"",""time"":498},{""stimulus"":""img/2to3/6.png"",""time"":598},{""stimulus"":""img/2to3/7.png"",""time"":697},{""stimulus"":""img/2to3/8.png"",""time"":796},{""stimulus"":""img/2to3/9.png"",""time"":896},{""stimulus"":""img/2to3/10.png"",""time"":995},{""stimulus"":""img/2to3/11.png"",""time"":1095},{""stimulus"":""img/2to3/12.png"",""time"":1195}]","[]"
"image-keyboard-response","155","194767","0.0-5.0-1.75","5df5b9f661721940c46c3cd3","bdp_cybrbll","Sun Mar 26 2023 02:09:56 GMT-0400 (Eastern Daylight Time)","456520","3","1","","","","observe","","","null","","img/3to2/1.png","null","150","189","0.5","0.5","3","2","",""
"animation","156","196057","0.0-5.0-2.75","5df5b9f661721940c46c3cd3","bdp_cybrbll","Sun Mar 26 2023 02:09:56 GMT-0400 (Eastern Daylight Time)","456520","3","1","","","","","","","","","","","150","","","","3","2","[{""stimulus"":""img/3to2/1.png"",""time"":103},{""stimulus"":""img/3to2/2.png"",""time"":205},{""stimulus"":""img/3to2/3.png"",""time"":299},{""stimulus"":""img/3to2/4.png"",""time"":400},{""stimulus"":""img/3to2/5.png"",""time"":500},{""stimulus"":""img/3to2/6.png"",""time"":600},{""stimulus"":""img/3to2/7.png"",""time"":700},{""stimulus"":""img/3to2/8.png"",""time"":799},{""stimulus"":""img/3to2/9.png"",""time"":899},{""stimulus"":""img/3to2/10.png"",""time"":991},{""stimulus"":""img/3to2/11.png"",""time"":1091},{""stimulus"":""img/3to2/12.png"",""time"":1191}]","[]"
"image-keyboard-response","157","196200","0.0-5.0-1.76","5df5b9f661721940c46c3cd3","bdp_cybrbll","Sun Mar 26 2023 02:09:56 GMT-0400 (Eastern Daylight Time)","456520","3","1","","","","choice","","","142","","img/2to1/1.png","2","149","1567","0.5","0.1","2","3","",""
"animation","158","197494","0.0-5.0-2.76","5df5b9f661721940c46c3cd3","bdp_cybrbll","Sun Mar 26 2023 02:09:56 GMT-0400 (Eastern Daylight Time)","456520","3","1","","","","","","","","","","","149","","","","2","3","[{""stimulus"":""img/2to3/1.png"",""time"":104},{""stimulus"":""img/2to3/2.png"",""time"":204},{""stimulus"":""img/2to3/3.png"",""time"":303},{""stimulus"":""img/2to3/4.png"",""time"":404},{""stimulus"":""img/2to3/5.png"",""time"":503},{""stimulus"":""img/2to3/6.png"",""time"":594},{""stimulus"":""img/2to3/7.png"",""time"":695},{""stimulus"":""img/2to3/8.png"",""time"":794},{""stimulus"":""img/2to3/9.png"",""time"":894},{""stimulus"":""img/2to3/10.png"",""time"":995},{""stimulus"":""img/2to3/11.png"",""time"":1094},{""stimulus"":""img/2to3/12.png"",""time"":1195}]","[]"
"image-keyboard-response","159","198081","0.0-5.0-1.77","5df5b9f661721940c46c3cd3","bdp_cybrbll","Sun Mar 26 2023 02:09:56 GMT-0400 (Eastern Daylight Time)","456520","3","1","","","","observe","","","null","","img/3to2/1.png","null","148","576","0.5","0.1","3","1","",""
"animation","160","199374","0.0-5.0-2.77","5df5b9f661721940c46c3cd3","bdp_cybrbll","Sun Mar 26 2023 02:09:56 GMT-0400 (Eastern Daylight Time)","456520","3","1","","","","","","","","","","","148","","","","3","1","[{""stimulus"":""img/3to1/1.png"",""time"":105},{""stimulus"":""img/3to1/2.png"",""time"":204},{""stimulus"":""img/3to1/3.png"",""time"":304},{""stimulus"":""img/3to1/4.png"",""time"":406},{""stimulus"":""img/3to1/5.png"",""time"":497},{""stimulus"":""img/3to1/6.png"",""time"":597},{""stimulus"":""img/3to1/7.png"",""time"":694},{""stimulus"":""img/3to1/8.png"",""time"":794},{""stimulus"":""img/3to1/9.png"",""time"":893},{""stimulus"":""img/3to1/10.png"",""time"":993},{""stimulus"":""img/3to1/11.png"",""time"":1092},{""stimulus"":""img/3to1/12.png"",""time"":1192}]","[]"
"image-keyboard-response","161","200326","0.0-5.0-1.78","5df5b9f661721940c46c3cd3","bdp_cybrbll","Sun Mar 26 2023 02:09:56 GMT-0400 (Eastern Daylight Time)","456520","3","1","","","","observe","","","null","","img/1to3/1.png","null","147","943","0.5","0.1","1","3","",""
"animation","162","201615","0.0-5.0-2.78","5df5b9f661721940c46c3cd3","bdp_cybrbll","Sun Mar 26 2023 02:09:56 GMT-0400 (Eastern Daylight Time)","456520","3","1","","","","","","","","","","","147","","","","1","3","[{""stimulus"":""img/1to3/1.png"",""time"":106},{""stimulus"":""img/1to3/2.png"",""time"":206},{""stimulus"":""img/1to3/3.png"",""time"":298},{""stimulus"":""img/1to3/4.png"",""time"":397},{""stimulus"":""img/1to3/5.png"",""time"":497},{""stimulus"":""img/1to3/6.png"",""time"":598},{""stimulus"":""img/1to3/7.png"",""time"":698},{""stimulus"":""img/1to3/8.png"",""time"":798},{""stimulus"":""img/1to3/9.png"",""time"":897},{""stimulus"":""img/1to3/10.png"",""time"":995},{""stimulus"":""img/1to3/11.png"",""time"":1096},{""stimulus"":""img/1to3/12.png"",""time"":1189}]","[]"
"image-keyboard-response","163","202309","0.0-5.0-1.79","5df5b9f661721940c46c3cd3","bdp_cybrbll","Sun Mar 26 2023 02:09:56 GMT-0400 (Eastern Daylight Time)","456520","3","1","","","","observe","","","null","","img/3to2/1.png","null","146","686","0.5","0.1","3","1","",""
"animation","164","203603","0.0-5.0-2.79","5df5b9f661721940c46c3cd3","bdp_cybrbll","Sun Mar 26 2023 02:09:56 GMT-0400 (Eastern Daylight Time)","456520","3","1","","","","","","","","","","","146","","","","3","1","[{""stimulus"":""img/3to1/1.png"",""time"":105},{""stimulus"":""img/3to1/2.png"",""time"":205},{""stimulus"":""img/3to1/3.png"",""time"":303},{""stimulus"":""img/3to1/4.png"",""time"":396},{""stimulus"":""img/3to1/5.png"",""time"":503},{""stimulus"":""img/3to1/6.png"",""time"":595},{""stimulus"":""img/3to1/7.png"",""time"":694},{""stimulus"":""img/3to1/8.png"",""time"":796},{""stimulus"":""img/3to1/9.png"",""time"":896},{""stimulus"":""img/3to1/10.png"",""time"":993},{""stimulus"":""img/3to1/11.png"",""time"":1094},{""stimulus"":""img/3to1/12.png"",""time"":1193}]","[]"
"image-keyboard-response","165","203911","0.0-5.0-1.80","5df5b9f661721940c46c3cd3","bdp_cybrbll","Sun Mar 26 2023 02:09:56 GMT-0400 (Eastern Daylight Time)","456520","3","1","","","","observe","","","null","","img/1to3/1.png","null","145","303","0.5","0.1","1","3","",""
"animation","166","205206","0.0-5.0-2.80","5df5b9f661721940c46c3cd3","bdp_cybrbll","Sun Mar 26 2023 02:09:56 GMT-0400 (Eastern Daylight Time)","456520","3","1","","","","","","","","","","","145","","","","1","3","[{""stimulus"":""img/1to3/1.png"",""time"":104},{""stimulus"":""img/1to3/2.png"",""time"":211},{""stimulus"":""img/1to3/3.png"",""time"":302},{""stimulus"":""img/1to3/4.png"",""time"":402},{""stimulus"":""img/1to3/5.png"",""time"":502},{""stimulus"":""img/1to3/6.png"",""time"":602},{""stimulus"":""img/1to3/7.png"",""time"":694},{""stimulus"":""img/1to3/8.png"",""time"":794},{""stimulus"":""img/1to3/9.png"",""time"":893},{""stimulus"":""img/1to3/10.png"",""time"":992},{""stimulus"":""img/1to3/11.png"",""time"":1092},{""stimulus"":""img/1to3/12.png"",""time"":1196}]","[]"
"image-keyboard-response","167","206366","0.0-5.0-1.81","5df5b9f661721940c46c3cd3","bdp_cybrbll","Sun Mar 26 2023 02:09:56 GMT-0400 (Eastern Daylight Time)","456520","3","1","","","","observe","","","null","","img/3to2/1.png","null","144","1158","0.5","0.1","3","2","",""
"animation","168","207655","0.0-5.0-2.81","5df5b9f661721940c46c3cd3","bdp_cybrbll","Sun Mar 26 2023 02:09:56 GMT-0400 (Eastern Daylight Time)","456520","3","1","","","","","","","","","","","144","","","","3","2","[{""stimulus"":""img/3to2/1.png"",""time"":107},{""stimulus"":""img/3to2/2.png"",""time"":199},{""stimulus"":""img/3to2/3.png"",""time"":303},{""stimulus"":""img/3to2/4.png"",""time"":403},{""stimulus"":""img/3to2/5.png"",""time"":498},{""stimulus"":""img/3to2/6.png"",""time"":597},{""stimulus"":""img/3to2/7.png"",""time"":697},{""stimulus"":""img/3to2/8.png"",""time"":800},{""stimulus"":""img/3to2/9.png"",""time"":897},{""stimulus"":""img/3to2/10.png"",""time"":997},{""stimulus"":""img/3to2/11.png"",""time"":1097},{""stimulus"":""img/3to2/12.png"",""time"":1197}]","[]"
"image-keyboard-response","169","208171","0.0-5.0-1.82","5df5b9f661721940c46c3cd3","bdp_cybrbll","Sun Mar 26 2023 02:09:56 GMT-0400 (Eastern Daylight Time)","456520","3","1","","","","choice","","","516","","img/2to1/1.png","1","143","510","0.5","0.1","2","1","",""
"animation","170","209462","0.0-5.0-2.82","5df5b9f661721940c46c3cd3","bdp_cybrbll","Sun Mar 26 2023 02:09:56 GMT-0400 (Eastern Daylight Time)","456520","3","1","","","","","","","","","","","143","","","","2","1","[{""stimulus"":""img/2to1/1.png"",""time"":108},{""stimulus"":""img/2to1/2.png"",""time"":199},{""stimulus"":""img/2to1/3.png"",""time"":299},{""stimulus"":""img/2to1/4.png"",""time"":399},{""stimulus"":""img/2to1/5.png"",""time"":499},{""stimulus"":""img/2to1/6.png"",""time"":599},{""stimulus"":""img/2to1/7.png"",""time"":699},{""stimulus"":""img/2to1/8.png"",""time"":799},{""stimulus"":""img/2to1/9.png"",""time"":893},{""stimulus"":""img/2to1/10.png"",""time"":993},{""stimulus"":""img/2to1/11.png"",""time"":1091},{""stimulus"":""img/2to1/12.png"",""time"":1191}]","[]"
"image-keyboard-response","171","209809","0.0-5.0-1.83","5df5b9f661721940c46c3cd3","bdp_cybrbll","Sun Mar 26 2023 02:09:56 GMT-0400 (Eastern Daylight Time)","456520","3","1","","","","observe","","","null","","img/1to3/1.png","null","142","337","0.5","0.1","1","3","",""
"animation","172","211103","0.0-5.0-2.83","5df5b9f661721940c46c3cd3","bdp_cybrbll","Sun Mar 26 2023 02:09:56 GMT-0400 (Eastern Daylight Time)","456520","3","1","","","","","","","","","","","142","","","","1","3","[{""stimulus"":""img/1to3/1.png"",""time"":103},{""stimulus"":""img/1to3/2.png"",""time"":203},{""stimulus"":""img/1to3/3.png"",""time"":304},{""stimulus"":""img/1to3/4.png"",""time"":404},{""stimulus"":""img/1to3/5.png"",""time"":503},{""stimulus"":""img/1to3/6.png"",""time"":599},{""stimulus"":""img/1to3/7.png"",""time"":698},{""stimulus"":""img/1to3/8.png"",""time"":796},{""stimulus"":""img/1to3/9.png"",""time"":896},{""stimulus"":""img/1to3/10.png"",""time"":995},{""stimulus"":""img/1to3/11.png"",""time"":1094},{""stimulus"":""img/1to3/12.png"",""time"":1193}]","[]"
"image-keyboard-response","173","212022","0.0-5.0-1.84","5df5b9f661721940c46c3cd3","bdp_cybrbll","Sun Mar 26 2023 02:09:56 GMT-0400 (Eastern Daylight Time)","456520","3","1","","","","observe","","","null","","img/3to2/1.png","null","141","906","0.5","0.1","3","2","",""
"animation","174","213314","0.0-5.0-2.84","5df5b9f661721940c46c3cd3","bdp_cybrbll","Sun Mar 26 2023 02:09:56 GMT-0400 (Eastern Daylight Time)","456520","3","1","","","","","","","","","","","141","","","","3","2","[{""stimulus"":""img/3to2/1.png"",""time"":104},{""stimulus"":""img/3to2/2.png"",""time"":203},{""stimulus"":""img/3to2/3.png"",""time"":303},{""stimulus"":""img/3to2/4.png"",""time"":404},{""stimulus"":""img/3to2/5.png"",""time"":504},{""stimulus"":""img/3to2/6.png"",""time"":595},{""stimulus"":""img/3to2/7.png"",""time"":707},{""stimulus"":""img/3to2/8.png"",""time"":793},{""stimulus"":""img/3to2/9.png"",""time"":893},{""stimulus"":""img/3to2/10.png"",""time"":993},{""stimulus"":""img/3to2/11.png"",""time"":1092},{""stimulus"":""img/3to2/12.png"",""time"":1193}]","[]"
"image-keyboard-response","175","213746","0.0-5.0-1.85","5df5b9f661721940c46c3cd3","bdp_cybrbll","Sun Mar 26 2023 02:09:56 GMT-0400 (Eastern Daylight Time)","456520","3","1","","","","choice","","","431","","img/2to1/1.png","2","140","1262","0.5","0.1","2","3","",""
"animation","176","215037","0.0-5.0-2.85","5df5b9f661721940c46c3cd3","bdp_cybrbll","Sun Mar 26 2023 02:09:56 GMT-0400 (Eastern Daylight Time)","456520","3","1","","","","","","","","","","","140","","","","2","3","[{""stimulus"":""img/2to3/1.png"",""time"":107},{""stimulus"":""img/2to3/2.png"",""time"":198},{""stimulus"":""img/2to3/3.png"",""time"":298},{""stimulus"":""img/2to3/4.png"",""time"":400},{""stimulus"":""img/2to3/5.png"",""time"":498},{""stimulus"":""img/2to3/6.png"",""time"":598},{""stimulus"":""img/2to3/7.png"",""time"":698},{""stimulus"":""img/2to3/8.png"",""time"":798},{""stimulus"":""img/2to3/9.png"",""time"":900},{""stimulus"":""img/2to3/10.png"",""time"":992},{""stimulus"":""img/2to3/11.png"",""time"":1091},{""stimulus"":""img/2to3/12.png"",""time"":1191}]","[]"
"image-keyboard-response","177","215595","0.0-5.0-1.86","5df5b9f661721940c46c3cd3","bdp_cybrbll","Sun Mar 26 2023 02:09:56 GMT-0400 (Eastern Daylight Time)","456520","3","1","","","","observe","","","null","","img/3to2/1.png","null","139","549","0.5","0.1","3","2","",""
"animation","178","216885","0.0-5.0-2.86","5df5b9f661721940c46c3cd3","bdp_cybrbll","Sun Mar 26 2023 02:09:56 GMT-0400 (Eastern Daylight Time)","456520","3","1","","","","","","","","","","","139","","","","3","2","[{""stimulus"":""img/3to2/1.png"",""time"":103},{""stimulus"":""img/3to2/2.png"",""time"":203},{""stimulus"":""img/3to2/3.png"",""time"":302},{""stimulus"":""img/3to2/4.png"",""time"":400},{""stimulus"":""img/3to2/5.png"",""time"":499},{""stimulus"":""img/3to2/6.png"",""time"":598},{""stimulus"":""img/3to2/7.png"",""time"":699},{""stimulus"":""img/3to2/8.png"",""time"":799},{""stimulus"":""img/3to2/9.png"",""time"":900},{""stimulus"":""img/3to2/10.png"",""time"":998},{""stimulus"":""img/3to2/11.png"",""time"":1098},{""stimulus"":""img/3to2/12.png"",""time"":1190}]","[]"
"image-keyboard-response","179","217304","0.0-5.0-1.87","5df5b9f661721940c46c3cd3","bdp_cybrbll","Sun Mar 26 2023 02:09:56 GMT-0400 (Eastern Daylight Time)","456520","3","1","","","","choice","","","419","","img/2to1/1.png","2","138","589","0.5","0.1","2","3","",""
"animation","180","218592","0.0-5.0-2.87","5df5b9f661721940c46c3cd3","bdp_cybrbll","Sun Mar 26 2023 02:09:56 GMT-0400 (Eastern Daylight Time)","456520","3","1","","","","","","","","","","","138","","","","2","3","[{""stimulus"":""img/2to3/1.png"",""time"":100},{""stimulus"":""img/2to3/2.png"",""time"":215},{""stimulus"":""img/2to3/3.png"",""time"":307},{""stimulus"":""img/2to3/4.png"",""time"":408},{""stimulus"":""img/2to3/5.png"",""time"":498},{""stimulus"":""img/2to3/6.png"",""time"":598},{""stimulus"":""img/2to3/7.png"",""time"":699},{""stimulus"":""img/2to3/8.png"",""time"":798},{""stimulus"":""img/2to3/9.png"",""time"":896},{""stimulus"":""img/2to3/10.png"",""time"":1005},{""stimulus"":""img/2to3/11.png"",""time"":1097},{""stimulus"":""img/2to3/12.png"",""time"":1189}]","[]"
"image-keyboard-response","181","219185","0.0-5.0-1.88","5df5b9f661721940c46c3cd3","bdp_cybrbll","Sun Mar 26 2023 02:09:56 GMT-0400 (Eastern Daylight Time)","456520","3","1","","","","observe","","","null","","img/3to2/1.png","null","137","584","0.5","0.1","3","1","",""
"animation","182","220476","0.0-5.0-2.88","5df5b9f661721940c46c3cd3","bdp_cybrbll","Sun Mar 26 2023 02:09:56 GMT-0400 (Eastern Daylight Time)","456520","3","1","","","","","","","","","","","137","","","","3","1","[{""stimulus"":""img/3to1/1.png"",""time"":101},{""stimulus"":""img/3to1/2.png"",""time"":200},{""stimulus"":""img/3to1/3.png"",""time"":299},{""stimulus"":""img/3to1/4.png"",""time"":398},{""stimulus"":""img/3to1/5.png"",""time"":498},{""stimulus"":""img/3to1/6.png"",""time"":598},{""stimulus"":""img/3to1/7.png"",""time"":699},{""stimulus"":""img/3to1/8.png"",""time"":798},{""stimulus"":""img/3to1/9.png"",""time"":898},{""stimulus"":""img/3to1/10.png"",""time"":1006},{""stimulus"":""img/3to1/11.png"",""time"":1096},{""stimulus"":""img/3to1/12.png"",""time"":1196}]","[]"
"image-keyboard-response","183","220706","0.0-5.0-1.89","5df5b9f661721940c46c3cd3","bdp_cybrbll","Sun Mar 26 2023 02:09:56 GMT-0400 (Eastern Daylight Time)","456520","3","1","","","","observe","","","null","","img/1to3/1.png","null","136","229","0.5","0.1","1","3","",""
"animation","184","221994","0.0-5.0-2.89","5df5b9f661721940c46c3cd3","bdp_cybrbll","Sun Mar 26 2023 02:09:56 GMT-0400 (Eastern Daylight Time)","456520","3","1","","","","","","","","","","","136","","","","1","3","[{""stimulus"":""img/1to3/1.png"",""time"":100},{""stimulus"":""img/1to3/2.png"",""time"":198},{""stimulus"":""img/1to3/3.png"",""time"":305},{""stimulus"":""img/1to3/4.png"",""time"":398},{""stimulus"":""img/1to3/5.png"",""time"":497},{""stimulus"":""img/1to3/6.png"",""time"":597},{""stimulus"":""img/1to3/7.png"",""time"":695},{""stimulus"":""img/1to3/8.png"",""time"":795},{""stimulus"":""img/1to3/9.png"",""time"":895},{""stimulus"":""img/1to3/10.png"",""time"":993},{""stimulus"":""img/1to3/11.png"",""time"":1095},{""stimulus"":""img/1to3/12.png"",""time"":1195}]","[]"
"image-keyboard-response","185","222163","0.0-5.0-1.90","5df5b9f661721940c46c3cd3","bdp_cybrbll","Sun Mar 26 2023 02:09:56 GMT-0400 (Eastern Daylight Time)","456520","3","1","","","","observe","","","null","","img/3to2/1.png","null","135","163","0.5","0.1","3","2","",""
"animation","186","223453","0.0-5.0-2.90","5df5b9f661721940c46c3cd3","bdp_cybrbll","Sun Mar 26 2023 02:09:56 GMT-0400 (Eastern Daylight Time)","456520","3","1","","","","","","","","","","","135","","","","3","2","[{""stimulus"":""img/3to2/1.png"",""time"":102},{""stimulus"":""img/3to2/2.png"",""time"":202},{""stimulus"":""img/3to2/3.png"",""time"":302},{""stimulus"":""img/3to2/4.png"",""time"":402},{""stimulus"":""img/3to2/5.png"",""time"":504},{""stimulus"":""img/3to2/6.png"",""time"":595},{""stimulus"":""img/3to2/7.png"",""time"":696},{""stimulus"":""img/3to2/8.png"",""time"":795},{""stimulus"":""img/3to2/9.png"",""time"":894},{""stimulus"":""img/3to2/10.png"",""time"":994},{""stimulus"":""img/3to2/11.png"",""time"":1092},{""stimulus"":""img/3to2/12.png"",""time"":1191}]","[]"
"image-keyboard-response","187","223642","0.0-5.0-1.91","5df5b9f661721940c46c3cd3","bdp_cybrbll","Sun Mar 26 2023 02:09:56 GMT-0400 (Eastern Daylight Time)","456520","3","1","","","","choice","","","188","","img/2to1/1.png","1","134","663","0.5","0.1","2","1","",""
"animation","188","224932","0.0-5.0-2.91","5df5b9f661721940c46c3cd3","bdp_cybrbll","Sun Mar 26 2023 02:09:56 GMT-0400 (Eastern Daylight Time)","456520","3","1","","","","","","","","","","","134","","","","2","1","[{""stimulus"":""img/2to1/1.png"",""time"":107},{""stimulus"":""img/2to1/2.png"",""time"":207},{""stimulus"":""img/2to1/3.png"",""time"":298},{""stimulus"":""img/2to1/4.png"",""time"":399},{""stimulus"":""img/2to1/5.png"",""time"":499},{""stimulus"":""img/2to1/6.png"",""time"":607},{""stimulus"":""img/2to1/7.png"",""time"":697},{""stimulus"":""img/2to1/8.png"",""time"":797},{""stimulus"":""img/2to1/9.png"",""time"":896},{""stimulus"":""img/2to1/10.png"",""time"":991},{""stimulus"":""img/2to1/11.png"",""time"":1091},{""stimulus"":""img/2to1/12.png"",""time"":1191}]","[]"
"image-keyboard-response","189","226097","0.0-5.0-1.92","5df5b9f661721940c46c3cd3","bdp_cybrbll","Sun Mar 26 2023 02:09:56 GMT-0400 (Eastern Daylight Time)","456520","3","1","","","","observe","","","null","","img/1to3/1.png","null","133","1163","0.5","0.1","1","3","",""
