"trial_type","trial_index","time_elapsed","internal_node_id","subject_id","task","startTime","totalTime","fairPartner","unfairPartner","event","trial","time","trialtype","view_history","rt","success","stimulus","key_press","throwsLeft","rtDur","pFair","pUnfair","holder","receiver","animation_sequence","responses"
"pavlovia","0","8","0.0-0.0","5c9432caec114b0001419276","bdp_cybrbll","Sun Mar 26 2023 15:48:21 GMT-0500 (Central Daylight Time)","454559","1","3","","","","","","","","","","","","","","","","",""
"","","","","5c9432caec114b0001419276","bdp_cybrbll","Sun Mar 26 2023 15:48:21 GMT-0500 (Central Daylight Time)","454559","1","3","focus","1","9932","focusevent","","","","","","","","","","","","",""
"instructions","1","14049","0.0-1.0","5c9432caec114b0001419276","bdp_cybrbll","Sun Mar 26 2023 15:48:21 GMT-0500 (Central Daylight Time)","454559","1","3","","","","","[{""page_index"":0,""viewing_time"":14041}]","14041","","","","","","","","","","",""
"","","","","5c9432caec114b0001419276","bdp_cybrbll","Sun Mar 26 2023 15:48:21 GMT-0500 (Central Daylight Time)","454559","1","3","fullscreenenter","2","16304","fullscreenenter","","","","","","","","","","","","",""
"fullscreen","2","17293","0.0-2.0","5c9432caec114b0001419276","bdp_cybrbll","Sun Mar 26 2023 15:48:21 GMT-0500 (Central Daylight Time)","454559","1","3","","","","","","","true","","","","","","","","","",""
"instructions","3","55911","0.0-4.0","5c9432caec114b0001419276","bdp_cybrbll","Sun Mar 26 2023 15:48:21 GMT-0500 (Central Daylight Time)","454559","1","3","","","","","[{""page_index"":0,""viewing_time"":38617}]","38617","","","","","","","","","","",""
"image-keyboard-response","4","58908","0.0-5.0-1.0","5c9432caec114b0001419276","bdp_cybrbll","Sun Mar 26 2023 15:48:21 GMT-0500 (Central Daylight Time)","454559","1","3","","","","choice","","2995","","img/2to1/1.png","1","225","420","0.5","0.5","2","1","",""
"animation","5","60202","0.0-5.0-2.0","5c9432caec114b0001419276","bdp_cybrbll","Sun Mar 26 2023 15:48:21 GMT-0500 (Central Daylight Time)","454559","1","3","","","","","","","","","","225","","","","2","1","[{""stimulus"":""img/2to1/1.png"",""time"":103},{""stimulus"":""img/2to1/2.png"",""time"":200},{""stimulus"":""img/2to1/3.png"",""time"":308},{""stimulus"":""img/2to1/4.png"",""time"":397},{""stimulus"":""img/2to1/5.png"",""time"":496},{""stimulus"":""img/2to1/6.png"",""time"":597},{""stimulus"":""img/2to1/7.png"",""time"":693},{""stimulus"":""img/2to1/8.png"",""time"":797},{""stimulus"":""img/2to1/9.png"",""time"":893},{""stimulus"":""img/2to1/10.png"",""time"":997},{""stimulus"":""img/2to1/11.png"",""time"":1093},{""stimulus"":""img/2to1/12.png"",""time"":1197}]","[]"
"image-keyboard-response","6","60594","0.0-5.0-1.1","5c9432caec114b0001419276","bdp_cybrbll","Sun Mar 26 2023 15:48:21 GMT-0500 (Central Daylight Time)","454559","1","3","","","","observe","","null","","img/1to3/1.png","null","224","382","0.5","0.5","1","3","",""
"animation","7","61890","0.0-5.0-2.1","5c9432caec114b0001419276","bdp_cybrbll","Sun Mar 26 2023 15:48:21 GMT-0500 (Central Daylight Time)","454559","1","3","","","","","","","","","","224","","","","1","3","[{""stimulus"":""img/1to3/1.png"",""time"":112},{""stimulus"":""img/1to3/2.png"",""time"":206},{""stimulus"":""img/1to3/3.png"",""time"":303},{""stimulus"":""img/1to3/4.png"",""time"":407},{""stimulus"":""img/1to3/5.png"",""time"":503},{""stimulus"":""img/1to3/6.png"",""time"":599},{""stimulus"":""img/1to3/7.png"",""time"":703},{""stimulus"":""img/1to3/8.png"",""time"":799},{""stimulus"":""img/1to3/9.png"",""time"":903},{""stimulus"":""img/1to3/10.png"",""time"":995},{""stimulus"":""img/1to3/11.png"",""time"":1095},{""stimulus"":""img/1to3/12.png"",""time"":1199}]","[]"
"image-keyboard-response","8","62266","0.0-5.0-1.2","5c9432caec114b0001419276","bdp_cybrbll","Sun Mar 26 2023 15:48:21 GMT-0500 (Central Daylight Time)","454559","1","3","","","","observe","","null","","img/3to2/1.png","null","223","363","0.5","0.5","3","2","",""
"animation","9","63562","0.0-5.0-2.2","5c9432caec114b0001419276","bdp_cybrbll","Sun Mar 26 2023 15:48:21 GMT-0500 (Central Daylight Time)","454559","1","3","","","","","","","","","","223","","","","3","2","[{""stimulus"":""img/3to2/1.png"",""time"":111},{""stimulus"":""img/3to2/2.png"",""time"":206},{""stimulus"":""img/3to2/3.png"",""time"":304},{""stimulus"":""img/3to2/4.png"",""time"":407},{""stimulus"":""img/3to2/5.png"",""time"":502},{""stimulus"":""img/3to2/6.png"",""time"":597},{""stimulus"":""img/3to2/7.png"",""time"":703},{""stimulus"":""img/3to2/8.png"",""time"":795},{""stimulus"":""img/3to2/9.png"",""time"":903},{""stimulus"":""img/3to2/10.png"",""time"":999},{""stimulus"":""img/3to2/11.png"",""time"":1091},{""stimulus"":""img/3to2/12.png"",""time"":1196}]","[]"
"image-keyboard-response","10","64400","0.0-5.0-1.3","5c9432caec114b0001419276","bdp_cybrbll","Sun Mar 26 2023 15:48:21 GMT-0500 (Central Daylight Time)","454559","1","3","","","","choice","","837","","img/2to1/1.png","2","222","529","0.5","0.5","2","3","",""
"animation","11","65698","0.0-5.0-2.3","5c9432caec114b0001419276","bdp_cybrbll","Sun Mar 26 2023 15:48:21 GMT-0500 (Central Daylight Time)","454559","1","3","","","","","","","","","","222","","","","2","3","[{""stimulus"":""img/2to3/1.png"",""time"":107},{""stimulus"":""img/2to3/2.png"",""time"":203},{""stimulus"":""img/2to3/3.png"",""time"":302},{""stimulus"":""img/2to3/4.png"",""time"":401},{""stimulus"":""img/2to3/5.png"",""time"":504},{""stimulus"":""img/2to3/6.png"",""time"":602},{""stimulus"":""img/2to3/7.png"",""time"":706},{""stimulus"":""img/2to3/8.png"",""time"":801},{""stimulus"":""img/2to3/9.png"",""time"":899},{""stimulus"":""img/2to3/10.png"",""time"":1003},{""stimulus"":""img/2to3/11.png"",""time"":1099},{""stimulus"":""img/2to3/12.png"",""time"":1195}]","[]"
"image-keyboard-response","12","66002","0.0-5.0-1.4","5c9432caec114b0001419276","bdp_cybrbll","Sun Mar 26 2023 15:48:21 GMT-0500 (Central Daylight Time)","454559","1","3","","","","observe","","null","","img/3to2/1.png","null","221","291","0.5","0.5","3","2","",""
"animation","13","67293","0.0-5.0-2.4","5c9432caec114b0001419276","bdp_cybrbll","Sun Mar 26 2023 15:48:21 GMT-0500 (Central Daylight Time)","454559","1","3","","","","","","","","","","221","","","","3","2","[{""stimulus"":""img/3to2/1.png"",""time"":104},{""stimulus"":""img/3to2/2.png"",""time"":204},{""stimulus"":""img/3to2/3.png"",""time"":304},{""stimulus"":""img/3to2/4.png"",""time"":400},{""stimulus"":""img/3to2/5.png"",""time"":504},{""stimulus"":""img/3to2/6.png"",""time"":600},{""stimulus"":""img/3to2/7.png"",""time"":700},{""stimulus"":""img/3to2/8.png"",""time"":796},{""stimulus"":""img/3to2/9.png"",""time"":900},{""stimulus"":""img/3to2/10.png"",""time"":1000},{""stimulus"":""img/3to2/11.png"",""time"":1096},{""stimulus"":""img/3to2/12.png"",""time"":1198}]","[]"
"image-keyboard-response","14","67789","0.0-5.0-1.5","5c9432caec114b0001419276","bdp_cybrbll","Sun Mar 26 2023 15:48:21 GMT-0500 (Central Daylight Time)","454559","1","3","","","","choice","","495","","img/2to1/1.png","1","220","494","0.5","0.5","2","1","",""
"animation","15","69078","0.0-5.0-2.5","5c9432caec114b0001419276","bdp_cybrbll","Sun Mar 26 2023 15:48:21 GMT-0500 (Central Daylight Time)","454559","1","3","","","","","","","","","","220","","","","2","1","[{""stimulus"":""img/2to1/1.png"",""time"":110},{""stimulus"":""img/2to1/2.png"",""time"":202},{""stimulus"":""img/2to1/3.png"",""time"":310},{""stimulus"":""img/2to1/4.png"",""time"":403},{""stimulus"":""img/2to1/5.png"",""time"":501},{""stimulus"":""img/2to1/6.png"",""time"":606},{""stimulus"":""img/2to1/7.png"",""time"":702},{""stimulus"":""img/2to1/8.png"",""time"":798},{""stimulus"":""img/2to1/9.png"",""time"":902},{""stimulus"":""img/2to1/10.png"",""time"":998},{""stimulus"":""img/2to1/11.png"",""time"":1102},{""stimulus"":""img/2to1/12.png"",""time"":1194}]","[]"
"image-keyboard-response","16","69321","0.0-5.0-1.6","5c9432caec114b0001419276","bdp_cybrbll","Sun Mar 26 2023 15:48:21 GMT-0500 (Central Daylight Time)","454559","1","3","","","","observe","","null","","img/1to3/1.png","null","219","238","0.5","0.5","1","2","",""
"animation","17","70616","0.0-5.0-2.6","5c9432caec114b0001419276","bdp_cybrbll","Sun Mar 26 2023 15:48:21 GMT-0500 (Central Daylight Time)","454559","1","3","","","","","","","","","","219","","","","1","2","[{""stimulus"":""img/1to2/1.png"",""time"":106},{""stimulus"":""img/1to2/2.png"",""time"":210},{""stimulus"":""img/1to2/3.png"",""time"":305},{""stimulus"":""img/1to2/4.png"",""time"":409},{""stimulus"":""img/1to2/5.png"",""time"":505},{""stimulus"":""img/1to2/6.png"",""time"":598},{""stimulus"":""img/1to2/7.png"",""time"":702},{""stimulus"":""img/1to2/8.png"",""time"":799},{""stimulus"":""img/1to2/9.png"",""time"":896},{""stimulus"":""img/1to2/10.png"",""time"":999},{""stimulus"":""img/1to2/11.png"",""time"":1096},{""stimulus"":""img/1to2/12.png"",""time"":1199}]","[]"
"image-keyboard-response","18","70867","0.0-5.0-1.7","5c9432caec114b0001419276","bdp_cybrbll","Sun Mar 26 2023 15:48:21 GMT-0500 (Central Daylight Time)","454559","1","3","","","","choice","","250","","img/2to1/1.png","2","218","1569","0.5","0.5","2","3","",""
"animation","19","72163","0.0-5.0-2.7","5c9432caec114b0001419276","bdp_cybrbll","Sun Mar 26 2023 15:48:21 GMT-0500 (Central Daylight Time)","454559","1","3","","","","","","","","","","218","","","","2","3","[{""stimulus"":""img/2to3/1.png"",""time"":112},{""stimulus"":""img/2to3/2.png"",""time"":208},{""stimulus"":""img/2to3/3.png"",""time"":300},{""stimulus"":""img/2to3/4.png"",""time"":404},{""stimulus"":""img/2to3/5.png"",""time"":504},{""stimulus"":""img/2to3/6.png"",""time"":603},{""stimulus"":""img/2to3/7.png"",""time"":704},{""stimulus"":""img/2to3/8.png"",""time"":800},{""stimulus"":""img/2to3/9.png"",""time"":904},{""stimulus"":""img/2to3/10.png"",""time"":996},{""stimulus"":""img/2to3/11.png"",""time"":1096},{""stimulus"":""img/2to3/12.png"",""time"":1200}]","[]"
"image-keyboard-response","20","72434","0.0-5.0-1.8","5c9432caec114b0001419276","bdp_cybrbll","Sun Mar 26 2023 15:48:21 GMT-0500 (Central Daylight Time)","454559","1","3","","","","observe","","null","","img/3to2/1.png","null","217","260","0.5","0.5","3","1","",""
"animation","21","73727","0.0-5.0-2.8","5c9432caec114b0001419276","bdp_cybrbll","Sun Mar 26 2023 15:48:21 GMT-0500 (Central Daylight Time)","454559","1","3","","","","","","","","","","217","","","","3","1","[{""stimulus"":""img/3to1/1.png"",""time"":112},{""stimulus"":""img/3to1/2.png"",""time"":208},{""stimulus"":""img/3to1/3.png"",""time"":304},{""stimulus"":""img/3to1/4.png"",""time"":408},{""stimulus"":""img/3to1/5.png"",""time"":500},{""stimulus"":""img/3to1/6.png"",""time"":596},{""stimulus"":""img/3to1/7.png"",""time"":704},{""stimulus"":""img/3to1/8.png"",""time"":800},{""stimulus"":""img/3to1/9.png"",""time"":900},{""stimulus"":""img/3to1/10.png"",""time"":1000},{""stimulus"":""img/3to1/11.png"",""time"":1095},{""stimulus"":""img/3to1/12.png"",""time"":1200}]","[]"
"image-keyboard-response","22","74058","0.0-5.0-1.9","5c9432caec114b0001419276","bdp_cybrbll","Sun Mar 26 2023 15:48:21 GMT-0500 (Central Daylight Time)","454559","1","3","","","","observe","","null","","img/1to3/1.png","null","216","321","0.5","0.5","1","3","",""
"animation","23","75355","0.0-5.0-2.9","5c9432caec114b0001419276","bdp_cybrbll","Sun Mar 26 2023 15:48:21 GMT-0500 (Central Daylight Time)","454559","1","3","","","","","","","","","","216","","","","1","3","[{""stimulus"":""img/1to3/1.png"",""time"":107},{""stimulus"":""img/1to3/2.png"",""time"":208},{""stimulus"":""img/1to3/3.png"",""time"":304},{""stimulus"":""img/1to3/4.png"",""time"":408},{""stimulus"":""img/1to3/5.png"",""time"":504},{""stimulus"":""img/1to3/6.png"",""time"":600},{""stimulus"":""img/1to3/7.png"",""time"":704},{""stimulus"":""img/1to3/8.png"",""time"":799},{""stimulus"":""img/1to3/9.png"",""time"":904},{""stimulus"":""img/1to3/10.png"",""time"":1000},{""stimulus"":""img/1to3/11.png"",""time"":1091},{""stimulus"":""img/1to3/12.png"",""time"":1200}]","[]"
"image-keyboard-response","24","75934","0.0-5.0-1.10","5c9432caec114b0001419276","bdp_cybrbll","Sun Mar 26 2023 15:48:21 GMT-0500 (Central Daylight Time)","454559","1","3","","","","observe","","null","","img/3to2/1.png","null","215","575","0.5","0.5","3","2","",""
"animation","25","77224","0.0-5.0-2.10","5c9432caec114b0001419276","bdp_cybrbll","Sun Mar 26 2023 15:48:21 GMT-0500 (Central Daylight Time)","454559","1","3","","","","","","","","","","215","","","","3","2","[{""stimulus"":""img/3to2/1.png"",""time"":109},{""stimulus"":""img/3to2/2.png"",""time"":205},{""stimulus"":""img/3to2/3.png"",""time"":309},{""stimulus"":""img/3to2/4.png"",""time"":405},{""stimulus"":""img/3to2/5.png"",""time"":501},{""stimulus"":""img/3to2/6.png"",""time"":605},{""stimulus"":""img/3to2/7.png"",""time"":701},{""stimulus"":""img/3to2/8.png"",""time"":805},{""stimulus"":""img/3to2/9.png"",""time"":896},{""stimulus"":""img/3to2/10.png"",""time"":997},{""stimulus"":""img/3to2/11.png"",""time"":1101},{""stimulus"":""img/3to2/12.png"",""time"":1196}]","[]"
"image-keyboard-response","26","77525","0.0-5.0-1.11","5c9432caec114b0001419276","bdp_cybrbll","Sun Mar 26 2023 15:48:21 GMT-0500 (Central Daylight Time)","454559","1","3","","","","choice","","300","","img/2to1/1.png","1","214","530","0.5","0.5","2","1","",""
"animation","27","78817","0.0-5.0-2.11","5c9432caec114b0001419276","bdp_cybrbll","Sun Mar 26 2023 15:48:21 GMT-0500 (Central Daylight Time)","454559","1","3","","","","","","","","","","214","","","","2","1","[{""stimulus"":""img/2to1/1.png"",""time"":107},{""stimulus"":""img/2to1/2.png"",""time"":201},{""stimulus"":""img/2to1/3.png"",""time"":310},{""stimulus"":""img/2to1/4.png"",""time"":402},{""stimulus"":""img/2to1/5.png"",""time"":502},{""stimulus"":""img/2to1/6.png"",""time"":601},{""stimulus"":""img/2to1/7.png"",""time"":701},{""stimulus"":""img/2to1/8.png"",""time"":797},{""stimulus"":""img/2to1/9.png"",""time"":902},{""stimulus"":""img/2to1/10.png"",""time"":996},{""stimulus"":""img/2to1/11.png"",""time"":1102},{""stimulus"":""img/2to1/12.png"",""time"":1196}]","[]"
"image-keyboard-response","28","79139","0.0-5.0-1.12","5c9432caec114b0001419276","bdp_cybrbll","Sun Mar 26 2023 15:48:21 GMT-0500 (Central Daylight Time)","454559","1","3","","","","observe","","null","","img/1to3/1.png","null","213","311","0.5","0.5","1","3","",""
"animation","29","80435","0.0-5.0-2.12","5c9432caec114b0001419276","bdp_cybrbll","Sun Mar 26 2023 15:48:21 GMT-0500 (Central Daylight Time)","454559","1","3","","","","","","","","","","213","","","","1","3","[{""stimulus"":""img/1to3/1.png"",""time"":112},{""stimulus"":""img/1to3/2.png"",""time"":208},{""stimulus"":""img/1to3/3.png"",""time"":304},{""stimulus"":""img/1to3/4.png"",""time"":404},{""stimulus"":""img/1to3/5.png"",""time"":504},{""stimulus"":""img/1to3/6.png"",""time"":600},{""stimulus"":""img/1to3/7.png"",""time"":700},{""stimulus"":""img/1to3/8.png"",""time"":800},{""stimulus"":""img/1to3/9.png"",""time"":904},{""stimulus"":""img/1to3/10.png"",""time"":998},{""stimulus"":""img/1to3/11.png"",""time"":1096},{""stimulus"":""img/1to3/12.png"",""time"":1200}]","[]"
"image-keyboard-response","30","80903","0.0-5.0-1.13","5c9432caec114b0001419276","bdp_cybrbll","Sun Mar 26 2023 15:48:21 GMT-0500 (Central Daylight Time)","454559","1","3","","","","observe","","null","","img/3to2/1.png","null","212","458","0.5","0.5","3","1","",""
"animation","31","82198","0.0-5.0-2.13","5c9432caec114b0001419276","bdp_cybrbll","Sun Mar 26 2023 15:48:21 GMT-0500 (Central Daylight Time)","454559","1","3","","","","","","","","","","212","","","","3","1","[{""stimulus"":""img/3to1/1.png"",""time"":100},{""stimulus"":""img/3to1/2.png"",""time"":202},{""stimulus"":""img/3to1/3.png"",""time"":305},{""stimulus"":""img/3to1/4.png"",""time"":402},{""stimulus"":""img/3to1/5.png"",""time"":505},{""stimulus"":""img/3to1/6.png"",""time"":599},{""stimulus"":""img/3to1/7.png"",""time"":699},{""stimulus"":""img/3to1/8.png"",""time"":804},{""stimulus"":""img/3to1/9.png"",""time"":898},{""stimulus"":""img/3to1/10.png"",""time"":991},{""stimulus"":""img/3to1/11.png"",""time"":1100},{""stimulus"":""img/3to1/12.png"",""time"":1196}]","[]"
"image-keyboard-response","32","83439","0.0-5.0-1.14","5c9432caec114b0001419276","bdp_cybrbll","Sun Mar 26 2023 15:48:21 GMT-0500 (Central Daylight Time)","454559","1","3","","","","observe","","null","","img/1to3/1.png","null","211","1232","0.5","0.5","1","3","",""
"animation","33","84739","0.0-5.0-2.14","5c9432caec114b0001419276","bdp_cybrbll","Sun Mar 26 2023 15:48:21 GMT-0500 (Central Daylight Time)","454559","1","3","","","","","","","","","","211","","","","1","3","[{""stimulus"":""img/1to3/1.png"",""time"":104},{""stimulus"":""img/1to3/2.png"",""time"":204},{""stimulus"":""img/1to3/3.png"",""time"":308},{""stimulus"":""img/1to3/4.png"",""time"":401},{""stimulus"":""img/1to3/5.png"",""time"":504},{""stimulus"":""img/1to3/6.png"",""time"":599},{""stimulus"":""img/1to3/7.png"",""time"":695},{""stimulus"":""img/1to3/8.png"",""time"":803},{""stimulus"":""img/1to3/9.png"",""time"":896},{""stimulus"":""img/1to3/10.png"",""time"":992},{""stimulus"":""img/1to3/11.png"",""time"":1100},{""stimulus"":""img/1to3/12.png"",""time"":1196}]","[]"
"image-keyboard-response","34","85265","0.0-5.0-1.15","5c9432caec114b0001419276","bdp_cybrbll","Sun Mar 26 2023 15:48:21 GMT-0500 (Central Daylight Time)","454559","1","3","","","","observe","","null","","img/3to2/1.png","null","210","514","0.5","0.5","3","2","",""
"animation","35","86559","0.0-5.0-2.15","5c9432caec114b0001419276","bdp_cybrbll","Sun Mar 26 2023 15:48:21 GMT-0500 (Central Daylight Time)","454559","1","3","","","","","","","","","","210","","","","3","2","[{""stimulus"":""img/3to2/1.png"",""time"":106},{""stimulus"":""img/3to2/2.png"",""time"":210},{""stimulus"":""img/3to2/3.png"",""time"":306},{""stimulus"":""img/3to2/4.png"",""time"":402},{""stimulus"":""img/3to2/5.png"",""time"":506},{""stimulus"":""img/3to2/6.png"",""time"":601},{""stimulus"":""img/3to2/7.png"",""time"":706},{""stimulus"":""img/3to2/8.png"",""time"":802},{""stimulus"":""img/3to2/9.png"",""time"":898},{""stimulus"":""img/3to2/10.png"",""time"":1002},{""stimulus"":""img/3to2/11.png"",""time"":1098},{""stimulus"":""img/3to2/12.png"",""time"":1190}]","[]"
"image-keyboard-response","36","87172","0.0-5.0-1.16","5c9432caec114b0001419276","bdp_cybrbll","Sun Mar 26 2023 15:48:21 GMT-0500 (Central Daylight Time)","454559","1","3","","","","choice","","612","","img/2to1/1.png","2","209","987","0.5","0.5","2","3","",""
"animation","37","88467","0.0-5.0-2.16","5c9432caec114b0001419276","bdp_cybrbll","Sun Mar 26 2023 15:48:21 GMT-0500 (Central Daylight Time)","454559","1","3","","","","","","","","","","209","","","","2","3","[{""stimulus"":""img/2to3/1.png"",""time"":111},{""stimulus"":""img/2to3/2.png"",""time"":206},{""stimulus"":""img/2to3/3.png"",""time"":310},{""stimulus"":""img/2to3/4.png"",""time"":406},{""stimulus"":""img/2to3/5.png"",""time"":502},{""stimulus"":""img/2to3/6.png"",""time"":606},{""stimulus"":""img/2to3/7.png"",""time"":698},{""stimulus"":""img/2to3/8.png"",""time"":798},{""stimulus"":""img/2to3/9.png"",""time"":902},{""stimulus"":""img/2to3/10.png"",""time"":998},{""stimulus"":""img/2to3/11.png"",""time"":1102},{""stimulus"":""img/2to3/12.png"",""time"":1196}]","[]"
"image-keyboard-response","38","88817","0.0-5.0-1.17","5c9432caec114b0001419276","bdp_cybrbll","Sun Mar 26 2023 15:48:21 GMT-0500 (Central Daylight Time)","454559","1","3","","","","observe","","null","","img/3to2/1.png","null","208","343","0.5","0.5","3","2","",""
"animation","39","90107","0.0-5.0-2.17","5c9432caec114b0001419276","bdp_cybrbll","Sun Mar 26 2023 15:48:21 GMT-0500 (Central Daylight Time)","454559","1","3","","","","","","","","","","208","","","","3","2","[{""stimulus"":""img/3to2/1.png"",""time"":104},{""stimulus"":""img/3to2/2.png"",""time"":209},{""stimulus"":""img/3to2/3.png"",""time"":304},{""stimulus"":""img/3to2/4.png"",""time"":399},{""stimulus"":""img/3to2/5.png"",""time"":503},{""stimulus"":""img/3to2/6.png"",""time"":599},{""stimulus"":""img/3to2/7.png"",""time"":703},{""stimulus"":""img/3to2/8.png"",""time"":798},{""stimulus"":""img/3to2/9.png"",""time"":893},{""stimulus"":""img/3to2/10.png"",""time"":998},{""stimulus"":""img/3to2/11.png"",""time"":1094},{""stimulus"":""img/3to2/12.png"",""time"":1189}]","[]"
"image-keyboard-response","40","90358","0.0-5.0-1.18","5c9432caec114b0001419276","bdp_cybrbll","Sun Mar 26 2023 15:48:21 GMT-0500 (Central Daylight Time)","454559","1","3","","","","choice","","250","","img/2to1/1.png","1","207","402","0.5","0.5","2","1","",""
"animation","41","91655","0.0-5.0-2.18","5c9432caec114b0001419276","bdp_cybrbll","Sun Mar 26 2023 15:48:21 GMT-0500 (Central Daylight Time)","454559","1","3","","","","","","","","","","207","","","","2","1","[{""stimulus"":""img/2to1/1.png"",""time"":108},{""stimulus"":""img/2to1/2.png"",""time"":204},{""stimulus"":""img/2to1/3.png"",""time"":308},{""stimulus"":""img/2to1/4.png"",""time"":404},{""stimulus"":""img/2to1/5.png"",""time"":504},{""stimulus"":""img/2to1/6.png"",""time"":604},{""stimulus"":""img/2to1/7.png"",""time"":700},{""stimulus"":""img/2to1/8.png"",""time"":804},{""stimulus"":""img/2to1/9.png"",""time"":900},{""stimulus"":""img/2to1/10.png"",""time"":993},{""stimulus"":""img/2to1/11.png"",""time"":1096},{""stimulus"":""img/2to1/12.png"",""time"":1192}]","[]"
"image-keyboard-response","42","92035","0.0-5.0-1.19","5c9432caec114b0001419276","bdp_cybrbll","Sun Mar 26 2023 15:48:21 GMT-0500 (Central Daylight Time)","454559","1","3","","","","observe","","null","","img/1to3/1.png","null","206","375","0.5","0.5","1","3","",""
"animation","43","93331","0.0-5.0-2.19","5c9432caec114b0001419276","bdp_cybrbll","Sun Mar 26 2023 15:48:21 GMT-0500 (Central Daylight Time)","454559","1","3","","","","","","","","","","206","","","","1","3","[{""stimulus"":""img/1to3/1.png"",""time"":107},{""stimulus"":""img/1to3/2.png"",""time"":208},{""stimulus"":""img/1to3/3.png"",""time"":304},{""stimulus"":""img/1to3/4.png"",""time"":408},{""stimulus"":""img/1to3/5.png"",""time"":504},{""stimulus"":""img/1to3/6.png"",""time"":600},{""stimulus"":""img/1to3/7.png"",""time"":704},{""stimulus"":""img/1to3/8.png"",""time"":800},{""stimulus"":""img/1to3/9.png"",""time"":904},{""stimulus"":""img/1to3/10.png"",""time"":1000},{""stimulus"":""img/1to3/11.png"",""time"":1096},{""stimulus"":""img/1to3/12.png"",""time"":1200}]","[]"
"image-keyboard-response","44","93521","0.0-5.0-1.20","5c9432caec114b0001419276","bdp_cybrbll","Sun Mar 26 2023 15:48:21 GMT-0500 (Central Daylight Time)","454559","1","3","","","","observe","","null","","img/3to2/1.png","null","205","180","0.5","0.5","3","2","",""
"animation","45","94817","0.0-5.0-2.20","5c9432caec114b0001419276","bdp_cybrbll","Sun Mar 26 2023 15:48:21 GMT-0500 (Central Daylight Time)","454559","1","3","","","","","","","","","","205","","","","3","2","[{""stimulus"":""img/3to2/1.png"",""time"":106},{""stimulus"":""img/3to2/2.png"",""time"":206},{""stimulus"":""img/3to2/3.png"",""time"":306},{""stimulus"":""img/3to2/4.png"",""time"":398},{""stimulus"":""img/3to2/5.png"",""time"":506},{""stimulus"":""img/3to2/6.png"",""time"":600},{""stimulus"":""img/3to2/7.png"",""time"":707},{""stimulus"":""img/3to2/8.png"",""time"":799},{""stimulus"":""img/3to2/9.png"",""time"":896},{""stimulus"":""img/3to2/10.png"",""time"":1000},{""stimulus"":""img/3to2/11.png"",""time"":1094},{""stimulus"":""img/3to2/12.png"",""time"":1190}]","[]"
"image-keyboard-response","46","94865","0.0-5.0-1.21","5c9432caec114b0001419276","bdp_cybrbll","Sun Mar 26 2023 15:48:21 GMT-0500 (Central Daylight Time)","454559","1","3","","","","choice","","47","","img/2to1/1.png","2","204","895","0.5","0.5","2","3","",""
"animation","47","96163","0.0-5.0-2.21","5c9432caec114b0001419276","bdp_cybrbll","Sun Mar 26 2023 15:48:21 GMT-0500 (Central Daylight Time)","454559","1","3","","","","","","","","","","204","","","","2","3","[{""stimulus"":""img/2to3/1.png"",""time"":106},{""stimulus"":""img/2to3/2.png"",""time"":211},{""stimulus"":""img/2to3/3.png"",""time"":306},{""stimulus"":""img/2to3/4.png"",""time"":402},{""stimulus"":""img/2to3/5.png"",""time"":504},{""stimulus"":""img/2to3/6.png"",""time"":602},{""stimulus"":""img/2to3/7.png"",""time"":707},{""stimulus"":""img/2to3/8.png"",""time"":802},{""stimulus"":""img/2to3/9.png"",""time"":898},{""stimulus"":""img/2to3/10.png"",""time"":1002},{""stimulus"":""img/2to3/11.png"",""time"":1098},{""stimulus"":""img/2to3/12.png"",""time"":1190}]","[]"
"image-keyboard-response","48","96395","0.0-5.0-1.22","5c9432caec114b0001419276","bdp_cybrbll","Sun Mar 26 2023 15:48:21 GMT-0500 (Central Daylight Time)","454559","1","3","","","","observe","","null","","img/3to2/1.png","null","203","222","0.5","0.5","3","1","",""
"animation","49","97691","0.0-5.0-2.22","5c9432caec114b0001419276","bdp_cybrbll","Sun Mar 26 2023 15:48:21 GMT-0500 (Central Daylight Time)","454559","1","3","","","","","","","","","","203","","","","3","1","[{""stimulus"":""img/3to1/1.png"",""time"":113},{""stimulus"":""img/3to1/2.png"",""time"":208},{""stimulus"":""img/3to1/3.png"",""time"":305},{""stimulus"":""img/3to1/4.png"",""time"":406},{""stimulus"":""img/3to1/5.png"",""time"":504},{""stimulus"":""img/3to1/6.png"",""time"":595},{""stimulus"":""img/3to1/7.png"",""time"":705},{""stimulus"":""img/3to1/8.png"",""time"":800},{""stimulus"":""img/3to1/9.png"",""time"":904},{""stimulus"":""img/3to1/10.png"",""time"":1001},{""stimulus"":""img/3to1/11.png"",""time"":1097},{""stimulus"":""img/3to1/12.png"",""time"":1201}]","[]"
"image-keyboard-response","50","97931","0.0-5.0-1.23","5c9432caec114b0001419276","bdp_cybrbll","Sun Mar 26 2023 15:48:21 GMT-0500 (Central Daylight Time)","454559","1","3","","","","observe","","null","","img/1to3/1.png","null","202","230","0.5","0.5","1","2","",""
"animation","51","99227","0.0-5.0-2.23","5c9432caec114b0001419276","bdp_cybrbll","Sun Mar 26 2023 15:48:21 GMT-0500 (Central Daylight Time)","454559","1","3","","","","","","","","","","202","","","","1","2","[{""stimulus"":""img/1to2/1.png"",""time"":113},{""stimulus"":""img/1to2/2.png"",""time"":208},{""stimulus"":""img/1to2/3.png"",""time"":305},{""stimulus"":""img/1to2/4.png"",""time"":408},{""stimulus"":""img/1to2/5.png"",""time"":505},{""stimulus"":""img/1to2/6.png"",""time"":597},{""stimulus"":""img/1to2/7.png"",""time"":705},{""stimulus"":""img/1to2/8.png"",""time"":800},{""stimulus"":""img/1to2/9.png"",""time"":905},{""stimulus"":""img/1to2/10.png"",""time"":997},{""stimulus"":""img/1to2/11.png"",""time"":1096},{""stimulus"":""img/1to2/12.png"",""time"":1200}]","[]"
"image-keyboard-response","52","99533","0.0-5.0-1.24","5c9432caec114b0001419276","bdp_cybrbll","Sun Mar 26 2023 15:48:21 GMT-0500 (Central Daylight Time)","454559","1","3","","","","choice","","305","","img/2to1/1.png","2","201","505","0.5","0.5","2","3","",""
"animation","53","100827","0.0-5.0-2.24","5c9432caec114b0001419276","bdp_cybrbll","Sun Mar 26 2023 15:48:21 GMT-0500 (Central Daylight Time)","454559","1","3","","","","","","","","","","201","","","","2","3","[{""stimulus"":""img/2to3/1.png"",""time"":106},{""stimulus"":""img/2to3/2.png"",""time"":207},{""stimulus"":""img/2to3/3.png"",""time"":311},{""stimulus"":""img/2to3/4.png"",""time"":407},{""stimulus"":""img/2to3/5.png"",""time"":503},{""stimulus"":""img/2to3/6.png"",""time"":607},{""stimulus"":""img/2to3/7.png"",""time"":700},{""stimulus"":""img/2to3/8.png"",""time"":794},{""stimulus"":""img/2to3/9.png"",""time"":899},{""stimulus"":""img/2to3/10.png"",""time"":998},{""stimulus"":""img/2to3/11.png"",""time"":1100},{""stimulus"":""img/2to3/12.png"",""time"":1198}]","[]"
"image-keyboard-response","54","101385","0.0-5.0-1.25","5c9432caec114b0001419276","bdp_cybrbll","Sun Mar 26 2023 15:48:21 GMT-0500 (Central Daylight Time)","454559","1","3","","","","observe","","null","","img/3to2/1.png","null","200","554","0.5","0.5","3","1","",""
"animation","55","102683","0.0-5.0-2.25","5c9432caec114b0001419276","bdp_cybrbll","Sun Mar 26 2023 15:48:21 GMT-0500 (Central Daylight Time)","454559","1","3","","","","","","","","","","200","","","","3","1","[{""stimulus"":""img/3to1/1.png"",""time"":106},{""stimulus"":""img/3to1/2.png"",""time"":210},{""stimulus"":""img/3to1/3.png"",""time"":306},{""stimulus"":""img/3to1/4.png"",""time"":402},{""stimulus"":""img/3to1/5.png"",""time"":506},{""stimulus"":""img/3to1/6.png"",""time"":602},{""stimulus"":""img/3to1/7.png"",""time"":703},{""stimulus"":""img/3to1/8.png"",""time"":802},{""stimulus"":""img/3to1/9.png"",""time"":898},{""stimulus"":""img/3to1/10.png"",""time"":1002},{""stimulus"":""img/3to1/11.png"",""time"":1093},{""stimulus"":""img/3to1/12.png"",""time"":1191}]","[]"
"image-keyboard-response","56","103307","0.0-5.0-1.26","5c9432caec114b0001419276","bdp_cybrbll","Sun Mar 26 2023 15:48:21 GMT-0500 (Central Daylight Time)","454559","1","3","","","","observe","","null","","img/1to3/1.png","null","199","619","0.5","0.5","1","3","",""
"animation","57","104604","0.0-5.0-2.26","5c9432caec114b0001419276","bdp_cybrbll","Sun Mar 26 2023 15:48:21 GMT-0500 (Central Daylight Time)","454559","1","3","","","","","","","","","","199","","","","1","3","[{""stimulus"":""img/1to3/1.png"",""time"":110},{""stimulus"":""img/1to3/2.png"",""time"":205},{""stimulus"":""img/1to3/3.png"",""time"":300},{""stimulus"":""img/1to3/4.png"",""time"":404},{""stimulus"":""img/1to3/5.png"",""time"":500},{""stimulus"":""img/1to3/6.png"",""time"":600},{""stimulus"":""img/1to3/7.png"",""time"":696},{""stimulus"":""img/1to3/8.png"",""time"":799},{""stimulus"":""img/1to3/9.png"",""time"":894},{""stimulus"":""img/1to3/10.png"",""time"":1000},{""stimulus"":""img/1to3/11.png"",""time"":1096},{""stimulus"":""img/1to3/12.png"",""time"":1200}]","[]"
"image-keyboard-response","58","105265","0.0-5.0-1.27","5c9432caec114b0001419276","bdp_cybrbll","Sun Mar 26 2023 15:48:21 GMT-0500 (Central Daylight Time)","454559","1","3","","","","observe","","null","","img/3to2/1.png","null","198","651","0.5","0.5","3","2","",""
"animation","59","106564","0.0-5.0-2.27","5c9432caec114b0001419276","bdp_cybrbll","Sun Mar 26 2023 15:48:21 GMT-0500 (Central Daylight Time)","454559","1","3","","","","","","","","","","198","","","","3","2","[{""stimulus"":""img/3to2/1.png"",""time"":102},{""stimulus"":""img/3to2/2.png"",""time"":209},{""stimulus"":""img/3to2/3.png"",""time"":306},{""stimulus"":""img/3to2/4.png"",""time"":410},{""stimulus"":""img/3to2/5.png"",""time"":506},{""stimulus"":""img/3to2/6.png"",""time"":601},{""stimulus"":""img/3to2/7.png"",""time"":706},{""stimulus"":""img/3to2/8.png"",""time"":797},{""stimulus"":""img/3to2/9.png"",""time"":893},{""stimulus"":""img/3to2/10.png"",""time"":997},{""stimulus"":""img/3to2/11.png"",""time"":1098},{""stimulus"":""img/3to2/12.png"",""time"":1200}]","[]"
"image-keyboard-response","60","107155","0.0-5.0-1.28","5c9432caec114b0001419276","bdp_cybrbll","Sun Mar 26 2023 15:48:21 GMT-0500 (Central Daylight Time)","454559","1","3","","","","choice","","591","","img/2to1/1.png","1","197","581","0.5","0.5","2","1","",""
"animation","61","108447","0.0-5.0-2.28","5c9432caec114b0001419276","bdp_cybrbll","Sun Mar 26 2023 15:48:21 GMT-0500 (Central Daylight Time)","454559","1","3","","","","","","","","","","197","","","","2","1","[{""stimulus"":""img/2to1/1.png"",""time"":113},{""stimulus"":""img/2to1/2.png"",""time"":209},{""stimulus"":""img/2to1/3.png"",""time"":301},{""stimulus"":""img/2to1/4.png"",""time"":409},{""stimulus"":""img/2to1/5.png"",""time"":503},{""stimulus"":""img/2to1/6.png"",""time"":601},{""stimulus"":""img/2to1/7.png"",""time"":705},{""stimulus"":""img/2to1/8.png"",""time"":797},{""stimulus"":""img/2to1/9.png"",""time"":905},{""stimulus"":""img/2to1/10.png"",""time"":1001},{""stimulus"":""img/2to1/11.png"",""time"":1097},{""stimulus"":""img/2to1/12.png"",""time"":1201}]","[]"
"image-keyboard-response","62","109900","0.0-5.0-1.29","5c9432caec114b0001419276","bdp_cybrbll","Sun Mar 26 2023 15:48:21 GMT-0500 (Central Daylight Time)","454559","1","3","","","","observe","","null","","img/1to3/1.png","null","196","1444","0.5","0.5","1","2","",""
"animation","63","111192","0.0-5.0-2.29","5c9432caec114b0001419276","bdp_cybrbll","Sun Mar 26 2023 15:48:21 GMT-0500 (Central Daylight Time)","454559","1","3","","","","","","","","","","196","","","","1","2","[{""stimulus"":""img/1to2/1.png"",""time"":104},{""stimulus"":""img/1to2/2.png"",""time"":207},{""stimulus"":""img/1to2/3.png"",""time"":304},{""stimulus"":""img/1to2/4.png"",""time"":408},{""stimulus"":""img/1to2/5.png"",""time"":504},{""stimulus"":""img/1to2/6.png"",""time"":600},{""stimulus"":""img/1to2/7.png"",""time"":704},{""stimulus"":""img/1to2/8.png"",""time"":800},{""stimulus"":""img/1to2/9.png"",""time"":901},{""stimulus"":""img/1to2/10.png"",""time"":1000},{""stimulus"":""img/1to2/11.png"",""time"":1096},{""stimulus"":""img/1to2/12.png"",""time"":1200}]","[]"
"image-keyboard-response","64","111320","0.0-5.0-1.30","5c9432caec114b0001419276","bdp_cybrbll","Sun Mar 26 2023 15:48:21 GMT-0500 (Central Daylight Time)","454559","1","3","","","","choice","","128","","img/2to1/1.png","1","195","450","0.5","0.5","2","1","",""
"animation","65","112618","0.0-5.0-2.30","5c9432caec114b0001419276","bdp_cybrbll","Sun Mar 26 2023 15:48:21 GMT-0500 (Central Daylight Time)","454559","1","3","","","","","","","","","","195","","","","2","1","[{""stimulus"":""img/2to1/1.png"",""time"":102},{""stimulus"":""img/2to1/2.png"",""time"":212},{""stimulus"":""img/2to1/3.png"",""time"":308},{""stimulus"":""img/2to1/4.png"",""time"":402},{""stimulus"":""img/2to1/5.png"",""time"":507},{""stimulus"":""img/2to1/6.png"",""time"":600},{""stimulus"":""img/2to1/7.png"",""time"":696},{""stimulus"":""img/2to1/8.png"",""time"":801},{""stimulus"":""img/2to1/9.png"",""time"":898},{""stimulus"":""img/2to1/10.png"",""time"":1002},{""stimulus"":""img/2to1/11.png"",""time"":1098},{""stimulus"":""img/2to1/12.png"",""time"":1191}]","[]"
"image-keyboard-response","66","112780","0.0-5.0-1.31","5c9432caec114b0001419276","bdp_cybrbll","Sun Mar 26 2023 15:48:21 GMT-0500 (Central Daylight Time)","454559","1","3","","","","observe","","null","","img/1to3/1.png","null","194","149","0.5","0.5","1","2","",""
"animation","67","114076","0.0-5.0-2.31","5c9432caec114b0001419276","bdp_cybrbll","Sun Mar 26 2023 15:48:21 GMT-0500 (Central Daylight Time)","454559","1","3","","","","","","","","","","194","","","","1","2","[{""stimulus"":""img/1to2/1.png"",""time"":112},{""stimulus"":""img/1to2/2.png"",""time"":208},{""stimulus"":""img/1to2/3.png"",""time"":304},{""stimulus"":""img/1to2/4.png"",""time"":408},{""stimulus"":""img/1to2/5.png"",""time"":503},{""stimulus"":""img/1to2/6.png"",""time"":596},{""stimulus"":""img/1to2/7.png"",""time"":700},{""stimulus"":""img/1to2/8.png"",""time"":798},{""stimulus"":""img/1to2/9.png"",""time"":904},{""stimulus"":""img/1to2/10.png"",""time"":1000},{""stimulus"":""img/1to2/11.png"",""time"":1096},{""stimulus"":""img/1to2/12.png"",""time"":1200}]","[]"
"image-keyboard-response","68","114106","0.0-5.0-1.32","5c9432caec114b0001419276","bdp_cybrbll","Sun Mar 26 2023 15:48:21 GMT-0500 (Central Daylight Time)","454559","1","3","","","","choice","","29","","img/2to1/1.png","2","193","382","0.5","0.5","2","3","",""
"animation","69","115404","0.0-5.0-2.32","5c9432caec114b0001419276","bdp_cybrbll","Sun Mar 26 2023 15:48:21 GMT-0500 (Central Daylight Time)","454559","1","3","","","","","","","","","","193","","","","2","3","[{""stimulus"":""img/2to3/1.png"",""time"":102},{""stimulus"":""img/2to3/2.png"",""time"":202},{""stimulus"":""img/2to3/3.png"",""time"":298},{""stimulus"":""img/2to3/4.png"",""time"":402},{""stimulus"":""img/2to3/5.png"",""time"":498},{""stimulus"":""img/2to3/6.png"",""time"":602},{""stimulus"":""img/2to3/7.png"",""time"":695},{""stimulus"":""img/2to3/8.png"",""time"":802},{""stimulus"":""img/2to3/9.png"",""time"":898},{""stimulus"":""img/2to3/10.png"",""time"":1002},{""stimulus"":""img/2to3/11.png"",""time"":1096},{""stimulus"":""img/2to3/12.png"",""time"":1189}]","[]"
"image-keyboard-response","70","115740","0.0-5.0-1.33","5c9432caec114b0001419276","bdp_cybrbll","Sun Mar 26 2023 15:48:21 GMT-0500 (Central Daylight Time)","454559","1","3","","","","observe","","null","","img/3to2/1.png","null","192","328","0.5","0.5","3","2","",""
"animation","71","117031","0.0-5.0-2.33","5c9432caec114b0001419276","bdp_cybrbll","Sun Mar 26 2023 15:48:21 GMT-0500 (Central Daylight Time)","454559","1","3","","","","","","","","","","192","","","","3","2","[{""stimulus"":""img/3to2/1.png"",""time"":112},{""stimulus"":""img/3to2/2.png"",""time"":208},{""stimulus"":""img/3to2/3.png"",""time"":304},{""stimulus"":""img/3to2/4.png"",""time"":406},{""stimulus"":""img/3to2/5.png"",""time"":504},{""stimulus"":""img/3to2/6.png"",""time"":600},{""stimulus"":""img/3to2/7.png"",""time"":704},{""stimulus"":""img/3to2/8.png"",""time"":796},{""stimulus"":""img/3to2/9.png"",""time"":904},{""stimulus"":""img/3to2/10.png"",""time"":995},{""stimulus"":""img/3to2/11.png"",""time"":1091},{""stimulus"":""img/3to2/12.png"",""time"":1200}]","[]"
"image-keyboard-response","72","117152","0.0-5.0-1.34","5c9432caec114b0001419276","bdp_cybrbll","Sun Mar 26 2023 15:48:21 GMT-0500 (Central Daylight Time)","454559","1","3","","","","choice","","121","","img/2to1/1.png","2","191","328","0.5","0.5","2","3","",""
"animation","73","118452","0.0-5.0-2.34","5c9432caec114b0001419276","bdp_cybrbll","Sun Mar 26 2023 15:48:21 GMT-0500 (Central Daylight Time)","454559","1","3","","","","","","","","","","191","","","","2","3","[{""stimulus"":""img/2to3/1.png"",""time"":107},{""stimulus"":""img/2to3/2.png"",""time"":206},{""stimulus"":""img/2to3/3.png"",""time"":304},{""stimulus"":""img/2to3/4.png"",""time"":402},{""stimulus"":""img/2to3/5.png"",""time"":503},{""stimulus"":""img/2to3/6.png"",""time"":599},{""stimulus"":""img/2to3/7.png"",""time"":695},{""stimulus"":""img/2to3/8.png"",""time"":799},{""stimulus"":""img/2to3/9.png"",""time"":894},{""stimulus"":""img/2to3/10.png"",""time"":1001},{""stimulus"":""img/2to3/11.png"",""time"":1099},{""stimulus"":""img/2to3/12.png"",""time"":1190}]","[]"
"image-keyboard-response","74","118841","0.0-5.0-1.35","5c9432caec114b0001419276","bdp_cybrbll","Sun Mar 26 2023 15:48:21 GMT-0500 (Central Daylight Time)","454559","1","3","","","","observe","","null","","img/3to2/1.png","null","190","384","0.5","0.5","3","1","",""
"animation","75","120135","0.0-5.0-2.35","5c9432caec114b0001419276","bdp_cybrbll","Sun Mar 26 2023 15:48:21 GMT-0500 (Central Daylight Time)","454559","1","3","","","","","","","","","","190","","","","3","1","[{""stimulus"":""img/3to1/1.png"",""time"":106},{""stimulus"":""img/3to1/2.png"",""time"":210},{""stimulus"":""img/3to1/3.png"",""time"":306},{""stimulus"":""img/3to1/4.png"",""time"":402},{""stimulus"":""img/3to1/5.png"",""time"":502},{""stimulus"":""img/3to1/6.png"",""time"":602},{""stimulus"":""img/3to1/7.png"",""time"":706},{""stimulus"":""img/3to1/8.png"",""time"":802},{""stimulus"":""img/3to1/9.png"",""time"":898},{""stimulus"":""img/3to1/10.png"",""time"":1002},{""stimulus"":""img/3to1/11.png"",""time"":1094},{""stimulus"":""img/3to1/12.png"",""time"":1194}]","[]"
"image-keyboard-response","76","120633","0.0-5.0-1.36","5c9432caec114b0001419276","bdp_cybrbll","Sun Mar 26 2023 15:48:21 GMT-0500 (Central Daylight Time)","454559","1","3","","","","observe","","null","","img/1to3/1.png","null","189","492","0.5","0.5","1","2","",""
"animation","77","121931","0.0-5.0-2.36","5c9432caec114b0001419276","bdp_cybrbll","Sun Mar 26 2023 15:48:21 GMT-0500 (Central Daylight Time)","454559","1","3","","","","","","","","","","189","","","","1","2","[{""stimulus"":""img/1to2/1.png"",""time"":107},{""stimulus"":""img/1to2/2.png"",""time"":210},{""stimulus"":""img/1to2/3.png"",""time"":307},{""stimulus"":""img/1to2/4.png"",""time"":398},{""stimulus"":""img/1to2/5.png"",""time"":507},{""stimulus"":""img/1to2/6.png"",""time"":603},{""stimulus"":""img/1to2/7.png"",""time"":695},{""stimulus"":""img/1to2/8.png"",""time"":803},{""stimulus"":""img/1to2/9.png"",""time"":895},{""stimulus"":""img/1to2/10.png"",""time"":998},{""stimulus"":""img/1to2/11.png"",""time"":1099},{""stimulus"":""img/1to2/12.png"",""time"":1194}]","[]"
"image-keyboard-response","78","122448","0.0-5.0-1.37","5c9432caec114b0001419276","bdp_cybrbll","Sun Mar 26 2023 15:48:21 GMT-0500 (Central Daylight Time)","454559","1","3","","","","choice","","517","","img/2to1/1.png","2","188","619","0.5","0.5","2","3","",""
"animation","79","123748","0.0-5.0-2.37","5c9432caec114b0001419276","bdp_cybrbll","Sun Mar 26 2023 15:48:21 GMT-0500 (Central Daylight Time)","454559","1","3","","","","","","","","","","188","","","","2","3","[{""stimulus"":""img/2to3/1.png"",""time"":107},{""stimulus"":""img/2to3/2.png"",""time"":207},{""stimulus"":""img/2to3/3.png"",""time"":307},{""stimulus"":""img/2to3/4.png"",""time"":399},{""stimulus"":""img/2to3/5.png"",""time"":503},{""stimulus"":""img/2to3/6.png"",""time"":598},{""stimulus"":""img/2to3/7.png"",""time"":699},{""stimulus"":""img/2to3/8.png"",""time"":803},{""stimulus"":""img/2to3/9.png"",""time"":894},{""stimulus"":""img/2to3/10.png"",""time"":1003},{""stimulus"":""img/2to3/11.png"",""time"":1099},{""stimulus"":""img/2to3/12.png"",""time"":1195}]","[]"
"image-keyboard-response","80","124476","0.0-5.0-1.38","5c9432caec114b0001419276","bdp_cybrbll","Sun Mar 26 2023 15:48:21 GMT-0500 (Central Daylight Time)","454559","1","3","","","","observe","","null","","img/3to2/1.png","null","187","720","0.5","0.5","3","2","",""
"animation","81","125772","0.0-5.0-2.38","5c9432caec114b0001419276","bdp_cybrbll","Sun Mar 26 2023 15:48:21 GMT-0500 (Central Daylight Time)","454559","1","3","","","","","","","","","","187","","","","3","2","[{""stimulus"":""img/3to2/1.png"",""time"":112},{""stimulus"":""img/3to2/2.png"",""time"":208},{""stimulus"":""img/3to2/3.png"",""time"":304},{""stimulus"":""img/3to2/4.png"",""time"":408},{""stimulus"":""img/3to2/5.png"",""time"":504},{""stimulus"":""img/3to2/6.png"",""time"":601},{""stimulus"":""img/3to2/7.png"",""time"":704},{""stimulus"":""img/3to2/8.png"",""time"":800},{""stimulus"":""img/3to2/9.png"",""time"":904},{""stimulus"":""img/3to2/10.png"",""time"":998},{""stimulus"":""img/3to2/11.png"",""time"":1096},{""stimulus"":""img/3to2/12.png"",""time"":1200}]","[]"
"image-keyboard-response","82","125887","0.0-5.0-1.39","5c9432caec114b0001419276","bdp_cybrbll","Sun Mar 26 2023 15:48:21 GMT-0500 (Central Daylight Time)","454559","1","3","","","","choice","","114","","img/2to1/1.png","1","186","416","0.5","0.5","2","1","",""
"animation","83","127179","0.0-5.0-2.39","5c9432caec114b0001419276","bdp_cybrbll","Sun Mar 26 2023 15:48:21 GMT-0500 (Central Daylight Time)","454559","1","3","","","","","","","","","","186","","","","2","1","[{""stimulus"":""img/2to1/1.png"",""time"":109},{""stimulus"":""img/2to1/2.png"",""time"":205},{""stimulus"":""img/2to1/3.png"",""time"":309},{""stimulus"":""img/2to1/4.png"",""time"":405},{""stimulus"":""img/2to1/5.png"",""time"":497},{""stimulus"":""img/2to1/6.png"",""time"":601},{""stimulus"":""img/2to1/7.png"",""time"":701},{""stimulus"":""img/2to1/8.png"",""time"":805},{""stimulus"":""img/2to1/9.png"",""time"":901},{""stimulus"":""img/2to1/10.png"",""time"":994},{""stimulus"":""img/2to1/11.png"",""time"":1101},{""stimulus"":""img/2to1/12.png"",""time"":1193}]","[]"
"image-keyboard-response","84","127703","0.0-5.0-1.40","5c9432caec114b0001419276","bdp_cybrbll","Sun Mar 26 2023 15:48:21 GMT-0500 (Central Daylight Time)","454559","1","3","","","","observe","","null","","img/1to3/1.png","null","185","522","0.5","0.5","1","2","",""
"animation","85","128996","0.0-5.0-2.40","5c9432caec114b0001419276","bdp_cybrbll","Sun Mar 26 2023 15:48:21 GMT-0500 (Central Daylight Time)","454559","1","3","","","","","","","","","","185","","","","1","2","[{""stimulus"":""img/1to2/1.png"",""time"":106},{""stimulus"":""img/1to2/2.png"",""time"":205},{""stimulus"":""img/1to2/3.png"",""time"":301},{""stimulus"":""img/1to2/4.png"",""time"":405},{""stimulus"":""img/1to2/5.png"",""time"":499},{""stimulus"":""img/1to2/6.png"",""time"":601},{""stimulus"":""img/1to2/7.png"",""time"":701},{""stimulus"":""img/1to2/8.png"",""time"":805},{""stimulus"":""img/1to2/9.png"",""time"":902},{""stimulus"":""img/1to2/10.png"",""time"":997},{""stimulus"":""img/1to2/11.png"",""time"":1098},{""stimulus"":""img/1to2/12.png"",""time"":1198}]","[]"
"image-keyboard-response","86","129190","0.0-5.0-1.41","5c9432caec114b0001419276","bdp_cybrbll","Sun Mar 26 2023 15:48:21 GMT-0500 (Central Daylight Time)","454559","1","3","","","","choice","","193","","img/2to1/1.png","2","184","379","0.5","0.5","2","3","",""
"animation","87","130484","0.0-5.0-2.41","5c9432caec114b0001419276","bdp_cybrbll","Sun Mar 26 2023 15:48:21 GMT-0500 (Central Daylight Time)","454559","1","3","","","","","","","","","","184","","","","2","3","[{""stimulus"":""img/2to3/1.png"",""time"":107},{""stimulus"":""img/2to3/2.png"",""time"":206},{""stimulus"":""img/2to3/3.png"",""time"":310},{""stimulus"":""img/2to3/4.png"",""time"":406},{""stimulus"":""img/2to3/5.png"",""time"":503},{""stimulus"":""img/2to3/6.png"",""time"":606},{""stimulus"":""img/2to3/7.png"",""time"":700},{""stimulus"":""img/2to3/8.png"",""time"":798},{""stimulus"":""img/2to3/9.png"",""time"":903},{""stimulus"":""img/2to3/10.png"",""time"":994},{""stimulus"":""img/2to3/11.png"",""time"":1102},{""stimulus"":""img/2to3/12.png"",""time"":1198}]","[]"
"image-keyboard-response","88","130708","0.0-5.0-1.42","5c9432caec114b0001419276","bdp_cybrbll","Sun Mar 26 2023 15:48:21 GMT-0500 (Central Daylight Time)","454559","1","3","","","","observe","","null","","img/3to2/1.png","null","183","215","0.5","0.5","3","2","",""
"animation","89","132000","0.0-5.0-2.42","5c9432caec114b0001419276","bdp_cybrbll","Sun Mar 26 2023 15:48:21 GMT-0500 (Central Daylight Time)","454559","1","3","","","","","","","","","","183","","","","3","2","[{""stimulus"":""img/3to2/1.png"",""time"":111},{""stimulus"":""img/3to2/2.png"",""time"":201},{""stimulus"":""img/3to2/3.png"",""time"":301},{""stimulus"":""img/3to2/4.png"",""time"":400},{""stimulus"":""img/3to2/5.png"",""time"":497},{""stimulus"":""img/3to2/6.png"",""time"":601},{""stimulus"":""img/3to2/7.png"",""time"":697},{""stimulus"":""img/3to2/8.png"",""time"":797},{""stimulus"":""img/3to2/9.png"",""time"":897},{""stimulus"":""img/3to2/10.png"",""time"":1001},{""stimulus"":""img/3to2/11.png"",""time"":1093},{""stimulus"":""img/3to2/12.png"",""time"":1198}]","[]"
"image-keyboard-response","90","133113","0.0-5.0-1.43","5c9432caec114b0001419276","bdp_cybrbll","Sun Mar 26 2023 15:48:21 GMT-0500 (Central Daylight Time)","454559","1","3","","","","choice","","1112","","img/2to1/1.png","1","182","411","0.5","0.5","2","1","",""
"animation","91","134404","0.0-5.0-2.43","5c9432caec114b0001419276","bdp_cybrbll","Sun Mar 26 2023 15:48:21 GMT-0500 (Central Daylight Time)","454559","1","3","","","","","","","","","","182","","","","2","1","[{""stimulus"":""img/2to1/1.png"",""time"":103},{""stimulus"":""img/2to1/2.png"",""time"":199},{""stimulus"":""img/2to1/3.png"",""time"":305},{""stimulus"":""img/2to1/4.png"",""time"":399},{""stimulus"":""img/2to1/5.png"",""time"":506},{""stimulus"":""img/2to1/6.png"",""time"":596},{""stimulus"":""img/2to1/7.png"",""time"":696},{""stimulus"":""img/2to1/8.png"",""time"":799},{""stimulus"":""img/2to1/9.png"",""time"":892},{""stimulus"":""img/2to1/10.png"",""time"":996},{""stimulus"":""img/2to1/11.png"",""time"":1096},{""stimulus"":""img/2to1/12.png"",""time"":1196}]","[]"
"image-keyboard-response","92","134956","0.0-5.0-1.44","5c9432caec114b0001419276","bdp_cybrbll","Sun Mar 26 2023 15:48:21 GMT-0500 (Central Daylight Time)","454559","1","3","","","","observe","","null","","img/1to3/1.png","null","181","544","0.5","0.5","1","3","",""
"animation","93","136250","0.0-5.0-2.44","5c9432caec114b0001419276","bdp_cybrbll","Sun Mar 26 2023 15:48:21 GMT-0500 (Central Daylight Time)","454559","1","3","","","","","","","","","","181","","","","1","3","[{""stimulus"":""img/1to3/1.png"",""time"":112},{""stimulus"":""img/1to3/2.png"",""time"":208},{""stimulus"":""img/1to3/3.png"",""time"":304},{""stimulus"":""img/1to3/4.png"",""time"":403},{""stimulus"":""img/1to3/5.png"",""time"":504},{""stimulus"":""img/1to3/6.png"",""time"":600},{""stimulus"":""img/1to3/7.png"",""time"":704},{""stimulus"":""img/1to3/8.png"",""time"":800},{""stimulus"":""img/1to3/9.png"",""time"":904},{""stimulus"":""img/1to3/10.png"",""time"":996},{""stimulus"":""img/1to3/11.png"",""time"":1096},{""stimulus"":""img/1to3/12.png"",""time"":1200}]","[]"
"image-keyboard-response","94","136455","0.0-5.0-1.45","5c9432caec114b0001419276","bdp_cybrbll","Sun Mar 26 2023 15:48:21 GMT-0500 (Central Daylight Time)","454559","1","3","","","","observe","","null","","img/3to2/1.png","null","180","197","0.5","0.5","3","2","",""
"animation","95","137748","0.0-5.0-2.45","5c9432caec114b0001419276","bdp_cybrbll","Sun Mar 26 2023 15:48:21 GMT-0500 (Central Daylight Time)","454559","1","3","","","","","","","","","","180","","","","3","2","[{""stimulus"":""img/3to2/1.png"",""time"":108},{""stimulus"":""img/3to2/2.png"",""time"":205},{""stimulus"":""img/3to2/3.png"",""time"":309},{""stimulus"":""img/3to2/4.png"",""time"":400},{""stimulus"":""img/3to2/5.png"",""time"":496},{""stimulus"":""img/3to2/6.png"",""time"":605},{""stimulus"":""img/3to2/7.png"",""time"":697},{""stimulus"":""img/3to2/8.png"",""time"":800},{""stimulus"":""img/3to2/9.png"",""time"":901},{""stimulus"":""img/3to2/10.png"",""time"":992},{""stimulus"":""img/3to2/11.png"",""time"":1101},{""stimulus"":""img/3to2/12.png"",""time"":1192}]","[]"
"image-keyboard-response","96","137831","0.0-5.0-1.46","5c9432caec114b0001419276","bdp_cybrbll","Sun Mar 26 2023 15:48:21 GMT-0500 (Central Daylight Time)","454559","1","3","","","","choice","","83","","img/2to1/1.png","1","179","650","0.5","0.5","2","1","",""
"animation","97","139122","0.0-5.0-2.46","5c9432caec114b0001419276","bdp_cybrbll","Sun Mar 26 2023 15:48:21 GMT-0500 (Central Daylight Time)","454559","1","3","","","","","","","","","","179","","","","2","1","[{""stimulus"":""img/2to1/1.png"",""time"":110},{""stimulus"":""img/2to1/2.png"",""time"":202},{""stimulus"":""img/2to1/3.png"",""time"":306},{""stimulus"":""img/2to1/4.png"",""time"":406},{""stimulus"":""img/2to1/5.png"",""time"":497},{""stimulus"":""img/2to1/6.png"",""time"":606},{""stimulus"":""img/2to1/7.png"",""time"":701},{""stimulus"":""img/2to1/8.png"",""time"":806},{""stimulus"":""img/2to1/9.png"",""time"":901},{""stimulus"":""img/2to1/10.png"",""time"":997},{""stimulus"":""img/2to1/11.png"",""time"":1098},{""stimulus"":""img/2to1/12.png"",""time"":1197}]","[]"
"image-keyboard-response","98","139364","0.0-5.0-1.47","5c9432caec114b0001419276","bdp_cybrbll","Sun Mar 26 2023 15:48:21 GMT-0500 (Central Daylight Time)","454559","1","3","","","","observe","","null","","img/1to3/1.png","null","178","235","0.5","0.5","1","3","",""
"animation","99","140661","0.0-5.0-2.47","5c9432caec114b0001419276","bdp_cybrbll","Sun Mar 26 2023 15:48:21 GMT-0500 (Central Daylight Time)","454559","1","3","","","","","","","","","","178","","","","1","3","[{""stimulus"":""img/1to3/1.png"",""time"":113},{""stimulus"":""img/1to3/2.png"",""time"":209},{""stimulus"":""img/1to3/3.png"",""time"":302},{""stimulus"":""img/1to3/4.png"",""time"":407},{""stimulus"":""img/1to3/5.png"",""time"":500},{""stimulus"":""img/1to3/6.png"",""time"":601},{""stimulus"":""img/1to3/7.png"",""time"":700},{""stimulus"":""img/1to3/8.png"",""time"":801},{""stimulus"":""img/1to3/9.png"",""time"":905},{""stimulus"":""img/1to3/10.png"",""time"":997},{""stimulus"":""img/1to3/11.png"",""time"":1097},{""stimulus"":""img/1to3/12.png"",""time"":1201}]","[]"
"image-keyboard-response","100","140996","0.0-5.0-1.48","5c9432caec114b0001419276","bdp_cybrbll","Sun Mar 26 2023 15:48:21 GMT-0500 (Central Daylight Time)","454559","1","3","","","","observe","","null","","img/3to2/1.png","null","177","326","0.5","0.5","3","1","",""
"animation","101","142293","0.0-5.0-2.48","5c9432caec114b0001419276","bdp_cybrbll","Sun Mar 26 2023 15:48:21 GMT-0500 (Central Daylight Time)","454559","1","3","","","","","","","","","","177","","","","3","1","[{""stimulus"":""img/3to1/1.png"",""time"":112},{""stimulus"":""img/3to1/2.png"",""time"":206},{""stimulus"":""img/3to1/3.png"",""time"":304},{""stimulus"":""img/3to1/4.png"",""time"":408},{""stimulus"":""img/3to1/5.png"",""time"":504},{""stimulus"":""img/3to1/6.png"",""time"":600},{""stimulus"":""img/3to1/7.png"",""time"":704},{""stimulus"":""img/3to1/8.png"",""time"":800},{""stimulus"":""img/3to1/9.png"",""time"":904},{""stimulus"":""img/3to1/10.png"",""time"":1000},{""stimulus"":""img/3to1/11.png"",""time"":1092},{""stimulus"":""img/3to1/12.png"",""time"":1196}]","[]"
"image-keyboard-response","102","142537","0.0-5.0-1.49","5c9432caec114b0001419276","bdp_cybrbll","Sun Mar 26 2023 15:48:21 GMT-0500 (Central Daylight Time)","454559","1","3","","","","observe","","null","","img/1to3/1.png","null","176","238","0.5","0.5","1","3","",""
"animation","103","143837","0.0-5.0-2.49","5c9432caec114b0001419276","bdp_cybrbll","Sun Mar 26 2023 15:48:21 GMT-0500 (Central Daylight Time)","454559","1","3","","","","","","","","","","176","","","","1","3","[{""stimulus"":""img/1to3/1.png"",""time"":108},{""stimulus"":""img/1to3/2.png"",""time"":212},{""stimulus"":""img/1to3/3.png"",""time"":308},{""stimulus"":""img/1to3/4.png"",""time"":404},{""stimulus"":""img/1to3/5.png"",""time"":508},{""stimulus"":""img/1to3/6.png"",""time"":604},{""stimulus"":""img/1to3/7.png"",""time"":696},{""stimulus"":""img/1to3/8.png"",""time"":800},{""stimulus"":""img/1to3/9.png"",""time"":900},{""stimulus"":""img/1to3/10.png"",""time"":1004},{""stimulus"":""img/1to3/11.png"",""time"":1100},{""stimulus"":""img/1to3/12.png"",""time"":1193}]","[]"
"image-keyboard-response","104","144605","0.0-5.0-1.50","5c9432caec114b0001419276","bdp_cybrbll","Sun Mar 26 2023 15:48:21 GMT-0500 (Central Daylight Time)","454559","1","3","","","","observe","","null","","img/3to2/1.png","null","175","757","0.5","0.5","3","2","",""
"animation","105","145896","0.0-5.0-2.50","5c9432caec114b0001419276","bdp_cybrbll","Sun Mar 26 2023 15:48:21 GMT-0500 (Central Daylight Time)","454559","1","3","","","","","","","","","","175","","","","3","2","[{""stimulus"":""img/3to2/1.png"",""time"":104},{""stimulus"":""img/3to2/2.png"",""time"":204},{""stimulus"":""img/3to2/3.png"",""time"":304},{""stimulus"":""img/3to2/4.png"",""time"":405},{""stimulus"":""img/3to2/5.png"",""time"":504},{""stimulus"":""img/3to2/6.png"",""time"":596},{""stimulus"":""img/3to2/7.png"",""time"":700},{""stimulus"":""img/3to2/8.png"",""time"":800},{""stimulus"":""img/3to2/9.png"",""time"":904},{""stimulus"":""img/3to2/10.png"",""time"":1000},{""stimulus"":""img/3to2/11.png"",""time"":1096},{""stimulus"":""img/3to2/12.png"",""time"":1196}]","[]"
"image-keyboard-response","106","146509","0.0-5.0-1.51","5c9432caec114b0001419276","bdp_cybrbll","Sun Mar 26 2023 15:48:21 GMT-0500 (Central Daylight Time)","454559","1","3","","","","choice","","612","","img/2to1/1.png","1","174","254","0.5","0.5","2","1","",""
"animation","107","147801","0.0-5.0-2.51","5c9432caec114b0001419276","bdp_cybrbll","Sun Mar 26 2023 15:48:21 GMT-0500 (Central Daylight Time)","454559","1","3","","","","","","","","","","174","","","","2","1","[{""stimulus"":""img/2to1/1.png"",""time"":111},{""stimulus"":""img/2to1/2.png"",""time"":200},{""stimulus"":""img/2to1/3.png"",""time"":301},{""stimulus"":""img/2to1/4.png"",""time"":405},{""stimulus"":""img/2to1/5.png"",""time"":496},{""stimulus"":""img/2to1/6.png"",""time"":600},{""stimulus"":""img/2to1/7.png"",""time"":701},{""stimulus"":""img/2to1/8.png"",""time"":800},{""stimulus"":""img/2to1/9.png"",""time"":893},{""stimulus"":""img/2to1/10.png"",""time"":997},{""stimulus"":""img/2to1/11.png"",""time"":1093},{""stimulus"":""img/2to1/12.png"",""time"":1200}]","[]"
"image-keyboard-response","108","148309","0.0-5.0-1.52","5c9432caec114b0001419276","bdp_cybrbll","Sun Mar 26 2023 15:48:21 GMT-0500 (Central Daylight Time)","454559","1","3","","","","observe","","null","","img/1to3/1.png","null","173","496","0.5","0.5","1","3","",""
"animation","109","149605","0.0-5.0-2.52","5c9432caec114b0001419276","bdp_cybrbll","Sun Mar 26 2023 15:48:21 GMT-0500 (Central Daylight Time)","454559","1","3","","","","","","","","","","173","","","","1","3","[{""stimulus"":""img/1to3/1.png"",""time"":110},{""stimulus"":""img/1to3/2.png"",""time"":200},{""stimulus"":""img/1to3/3.png"",""time"":300},{""stimulus"":""img/1to3/4.png"",""time"":400},{""stimulus"":""img/1to3/5.png"",""time"":501},{""stimulus"":""img/1to3/6.png"",""time"":596},{""stimulus"":""img/1to3/7.png"",""time"":696},{""stimulus"":""img/1to3/8.png"",""time"":796},{""stimulus"":""img/1to3/9.png"",""time"":894},{""stimulus"":""img/1to3/10.png"",""time"":1000},{""stimulus"":""img/1to3/11.png"",""time"":1092},{""stimulus"":""img/1to3/12.png"",""time"":1197}]","[]"
"image-keyboard-response","110","149845","0.0-5.0-1.53","5c9432caec114b0001419276","bdp_cybrbll","Sun Mar 26 2023 15:48:21 GMT-0500 (Central Daylight Time)","454559","1","3","","","","observe","","null","","img/3to2/1.png","null","172","226","0.5","0.5","3","2","",""
"animation","111","151141","0.0-5.0-2.53","5c9432caec114b0001419276","bdp_cybrbll","Sun Mar 26 2023 15:48:21 GMT-0500 (Central Daylight Time)","454559","1","3","","","","","","","","","","172","","","","3","2","[{""stimulus"":""img/3to2/1.png"",""time"":108},{""stimulus"":""img/3to2/2.png"",""time"":208},{""stimulus"":""img/3to2/3.png"",""time"":302},{""stimulus"":""img/3to2/4.png"",""time"":408},{""stimulus"":""img/3to2/5.png"",""time"":504},{""stimulus"":""img/3to2/6.png"",""time"":600},{""stimulus"":""img/3to2/7.png"",""time"":704},{""stimulus"":""img/3to2/8.png"",""time"":800},{""stimulus"":""img/3to2/9.png"",""time"":904},{""stimulus"":""img/3to2/10.png"",""time"":1000},{""stimulus"":""img/3to2/11.png"",""time"":1096},{""stimulus"":""img/3to2/12.png"",""time"":1200}]","[]"
"image-keyboard-response","112","151300","0.0-5.0-1.54","5c9432caec114b0001419276","bdp_cybrbll","Sun Mar 26 2023 15:48:21 GMT-0500 (Central Daylight Time)","454559","1","3","","","","choice","","158","","img/2to1/1.png","2","171","310","0.5","0.5","2","3","",""
"animation","113","152595","0.0-5.0-2.54","5c9432caec114b0001419276","bdp_cybrbll","Sun Mar 26 2023 15:48:21 GMT-0500 (Central Daylight Time)","454559","1","3","","","","","","","","","","171","","","","2","3","[{""stimulus"":""img/2to3/1.png"",""time"":105},{""stimulus"":""img/2to3/2.png"",""time"":209},{""stimulus"":""img/2to3/3.png"",""time"":305},{""stimulus"":""img/2to3/4.png"",""time"":409},{""stimulus"":""img/2to3/5.png"",""time"":501},{""stimulus"":""img/2to3/6.png"",""time"":601},{""stimulus"":""img/2to3/7.png"",""time"":705},{""stimulus"":""img/2to3/8.png"",""time"":796},{""stimulus"":""img/2to3/9.png"",""time"":897},{""stimulus"":""img/2to3/10.png"",""time"":1001},{""stimulus"":""img/2to3/11.png"",""time"":1097},{""stimulus"":""img/2to3/12.png"",""time"":1201}]","[]"
"image-keyboard-response","114","152965","0.0-5.0-1.55","5c9432caec114b0001419276","bdp_cybrbll","Sun Mar 26 2023 15:48:21 GMT-0500 (Central Daylight Time)","454559","1","3","","","","observe","","null","","img/3to2/1.png","null","170","363","0.5","0.5","3","2","",""
"animation","115","154261","0.0-5.0-2.55","5c9432caec114b0001419276","bdp_cybrbll","Sun Mar 26 2023 15:48:21 GMT-0500 (Central Daylight Time)","454559","1","3","","","","","","","","","","170","","","","3","2","[{""stimulus"":""img/3to2/1.png"",""time"":110},{""stimulus"":""img/3to2/2.png"",""time"":208},{""stimulus"":""img/3to2/3.png"",""time"":304},{""stimulus"":""img/3to2/4.png"",""time"":404},{""stimulus"":""img/3to2/5.png"",""time"":499},{""stimulus"":""img/3to2/6.png"",""time"":600},{""stimulus"":""img/3to2/7.png"",""time"":701},{""stimulus"":""img/3to2/8.png"",""time"":800},{""stimulus"":""img/3to2/9.png"",""time"":903},{""stimulus"":""img/3to2/10.png"",""time"":1000},{""stimulus"":""img/3to2/11.png"",""time"":1096},{""stimulus"":""img/3to2/12.png"",""time"":1200}]","[]"
"image-keyboard-response","116","154561","0.0-5.0-1.56","5c9432caec114b0001419276","bdp_cybrbll","Sun Mar 26 2023 15:48:21 GMT-0500 (Central Daylight Time)","454559","1","3","","","","choice","","299","","img/2to1/1.png","1","169","431","0.5","0.5","2","1","",""
"animation","117","155856","0.0-5.0-2.56","5c9432caec114b0001419276","bdp_cybrbll","Sun Mar 26 2023 15:48:21 GMT-0500 (Central Daylight Time)","454559","1","3","","","","","","","","","","169","","","","2","1","[{""stimulus"":""img/2to1/1.png"",""time"":103},{""stimulus"":""img/2to1/2.png"",""time"":207},{""stimulus"":""img/2to1/3.png"",""time"":306},{""stimulus"":""img/2to1/4.png"",""time"":403},{""stimulus"":""img/2to1/5.png"",""time"":507},{""stimulus"":""img/2to1/6.png"",""time"":603},{""stimulus"":""img/2to1/7.png"",""time"":699},{""stimulus"":""img/2to1/8.png"",""time"":803},{""stimulus"":""img/2to1/9.png"",""time"":899},{""stimulus"":""img/2to1/10.png"",""time"":1003},{""stimulus"":""img/2to1/11.png"",""time"":1099},{""stimulus"":""img/2to1/12.png"",""time"":1195}]","[]"
"image-keyboard-response","118","156419","0.0-5.0-1.57","5c9432caec114b0001419276","bdp_cybrbll","Sun Mar 26 2023 15:48:21 GMT-0500 (Central Daylight Time)","454559","1","3","","","","observe","","null","","img/1to3/1.png","null","168","552","0.5","0.5","1","2","",""
"animation","119","157709","0.0-5.0-2.57","5c9432caec114b0001419276","bdp_cybrbll","Sun Mar 26 2023 15:48:21 GMT-0500 (Central Daylight Time)","454559","1","3","","","","","","","","","","168","","","","1","2","[{""stimulus"":""img/1to2/1.png"",""time"":104},{""stimulus"":""img/1to2/2.png"",""time"":210},{""stimulus"":""img/1to2/3.png"",""time"":302},{""stimulus"":""img/1to2/4.png"",""time"":401},{""stimulus"":""img/1to2/5.png"",""time"":504},{""stimulus"":""img/1to2/6.png"",""time"":600},{""stimulus"":""img/1to2/7.png"",""time"":704},{""stimulus"":""img/1to2/8.png"",""time"":801},{""stimulus"":""img/1to2/9.png"",""time"":894},{""stimulus"":""img/1to2/10.png"",""time"":1000},{""stimulus"":""img/1to2/11.png"",""time"":1090},{""stimulus"":""img/1to2/12.png"",""time"":1190}]","[]"
"image-keyboard-response","120","157723","0.0-5.0-1.58","5c9432caec114b0001419276","bdp_cybrbll","Sun Mar 26 2023 15:48:21 GMT-0500 (Central Daylight Time)","454559","1","3","","","","choice","","13","","img/2to1/1.png","2","167","194","0.5","0.5","2","3","",""
"animation","121","159019","0.0-5.0-2.58","5c9432caec114b0001419276","bdp_cybrbll","Sun Mar 26 2023 15:48:21 GMT-0500 (Central Daylight Time)","454559","1","3","","","","","","","","","","167","","","","2","3","[{""stimulus"":""img/2to3/1.png"",""time"":106},{""stimulus"":""img/2to3/2.png"",""time"":211},{""stimulus"":""img/2to3/3.png"",""time"":306},{""stimulus"":""img/2to3/4.png"",""time"":400},{""stimulus"":""img/2to3/5.png"",""time"":506},{""stimulus"":""img/2to3/6.png"",""time"":601},{""stimulus"":""img/2to3/7.png"",""time"":706},{""stimulus"":""img/2to3/8.png"",""time"":800},{""stimulus"":""img/2to3/9.png"",""time"":894},{""stimulus"":""img/2to3/10.png"",""time"":998},{""stimulus"":""img/2to3/11.png"",""time"":1097},{""stimulus"":""img/2to3/12.png"",""time"":1190}]","[]"
"image-keyboard-response","122","159219","0.0-5.0-1.59","5c9432caec114b0001419276","bdp_cybrbll","Sun Mar 26 2023 15:48:21 GMT-0500 (Central Daylight Time)","454559","1","3","","","","observe","","null","","img/3to2/1.png","null","166","191","0.5","0.5","3","2","",""
"animation","123","160509","0.0-5.0-2.59","5c9432caec114b0001419276","bdp_cybrbll","Sun Mar 26 2023 15:48:21 GMT-0500 (Central Daylight Time)","454559","1","3","","","","","","","","","","166","","","","3","2","[{""stimulus"":""img/3to2/1.png"",""time"":105},{""stimulus"":""img/3to2/2.png"",""time"":210},{""stimulus"":""img/3to2/3.png"",""time"":302},{""stimulus"":""img/3to2/4.png"",""time"":400},{""stimulus"":""img/3to2/5.png"",""time"":504},{""stimulus"":""img/3to2/6.png"",""time"":601},{""stimulus"":""img/3to2/7.png"",""time"":702},{""stimulus"":""img/3to2/8.png"",""time"":800},{""stimulus"":""img/3to2/9.png"",""time"":894},{""stimulus"":""img/3to2/10.png"",""time"":1000},{""stimulus"":""img/3to2/11.png"",""time"":1090},{""stimulus"":""img/3to2/12.png"",""time"":1190}]","[]"
"image-keyboard-response","124","160538","0.0-5.0-1.60","5c9432caec114b0001419276","bdp_cybrbll","Sun Mar 26 2023 15:48:21 GMT-0500 (Central Daylight Time)","454559","1","3","","","","choice","","28","","img/2to1/1.png","1","165","372","0.5","0.5","2","1","",""
"animation","125","161836","0.0-5.0-2.60","5c9432caec114b0001419276","bdp_cybrbll","Sun Mar 26 2023 15:48:21 GMT-0500 (Central Daylight Time)","454559","1","3","","","","","","","","","","165","","","","2","1","[{""stimulus"":""img/2to1/1.png"",""time"":107},{""stimulus"":""img/2to1/2.png"",""time"":211},{""stimulus"":""img/2to1/3.png"",""time"":307},{""stimulus"":""img/2to1/4.png"",""time"":403},{""stimulus"":""img/2to1/5.png"",""time"":507},{""stimulus"":""img/2to1/6.png"",""time"":602},{""stimulus"":""img/2to1/7.png"",""time"":698},{""stimulus"":""img/2to1/8.png"",""time"":804},{""stimulus"":""img/2to1/9.png"",""time"":899},{""stimulus"":""img/2to1/10.png"",""time"":1003},{""stimulus"":""img/2to1/11.png"",""time"":1095},{""stimulus"":""img/2to1/12.png"",""time"":1195}]","[]"
"image-keyboard-response","126","162693","0.0-5.0-1.61","5c9432caec114b0001419276","bdp_cybrbll","Sun Mar 26 2023 15:48:21 GMT-0500 (Central Daylight Time)","454559","1","3","","","","observe","","null","","img/1to3/1.png","null","164","848","0.5","0.5","1","2","",""
"animation","127","163989","0.0-5.0-2.61","5c9432caec114b0001419276","bdp_cybrbll","Sun Mar 26 2023 15:48:21 GMT-0500 (Central Daylight Time)","454559","1","3","","","","","","","","","","164","","","","1","2","[{""stimulus"":""img/1to2/1.png"",""time"":108},{""stimulus"":""img/1to2/2.png"",""time"":206},{""stimulus"":""img/1to2/3.png"",""time"":305},{""stimulus"":""img/1to2/4.png"",""time"":408},{""stimulus"":""img/1to2/5.png"",""time"":501},{""stimulus"":""img/1to2/6.png"",""time"":600},{""stimulus"":""img/1to2/7.png"",""time"":701},{""stimulus"":""img/1to2/8.png"",""time"":800},{""stimulus"":""img/1to2/9.png"",""time"":905},{""stimulus"":""img/1to2/10.png"",""time"":1000},{""stimulus"":""img/1to2/11.png"",""time"":1096},{""stimulus"":""img/1to2/12.png"",""time"":1200}]","[]"
"image-keyboard-response","128","164503","0.0-5.0-1.62","5c9432caec114b0001419276","bdp_cybrbll","Sun Mar 26 2023 15:48:21 GMT-0500 (Central Daylight Time)","454559","1","3","","","","choice","","514","","img/2to1/1.png","2","163","454","0.5","0.5","2","3","",""
"animation","129","165793","0.0-5.0-2.62","5c9432caec114b0001419276","bdp_cybrbll","Sun Mar 26 2023 15:48:21 GMT-0500 (Central Daylight Time)","454559","1","3","","","","","","","","","","163","","","","2","3","[{""stimulus"":""img/2to3/1.png"",""time"":103},{""stimulus"":""img/2to3/2.png"",""time"":207},{""stimulus"":""img/2to3/3.png"",""time"":298},{""stimulus"":""img/2to3/4.png"",""time"":407},{""stimulus"":""img/2to3/5.png"",""time"":500},{""stimulus"":""img/2to3/6.png"",""time"":605},{""stimulus"":""img/2to3/7.png"",""time"":701},{""stimulus"":""img/2to3/8.png"",""time"":799},{""stimulus"":""img/2to3/9.png"",""time"":899},{""stimulus"":""img/2to3/10.png"",""time"":998},{""stimulus"":""img/2to3/11.png"",""time"":1102},{""stimulus"":""img/2to3/12.png"",""time"":1199}]","[]"
"image-keyboard-response","130","166435","0.0-5.0-1.63","5c9432caec114b0001419276","bdp_cybrbll","Sun Mar 26 2023 15:48:21 GMT-0500 (Central Daylight Time)","454559","1","3","","","","observe","","null","","img/3to2/1.png","null","162","630","0.5","0.5","3","1","",""
"animation","131","167729","0.0-5.0-2.63","5c9432caec114b0001419276","bdp_cybrbll","Sun Mar 26 2023 15:48:21 GMT-0500 (Central Daylight Time)","454559","1","3","","","","","","","","","","162","","","","3","1","[{""stimulus"":""img/3to1/1.png"",""time"":106},{""stimulus"":""img/3to1/2.png"",""time"":210},{""stimulus"":""img/3to1/3.png"",""time"":306},{""stimulus"":""img/3to1/4.png"",""time"":398},{""stimulus"":""img/3to1/5.png"",""time"":502},{""stimulus"":""img/3to1/6.png"",""time"":601},{""stimulus"":""img/3to1/7.png"",""time"":706},{""stimulus"":""img/3to1/8.png"",""time"":801},{""stimulus"":""img/3to1/9.png"",""time"":898},{""stimulus"":""img/3to1/10.png"",""time"":1002},{""stimulus"":""img/3to1/11.png"",""time"":1097},{""stimulus"":""img/3to1/12.png"",""time"":1194}]","[]"
"image-keyboard-response","132","167965","0.0-5.0-1.64","5c9432caec114b0001419276","bdp_cybrbll","Sun Mar 26 2023 15:48:21 GMT-0500 (Central Daylight Time)","454559","1","3","","","","observe","","null","","img/1to3/1.png","null","161","224","0.5","0.5","1","2","",""
"animation","133","169261","0.0-5.0-2.64","5c9432caec114b0001419276","bdp_cybrbll","Sun Mar 26 2023 15:48:21 GMT-0500 (Central Daylight Time)","454559","1","3","","","","","","","","","","161","","","","1","2","[{""stimulus"":""img/1to2/1.png"",""time"":111},{""stimulus"":""img/1to2/2.png"",""time"":207},{""stimulus"":""img/1to2/3.png"",""time"":304},{""stimulus"":""img/1to2/4.png"",""time"":408},{""stimulus"":""img/1to2/5.png"",""time"":504},{""stimulus"":""img/1to2/6.png"",""time"":600},{""stimulus"":""img/1to2/7.png"",""time"":703},{""stimulus"":""img/1to2/8.png"",""time"":796},{""stimulus"":""img/1to2/9.png"",""time"":904},{""stimulus"":""img/1to2/10.png"",""time"":1000},{""stimulus"":""img/1to2/11.png"",""time"":1096},{""stimulus"":""img/1to2/12.png"",""time"":1200}]","[]"
"image-keyboard-response","134","169890","0.0-5.0-1.65","5c9432caec114b0001419276","bdp_cybrbll","Sun Mar 26 2023 15:48:21 GMT-0500 (Central Daylight Time)","454559","1","3","","","","choice","","628","","img/2to1/1.png","1","160","609","0.5","0.5","2","1","",""
"animation","135","171190","0.0-5.0-2.65","5c9432caec114b0001419276","bdp_cybrbll","Sun Mar 26 2023 15:48:21 GMT-0500 (Central Daylight Time)","454559","1","3","","","","","","","","","","160","","","","2","1","[{""stimulus"":""img/2to1/1.png"",""time"":106},{""stimulus"":""img/2to1/2.png"",""time"":211},{""stimulus"":""img/2to1/3.png"",""time"":304},{""stimulus"":""img/2to1/4.png"",""time"":403},{""stimulus"":""img/2to1/5.png"",""time"":505},{""stimulus"":""img/2to1/6.png"",""time"":603},{""stimulus"":""img/2to1/7.png"",""time"":699},{""stimulus"":""img/2to1/8.png"",""time"":802},{""stimulus"":""img/2to1/9.png"",""time"":899},{""stimulus"":""img/2to1/10.png"",""time"":1003},{""stimulus"":""img/2to1/11.png"",""time"":1095},{""stimulus"":""img/2to1/12.png"",""time"":1191}]","[]"
"image-keyboard-response","136","171477","0.0-5.0-1.66","5c9432caec114b0001419276","bdp_cybrbll","Sun Mar 26 2023 15:48:21 GMT-0500 (Central Daylight Time)","454559","1","3","","","","observe","","null","","img/1to3/1.png","null","159","274","0.5","0.5","1","2","",""
"animation","137","172773","0.0-5.0-2.66","5c9432caec114b0001419276","bdp_cybrbll","Sun Mar 26 2023 15:48:21 GMT-0500 (Central Daylight Time)","454559","1","3","","","","","","","","","","159","","","","1","2","[{""stimulus"":""img/1to2/1.png"",""time"":108},{""stimulus"":""img/1to2/2.png"",""time"":208},{""stimulus"":""img/1to2/3.png"",""time"":304},{""stimulus"":""img/1to2/4.png"",""time"":408},{""stimulus"":""img/1to2/5.png"",""time"":504},{""stimulus"":""img/1to2/6.png"",""time"":600},{""stimulus"":""img/1to2/7.png"",""time"":700},{""stimulus"":""img/1to2/8.png"",""time"":800},{""stimulus"":""img/1to2/9.png"",""time"":902},{""stimulus"":""img/1to2/10.png"",""time"":996},{""stimulus"":""img/1to2/11.png"",""time"":1094},{""stimulus"":""img/1to2/12.png"",""time"":1200}]","[]"
"image-keyboard-response","138","173203","0.0-5.0-1.67","5c9432caec114b0001419276","bdp_cybrbll","Sun Mar 26 2023 15:48:21 GMT-0500 (Central Daylight Time)","454559","1","3","","","","choice","","429","","img/2to1/1.png","2","158","266","0.5","0.5","2","3","",""
"animation","139","174500","0.0-5.0-2.67","5c9432caec114b0001419276","bdp_cybrbll","Sun Mar 26 2023 15:48:21 GMT-0500 (Central Daylight Time)","454559","1","3","","","","","","","","","","158","","","","2","3","[{""stimulus"":""img/2to3/1.png"",""time"":102},{""stimulus"":""img/2to3/2.png"",""time"":208},{""stimulus"":""img/2to3/3.png"",""time"":302},{""stimulus"":""img/2to3/4.png"",""time"":403},{""stimulus"":""img/2to3/5.png"",""time"":507},{""stimulus"":""img/2to3/6.png"",""time"":598},{""stimulus"":""img/2to3/7.png"",""time"":707},{""stimulus"":""img/2to3/8.png"",""time"":799},{""stimulus"":""img/2to3/9.png"",""time"":899},{""stimulus"":""img/2to3/10.png"",""time"":1001},{""stimulus"":""img/2to3/11.png"",""time"":1099},{""stimulus"":""img/2to3/12.png"",""time"":1195}]","[]"
"image-keyboard-response","140","174982","0.0-5.0-1.68","5c9432caec114b0001419276","bdp_cybrbll","Sun Mar 26 2023 15:48:21 GMT-0500 (Central Daylight Time)","454559","1","3","","","","observe","","null","","img/3to2/1.png","null","157","469","0.5","0.5","3","2","",""
"animation","141","176278","0.0-5.0-2.68","5c9432caec114b0001419276","bdp_cybrbll","Sun Mar 26 2023 15:48:21 GMT-0500 (Central Daylight Time)","454559","1","3","","","","","","","","","","157","","","","3","2","[{""stimulus"":""img/3to2/1.png"",""time"":109},{""stimulus"":""img/3to2/2.png"",""time"":208},{""stimulus"":""img/3to2/3.png"",""time"":304},{""stimulus"":""img/3to2/4.png"",""time"":408},{""stimulus"":""img/3to2/5.png"",""time"":504},{""stimulus"":""img/3to2/6.png"",""time"":597},{""stimulus"":""img/3to2/7.png"",""time"":704},{""stimulus"":""img/3to2/8.png"",""time"":800},{""stimulus"":""img/3to2/9.png"",""time"":904},{""stimulus"":""img/3to2/10.png"",""time"":996},{""stimulus"":""img/3to2/11.png"",""time"":1096},{""stimulus"":""img/3to2/12.png"",""time"":1196}]","[]"
"image-keyboard-response","142","176427","0.0-5.0-1.69","5c9432caec114b0001419276","bdp_cybrbll","Sun Mar 26 2023 15:48:21 GMT-0500 (Central Daylight Time)","454559","1","3","","","","choice","","149","","img/2to1/1.png","1","156","559","0.5","0.5","2","1","",""
"animation","143","177723","0.0-5.0-2.69","5c9432caec114b0001419276","bdp_cybrbll","Sun Mar 26 2023 15:48:21 GMT-0500 (Central Daylight Time)","454559","1","3","","","","","","","","","","156","","","","2","1","[{""stimulus"":""img/2to1/1.png"",""time"":107},{""stimulus"":""img/2to1/2.png"",""time"":211},{""stimulus"":""img/2to1/3.png"",""time"":307},{""stimulus"":""img/2to1/4.png"",""time"":403},{""stimulus"":""img/2to1/5.png"",""time"":507},{""stimulus"":""img/2to1/6.png"",""time"":603},{""stimulus"":""img/2to1/7.png"",""time"":695},{""stimulus"":""img/2to1/8.png"",""time"":799},{""stimulus"":""img/2to1/9.png"",""time"":897},{""stimulus"":""img/2to1/10.png"",""time"":1003},{""stimulus"":""img/2to1/11.png"",""time"":1097},{""stimulus"":""img/2to1/12.png"",""time"":1193}]","[]"
"image-keyboard-response","144","178418","0.0-5.0-1.70","5c9432caec114b0001419276","bdp_cybrbll","Sun Mar 26 2023 15:48:21 GMT-0500 (Central Daylight Time)","454559","1","3","","","","observe","","null","","img/1to3/1.png","null","155","686","0.5","0.5","1","3","",""
"animation","145","179710","0.0-5.0-2.70","5c9432caec114b0001419276","bdp_cybrbll","Sun Mar 26 2023 15:48:21 GMT-0500 (Central Daylight Time)","454559","1","3","","","","","","","","","","155","","","","1","3","[{""stimulus"":""img/1to3/1.png"",""time"":105},{""stimulus"":""img/1to3/2.png"",""time"":211},{""stimulus"":""img/1to3/3.png"",""time"":305},{""stimulus"":""img/1to3/4.png"",""time"":402},{""stimulus"":""img/1to3/5.png"",""time"":505},{""stimulus"":""img/1to3/6.png"",""time"":601},{""stimulus"":""img/1to3/7.png"",""time"":695},{""stimulus"":""img/1to3/8.png"",""time"":802},{""stimulus"":""img/1to3/9.png"",""time"":896},{""stimulus"":""img/1to3/10.png"",""time"":1001},{""stimulus"":""img/1to3/11.png"",""time"":1095},{""stimulus"":""img/1to3/12.png"",""time"":1192}]","[]"
"image-keyboard-response","146","180190","0.0-5.0-1.71","5c9432caec114b0001419276","bdp_cybrbll","Sun Mar 26 2023 15:48:21 GMT-0500 (Central Daylight Time)","454559","1","3","","","","observe","","null","","img/3to2/1.png","null","154","472","0.5","0.5","3","2","",""
"animation","147","181486","0.0-5.0-2.71","5c9432caec114b0001419276","bdp_cybrbll","Sun Mar 26 2023 15:48:21 GMT-0500 (Central Daylight Time)","454559","1","3","","","","","","","","","","154","","","","3","2","[{""stimulus"":""img/3to2/1.png"",""time"":112},{""stimulus"":""img/3to2/2.png"",""time"":208},{""stimulus"":""img/3to2/3.png"",""time"":304},{""stimulus"":""img/3to2/4.png"",""time"":408},{""stimulus"":""img/3to2/5.png"",""time"":504},{""stimulus"":""img/3to2/6.png"",""time"":600},{""stimulus"":""img/3to2/7.png"",""time"":704},{""stimulus"":""img/3to2/8.png"",""time"":800},{""stimulus"":""img/3to2/9.png"",""time"":904},{""stimulus"":""img/3to2/10.png"",""time"":1000},{""stimulus"":""img/3to2/11.png"",""time"":1092},{""stimulus"":""img/3to2/12.png"",""time"":1196}]","[]"
"image-keyboard-response","148","181741","0.0-5.0-1.72","5c9432caec114b0001419276","bdp_cybrbll","Sun Mar 26 2023 15:48:21 GMT-0500 (Central Daylight Time)","454559","1","3","","","","choice","","255","","img/2to1/1.png","1","153","750","0.5","0.5","2","1","",""
"animation","149","183038","0.0-5.0-2.72","5c9432caec114b0001419276","bdp_cybrbll","Sun Mar 26 2023 15:48:21 GMT-0500 (Central Daylight Time)","454559","1","3","","","","","","","","","","153","","","","2","1","[{""stimulus"":""img/2to1/1.png"",""time"":101},{""stimulus"":""img/2to1/2.png"",""time"":208},{""stimulus"":""img/2to1/3.png"",""time"":300},{""stimulus"":""img/2to1/4.png"",""time"":408},{""stimulus"":""img/2to1/5.png"",""time"":503},{""stimulus"":""img/2to1/6.png"",""time"":600},{""stimulus"":""img/2to1/7.png"",""time"":704},{""stimulus"":""img/2to1/8.png"",""time"":798},{""stimulus"":""img/2to1/9.png"",""time"":904},{""stimulus"":""img/2to1/10.png"",""time"":996},{""stimulus"":""img/2to1/11.png"",""time"":1096},{""stimulus"":""img/2to1/12.png"",""time"":1200}]","[]"
"image-keyboard-response","150","183582","0.0-5.0-1.73","5c9432caec114b0001419276","bdp_cybrbll","Sun Mar 26 2023 15:48:21 GMT-0500 (Central Daylight Time)","454559","1","3","","","","observe","","null","","img/1to3/1.png","null","152","532","0.5","0.5","1","3","",""
"animation","151","184878","0.0-5.0-2.73","5c9432caec114b0001419276","bdp_cybrbll","Sun Mar 26 2023 15:48:21 GMT-0500 (Central Daylight Time)","454559","1","3","","","","","","","","","","152","","","","1","3","[{""stimulus"":""img/1to3/1.png"",""time"":112},{""stimulus"":""img/1to3/2.png"",""time"":207},{""stimulus"":""img/1to3/3.png"",""time"":300},{""stimulus"":""img/1to3/4.png"",""time"":404},{""stimulus"":""img/1to3/5.png"",""time"":501},{""stimulus"":""img/1to3/6.png"",""time"":600},{""stimulus"":""img/1to3/7.png"",""time"":704},{""stimulus"":""img/1to3/8.png"",""time"":800},{""stimulus"":""img/1to3/9.png"",""time"":904},{""stimulus"":""img/1to3/10.png"",""time"":999},{""stimulus"":""img/1to3/11.png"",""time"":1096},{""stimulus"":""img/1to3/12.png"",""time"":1200}]","[]"
"image-keyboard-response","152","185350","0.0-5.0-1.74","5c9432caec114b0001419276","bdp_cybrbll","Sun Mar 26 2023 15:48:21 GMT-0500 (Central Daylight Time)","454559","1","3","","","","observe","","null","","img/3to2/1.png","null","151","463","0.5","0.5","3","1","",""
"animation","153","186646","0.0-5.0-2.74","5c9432caec114b0001419276","bdp_cybrbll","Sun Mar 26 2023 15:48:21 GMT-0500 (Central Daylight Time)","454559","1","3","","","","","","","","","","151","","","","3","1","[{""stimulus"":""img/3to1/1.png"",""time"":112},{""stimulus"":""img/3to1/2.png"",""time"":208},{""stimulus"":""img/3to1/3.png"",""time"":300},{""stimulus"":""img/3to1/4.png"",""time"":404},{""stimulus"":""img/3to1/5.png"",""time"":504},{""stimulus"":""img/3to1/6.png"",""time"":600},{""stimulus"":""img/3to1/7.png"",""time"":704},{""stimulus"":""img/3to1/8.png"",""time"":800},{""stimulus"":""img/3to1/9.png"",""time"":904},{""stimulus"":""img/3to1/10.png"",""time"":1000},{""stimulus"":""img/3to1/11.png"",""time"":1096},{""stimulus"":""img/3to1/12.png"",""time"":1200}]","[]"
"image-keyboard-response","154","187106","0.0-5.0-1.75","5c9432caec114b0001419276","bdp_cybrbll","Sun Mar 26 2023 15:48:21 GMT-0500 (Central Daylight Time)","454559","1","3","","","","observe","","null","","img/1to3/1.png","null","150","453","0.5","0.5","1","2","",""
"animation","155","188398","0.0-5.0-2.75","5c9432caec114b0001419276","bdp_cybrbll","Sun Mar 26 2023 15:48:21 GMT-0500 (Central Daylight Time)","454559","1","3","","","","","","","","","","150","","","","1","2","[{""stimulus"":""img/1to2/1.png"",""time"":104},{""stimulus"":""img/1to2/2.png"",""time"":199},{""stimulus"":""img/1to2/3.png"",""time"":300},{""stimulus"":""img/1to2/4.png"",""time"":404},{""stimulus"":""img/1to2/5.png"",""time"":497},{""stimulus"":""img/1to2/6.png"",""time"":599},{""stimulus"":""img/1to2/7.png"",""time"":695},{""stimulus"":""img/1to2/8.png"",""time"":804},{""stimulus"":""img/1to2/9.png"",""time"":900},{""stimulus"":""img/1to2/10.png"",""time"":996},{""stimulus"":""img/1to2/11.png"",""time"":1099},{""stimulus"":""img/1to2/12.png"",""time"":1196}]","[]"
"image-keyboard-response","156","188558","0.0-5.0-1.76","5c9432caec114b0001419276","bdp_cybrbll","Sun Mar 26 2023 15:48:21 GMT-0500 (Central Daylight Time)","454559","1","3","","","","choice","","158","","img/2to1/1.png","2","149","142","0.5","0.1","2","3","",""
"animation","157","189854","0.0-5.0-2.76","5c9432caec114b0001419276","bdp_cybrbll","Sun Mar 26 2023 15:48:21 GMT-0500 (Central Daylight Time)","454559","1","3","","","","","","","","","","149","","","","2","3","[{""stimulus"":""img/2to3/1.png"",""time"":108},{""stimulus"":""img/2to3/2.png"",""time"":208},{""stimulus"":""img/2to3/3.png"",""time"":304},{""stimulus"":""img/2to3/4.png"",""time"":408},{""stimulus"":""img/2to3/5.png"",""time"":504},{""stimulus"":""img/2to3/6.png"",""time"":600},{""stimulus"":""img/2to3/7.png"",""time"":704},{""stimulus"":""img/2to3/8.png"",""time"":800},{""stimulus"":""img/2to3/9.png"",""time"":904},{""stimulus"":""img/2to3/10.png"",""time"":1000},{""stimulus"":""img/2to3/11.png"",""time"":1096},{""stimulus"":""img/2to3/12.png"",""time"":1200}]","[]"
"image-keyboard-response","158","190630","0.0-5.0-1.77","5c9432caec114b0001419276","bdp_cybrbll","Sun Mar 26 2023 15:48:21 GMT-0500 (Central Daylight Time)","454559","1","3","","","","observe","","null","","img/3to2/1.png","null","148","768","0.5","0.1","3","1","",""
"animation","159","191921","0.0-5.0-2.77","5c9432caec114b0001419276","bdp_cybrbll","Sun Mar 26 2023 15:48:21 GMT-0500 (Central Daylight Time)","454559","1","3","","","","","","","","","","148","","","","3","1","[{""stimulus"":""img/3to1/1.png"",""time"":112},{""stimulus"":""img/3to1/2.png"",""time"":208},{""stimulus"":""img/3to1/3.png"",""time"":304},{""stimulus"":""img/3to1/4.png"",""time"":408},{""stimulus"":""img/3to1/5.png"",""time"":504},{""stimulus"":""img/3to1/6.png"",""time"":600},{""stimulus"":""img/3to1/7.png"",""time"":700},{""stimulus"":""img/3to1/8.png"",""time"":797},{""stimulus"":""img/3to1/9.png"",""time"":904},{""stimulus"":""img/3to1/10.png"",""time"":996},{""stimulus"":""img/3to1/11.png"",""time"":1094},{""stimulus"":""img/3to1/12.png"",""time"":1200}]","[]"
"image-keyboard-response","160","192238","0.0-5.0-1.78","5c9432caec114b0001419276","bdp_cybrbll","Sun Mar 26 2023 15:48:21 GMT-0500 (Central Daylight Time)","454559","1","3","","","","observe","","null","","img/1to3/1.png","null","147","304","0.5","0.1","1","3","",""
"animation","161","193534","0.0-5.0-2.78","5c9432caec114b0001419276","bdp_cybrbll","Sun Mar 26 2023 15:48:21 GMT-0500 (Central Daylight Time)","454559","1","3","","","","","","","","","","147","","","","1","3","[{""stimulus"":""img/1to3/1.png"",""time"":112},{""stimulus"":""img/1to3/2.png"",""time"":203},{""stimulus"":""img/1to3/3.png"",""time"":301},{""stimulus"":""img/1to3/4.png"",""time"":403},{""stimulus"":""img/1to3/5.png"",""time"":499},{""stimulus"":""img/1to3/6.png"",""time"":596},{""stimulus"":""img/1to3/7.png"",""time"":700},{""stimulus"":""img/1to3/8.png"",""time"":799},{""stimulus"":""img/1to3/9.png"",""time"":899},{""stimulus"":""img/1to3/10.png"",""time"":996},{""stimulus"":""img/1to3/11.png"",""time"":1092},{""stimulus"":""img/1to3/12.png"",""time"":1200}]","[]"
"image-keyboard-response","162","193746","0.0-5.0-1.79","5c9432caec114b0001419276","bdp_cybrbll","Sun Mar 26 2023 15:48:21 GMT-0500 (Central Daylight Time)","454559","1","3","","","","observe","","null","","img/3to2/1.png","null","146","203","0.5","0.1","3","1","",""
"animation","163","195046","0.0-5.0-2.79","5c9432caec114b0001419276","bdp_cybrbll","Sun Mar 26 2023 15:48:21 GMT-0500 (Central Daylight Time)","454559","1","3","","","","","","","","","","146","","","","3","1","[{""stimulus"":""img/3to1/1.png"",""time"":109},{""stimulus"":""img/3to1/2.png"",""time"":200},{""stimulus"":""img/3to1/3.png"",""time"":309},{""stimulus"":""img/3to1/4.png"",""time"":405},{""stimulus"":""img/3to1/5.png"",""time"":508},{""stimulus"":""img/3to1/6.png"",""time"":604},{""stimulus"":""img/3to1/7.png"",""time"":696},{""stimulus"":""img/3to1/8.png"",""time"":804},{""stimulus"":""img/3to1/9.png"",""time"":898},{""stimulus"":""img/3to1/10.png"",""time"":992},{""stimulus"":""img/3to1/11.png"",""time"":1099},{""stimulus"":""img/3to1/12.png"",""time"":1196}]","[]"
"image-keyboard-response","164","196038","0.0-5.0-1.80","5c9432caec114b0001419276","bdp_cybrbll","Sun Mar 26 2023 15:48:21 GMT-0500 (Central Daylight Time)","454559","1","3","","","","observe","","null","","img/1to3/1.png","null","145","979","0.5","0.1","1","3","",""
"animation","165","197333","0.0-5.0-2.80","5c9432caec114b0001419276","bdp_cybrbll","Sun Mar 26 2023 15:48:21 GMT-0500 (Central Daylight Time)","454559","1","3","","","","","","","","","","145","","","","1","3","[{""stimulus"":""img/1to3/1.png"",""time"":113},{""stimulus"":""img/1to3/2.png"",""time"":205},{""stimulus"":""img/1to3/3.png"",""time"":304},{""stimulus"":""img/1to3/4.png"",""time"":406},{""stimulus"":""img/1to3/5.png"",""time"":504},{""stimulus"":""img/1to3/6.png"",""time"":600},{""stimulus"":""img/1to3/7.png"",""time"":704},{""stimulus"":""img/1to3/8.png"",""time"":801},{""stimulus"":""img/1to3/9.png"",""time"":900},{""stimulus"":""img/1to3/10.png"",""time"":1000},{""stimulus"":""img/1to3/11.png"",""time"":1096},{""stimulus"":""img/1to3/12.png"",""time"":1201}]","[]"
"image-keyboard-response","166","197542","0.0-5.0-1.81","5c9432caec114b0001419276","bdp_cybrbll","Sun Mar 26 2023 15:48:21 GMT-0500 (Central Daylight Time)","454559","1","3","","","","observe","","null","","img/3to2/1.png","null","144","197","0.5","0.1","3","1","",""
"animation","167","198834","0.0-5.0-2.81","5c9432caec114b0001419276","bdp_cybrbll","Sun Mar 26 2023 15:48:21 GMT-0500 (Central Daylight Time)","454559","1","3","","","","","","","","","","144","","","","3","1","[{""stimulus"":""img/3to1/1.png"",""time"":113},{""stimulus"":""img/3to1/2.png"",""time"":208},{""stimulus"":""img/3to1/3.png"",""time"":304},{""stimulus"":""img/3to1/4.png"",""time"":409},{""stimulus"":""img/3to1/5.png"",""time"":505},{""stimulus"":""img/3to1/6.png"",""time"":597},{""stimulus"":""img/3to1/7.png"",""time"":702},{""stimulus"":""img/3to1/8.png"",""time"":796},{""stimulus"":""img/3to1/9.png"",""time"":897},{""stimulus"":""img/3to1/10.png"",""time"":996},{""stimulus"":""img/3to1/11.png"",""time"":1097},{""stimulus"":""img/3to1/12.png"",""time"":1200}]","[]"
"image-keyboard-response","168","200310","0.0-5.0-1.82","5c9432caec114b0001419276","bdp_cybrbll","Sun Mar 26 2023 15:48:21 GMT-0500 (Central Daylight Time)","454559","1","3","","","","observe","","null","","img/1to3/1.png","null","143","1466","0.5","0.1","1","3","",""
"animation","169","201606","0.0-5.0-2.82","5c9432caec114b0001419276","bdp_cybrbll","Sun Mar 26 2023 15:48:21 GMT-0500 (Central Daylight Time)","454559","1","3","","","","","","","","","","143","","","","1","3","[{""stimulus"":""img/1to3/1.png"",""time"":107},{""stimulus"":""img/1to3/2.png"",""time"":204},{""stimulus"":""img/1to3/3.png"",""time"":299},{""stimulus"":""img/1to3/4.png"",""time"":400},{""stimulus"":""img/1to3/5.png"",""time"":500},{""stimulus"":""img/1to3/6.png"",""time"":597},{""stimulus"":""img/1to3/7.png"",""time"":696},{""stimulus"":""img/1to3/8.png"",""time"":800},{""stimulus"":""img/1to3/9.png"",""time"":894},{""stimulus"":""img/1to3/10.png"",""time"":1000},{""stimulus"":""img/1to3/11.png"",""time"":1096},{""stimulus"":""img/1to3/12.png"",""time"":1200}]","[]"
"image-keyboard-response","170","202146","0.0-5.0-1.83","5c9432caec114b0001419276","bdp_cybrbll","Sun Mar 26 2023 15:48:21 GMT-0500 (Central Daylight Time)","454559","1","3","","","","observe","","null","","img/3to2/1.png","null","142","532","0.5","0.1","3","1","",""
"animation","171","203446","0.0-5.0-2.83","5c9432caec114b0001419276","bdp_cybrbll","Sun Mar 26 2023 15:48:21 GMT-0500 (Central Daylight Time)","454559","1","3","","","","","","","","","","142","","","","3","1","[{""stimulus"":""img/3to1/1.png"",""time"":109},{""stimulus"":""img/3to1/2.png"",""time"":205},{""stimulus"":""img/3to1/3.png"",""time"":298},{""stimulus"":""img/3to1/4.png"",""time"":405},{""stimulus"":""img/3to1/5.png"",""time"":504},{""stimulus"":""img/3to1/6.png"",""time"":601},{""stimulus"":""img/3to1/7.png"",""time"":701},{""stimulus"":""img/3to1/8.png"",""time"":803},{""stimulus"":""img/3to1/9.png"",""time"":901},{""stimulus"":""img/3to1/10.png"",""time"":996},{""stimulus"":""img/3to1/11.png"",""time"":1101},{""stimulus"":""img/3to1/12.png"",""time"":1197}]","[]"
"image-keyboard-response","172","203838","0.0-5.0-1.84","5c9432caec114b0001419276","bdp_cybrbll","Sun Mar 26 2023 15:48:21 GMT-0500 (Central Daylight Time)","454559","1","3","","","","observe","","null","","img/1to3/1.png","null","141","378","0.5","0.1","1","3","",""
"animation","173","205134","0.0-5.0-2.84","5c9432caec114b0001419276","bdp_cybrbll","Sun Mar 26 2023 15:48:21 GMT-0500 (Central Daylight Time)","454559","1","3","","","","","","","","","","141","","","","1","3","[{""stimulus"":""img/1to3/1.png"",""time"":110},{""stimulus"":""img/1to3/2.png"",""time"":208},{""stimulus"":""img/1to3/3.png"",""time"":304},{""stimulus"":""img/1to3/4.png"",""time"":408},{""stimulus"":""img/1to3/5.png"",""time"":504},{""stimulus"":""img/1to3/6.png"",""time"":600},{""stimulus"":""img/1to3/7.png"",""time"":704},{""stimulus"":""img/1to3/8.png"",""time"":800},{""stimulus"":""img/1to3/9.png"",""time"":904},{""stimulus"":""img/1to3/10.png"",""time"":1000},{""stimulus"":""img/1to3/11.png"",""time"":1095},{""stimulus"":""img/1to3/12.png"",""time"":1200}]","[]"
"image-keyboard-response","174","205494","0.0-5.0-1.85","5c9432caec114b0001419276","bdp_cybrbll","Sun Mar 26 2023 15:48:21 GMT-0500 (Central Daylight Time)","454559","1","3","","","","observe","","null","","img/3to2/1.png","null","140","347","0.5","0.1","3","1","",""
"animation","175","206790","0.0-5.0-2.85","5c9432caec114b0001419276","bdp_cybrbll","Sun Mar 26 2023 15:48:21 GMT-0500 (Central Daylight Time)","454559","1","3","","","","","","","","","","140","","","","3","1","[{""stimulus"":""img/3to1/1.png"",""time"":109},{""stimulus"":""img/3to1/2.png"",""time"":208},{""stimulus"":""img/3to1/3.png"",""time"":304},{""stimulus"":""img/3to1/4.png"",""time"":408},{""stimulus"":""img/3to1/5.png"",""time"":501},{""stimulus"":""img/3to1/6.png"",""time"":599},{""stimulus"":""img/3to1/7.png"",""time"":704},{""stimulus"":""img/3to1/8.png"",""time"":800},{""stimulus"":""img/3to1/9.png"",""time"":901},{""stimulus"":""img/3to1/10.png"",""time"":1000},{""stimulus"":""img/3to1/11.png"",""time"":1096},{""stimulus"":""img/3to1/12.png"",""time"":1200}]","[]"
"image-keyboard-response","176","207087","0.0-5.0-1.86","5c9432caec114b0001419276","bdp_cybrbll","Sun Mar 26 2023 15:48:21 GMT-0500 (Central Daylight Time)","454559","1","3","","","","observe","","null","","img/1to3/1.png","null","139","284","0.5","0.1","1","2","",""
"animation","177","208383","0.0-5.0-2.86","5c9432caec114b0001419276","bdp_cybrbll","Sun Mar 26 2023 15:48:21 GMT-0500 (Central Daylight Time)","454559","1","3","","","","","","","","","","139","","","","1","2","[{""stimulus"":""img/1to2/1.png"",""time"":112},{""stimulus"":""img/1to2/2.png"",""time"":208},{""stimulus"":""img/1to2/3.png"",""time"":299},{""stimulus"":""img/1to2/4.png"",""time"":404},{""stimulus"":""img/1to2/5.png"",""time"":504},{""stimulus"":""img/1to2/6.png"",""time"":600},{""stimulus"":""img/1to2/7.png"",""time"":700},{""stimulus"":""img/1to2/8.png"",""time"":800},{""stimulus"":""img/1to2/9.png"",""time"":904},{""stimulus"":""img/1to2/10.png"",""time"":1000},{""stimulus"":""img/1to2/11.png"",""time"":1096},{""stimulus"":""img/1to2/12.png"",""time"":1200}]","[]"
"image-keyboard-response","178","208661","0.0-5.0-1.87","5c9432caec114b0001419276","bdp_cybrbll","Sun Mar 26 2023 15:48:21 GMT-0500 (Central Daylight Time)","454559","1","3","","","","choice","","278","","img/2to1/1.png","2","138","359","0.5","0.1","2","3","",""
"animation","179","209955","0.0-5.0-2.87","5c9432caec114b0001419276","bdp_cybrbll","Sun Mar 26 2023 15:48:21 GMT-0500 (Central Daylight Time)","454559","1","3","","","","","","","","","","138","","","","2","3","[{""stimulus"":""img/2to3/1.png"",""time"":100},{""stimulus"":""img/2to3/2.png"",""time"":204},{""stimulus"":""img/2to3/3.png"",""time"":305},{""stimulus"":""img/2to3/4.png"",""time"":409},{""stimulus"":""img/2to3/5.png"",""time"":505},{""stimulus"":""img/2to3/6.png"",""time"":597},{""stimulus"":""img/2to3/7.png"",""time"":701},{""stimulus"":""img/2to3/8.png"",""time"":801},{""stimulus"":""img/2to3/9.png"",""time"":892},{""stimulus"":""img/2to3/10.png"",""time"":1001},{""stimulus"":""img/2to3/11.png"",""time"":1097},{""stimulus"":""img/2to3/12.png"",""time"":1201}]","[]"
"image-keyboard-response","180","210478","0.0-5.0-1.88","5c9432caec114b0001419276","bdp_cybrbll","Sun Mar 26 2023 15:48:21 GMT-0500 (Central Daylight Time)","454559","1","3","","","","observe","","null","","img/3to2/1.png","null","137","510","0.5","0.1","3","1","",""
"animation","181","211775","0.0-5.0-2.88","5c9432caec114b0001419276","bdp_cybrbll","Sun Mar 26 2023 15:48:21 GMT-0500 (Central Daylight Time)","454559","1","3","","","","","","","","","","137","","","","3","1","[{""stimulus"":""img/3to1/1.png"",""time"":102},{""stimulus"":""img/3to1/2.png"",""time"":204},{""stimulus"":""img/3to1/3.png"",""time"":300},{""stimulus"":""img/3to1/4.png"",""time"":404},{""stimulus"":""img/3to1/5.png"",""time"":505},{""stimulus"":""img/3to1/6.png"",""time"":601},{""stimulus"":""img/3to1/7.png"",""time"":705},{""stimulus"":""img/3to1/8.png"",""time"":801},{""stimulus"":""img/3to1/9.png"",""time"":897},{""stimulus"":""img/3to1/10.png"",""time"":997},{""stimulus"":""img/3to1/11.png"",""time"":1097},{""stimulus"":""img/3to1/12.png"",""time"":1201}]","[]"
"image-keyboard-response","182","212199","0.0-5.0-1.89","5c9432caec114b0001419276","bdp_cybrbll","Sun Mar 26 2023 15:48:21 GMT-0500 (Central Daylight Time)","454559","1","3","","","","observe","","null","","img/1to3/1.png","null","136","416","0.5","0.1","1","2","",""
"animation","183","213495","0.0-5.0-2.89","5c9432caec114b0001419276","bdp_cybrbll","Sun Mar 26 2023 15:48:21 GMT-0500 (Central Daylight Time)","454559","1","3","","","","","","","","","","136","","","","1","2","[{""stimulus"":""img/1to2/1.png"",""time"":108},{""stimulus"":""img/1to2/2.png"",""time"":208},{""stimulus"":""img/1to2/3.png"",""time"":303},{""stimulus"":""img/1to2/4.png"",""time"":408},{""stimulus"":""img/1to2/5.png"",""time"":504},{""stimulus"":""img/1to2/6.png"",""time"":596},{""stimulus"":""img/1to2/7.png"",""time"":700},{""stimulus"":""img/1to2/8.png"",""time"":796},{""stimulus"":""img/1to2/9.png"",""time"":904},{""stimulus"":""img/1to2/10.png"",""time"":1000},{""stimulus"":""img/1to2/11.png"",""time"":1096},{""stimulus"":""img/1to2/12.png"",""time"":1200}]","[]"
"image-keyboard-response","184","214121","0.0-5.0-1.90","5c9432caec114b0001419276","bdp_cybrbll","Sun Mar 26 2023 15:48:21 GMT-0500 (Central Daylight Time)","454559","1","3","","","","choice","","626","","img/2to1/1.png","1","135","425","0.5","0.1","2","1","",""
"animation","185","215411","0.0-5.0-2.90","5c9432caec114b0001419276","bdp_cybrbll","Sun Mar 26 2023 15:48:21 GMT-0500 (Central Daylight Time)","454559","1","3","","","","","","","","","","135","","","","2","1","[{""stimulus"":""img/2to1/1.png"",""time"":108},{""stimulus"":""img/2to1/2.png"",""time"":204},{""stimulus"":""img/2to1/3.png"",""time"":310},{""stimulus"":""img/2to1/4.png"",""time"":404},{""stimulus"":""img/2to1/5.png"",""time"":501},{""stimulus"":""img/2to1/6.png"",""time"":601},{""stimulus"":""img/2to1/7.png"",""time"":697},{""stimulus"":""img/2to1/8.png"",""time"":793},{""stimulus"":""img/2to1/9.png"",""time"":898},{""stimulus"":""img/2to1/10.png"",""time"":995},{""stimulus"":""img/2to1/11.png"",""time"":1097},{""stimulus"":""img/2to1/12.png"",""time"":1195}]","[]"
"image-keyboard-response","186","215789","0.0-5.0-1.91","5c9432caec114b0001419276","bdp_cybrbll","Sun Mar 26 2023 15:48:21 GMT-0500 (Central Daylight Time)","454559","1","3","","","","observe","","null","","img/1to3/1.png","null","134","372","0.5","0.1","1","3","",""
"animation","187","217087","0.0-5.0-2.91","5c9432caec114b0001419276","bdp_cybrbll","Sun Mar 26 2023 15:48:21 GMT-0500 (Central Daylight Time)","454559","1","3","","","","","","","","","","134","","","","1","3","[{""stimulus"":""img/1to3/1.png"",""time"":101},{""stimulus"":""img/1to3/2.png"",""time"":210},{""stimulus"":""img/1to3/3.png"",""time"":301},{""stimulus"":""img/1to3/4.png"",""time"":400},{""stimulus"":""img/1to3/5.png"",""time"":501},{""stimulus"":""img/1to3/6.png"",""time"":598},{""stimulus"":""img/1to3/7.png"",""time"":702},{""stimulus"":""img/1to3/8.png"",""time"":801},{""stimulus"":""img/1to3/9.png"",""time"":898},{""stimulus"":""img/1to3/10.png"",""time"":1000},{""stimulus"":""img/1to3/11.png"",""time"":1093},{""stimulus"":""img/1to3/12.png"",""time"":1194}]","[]"
"image-keyboard-response","188","217356","0.0-5.0-1.92","5c9432caec114b0001419276","bdp_cybrbll","Sun Mar 26 2023 15:48:21 GMT-0500 (Central Daylight Time)","454559","1","3","","","","observe","","null","","img/3to2/1.png","null","133","262","0.5","0.1","3","1","",""
"animation","189","218650","0.0-5.0-2.92","5c9432caec114b0001419276","bdp_cybrbll","Sun Mar 26 2023 15:48:21 GMT-0500 (Central Daylight Time)","454559","1","3","","","","","","","","","","133","","","","3","1","[{""stimulus"":""img/3to1/1.png"",""time"":102},{""stimulus"":""img/3to1/2.png"",""time"":211},{""stimulus"":""img/3to1/3.png"",""time"":306},{""stimulus"":""img/3to1/4.png"",""time"":400},{""stimulus"":""img/3to1/5.png"",""time"":504},{""stimulus"":""img/3to1/6.png"",""time"":600},{""stimulus"":""img/3to1/7.png"",""time"":694},{""stimulus"":""img/3to1/8.png"",""time"":800},{""stimulus"":""img/3to1/9.png"",""time"":899},{""stimulus"":""img/3to1/10.png"",""time"":998},{""stimulus"":""img/3to1/11.png"",""time"":1099},{""stimulus"":""img/3to1/12.png"",""time"":1191}]","[]"
"image-keyboard-response","190","218931","0.0-5.0-1.93","5c9432caec114b0001419276","bdp_cybrbll","Sun Mar 26 2023 15:48:21 GMT-0500 (Central Daylight Time)","454559","1","3","","","","observe","","null","","img/1to3/1.png","null","132","277","0.5","0.1","1","2","",""
