"trial_type","trial_index","time_elapsed","internal_node_id","subject_id","task","startTime","totalTime","fairPartner","unfairPartner","view_history","rt","event","trial","time","trialtype","success","stimulus","key_press","throwsLeft","pFair","pUnfair","holder","receiver","animation_sequence","responses","rtDur"
"pavlovia","0","3","0.0-0.0","taskTesting","bdp_cybrbll","Mon Mar 06 2023 15:00:08 GMT-0500 (Eastern Standard Time)","415587","3","1","","","","","","","","","","","","","","","","",""
"instructions","1","1796","0.0-1.0","taskTesting","bdp_cybrbll","Mon Mar 06 2023 15:00:08 GMT-0500 (Eastern Standard Time)","415587","3","1","[{""page_index"":0,""viewing_time"":1792}]","1792","","","","","","","","","","","","","","",""
"","","","","taskTesting","bdp_cybrbll","Mon Mar 06 2023 15:00:08 GMT-0500 (Eastern Standard Time)","415587","3","1","","","fullscreenenter","2","3856","fullscreenenter","","","","","","","","","","",""
"fullscreen","2","4852","0.0-2.0","taskTesting","bdp_cybrbll","Mon Mar 06 2023 15:00:08 GMT-0500 (Eastern Standard Time)","415587","3","1","","","","","","","true","","","","","","","","","",""
"instructions","3","8909","0.0-4.0","taskTesting","bdp_cybrbll","Mon Mar 06 2023 15:00:08 GMT-0500 (Eastern Standard Time)","415587","3","1","[{""page_index"":0,""viewing_time"":4056}]","4056","","","","","","","","","","","","","","",""
"image-keyboard-response","4","13188","0.0-5.0-1.0","taskTesting","bdp_cybrbll","Mon Mar 06 2023 15:00:08 GMT-0500 (Eastern Standard Time)","415587","3","1","","4278","","","","","","img/2to1/1.png","1","225","0.6","0.6","2","1","","",""
"animation","5","14485","0.0-5.0-2.0","taskTesting","bdp_cybrbll","Mon Mar 06 2023 15:00:08 GMT-0500 (Eastern Standard Time)","415587","3","1","","","","","","","","","","225","","","2","1","[{""stimulus"":""img/2to1/1.png"",""time"":114},{""stimulus"":""img/2to1/2.png"",""time"":209},{""stimulus"":""img/2to1/3.png"",""time"":304},{""stimulus"":""img/2to1/4.png"",""time"":400},{""stimulus"":""img/2to1/5.png"",""time"":511},{""stimulus"":""img/2to1/6.png"",""time"":609},{""stimulus"":""img/2to1/7.png"",""time"":704},{""stimulus"":""img/2to1/8.png"",""time"":801},{""stimulus"":""img/2to1/9.png"",""time"":900},{""stimulus"":""img/2to1/10.png"",""time"":992},{""stimulus"":""img/2to1/11.png"",""time"":1103},{""stimulus"":""img/2to1/12.png"",""time"":1202}]","[]","194,1818,234,391,163,306,216,326,569,689,309,453,250,489,493,629,739,282,252,454,261,577,289,414,1087,911,987,618,409,628,197,300,274,549,278,768,1092,778,245,591,303,650,385,425,735,579,304,644,404,354,220,1094,549,1471,515,521,1239,272,641,703,542,1466,739,219,718,833,522,347,334,185,284,541,493,439,1204,616,291,460,609,243,282,434,471,388,261,923,987,419,474,375,352,380,261,1194,285,1158,443,254,264,707,177,538,312,795,1108,413,455,616,1353,513,214,317,247,225,415,836,506,268,1189,289,495,384,198,573,1262,871,200,203,263,507,627,194,445,469,392,840,448,783,509,403,1444,307,1267,379,741,630,436,188,326,1560,322,720,872,242,446,388,367,341,536,325,317,178,634,206,255,433,416,1569,1236,413,1016,803,552,578,500,334,989,859,708,1098,493,596,311,836,225,662,1861,192,885,244,408,431,589,350,356,346,693,647,277,1062,489,177,736,175,923,162,243,196,674,911,791,848,530,282,160,490,589,334,584,986,265,571,1132,265,743,1567,566,552,276,209,581,228,355,433,262,331,1324,189,474,172,289,380,421,370,750,191,567,556,550,1268,462,398,549,305,197,554,188,312,584,463,363,228,324,197,253,628,514,498,302,297,727,326,546,266,530,325,287,928,440,512,332,1057,255,425,457,511,627,484,407,355,266,598,289,527,914,222,685,730,222,410,511,254,771,864,312,451,799,1232,162,734,402,319,1163,639,618,348,1008,167,1271,276,463,450,1188,268,616,620,492,384,249,663,706,935,503,389,660,264,310,459,500,246,359,888,292,510,468,420,453,401,371,226,283,539,258,229,540,756,356,680,1458,610,180,157,241,761,523,309,269,354,679,523,467,1269,510,386,409,585,522,144,349,293,442,318,871,322,188,450,456,546,290,853,345,651,213,610,573,416,685,576,283,350,260,513,1076,311,568,266,362,895,614,748,229,443,640,795,607,1474,302,440,345,1180,390,1066,343,388,149,837,911,554,392,354,881,413,835,442,369,408,1150,236,872,324,248,834,215,382,556,621,547,575,946,496,388,415,858,379,444,415,328,394,483,559,849,236,368,306,248,488,628,311,779,365,1509,715,642,321,350,839,543,385,687,559,283,480,527,169,202,794,265,400,819,1004,544,228,242,435,759,841,534,719,412,178,262,341,682,1042,1603,691,793,555,1161,291,321,225,333,266,1805,680,292,286,218,1832,410,704,630,314,410,776,488,423,159,359,224,724,909,1249,336,500,558,444,535,417,279,440,1293,871,321,258,249,694,483,672,481,335,281,943,673,681,394,921,480,317,329,274,506,638,843,940,532,229,243,329,1203,501,499,293,468,298,310,921,880,788,490,458,707,701,453,736,289,450,371,463,1010,391,313,1685,544,247,215,526,529,264,888,878,281,499,300,1177,270,457,286,273,442,896,348,791,785,563,1131,144,290,671,550,307,339,502,505,257,619,804,329,195,862,274,292,494,579,325,589,811,473,902,897,604,367,318,666,835,533,265,589,298,777,314,800,325,732,394,329,682,165,484,1031,291,791,637,347,687,800,1472,510,443,130,246,280,716,191,258,638,303,347,765,254,399,744,1001,965,605,286,363,415,458,731,423,319,597,499,381,788,247,599,382,159,518,249,974,281,408,226,250,411,526,776,340,552,330,449,337,262,337,685,619,511,1163,585,178,432,682,293,187,259,1175,149,686,358,753,409,284,620,1257,413,251,1036,279,335,503,395,369,416,414,555,235,483,350,307,906,366,378,440,463,239,585,376,300,392,520,957,627,424,350,1042,1632,487,345,361,429,1137,921,1562,293,272,603,219,230,408,359,674,709,231,1088,787,373,579,308,551,238,181,331,616,302,165,276,325,337,526,298,372,351,536,245,363,420,575,526,331,336,502,582,343,310,545,481,484,265,599,406,339,751,594,639,208,847,819,666,919,618,406,222,726,273,414,449,472,668,328,450,215,235,278,499,372"
"image-keyboard-response","6","15383","0.0-5.0-1.1","taskTesting","bdp_cybrbll","Mon Mar 06 2023 15:00:08 GMT-0500 (Eastern Standard Time)","415587","3","1","","null","","","","","","img/1to3/1.png","null","224","0.6","0.6","1","3","","",""
"animation","7","16679","0.0-5.0-2.1","taskTesting","bdp_cybrbll","Mon Mar 06 2023 15:00:08 GMT-0500 (Eastern Standard Time)","415587","3","1","","","","","","","","","","224","","","1","3","[{""stimulus"":""img/1to3/1.png"",""time"":110},{""stimulus"":""img/1to3/2.png"",""time"":209},{""stimulus"":""img/1to3/3.png"",""time"":301},{""stimulus"":""img/1to3/4.png"",""time"":401},{""stimulus"":""img/1to3/5.png"",""time"":511},{""stimulus"":""img/1to3/6.png"",""time"":610},{""stimulus"":""img/1to3/7.png"",""time"":703},{""stimulus"":""img/1to3/8.png"",""time"":801},{""stimulus"":""img/1to3/9.png"",""time"":893},{""stimulus"":""img/1to3/10.png"",""time"":993},{""stimulus"":""img/1to3/11.png"",""time"":1103},{""stimulus"":""img/1to3/12.png"",""time"":1200}]","[]","194,1818,234,391,163,306,216,326,569,689,309,453,250,489,493,629,739,282,252,454,261,577,289,414,1087,911,987,618,409,628,197,300,274,549,278,768,1092,778,245,591,303,650,385,425,735,579,304,644,404,354,220,1094,549,1471,515,521,1239,272,641,703,542,1466,739,219,718,833,522,347,334,185,284,541,493,439,1204,616,291,460,609,243,282,434,471,388,261,923,987,419,474,375,352,380,261,1194,285,1158,443,254,264,707,177,538,312,795,1108,413,455,616,1353,513,214,317,247,225,415,836,506,268,1189,289,495,384,198,573,1262,871,200,203,263,507,627,194,445,469,392,840,448,783,509,403,1444,307,1267,379,741,630,436,188,326,1560,322,720,872,242,446,388,367,341,536,325,317,178,634,206,255,433,416,1569,1236,413,1016,803,552,578,500,334,989,859,708,1098,493,596,311,836,225,662,1861,192,885,244,408,431,589,350,356,346,693,647,277,1062,489,177,736,175,923,162,243,196,674,911,791,848,530,282,160,490,589,334,584,986,265,571,1132,265,743,1567,566,552,276,209,581,228,355,433,262,331,1324,189,474,172,289,380,421,370,750,191,567,556,550,1268,462,398,549,305,197,554,188,312,584,463,363,228,324,197,253,628,514,498,302,297,727,326,546,266,530,325,287,928,440,512,332,1057,255,425,457,511,627,484,407,355,266,598,289,527,914,222,685,730,222,410,511,254,771,864,312,451,799,1232,162,734,402,319,1163,639,618,348,1008,167,1271,276,463,450,1188,268,616,620,492,384,249,663,706,935,503,389,660,264,310,459,500,246,359,888,292,510,468,420,453,401,371,226,283,539,258,229,540,756,356,680,1458,610,180,157,241,761,523,309,269,354,679,523,467,1269,510,386,409,585,522,144,349,293,442,318,871,322,188,450,456,546,290,853,345,651,213,610,573,416,685,576,283,350,260,513,1076,311,568,266,362,895,614,748,229,443,640,795,607,1474,302,440,345,1180,390,1066,343,388,149,837,911,554,392,354,881,413,835,442,369,408,1150,236,872,324,248,834,215,382,556,621,547,575,946,496,388,415,858,379,444,415,328,394,483,559,849,236,368,306,248,488,628,311,779,365,1509,715,642,321,350,839,543,385,687,559,283,480,527,169,202,794,265,400,819,1004,544,228,242,435,759,841,534,719,412,178,262,341,682,1042,1603,691,793,555,1161,291,321,225,333,266,1805,680,292,286,218,1832,410,704,630,314,410,776,488,423,159,359,224,724,909,1249,336,500,558,444,535,417,279,440,1293,871,321,258,249,694,483,672,481,335,281,943,673,681,394,921,480,317,329,274,506,638,843,940,532,229,243,329,1203,501,499,293,468,298,310,921,880,788,490,458,707,701,453,736,289,450,371,463,1010,391,313,1685,544,247,215,526,529,264,888,878,281,499,300,1177,270,457,286,273,442,896,348,791,785,563,1131,144,290,671,550,307,339,502,505,257,619,804,329,195,862,274,292,494,579,325,589,811,473,902,897,604,367,318,666,835,533,265,589,298,777,314,800,325,732,394,329,682,165,484,1031,291,791,637,347,687,800,1472,510,443,130,246,280,716,191,258,638,303,347,765,254,399,744,1001,965,605,286,363,415,458,731,423,319,597,499,381,788,247,599,382,159,518,249,974,281,408,226,250,411,526,776,340,552,330,449,337,262,337,685,619,511,1163,585,178,432,682,293,187,259,1175,149,686,358,753,409,284,620,1257,413,251,1036,279,335,503,395,369,416,414,555,235,483,350,307,906,366,378,440,463,239,585,376,300,392,520,957,627,424,350,1042,1632,487,345,361,429,1137,921,1562,293,272,603,219,230,408,359,674,709,231,1088,787,373,579,308,551,238,181,331,616,302,165,276,325,337,526,298,372,351,536,245,363,420,575,526,331,336,502,582,343,310,545,481,484,265,599,406,339,751,594,639,208,847,819,666,919,618,406,222,726,273,414,449,472,668,328,450,215,235,278,499,372"
"image-keyboard-response","8","17269","0.0-5.0-1.2","taskTesting","bdp_cybrbll","Mon Mar 06 2023 15:00:08 GMT-0500 (Eastern Standard Time)","415587","3","1","","null","","","","","","img/3to2/1.png","null","223","0.6","0.6","3","2","","",""
"animation","9","18565","0.0-5.0-2.2","taskTesting","bdp_cybrbll","Mon Mar 06 2023 15:00:08 GMT-0500 (Eastern Standard Time)","415587","3","1","","","","","","","","","","223","","","3","2","[{""stimulus"":""img/3to2/1.png"",""time"":114},{""stimulus"":""img/3to2/2.png"",""time"":209},{""stimulus"":""img/3to2/3.png"",""time"":307},{""stimulus"":""img/3to2/4.png"",""time"":403},{""stimulus"":""img/3to2/5.png"",""time"":512},{""stimulus"":""img/3to2/6.png"",""time"":610},{""stimulus"":""img/3to2/7.png"",""time"":706},{""stimulus"":""img/3to2/8.png"",""time"":801},{""stimulus"":""img/3to2/9.png"",""time"":897},{""stimulus"":""img/3to2/10.png"",""time"":993},{""stimulus"":""img/3to2/11.png"",""time"":1106},{""stimulus"":""img/3to2/12.png"",""time"":1202}]","[]","194,1818,234,391,163,306,216,326,569,689,309,453,250,489,493,629,739,282,252,454,261,577,289,414,1087,911,987,618,409,628,197,300,274,549,278,768,1092,778,245,591,303,650,385,425,735,579,304,644,404,354,220,1094,549,1471,515,521,1239,272,641,703,542,1466,739,219,718,833,522,347,334,185,284,541,493,439,1204,616,291,460,609,243,282,434,471,388,261,923,987,419,474,375,352,380,261,1194,285,1158,443,254,264,707,177,538,312,795,1108,413,455,616,1353,513,214,317,247,225,415,836,506,268,1189,289,495,384,198,573,1262,871,200,203,263,507,627,194,445,469,392,840,448,783,509,403,1444,307,1267,379,741,630,436,188,326,1560,322,720,872,242,446,388,367,341,536,325,317,178,634,206,255,433,416,1569,1236,413,1016,803,552,578,500,334,989,859,708,1098,493,596,311,836,225,662,1861,192,885,244,408,431,589,350,356,346,693,647,277,1062,489,177,736,175,923,162,243,196,674,911,791,848,530,282,160,490,589,334,584,986,265,571,1132,265,743,1567,566,552,276,209,581,228,355,433,262,331,1324,189,474,172,289,380,421,370,750,191,567,556,550,1268,462,398,549,305,197,554,188,312,584,463,363,228,324,197,253,628,514,498,302,297,727,326,546,266,530,325,287,928,440,512,332,1057,255,425,457,511,627,484,407,355,266,598,289,527,914,222,685,730,222,410,511,254,771,864,312,451,799,1232,162,734,402,319,1163,639,618,348,1008,167,1271,276,463,450,1188,268,616,620,492,384,249,663,706,935,503,389,660,264,310,459,500,246,359,888,292,510,468,420,453,401,371,226,283,539,258,229,540,756,356,680,1458,610,180,157,241,761,523,309,269,354,679,523,467,1269,510,386,409,585,522,144,349,293,442,318,871,322,188,450,456,546,290,853,345,651,213,610,573,416,685,576,283,350,260,513,1076,311,568,266,362,895,614,748,229,443,640,795,607,1474,302,440,345,1180,390,1066,343,388,149,837,911,554,392,354,881,413,835,442,369,408,1150,236,872,324,248,834,215,382,556,621,547,575,946,496,388,415,858,379,444,415,328,394,483,559,849,236,368,306,248,488,628,311,779,365,1509,715,642,321,350,839,543,385,687,559,283,480,527,169,202,794,265,400,819,1004,544,228,242,435,759,841,534,719,412,178,262,341,682,1042,1603,691,793,555,1161,291,321,225,333,266,1805,680,292,286,218,1832,410,704,630,314,410,776,488,423,159,359,224,724,909,1249,336,500,558,444,535,417,279,440,1293,871,321,258,249,694,483,672,481,335,281,943,673,681,394,921,480,317,329,274,506,638,843,940,532,229,243,329,1203,501,499,293,468,298,310,921,880,788,490,458,707,701,453,736,289,450,371,463,1010,391,313,1685,544,247,215,526,529,264,888,878,281,499,300,1177,270,457,286,273,442,896,348,791,785,563,1131,144,290,671,550,307,339,502,505,257,619,804,329,195,862,274,292,494,579,325,589,811,473,902,897,604,367,318,666,835,533,265,589,298,777,314,800,325,732,394,329,682,165,484,1031,291,791,637,347,687,800,1472,510,443,130,246,280,716,191,258,638,303,347,765,254,399,744,1001,965,605,286,363,415,458,731,423,319,597,499,381,788,247,599,382,159,518,249,974,281,408,226,250,411,526,776,340,552,330,449,337,262,337,685,619,511,1163,585,178,432,682,293,187,259,1175,149,686,358,753,409,284,620,1257,413,251,1036,279,335,503,395,369,416,414,555,235,483,350,307,906,366,378,440,463,239,585,376,300,392,520,957,627,424,350,1042,1632,487,345,361,429,1137,921,1562,293,272,603,219,230,408,359,674,709,231,1088,787,373,579,308,551,238,181,331,616,302,165,276,325,337,526,298,372,351,536,245,363,420,575,526,331,336,502,582,343,310,545,481,484,265,599,406,339,751,594,639,208,847,819,666,919,618,406,222,726,273,414,449,472,668,328,450,215,235,278,499,372"
"image-keyboard-response","10","18740","0.0-5.0-1.3","taskTesting","bdp_cybrbll","Mon Mar 06 2023 15:00:08 GMT-0500 (Eastern Standard Time)","415587","3","1","","175","","","","","","img/2to1/1.png","2","222","0.6","0.6","2","3","","",""
"animation","11","20038","0.0-5.0-2.3","taskTesting","bdp_cybrbll","Mon Mar 06 2023 15:00:08 GMT-0500 (Eastern Standard Time)","415587","3","1","","","","","","","","","","222","","","2","3","[{""stimulus"":""img/2to3/1.png"",""time"":114},{""stimulus"":""img/2to3/2.png"",""time"":207},{""stimulus"":""img/2to3/3.png"",""time"":305},{""stimulus"":""img/2to3/4.png"",""time"":402},{""stimulus"":""img/2to3/5.png"",""time"":514},{""stimulus"":""img/2to3/6.png"",""time"":607},{""stimulus"":""img/2to3/7.png"",""time"":706},{""stimulus"":""img/2to3/8.png"",""time"":801},{""stimulus"":""img/2to3/9.png"",""time"":897},{""stimulus"":""img/2to3/10.png"",""time"":992},{""stimulus"":""img/2to3/11.png"",""time"":1107},{""stimulus"":""img/2to3/12.png"",""time"":1202}]","[]","194,1818,234,391,163,306,216,326,569,689,309,453,250,489,493,629,739,282,252,454,261,577,289,414,1087,911,987,618,409,628,197,300,274,549,278,768,1092,778,245,591,303,650,385,425,735,579,304,644,404,354,220,1094,549,1471,515,521,1239,272,641,703,542,1466,739,219,718,833,522,347,334,185,284,541,493,439,1204,616,291,460,609,243,282,434,471,388,261,923,987,419,474,375,352,380,261,1194,285,1158,443,254,264,707,177,538,312,795,1108,413,455,616,1353,513,214,317,247,225,415,836,506,268,1189,289,495,384,198,573,1262,871,200,203,263,507,627,194,445,469,392,840,448,783,509,403,1444,307,1267,379,741,630,436,188,326,1560,322,720,872,242,446,388,367,341,536,325,317,178,634,206,255,433,416,1569,1236,413,1016,803,552,578,500,334,989,859,708,1098,493,596,311,836,225,662,1861,192,885,244,408,431,589,350,356,346,693,647,277,1062,489,177,736,175,923,162,243,196,674,911,791,848,530,282,160,490,589,334,584,986,265,571,1132,265,743,1567,566,552,276,209,581,228,355,433,262,331,1324,189,474,172,289,380,421,370,750,191,567,556,550,1268,462,398,549,305,197,554,188,312,584,463,363,228,324,197,253,628,514,498,302,297,727,326,546,266,530,325,287,928,440,512,332,1057,255,425,457,511,627,484,407,355,266,598,289,527,914,222,685,730,222,410,511,254,771,864,312,451,799,1232,162,734,402,319,1163,639,618,348,1008,167,1271,276,463,450,1188,268,616,620,492,384,249,663,706,935,503,389,660,264,310,459,500,246,359,888,292,510,468,420,453,401,371,226,283,539,258,229,540,756,356,680,1458,610,180,157,241,761,523,309,269,354,679,523,467,1269,510,386,409,585,522,144,349,293,442,318,871,322,188,450,456,546,290,853,345,651,213,610,573,416,685,576,283,350,260,513,1076,311,568,266,362,895,614,748,229,443,640,795,607,1474,302,440,345,1180,390,1066,343,388,149,837,911,554,392,354,881,413,835,442,369,408,1150,236,872,324,248,834,215,382,556,621,547,575,946,496,388,415,858,379,444,415,328,394,483,559,849,236,368,306,248,488,628,311,779,365,1509,715,642,321,350,839,543,385,687,559,283,480,527,169,202,794,265,400,819,1004,544,228,242,435,759,841,534,719,412,178,262,341,682,1042,1603,691,793,555,1161,291,321,225,333,266,1805,680,292,286,218,1832,410,704,630,314,410,776,488,423,159,359,224,724,909,1249,336,500,558,444,535,417,279,440,1293,871,321,258,249,694,483,672,481,335,281,943,673,681,394,921,480,317,329,274,506,638,843,940,532,229,243,329,1203,501,499,293,468,298,310,921,880,788,490,458,707,701,453,736,289,450,371,463,1010,391,313,1685,544,247,215,526,529,264,888,878,281,499,300,1177,270,457,286,273,442,896,348,791,785,563,1131,144,290,671,550,307,339,502,505,257,619,804,329,195,862,274,292,494,579,325,589,811,473,902,897,604,367,318,666,835,533,265,589,298,777,314,800,325,732,394,329,682,165,484,1031,291,791,637,347,687,800,1472,510,443,130,246,280,716,191,258,638,303,347,765,254,399,744,1001,965,605,286,363,415,458,731,423,319,597,499,381,788,247,599,382,159,518,249,974,281,408,226,250,411,526,776,340,552,330,449,337,262,337,685,619,511,1163,585,178,432,682,293,187,259,1175,149,686,358,753,409,284,620,1257,413,251,1036,279,335,503,395,369,416,414,555,235,483,350,307,906,366,378,440,463,239,585,376,300,392,520,957,627,424,350,1042,1632,487,345,361,429,1137,921,1562,293,272,603,219,230,408,359,674,709,231,1088,787,373,579,308,551,238,181,331,616,302,165,276,325,337,526,298,372,351,536,245,363,420,575,526,331,336,502,582,343,310,545,481,484,265,599,406,339,751,594,639,208,847,819,666,919,618,406,222,726,273,414,449,472,668,328,450,215,235,278,499,372"
"image-keyboard-response","12","20550","0.0-5.0-1.4","taskTesting","bdp_cybrbll","Mon Mar 06 2023 15:00:08 GMT-0500 (Eastern Standard Time)","415587","3","1","","null","","","","","","img/3to2/1.png","null","221","0.6","0.6","3","2","","",""
"animation","13","21844","0.0-5.0-2.4","taskTesting","bdp_cybrbll","Mon Mar 06 2023 15:00:08 GMT-0500 (Eastern Standard Time)","415587","3","1","","","","","","","","","","221","","","3","2","[{""stimulus"":""img/3to2/1.png"",""time"":111},{""stimulus"":""img/3to2/2.png"",""time"":208},{""stimulus"":""img/3to2/3.png"",""time"":303},{""stimulus"":""img/3to2/4.png"",""time"":400},{""stimulus"":""img/3to2/5.png"",""time"":511},{""stimulus"":""img/3to2/6.png"",""time"":609},{""stimulus"":""img/3to2/7.png"",""time"":702},{""stimulus"":""img/3to2/8.png"",""time"":801},{""stimulus"":""img/3to2/9.png"",""time"":895},{""stimulus"":""img/3to2/10.png"",""time"":1009},{""stimulus"":""img/3to2/11.png"",""time"":1107},{""stimulus"":""img/3to2/12.png"",""time"":1201}]","[]","194,1818,234,391,163,306,216,326,569,689,309,453,250,489,493,629,739,282,252,454,261,577,289,414,1087,911,987,618,409,628,197,300,274,549,278,768,1092,778,245,591,303,650,385,425,735,579,304,644,404,354,220,1094,549,1471,515,521,1239,272,641,703,542,1466,739,219,718,833,522,347,334,185,284,541,493,439,1204,616,291,460,609,243,282,434,471,388,261,923,987,419,474,375,352,380,261,1194,285,1158,443,254,264,707,177,538,312,795,1108,413,455,616,1353,513,214,317,247,225,415,836,506,268,1189,289,495,384,198,573,1262,871,200,203,263,507,627,194,445,469,392,840,448,783,509,403,1444,307,1267,379,741,630,436,188,326,1560,322,720,872,242,446,388,367,341,536,325,317,178,634,206,255,433,416,1569,1236,413,1016,803,552,578,500,334,989,859,708,1098,493,596,311,836,225,662,1861,192,885,244,408,431,589,350,356,346,693,647,277,1062,489,177,736,175,923,162,243,196,674,911,791,848,530,282,160,490,589,334,584,986,265,571,1132,265,743,1567,566,552,276,209,581,228,355,433,262,331,1324,189,474,172,289,380,421,370,750,191,567,556,550,1268,462,398,549,305,197,554,188,312,584,463,363,228,324,197,253,628,514,498,302,297,727,326,546,266,530,325,287,928,440,512,332,1057,255,425,457,511,627,484,407,355,266,598,289,527,914,222,685,730,222,410,511,254,771,864,312,451,799,1232,162,734,402,319,1163,639,618,348,1008,167,1271,276,463,450,1188,268,616,620,492,384,249,663,706,935,503,389,660,264,310,459,500,246,359,888,292,510,468,420,453,401,371,226,283,539,258,229,540,756,356,680,1458,610,180,157,241,761,523,309,269,354,679,523,467,1269,510,386,409,585,522,144,349,293,442,318,871,322,188,450,456,546,290,853,345,651,213,610,573,416,685,576,283,350,260,513,1076,311,568,266,362,895,614,748,229,443,640,795,607,1474,302,440,345,1180,390,1066,343,388,149,837,911,554,392,354,881,413,835,442,369,408,1150,236,872,324,248,834,215,382,556,621,547,575,946,496,388,415,858,379,444,415,328,394,483,559,849,236,368,306,248,488,628,311,779,365,1509,715,642,321,350,839,543,385,687,559,283,480,527,169,202,794,265,400,819,1004,544,228,242,435,759,841,534,719,412,178,262,341,682,1042,1603,691,793,555,1161,291,321,225,333,266,1805,680,292,286,218,1832,410,704,630,314,410,776,488,423,159,359,224,724,909,1249,336,500,558,444,535,417,279,440,1293,871,321,258,249,694,483,672,481,335,281,943,673,681,394,921,480,317,329,274,506,638,843,940,532,229,243,329,1203,501,499,293,468,298,310,921,880,788,490,458,707,701,453,736,289,450,371,463,1010,391,313,1685,544,247,215,526,529,264,888,878,281,499,300,1177,270,457,286,273,442,896,348,791,785,563,1131,144,290,671,550,307,339,502,505,257,619,804,329,195,862,274,292,494,579,325,589,811,473,902,897,604,367,318,666,835,533,265,589,298,777,314,800,325,732,394,329,682,165,484,1031,291,791,637,347,687,800,1472,510,443,130,246,280,716,191,258,638,303,347,765,254,399,744,1001,965,605,286,363,415,458,731,423,319,597,499,381,788,247,599,382,159,518,249,974,281,408,226,250,411,526,776,340,552,330,449,337,262,337,685,619,511,1163,585,178,432,682,293,187,259,1175,149,686,358,753,409,284,620,1257,413,251,1036,279,335,503,395,369,416,414,555,235,483,350,307,906,366,378,440,463,239,585,376,300,392,520,957,627,424,350,1042,1632,487,345,361,429,1137,921,1562,293,272,603,219,230,408,359,674,709,231,1088,787,373,579,308,551,238,181,331,616,302,165,276,325,337,526,298,372,351,536,245,363,420,575,526,331,336,502,582,343,310,545,481,484,265,599,406,339,751,594,639,208,847,819,666,919,618,406,222,726,273,414,449,472,668,328,450,215,235,278,499,372"
"image-keyboard-response","14","22860","0.0-5.0-1.5","taskTesting","bdp_cybrbll","Mon Mar 06 2023 15:00:08 GMT-0500 (Eastern Standard Time)","415587","3","1","","1016","","","","","","img/2to1/1.png","1","220","0.6","0.6","2","1","","",""
"animation","15","24166","0.0-5.0-2.5","taskTesting","bdp_cybrbll","Mon Mar 06 2023 15:00:08 GMT-0500 (Eastern Standard Time)","415587","3","1","","","","","","","","","","220","","","2","1","[{""stimulus"":""img/2to1/1.png"",""time"":105},{""stimulus"":""img/2to1/2.png"",""time"":202},{""stimulus"":""img/2to1/3.png"",""time"":315},{""stimulus"":""img/2to1/4.png"",""time"":411},{""stimulus"":""img/2to1/5.png"",""time"":504},{""stimulus"":""img/2to1/6.png"",""time"":603},{""stimulus"":""img/2to1/7.png"",""time"":696},{""stimulus"":""img/2to1/8.png"",""time"":812},{""stimulus"":""img/2to1/9.png"",""time"":904},{""stimulus"":""img/2to1/10.png"",""time"":1003},{""stimulus"":""img/2to1/11.png"",""time"":1096},{""stimulus"":""img/2to1/12.png"",""time"":1194}]","[]","194,1818,234,391,163,306,216,326,569,689,309,453,250,489,493,629,739,282,252,454,261,577,289,414,1087,911,987,618,409,628,197,300,274,549,278,768,1092,778,245,591,303,650,385,425,735,579,304,644,404,354,220,1094,549,1471,515,521,1239,272,641,703,542,1466,739,219,718,833,522,347,334,185,284,541,493,439,1204,616,291,460,609,243,282,434,471,388,261,923,987,419,474,375,352,380,261,1194,285,1158,443,254,264,707,177,538,312,795,1108,413,455,616,1353,513,214,317,247,225,415,836,506,268,1189,289,495,384,198,573,1262,871,200,203,263,507,627,194,445,469,392,840,448,783,509,403,1444,307,1267,379,741,630,436,188,326,1560,322,720,872,242,446,388,367,341,536,325,317,178,634,206,255,433,416,1569,1236,413,1016,803,552,578,500,334,989,859,708,1098,493,596,311,836,225,662,1861,192,885,244,408,431,589,350,356,346,693,647,277,1062,489,177,736,175,923,162,243,196,674,911,791,848,530,282,160,490,589,334,584,986,265,571,1132,265,743,1567,566,552,276,209,581,228,355,433,262,331,1324,189,474,172,289,380,421,370,750,191,567,556,550,1268,462,398,549,305,197,554,188,312,584,463,363,228,324,197,253,628,514,498,302,297,727,326,546,266,530,325,287,928,440,512,332,1057,255,425,457,511,627,484,407,355,266,598,289,527,914,222,685,730,222,410,511,254,771,864,312,451,799,1232,162,734,402,319,1163,639,618,348,1008,167,1271,276,463,450,1188,268,616,620,492,384,249,663,706,935,503,389,660,264,310,459,500,246,359,888,292,510,468,420,453,401,371,226,283,539,258,229,540,756,356,680,1458,610,180,157,241,761,523,309,269,354,679,523,467,1269,510,386,409,585,522,144,349,293,442,318,871,322,188,450,456,546,290,853,345,651,213,610,573,416,685,576,283,350,260,513,1076,311,568,266,362,895,614,748,229,443,640,795,607,1474,302,440,345,1180,390,1066,343,388,149,837,911,554,392,354,881,413,835,442,369,408,1150,236,872,324,248,834,215,382,556,621,547,575,946,496,388,415,858,379,444,415,328,394,483,559,849,236,368,306,248,488,628,311,779,365,1509,715,642,321,350,839,543,385,687,559,283,480,527,169,202,794,265,400,819,1004,544,228,242,435,759,841,534,719,412,178,262,341,682,1042,1603,691,793,555,1161,291,321,225,333,266,1805,680,292,286,218,1832,410,704,630,314,410,776,488,423,159,359,224,724,909,1249,336,500,558,444,535,417,279,440,1293,871,321,258,249,694,483,672,481,335,281,943,673,681,394,921,480,317,329,274,506,638,843,940,532,229,243,329,1203,501,499,293,468,298,310,921,880,788,490,458,707,701,453,736,289,450,371,463,1010,391,313,1685,544,247,215,526,529,264,888,878,281,499,300,1177,270,457,286,273,442,896,348,791,785,563,1131,144,290,671,550,307,339,502,505,257,619,804,329,195,862,274,292,494,579,325,589,811,473,902,897,604,367,318,666,835,533,265,589,298,777,314,800,325,732,394,329,682,165,484,1031,291,791,637,347,687,800,1472,510,443,130,246,280,716,191,258,638,303,347,765,254,399,744,1001,965,605,286,363,415,458,731,423,319,597,499,381,788,247,599,382,159,518,249,974,281,408,226,250,411,526,776,340,552,330,449,337,262,337,685,619,511,1163,585,178,432,682,293,187,259,1175,149,686,358,753,409,284,620,1257,413,251,1036,279,335,503,395,369,416,414,555,235,483,350,307,906,366,378,440,463,239,585,376,300,392,520,957,627,424,350,1042,1632,487,345,361,429,1137,921,1562,293,272,603,219,230,408,359,674,709,231,1088,787,373,579,308,551,238,181,331,616,302,165,276,325,337,526,298,372,351,536,245,363,420,575,526,331,336,502,582,343,310,545,481,484,265,599,406,339,751,594,639,208,847,819,666,919,618,406,222,726,273,414,449,472,668,328,450,215,235,278,499,372"
"image-keyboard-response","16","25576","0.0-5.0-1.6","taskTesting","bdp_cybrbll","Mon Mar 06 2023 15:00:08 GMT-0500 (Eastern Standard Time)","415587","3","1","","null","","","","","","img/1to3/1.png","null","219","0.6","0.6","1","2","","",""
"animation","17","26871","0.0-5.0-2.6","taskTesting","bdp_cybrbll","Mon Mar 06 2023 15:00:08 GMT-0500 (Eastern Standard Time)","415587","3","1","","","","","","","","","","219","","","1","2","[{""stimulus"":""img/1to2/1.png"",""time"":111},{""stimulus"":""img/1to2/2.png"",""time"":207},{""stimulus"":""img/1to2/3.png"",""time"":303},{""stimulus"":""img/1to2/4.png"",""time"":414},{""stimulus"":""img/1to2/5.png"",""time"":512},{""stimulus"":""img/1to2/6.png"",""time"":607},{""stimulus"":""img/1to2/7.png"",""time"":703},{""stimulus"":""img/1to2/8.png"",""time"":799},{""stimulus"":""img/1to2/9.png"",""time"":894},{""stimulus"":""img/1to2/10.png"",""time"":1005},{""stimulus"":""img/1to2/11.png"",""time"":1104},{""stimulus"":""img/1to2/12.png"",""time"":1200}]","[]","194,1818,234,391,163,306,216,326,569,689,309,453,250,489,493,629,739,282,252,454,261,577,289,414,1087,911,987,618,409,628,197,300,274,549,278,768,1092,778,245,591,303,650,385,425,735,579,304,644,404,354,220,1094,549,1471,515,521,1239,272,641,703,542,1466,739,219,718,833,522,347,334,185,284,541,493,439,1204,616,291,460,609,243,282,434,471,388,261,923,987,419,474,375,352,380,261,1194,285,1158,443,254,264,707,177,538,312,795,1108,413,455,616,1353,513,214,317,247,225,415,836,506,268,1189,289,495,384,198,573,1262,871,200,203,263,507,627,194,445,469,392,840,448,783,509,403,1444,307,1267,379,741,630,436,188,326,1560,322,720,872,242,446,388,367,341,536,325,317,178,634,206,255,433,416,1569,1236,413,1016,803,552,578,500,334,989,859,708,1098,493,596,311,836,225,662,1861,192,885,244,408,431,589,350,356,346,693,647,277,1062,489,177,736,175,923,162,243,196,674,911,791,848,530,282,160,490,589,334,584,986,265,571,1132,265,743,1567,566,552,276,209,581,228,355,433,262,331,1324,189,474,172,289,380,421,370,750,191,567,556,550,1268,462,398,549,305,197,554,188,312,584,463,363,228,324,197,253,628,514,498,302,297,727,326,546,266,530,325,287,928,440,512,332,1057,255,425,457,511,627,484,407,355,266,598,289,527,914,222,685,730,222,410,511,254,771,864,312,451,799,1232,162,734,402,319,1163,639,618,348,1008,167,1271,276,463,450,1188,268,616,620,492,384,249,663,706,935,503,389,660,264,310,459,500,246,359,888,292,510,468,420,453,401,371,226,283,539,258,229,540,756,356,680,1458,610,180,157,241,761,523,309,269,354,679,523,467,1269,510,386,409,585,522,144,349,293,442,318,871,322,188,450,456,546,290,853,345,651,213,610,573,416,685,576,283,350,260,513,1076,311,568,266,362,895,614,748,229,443,640,795,607,1474,302,440,345,1180,390,1066,343,388,149,837,911,554,392,354,881,413,835,442,369,408,1150,236,872,324,248,834,215,382,556,621,547,575,946,496,388,415,858,379,444,415,328,394,483,559,849,236,368,306,248,488,628,311,779,365,1509,715,642,321,350,839,543,385,687,559,283,480,527,169,202,794,265,400,819,1004,544,228,242,435,759,841,534,719,412,178,262,341,682,1042,1603,691,793,555,1161,291,321,225,333,266,1805,680,292,286,218,1832,410,704,630,314,410,776,488,423,159,359,224,724,909,1249,336,500,558,444,535,417,279,440,1293,871,321,258,249,694,483,672,481,335,281,943,673,681,394,921,480,317,329,274,506,638,843,940,532,229,243,329,1203,501,499,293,468,298,310,921,880,788,490,458,707,701,453,736,289,450,371,463,1010,391,313,1685,544,247,215,526,529,264,888,878,281,499,300,1177,270,457,286,273,442,896,348,791,785,563,1131,144,290,671,550,307,339,502,505,257,619,804,329,195,862,274,292,494,579,325,589,811,473,902,897,604,367,318,666,835,533,265,589,298,777,314,800,325,732,394,329,682,165,484,1031,291,791,637,347,687,800,1472,510,443,130,246,280,716,191,258,638,303,347,765,254,399,744,1001,965,605,286,363,415,458,731,423,319,597,499,381,788,247,599,382,159,518,249,974,281,408,226,250,411,526,776,340,552,330,449,337,262,337,685,619,511,1163,585,178,432,682,293,187,259,1175,149,686,358,753,409,284,620,1257,413,251,1036,279,335,503,395,369,416,414,555,235,483,350,307,906,366,378,440,463,239,585,376,300,392,520,957,627,424,350,1042,1632,487,345,361,429,1137,921,1562,293,272,603,219,230,408,359,674,709,231,1088,787,373,579,308,551,238,181,331,616,302,165,276,325,337,526,298,372,351,536,245,363,420,575,526,331,336,502,582,343,310,545,481,484,265,599,406,339,751,594,639,208,847,819,666,919,618,406,222,726,273,414,449,472,668,328,450,215,235,278,499,372"
"image-keyboard-response","18","27301","0.0-5.0-1.7","taskTesting","bdp_cybrbll","Mon Mar 06 2023 15:00:08 GMT-0500 (Eastern Standard Time)","415587","3","1","","429","","","","","","img/2to1/1.png","2","218","0.6","0.6","2","3","","",""
"animation","19","28600","0.0-5.0-2.7","taskTesting","bdp_cybrbll","Mon Mar 06 2023 15:00:08 GMT-0500 (Eastern Standard Time)","415587","3","1","","","","","","","","","","218","","","2","3","[{""stimulus"":""img/2to3/1.png"",""time"":115},{""stimulus"":""img/2to3/2.png"",""time"":200},{""stimulus"":""img/2to3/3.png"",""time"":308},{""stimulus"":""img/2to3/4.png"",""time"":401},{""stimulus"":""img/2to3/5.png"",""time"":516},{""stimulus"":""img/2to3/6.png"",""time"":609},{""stimulus"":""img/2to3/7.png"",""time"":707},{""stimulus"":""img/2to3/8.png"",""time"":801},{""stimulus"":""img/2to3/9.png"",""time"":900},{""stimulus"":""img/2to3/10.png"",""time"":993},{""stimulus"":""img/2to3/11.png"",""time"":1105},{""stimulus"":""img/2to3/12.png"",""time"":1201}]","[]","194,1818,234,391,163,306,216,326,569,689,309,453,250,489,493,629,739,282,252,454,261,577,289,414,1087,911,987,618,409,628,197,300,274,549,278,768,1092,778,245,591,303,650,385,425,735,579,304,644,404,354,220,1094,549,1471,515,521,1239,272,641,703,542,1466,739,219,718,833,522,347,334,185,284,541,493,439,1204,616,291,460,609,243,282,434,471,388,261,923,987,419,474,375,352,380,261,1194,285,1158,443,254,264,707,177,538,312,795,1108,413,455,616,1353,513,214,317,247,225,415,836,506,268,1189,289,495,384,198,573,1262,871,200,203,263,507,627,194,445,469,392,840,448,783,509,403,1444,307,1267,379,741,630,436,188,326,1560,322,720,872,242,446,388,367,341,536,325,317,178,634,206,255,433,416,1569,1236,413,1016,803,552,578,500,334,989,859,708,1098,493,596,311,836,225,662,1861,192,885,244,408,431,589,350,356,346,693,647,277,1062,489,177,736,175,923,162,243,196,674,911,791,848,530,282,160,490,589,334,584,986,265,571,1132,265,743,1567,566,552,276,209,581,228,355,433,262,331,1324,189,474,172,289,380,421,370,750,191,567,556,550,1268,462,398,549,305,197,554,188,312,584,463,363,228,324,197,253,628,514,498,302,297,727,326,546,266,530,325,287,928,440,512,332,1057,255,425,457,511,627,484,407,355,266,598,289,527,914,222,685,730,222,410,511,254,771,864,312,451,799,1232,162,734,402,319,1163,639,618,348,1008,167,1271,276,463,450,1188,268,616,620,492,384,249,663,706,935,503,389,660,264,310,459,500,246,359,888,292,510,468,420,453,401,371,226,283,539,258,229,540,756,356,680,1458,610,180,157,241,761,523,309,269,354,679,523,467,1269,510,386,409,585,522,144,349,293,442,318,871,322,188,450,456,546,290,853,345,651,213,610,573,416,685,576,283,350,260,513,1076,311,568,266,362,895,614,748,229,443,640,795,607,1474,302,440,345,1180,390,1066,343,388,149,837,911,554,392,354,881,413,835,442,369,408,1150,236,872,324,248,834,215,382,556,621,547,575,946,496,388,415,858,379,444,415,328,394,483,559,849,236,368,306,248,488,628,311,779,365,1509,715,642,321,350,839,543,385,687,559,283,480,527,169,202,794,265,400,819,1004,544,228,242,435,759,841,534,719,412,178,262,341,682,1042,1603,691,793,555,1161,291,321,225,333,266,1805,680,292,286,218,1832,410,704,630,314,410,776,488,423,159,359,224,724,909,1249,336,500,558,444,535,417,279,440,1293,871,321,258,249,694,483,672,481,335,281,943,673,681,394,921,480,317,329,274,506,638,843,940,532,229,243,329,1203,501,499,293,468,298,310,921,880,788,490,458,707,701,453,736,289,450,371,463,1010,391,313,1685,544,247,215,526,529,264,888,878,281,499,300,1177,270,457,286,273,442,896,348,791,785,563,1131,144,290,671,550,307,339,502,505,257,619,804,329,195,862,274,292,494,579,325,589,811,473,902,897,604,367,318,666,835,533,265,589,298,777,314,800,325,732,394,329,682,165,484,1031,291,791,637,347,687,800,1472,510,443,130,246,280,716,191,258,638,303,347,765,254,399,744,1001,965,605,286,363,415,458,731,423,319,597,499,381,788,247,599,382,159,518,249,974,281,408,226,250,411,526,776,340,552,330,449,337,262,337,685,619,511,1163,585,178,432,682,293,187,259,1175,149,686,358,753,409,284,620,1257,413,251,1036,279,335,503,395,369,416,414,555,235,483,350,307,906,366,378,440,463,239,585,376,300,392,520,957,627,424,350,1042,1632,487,345,361,429,1137,921,1562,293,272,603,219,230,408,359,674,709,231,1088,787,373,579,308,551,238,181,331,616,302,165,276,325,337,526,298,372,351,536,245,363,420,575,526,331,336,502,582,343,310,545,481,484,265,599,406,339,751,594,639,208,847,819,666,919,618,406,222,726,273,414,449,472,668,328,450,215,235,278,499,372"
"image-keyboard-response","20","29190","0.0-5.0-1.8","taskTesting","bdp_cybrbll","Mon Mar 06 2023 15:00:08 GMT-0500 (Eastern Standard Time)","415587","3","1","","null","","","","","","img/3to2/1.png","null","217","0.6","0.6","3","1","","",""
"animation","21","30488","0.0-5.0-2.8","taskTesting","bdp_cybrbll","Mon Mar 06 2023 15:00:08 GMT-0500 (Eastern Standard Time)","415587","3","1","","","","","","","","","","217","","","3","1","[{""stimulus"":""img/3to1/1.png"",""time"":113},{""stimulus"":""img/3to1/2.png"",""time"":209},{""stimulus"":""img/3to1/3.png"",""time"":305},{""stimulus"":""img/3to1/4.png"",""time"":399},{""stimulus"":""img/3to1/5.png"",""time"":513},{""stimulus"":""img/3to1/6.png"",""time"":607},{""stimulus"":""img/3to1/7.png"",""time"":705},{""stimulus"":""img/3to1/8.png"",""time"":799},{""stimulus"":""img/3to1/9.png"",""time"":897},{""stimulus"":""img/3to1/10.png"",""time"":1007},{""stimulus"":""img/3to1/11.png"",""time"":1106},{""stimulus"":""img/3to1/12.png"",""time"":1201}]","[]","194,1818,234,391,163,306,216,326,569,689,309,453,250,489,493,629,739,282,252,454,261,577,289,414,1087,911,987,618,409,628,197,300,274,549,278,768,1092,778,245,591,303,650,385,425,735,579,304,644,404,354,220,1094,549,1471,515,521,1239,272,641,703,542,1466,739,219,718,833,522,347,334,185,284,541,493,439,1204,616,291,460,609,243,282,434,471,388,261,923,987,419,474,375,352,380,261,1194,285,1158,443,254,264,707,177,538,312,795,1108,413,455,616,1353,513,214,317,247,225,415,836,506,268,1189,289,495,384,198,573,1262,871,200,203,263,507,627,194,445,469,392,840,448,783,509,403,1444,307,1267,379,741,630,436,188,326,1560,322,720,872,242,446,388,367,341,536,325,317,178,634,206,255,433,416,1569,1236,413,1016,803,552,578,500,334,989,859,708,1098,493,596,311,836,225,662,1861,192,885,244,408,431,589,350,356,346,693,647,277,1062,489,177,736,175,923,162,243,196,674,911,791,848,530,282,160,490,589,334,584,986,265,571,1132,265,743,1567,566,552,276,209,581,228,355,433,262,331,1324,189,474,172,289,380,421,370,750,191,567,556,550,1268,462,398,549,305,197,554,188,312,584,463,363,228,324,197,253,628,514,498,302,297,727,326,546,266,530,325,287,928,440,512,332,1057,255,425,457,511,627,484,407,355,266,598,289,527,914,222,685,730,222,410,511,254,771,864,312,451,799,1232,162,734,402,319,1163,639,618,348,1008,167,1271,276,463,450,1188,268,616,620,492,384,249,663,706,935,503,389,660,264,310,459,500,246,359,888,292,510,468,420,453,401,371,226,283,539,258,229,540,756,356,680,1458,610,180,157,241,761,523,309,269,354,679,523,467,1269,510,386,409,585,522,144,349,293,442,318,871,322,188,450,456,546,290,853,345,651,213,610,573,416,685,576,283,350,260,513,1076,311,568,266,362,895,614,748,229,443,640,795,607,1474,302,440,345,1180,390,1066,343,388,149,837,911,554,392,354,881,413,835,442,369,408,1150,236,872,324,248,834,215,382,556,621,547,575,946,496,388,415,858,379,444,415,328,394,483,559,849,236,368,306,248,488,628,311,779,365,1509,715,642,321,350,839,543,385,687,559,283,480,527,169,202,794,265,400,819,1004,544,228,242,435,759,841,534,719,412,178,262,341,682,1042,1603,691,793,555,1161,291,321,225,333,266,1805,680,292,286,218,1832,410,704,630,314,410,776,488,423,159,359,224,724,909,1249,336,500,558,444,535,417,279,440,1293,871,321,258,249,694,483,672,481,335,281,943,673,681,394,921,480,317,329,274,506,638,843,940,532,229,243,329,1203,501,499,293,468,298,310,921,880,788,490,458,707,701,453,736,289,450,371,463,1010,391,313,1685,544,247,215,526,529,264,888,878,281,499,300,1177,270,457,286,273,442,896,348,791,785,563,1131,144,290,671,550,307,339,502,505,257,619,804,329,195,862,274,292,494,579,325,589,811,473,902,897,604,367,318,666,835,533,265,589,298,777,314,800,325,732,394,329,682,165,484,1031,291,791,637,347,687,800,1472,510,443,130,246,280,716,191,258,638,303,347,765,254,399,744,1001,965,605,286,363,415,458,731,423,319,597,499,381,788,247,599,382,159,518,249,974,281,408,226,250,411,526,776,340,552,330,449,337,262,337,685,619,511,1163,585,178,432,682,293,187,259,1175,149,686,358,753,409,284,620,1257,413,251,1036,279,335,503,395,369,416,414,555,235,483,350,307,906,366,378,440,463,239,585,376,300,392,520,957,627,424,350,1042,1632,487,345,361,429,1137,921,1562,293,272,603,219,230,408,359,674,709,231,1088,787,373,579,308,551,238,181,331,616,302,165,276,325,337,526,298,372,351,536,245,363,420,575,526,331,336,502,582,343,310,545,481,484,265,599,406,339,751,594,639,208,847,819,666,919,618,406,222,726,273,414,449,472,668,328,450,215,235,278,499,372"
"image-keyboard-response","22","30712","0.0-5.0-1.9","taskTesting","bdp_cybrbll","Mon Mar 06 2023 15:00:08 GMT-0500 (Eastern Standard Time)","415587","3","1","","null","","","","","","img/1to3/1.png","null","216","0.6","0.6","1","2","","",""
"animation","23","32009","0.0-5.0-2.9","taskTesting","bdp_cybrbll","Mon Mar 06 2023 15:00:08 GMT-0500 (Eastern Standard Time)","415587","3","1","","","","","","","","","","216","","","1","2","[{""stimulus"":""img/1to2/1.png"",""time"":113},{""stimulus"":""img/1to2/2.png"",""time"":205},{""stimulus"":""img/1to2/3.png"",""time"":304},{""stimulus"":""img/1to2/4.png"",""time"":415},{""stimulus"":""img/1to2/5.png"",""time"":511},{""stimulus"":""img/1to2/6.png"",""time"":606},{""stimulus"":""img/1to2/7.png"",""time"":705},{""stimulus"":""img/1to2/8.png"",""time"":797},{""stimulus"":""img/1to2/9.png"",""time"":897},{""stimulus"":""img/1to2/10.png"",""time"":1007},{""stimulus"":""img/1to2/11.png"",""time"":1104},{""stimulus"":""img/1to2/12.png"",""time"":1198}]","[]","194,1818,234,391,163,306,216,326,569,689,309,453,250,489,493,629,739,282,252,454,261,577,289,414,1087,911,987,618,409,628,197,300,274,549,278,768,1092,778,245,591,303,650,385,425,735,579,304,644,404,354,220,1094,549,1471,515,521,1239,272,641,703,542,1466,739,219,718,833,522,347,334,185,284,541,493,439,1204,616,291,460,609,243,282,434,471,388,261,923,987,419,474,375,352,380,261,1194,285,1158,443,254,264,707,177,538,312,795,1108,413,455,616,1353,513,214,317,247,225,415,836,506,268,1189,289,495,384,198,573,1262,871,200,203,263,507,627,194,445,469,392,840,448,783,509,403,1444,307,1267,379,741,630,436,188,326,1560,322,720,872,242,446,388,367,341,536,325,317,178,634,206,255,433,416,1569,1236,413,1016,803,552,578,500,334,989,859,708,1098,493,596,311,836,225,662,1861,192,885,244,408,431,589,350,356,346,693,647,277,1062,489,177,736,175,923,162,243,196,674,911,791,848,530,282,160,490,589,334,584,986,265,571,1132,265,743,1567,566,552,276,209,581,228,355,433,262,331,1324,189,474,172,289,380,421,370,750,191,567,556,550,1268,462,398,549,305,197,554,188,312,584,463,363,228,324,197,253,628,514,498,302,297,727,326,546,266,530,325,287,928,440,512,332,1057,255,425,457,511,627,484,407,355,266,598,289,527,914,222,685,730,222,410,511,254,771,864,312,451,799,1232,162,734,402,319,1163,639,618,348,1008,167,1271,276,463,450,1188,268,616,620,492,384,249,663,706,935,503,389,660,264,310,459,500,246,359,888,292,510,468,420,453,401,371,226,283,539,258,229,540,756,356,680,1458,610,180,157,241,761,523,309,269,354,679,523,467,1269,510,386,409,585,522,144,349,293,442,318,871,322,188,450,456,546,290,853,345,651,213,610,573,416,685,576,283,350,260,513,1076,311,568,266,362,895,614,748,229,443,640,795,607,1474,302,440,345,1180,390,1066,343,388,149,837,911,554,392,354,881,413,835,442,369,408,1150,236,872,324,248,834,215,382,556,621,547,575,946,496,388,415,858,379,444,415,328,394,483,559,849,236,368,306,248,488,628,311,779,365,1509,715,642,321,350,839,543,385,687,559,283,480,527,169,202,794,265,400,819,1004,544,228,242,435,759,841,534,719,412,178,262,341,682,1042,1603,691,793,555,1161,291,321,225,333,266,1805,680,292,286,218,1832,410,704,630,314,410,776,488,423,159,359,224,724,909,1249,336,500,558,444,535,417,279,440,1293,871,321,258,249,694,483,672,481,335,281,943,673,681,394,921,480,317,329,274,506,638,843,940,532,229,243,329,1203,501,499,293,468,298,310,921,880,788,490,458,707,701,453,736,289,450,371,463,1010,391,313,1685,544,247,215,526,529,264,888,878,281,499,300,1177,270,457,286,273,442,896,348,791,785,563,1131,144,290,671,550,307,339,502,505,257,619,804,329,195,862,274,292,494,579,325,589,811,473,902,897,604,367,318,666,835,533,265,589,298,777,314,800,325,732,394,329,682,165,484,1031,291,791,637,347,687,800,1472,510,443,130,246,280,716,191,258,638,303,347,765,254,399,744,1001,965,605,286,363,415,458,731,423,319,597,499,381,788,247,599,382,159,518,249,974,281,408,226,250,411,526,776,340,552,330,449,337,262,337,685,619,511,1163,585,178,432,682,293,187,259,1175,149,686,358,753,409,284,620,1257,413,251,1036,279,335,503,395,369,416,414,555,235,483,350,307,906,366,378,440,463,239,585,376,300,392,520,957,627,424,350,1042,1632,487,345,361,429,1137,921,1562,293,272,603,219,230,408,359,674,709,231,1088,787,373,579,308,551,238,181,331,616,302,165,276,325,337,526,298,372,351,536,245,363,420,575,526,331,336,502,582,343,310,545,481,484,265,599,406,339,751,594,639,208,847,819,666,919,618,406,222,726,273,414,449,472,668,328,450,215,235,278,499,372"
"image-keyboard-response","24","32317","0.0-5.0-1.10","taskTesting","bdp_cybrbll","Mon Mar 06 2023 15:00:08 GMT-0500 (Eastern Standard Time)","415587","3","1","","308","","","","","","img/2to1/1.png","1","215","0.6","0.6","2","1","","",""
"animation","25","33624","0.0-5.0-2.10","taskTesting","bdp_cybrbll","Mon Mar 06 2023 15:00:08 GMT-0500 (Eastern Standard Time)","415587","3","1","","","","","","","","","","215","","","2","1","[{""stimulus"":""img/2to1/1.png"",""time"":108},{""stimulus"":""img/2to1/2.png"",""time"":203},{""stimulus"":""img/2to1/3.png"",""time"":313},{""stimulus"":""img/2to1/4.png"",""time"":411},{""stimulus"":""img/2to1/5.png"",""time"":506},{""stimulus"":""img/2to1/6.png"",""time"":603},{""stimulus"":""img/2to1/7.png"",""time"":700},{""stimulus"":""img/2to1/8.png"",""time"":807},{""stimulus"":""img/2to1/9.png"",""time"":908},{""stimulus"":""img/2to1/10.png"",""time"":1004},{""stimulus"":""img/2to1/11.png"",""time"":1100},{""stimulus"":""img/2to1/12.png"",""time"":1196}]","[]","194,1818,234,391,163,306,216,326,569,689,309,453,250,489,493,629,739,282,252,454,261,577,289,414,1087,911,987,618,409,628,197,300,274,549,278,768,1092,778,245,591,303,650,385,425,735,579,304,644,404,354,220,1094,549,1471,515,521,1239,272,641,703,542,1466,739,219,718,833,522,347,334,185,284,541,493,439,1204,616,291,460,609,243,282,434,471,388,261,923,987,419,474,375,352,380,261,1194,285,1158,443,254,264,707,177,538,312,795,1108,413,455,616,1353,513,214,317,247,225,415,836,506,268,1189,289,495,384,198,573,1262,871,200,203,263,507,627,194,445,469,392,840,448,783,509,403,1444,307,1267,379,741,630,436,188,326,1560,322,720,872,242,446,388,367,341,536,325,317,178,634,206,255,433,416,1569,1236,413,1016,803,552,578,500,334,989,859,708,1098,493,596,311,836,225,662,1861,192,885,244,408,431,589,350,356,346,693,647,277,1062,489,177,736,175,923,162,243,196,674,911,791,848,530,282,160,490,589,334,584,986,265,571,1132,265,743,1567,566,552,276,209,581,228,355,433,262,331,1324,189,474,172,289,380,421,370,750,191,567,556,550,1268,462,398,549,305,197,554,188,312,584,463,363,228,324,197,253,628,514,498,302,297,727,326,546,266,530,325,287,928,440,512,332,1057,255,425,457,511,627,484,407,355,266,598,289,527,914,222,685,730,222,410,511,254,771,864,312,451,799,1232,162,734,402,319,1163,639,618,348,1008,167,1271,276,463,450,1188,268,616,620,492,384,249,663,706,935,503,389,660,264,310,459,500,246,359,888,292,510,468,420,453,401,371,226,283,539,258,229,540,756,356,680,1458,610,180,157,241,761,523,309,269,354,679,523,467,1269,510,386,409,585,522,144,349,293,442,318,871,322,188,450,456,546,290,853,345,651,213,610,573,416,685,576,283,350,260,513,1076,311,568,266,362,895,614,748,229,443,640,795,607,1474,302,440,345,1180,390,1066,343,388,149,837,911,554,392,354,881,413,835,442,369,408,1150,236,872,324,248,834,215,382,556,621,547,575,946,496,388,415,858,379,444,415,328,394,483,559,849,236,368,306,248,488,628,311,779,365,1509,715,642,321,350,839,543,385,687,559,283,480,527,169,202,794,265,400,819,1004,544,228,242,435,759,841,534,719,412,178,262,341,682,1042,1603,691,793,555,1161,291,321,225,333,266,1805,680,292,286,218,1832,410,704,630,314,410,776,488,423,159,359,224,724,909,1249,336,500,558,444,535,417,279,440,1293,871,321,258,249,694,483,672,481,335,281,943,673,681,394,921,480,317,329,274,506,638,843,940,532,229,243,329,1203,501,499,293,468,298,310,921,880,788,490,458,707,701,453,736,289,450,371,463,1010,391,313,1685,544,247,215,526,529,264,888,878,281,499,300,1177,270,457,286,273,442,896,348,791,785,563,1131,144,290,671,550,307,339,502,505,257,619,804,329,195,862,274,292,494,579,325,589,811,473,902,897,604,367,318,666,835,533,265,589,298,777,314,800,325,732,394,329,682,165,484,1031,291,791,637,347,687,800,1472,510,443,130,246,280,716,191,258,638,303,347,765,254,399,744,1001,965,605,286,363,415,458,731,423,319,597,499,381,788,247,599,382,159,518,249,974,281,408,226,250,411,526,776,340,552,330,449,337,262,337,685,619,511,1163,585,178,432,682,293,187,259,1175,149,686,358,753,409,284,620,1257,413,251,1036,279,335,503,395,369,416,414,555,235,483,350,307,906,366,378,440,463,239,585,376,300,392,520,957,627,424,350,1042,1632,487,345,361,429,1137,921,1562,293,272,603,219,230,408,359,674,709,231,1088,787,373,579,308,551,238,181,331,616,302,165,276,325,337,526,298,372,351,536,245,363,420,575,526,331,336,502,582,343,310,545,481,484,265,599,406,339,751,594,639,208,847,819,666,919,618,406,222,726,273,414,449,472,668,328,450,215,235,278,499,372"
"image-keyboard-response","26","34023","0.0-5.0-1.11","taskTesting","bdp_cybrbll","Mon Mar 06 2023 15:00:08 GMT-0500 (Eastern Standard Time)","415587","3","1","","null","","","","","","img/1to3/1.png","null","214","0.6","0.6","1","3","","",""
"animation","27","35320","0.0-5.0-2.11","taskTesting","bdp_cybrbll","Mon Mar 06 2023 15:00:08 GMT-0500 (Eastern Standard Time)","415587","3","1","","","","","","","","","","214","","","1","3","[{""stimulus"":""img/1to3/1.png"",""time"":111},{""stimulus"":""img/1to3/2.png"",""time"":209},{""stimulus"":""img/1to3/3.png"",""time"":302},{""stimulus"":""img/1to3/4.png"",""time"":401},{""stimulus"":""img/1to3/5.png"",""time"":511},{""stimulus"":""img/1to3/6.png"",""time"":610},{""stimulus"":""img/1to3/7.png"",""time"":703},{""stimulus"":""img/1to3/8.png"",""time"":802},{""stimulus"":""img/1to3/9.png"",""time"":894},{""stimulus"":""img/1to3/10.png"",""time"":1006},{""stimulus"":""img/1to3/11.png"",""time"":1103},{""stimulus"":""img/1to3/12.png"",""time"":1202}]","[]","194,1818,234,391,163,306,216,326,569,689,309,453,250,489,493,629,739,282,252,454,261,577,289,414,1087,911,987,618,409,628,197,300,274,549,278,768,1092,778,245,591,303,650,385,425,735,579,304,644,404,354,220,1094,549,1471,515,521,1239,272,641,703,542,1466,739,219,718,833,522,347,334,185,284,541,493,439,1204,616,291,460,609,243,282,434,471,388,261,923,987,419,474,375,352,380,261,1194,285,1158,443,254,264,707,177,538,312,795,1108,413,455,616,1353,513,214,317,247,225,415,836,506,268,1189,289,495,384,198,573,1262,871,200,203,263,507,627,194,445,469,392,840,448,783,509,403,1444,307,1267,379,741,630,436,188,326,1560,322,720,872,242,446,388,367,341,536,325,317,178,634,206,255,433,416,1569,1236,413,1016,803,552,578,500,334,989,859,708,1098,493,596,311,836,225,662,1861,192,885,244,408,431,589,350,356,346,693,647,277,1062,489,177,736,175,923,162,243,196,674,911,791,848,530,282,160,490,589,334,584,986,265,571,1132,265,743,1567,566,552,276,209,581,228,355,433,262,331,1324,189,474,172,289,380,421,370,750,191,567,556,550,1268,462,398,549,305,197,554,188,312,584,463,363,228,324,197,253,628,514,498,302,297,727,326,546,266,530,325,287,928,440,512,332,1057,255,425,457,511,627,484,407,355,266,598,289,527,914,222,685,730,222,410,511,254,771,864,312,451,799,1232,162,734,402,319,1163,639,618,348,1008,167,1271,276,463,450,1188,268,616,620,492,384,249,663,706,935,503,389,660,264,310,459,500,246,359,888,292,510,468,420,453,401,371,226,283,539,258,229,540,756,356,680,1458,610,180,157,241,761,523,309,269,354,679,523,467,1269,510,386,409,585,522,144,349,293,442,318,871,322,188,450,456,546,290,853,345,651,213,610,573,416,685,576,283,350,260,513,1076,311,568,266,362,895,614,748,229,443,640,795,607,1474,302,440,345,1180,390,1066,343,388,149,837,911,554,392,354,881,413,835,442,369,408,1150,236,872,324,248,834,215,382,556,621,547,575,946,496,388,415,858,379,444,415,328,394,483,559,849,236,368,306,248,488,628,311,779,365,1509,715,642,321,350,839,543,385,687,559,283,480,527,169,202,794,265,400,819,1004,544,228,242,435,759,841,534,719,412,178,262,341,682,1042,1603,691,793,555,1161,291,321,225,333,266,1805,680,292,286,218,1832,410,704,630,314,410,776,488,423,159,359,224,724,909,1249,336,500,558,444,535,417,279,440,1293,871,321,258,249,694,483,672,481,335,281,943,673,681,394,921,480,317,329,274,506,638,843,940,532,229,243,329,1203,501,499,293,468,298,310,921,880,788,490,458,707,701,453,736,289,450,371,463,1010,391,313,1685,544,247,215,526,529,264,888,878,281,499,300,1177,270,457,286,273,442,896,348,791,785,563,1131,144,290,671,550,307,339,502,505,257,619,804,329,195,862,274,292,494,579,325,589,811,473,902,897,604,367,318,666,835,533,265,589,298,777,314,800,325,732,394,329,682,165,484,1031,291,791,637,347,687,800,1472,510,443,130,246,280,716,191,258,638,303,347,765,254,399,744,1001,965,605,286,363,415,458,731,423,319,597,499,381,788,247,599,382,159,518,249,974,281,408,226,250,411,526,776,340,552,330,449,337,262,337,685,619,511,1163,585,178,432,682,293,187,259,1175,149,686,358,753,409,284,620,1257,413,251,1036,279,335,503,395,369,416,414,555,235,483,350,307,906,366,378,440,463,239,585,376,300,392,520,957,627,424,350,1042,1632,487,345,361,429,1137,921,1562,293,272,603,219,230,408,359,674,709,231,1088,787,373,579,308,551,238,181,331,616,302,165,276,325,337,526,298,372,351,536,245,363,420,575,526,331,336,502,582,343,310,545,481,484,265,599,406,339,751,594,639,208,847,819,666,919,618,406,222,726,273,414,449,472,668,328,450,215,235,278,499,372"
"image-keyboard-response","28","36024","0.0-5.0-1.12","taskTesting","bdp_cybrbll","Mon Mar 06 2023 15:00:08 GMT-0500 (Eastern Standard Time)","415587","3","1","","null","","","","","","img/3to2/1.png","null","213","0.6","0.6","3","2","","",""
"animation","29","37320","0.0-5.0-2.12","taskTesting","bdp_cybrbll","Mon Mar 06 2023 15:00:08 GMT-0500 (Eastern Standard Time)","415587","3","1","","","","","","","","","","213","","","3","2","[{""stimulus"":""img/3to2/1.png"",""time"":113},{""stimulus"":""img/3to2/2.png"",""time"":205},{""stimulus"":""img/3to2/3.png"",""time"":304},{""stimulus"":""img/3to2/4.png"",""time"":397},{""stimulus"":""img/3to2/5.png"",""time"":513},{""stimulus"":""img/3to2/6.png"",""time"":606},{""stimulus"":""img/3to2/7.png"",""time"":705},{""stimulus"":""img/3to2/8.png"",""time"":799},{""stimulus"":""img/3to2/9.png"",""time"":896},{""stimulus"":""img/3to2/10.png"",""time"":1007},{""stimulus"":""img/3to2/11.png"",""time"":1105},{""stimulus"":""img/3to2/12.png"",""time"":1200}]","[]","194,1818,234,391,163,306,216,326,569,689,309,453,250,489,493,629,739,282,252,454,261,577,289,414,1087,911,987,618,409,628,197,300,274,549,278,768,1092,778,245,591,303,650,385,425,735,579,304,644,404,354,220,1094,549,1471,515,521,1239,272,641,703,542,1466,739,219,718,833,522,347,334,185,284,541,493,439,1204,616,291,460,609,243,282,434,471,388,261,923,987,419,474,375,352,380,261,1194,285,1158,443,254,264,707,177,538,312,795,1108,413,455,616,1353,513,214,317,247,225,415,836,506,268,1189,289,495,384,198,573,1262,871,200,203,263,507,627,194,445,469,392,840,448,783,509,403,1444,307,1267,379,741,630,436,188,326,1560,322,720,872,242,446,388,367,341,536,325,317,178,634,206,255,433,416,1569,1236,413,1016,803,552,578,500,334,989,859,708,1098,493,596,311,836,225,662,1861,192,885,244,408,431,589,350,356,346,693,647,277,1062,489,177,736,175,923,162,243,196,674,911,791,848,530,282,160,490,589,334,584,986,265,571,1132,265,743,1567,566,552,276,209,581,228,355,433,262,331,1324,189,474,172,289,380,421,370,750,191,567,556,550,1268,462,398,549,305,197,554,188,312,584,463,363,228,324,197,253,628,514,498,302,297,727,326,546,266,530,325,287,928,440,512,332,1057,255,425,457,511,627,484,407,355,266,598,289,527,914,222,685,730,222,410,511,254,771,864,312,451,799,1232,162,734,402,319,1163,639,618,348,1008,167,1271,276,463,450,1188,268,616,620,492,384,249,663,706,935,503,389,660,264,310,459,500,246,359,888,292,510,468,420,453,401,371,226,283,539,258,229,540,756,356,680,1458,610,180,157,241,761,523,309,269,354,679,523,467,1269,510,386,409,585,522,144,349,293,442,318,871,322,188,450,456,546,290,853,345,651,213,610,573,416,685,576,283,350,260,513,1076,311,568,266,362,895,614,748,229,443,640,795,607,1474,302,440,345,1180,390,1066,343,388,149,837,911,554,392,354,881,413,835,442,369,408,1150,236,872,324,248,834,215,382,556,621,547,575,946,496,388,415,858,379,444,415,328,394,483,559,849,236,368,306,248,488,628,311,779,365,1509,715,642,321,350,839,543,385,687,559,283,480,527,169,202,794,265,400,819,1004,544,228,242,435,759,841,534,719,412,178,262,341,682,1042,1603,691,793,555,1161,291,321,225,333,266,1805,680,292,286,218,1832,410,704,630,314,410,776,488,423,159,359,224,724,909,1249,336,500,558,444,535,417,279,440,1293,871,321,258,249,694,483,672,481,335,281,943,673,681,394,921,480,317,329,274,506,638,843,940,532,229,243,329,1203,501,499,293,468,298,310,921,880,788,490,458,707,701,453,736,289,450,371,463,1010,391,313,1685,544,247,215,526,529,264,888,878,281,499,300,1177,270,457,286,273,442,896,348,791,785,563,1131,144,290,671,550,307,339,502,505,257,619,804,329,195,862,274,292,494,579,325,589,811,473,902,897,604,367,318,666,835,533,265,589,298,777,314,800,325,732,394,329,682,165,484,1031,291,791,637,347,687,800,1472,510,443,130,246,280,716,191,258,638,303,347,765,254,399,744,1001,965,605,286,363,415,458,731,423,319,597,499,381,788,247,599,382,159,518,249,974,281,408,226,250,411,526,776,340,552,330,449,337,262,337,685,619,511,1163,585,178,432,682,293,187,259,1175,149,686,358,753,409,284,620,1257,413,251,1036,279,335,503,395,369,416,414,555,235,483,350,307,906,366,378,440,463,239,585,376,300,392,520,957,627,424,350,1042,1632,487,345,361,429,1137,921,1562,293,272,603,219,230,408,359,674,709,231,1088,787,373,579,308,551,238,181,331,616,302,165,276,325,337,526,298,372,351,536,245,363,420,575,526,331,336,502,582,343,310,545,481,484,265,599,406,339,751,594,639,208,847,819,666,919,618,406,222,726,273,414,449,472,668,328,450,215,235,278,499,372"
"image-keyboard-response","30","37573","0.0-5.0-1.13","taskTesting","bdp_cybrbll","Mon Mar 06 2023 15:00:08 GMT-0500 (Eastern Standard Time)","415587","3","1","","252","","","","","","img/2to1/1.png","2","212","0.6","0.6","2","3","","",""
"animation","31","38872","0.0-5.0-2.13","taskTesting","bdp_cybrbll","Mon Mar 06 2023 15:00:08 GMT-0500 (Eastern Standard Time)","415587","3","1","","","","","","","","","","212","","","2","3","[{""stimulus"":""img/2to3/1.png"",""time"":114},{""stimulus"":""img/2to3/2.png"",""time"":200},{""stimulus"":""img/2to3/3.png"",""time"":305},{""stimulus"":""img/2to3/4.png"",""time"":403},{""stimulus"":""img/2to3/5.png"",""time"":513},{""stimulus"":""img/2to3/6.png"",""time"":610},{""stimulus"":""img/2to3/7.png"",""time"":706},{""stimulus"":""img/2to3/8.png"",""time"":804},{""stimulus"":""img/2to3/9.png"",""time"":897},{""stimulus"":""img/2to3/10.png"",""time"":996},{""stimulus"":""img/2to3/11.png"",""time"":1106},{""stimulus"":""img/2to3/12.png"",""time"":1203}]","[]","194,1818,234,391,163,306,216,326,569,689,309,453,250,489,493,629,739,282,252,454,261,577,289,414,1087,911,987,618,409,628,197,300,274,549,278,768,1092,778,245,591,303,650,385,425,735,579,304,644,404,354,220,1094,549,1471,515,521,1239,272,641,703,542,1466,739,219,718,833,522,347,334,185,284,541,493,439,1204,616,291,460,609,243,282,434,471,388,261,923,987,419,474,375,352,380,261,1194,285,1158,443,254,264,707,177,538,312,795,1108,413,455,616,1353,513,214,317,247,225,415,836,506,268,1189,289,495,384,198,573,1262,871,200,203,263,507,627,194,445,469,392,840,448,783,509,403,1444,307,1267,379,741,630,436,188,326,1560,322,720,872,242,446,388,367,341,536,325,317,178,634,206,255,433,416,1569,1236,413,1016,803,552,578,500,334,989,859,708,1098,493,596,311,836,225,662,1861,192,885,244,408,431,589,350,356,346,693,647,277,1062,489,177,736,175,923,162,243,196,674,911,791,848,530,282,160,490,589,334,584,986,265,571,1132,265,743,1567,566,552,276,209,581,228,355,433,262,331,1324,189,474,172,289,380,421,370,750,191,567,556,550,1268,462,398,549,305,197,554,188,312,584,463,363,228,324,197,253,628,514,498,302,297,727,326,546,266,530,325,287,928,440,512,332,1057,255,425,457,511,627,484,407,355,266,598,289,527,914,222,685,730,222,410,511,254,771,864,312,451,799,1232,162,734,402,319,1163,639,618,348,1008,167,1271,276,463,450,1188,268,616,620,492,384,249,663,706,935,503,389,660,264,310,459,500,246,359,888,292,510,468,420,453,401,371,226,283,539,258,229,540,756,356,680,1458,610,180,157,241,761,523,309,269,354,679,523,467,1269,510,386,409,585,522,144,349,293,442,318,871,322,188,450,456,546,290,853,345,651,213,610,573,416,685,576,283,350,260,513,1076,311,568,266,362,895,614,748,229,443,640,795,607,1474,302,440,345,1180,390,1066,343,388,149,837,911,554,392,354,881,413,835,442,369,408,1150,236,872,324,248,834,215,382,556,621,547,575,946,496,388,415,858,379,444,415,328,394,483,559,849,236,368,306,248,488,628,311,779,365,1509,715,642,321,350,839,543,385,687,559,283,480,527,169,202,794,265,400,819,1004,544,228,242,435,759,841,534,719,412,178,262,341,682,1042,1603,691,793,555,1161,291,321,225,333,266,1805,680,292,286,218,1832,410,704,630,314,410,776,488,423,159,359,224,724,909,1249,336,500,558,444,535,417,279,440,1293,871,321,258,249,694,483,672,481,335,281,943,673,681,394,921,480,317,329,274,506,638,843,940,532,229,243,329,1203,501,499,293,468,298,310,921,880,788,490,458,707,701,453,736,289,450,371,463,1010,391,313,1685,544,247,215,526,529,264,888,878,281,499,300,1177,270,457,286,273,442,896,348,791,785,563,1131,144,290,671,550,307,339,502,505,257,619,804,329,195,862,274,292,494,579,325,589,811,473,902,897,604,367,318,666,835,533,265,589,298,777,314,800,325,732,394,329,682,165,484,1031,291,791,637,347,687,800,1472,510,443,130,246,280,716,191,258,638,303,347,765,254,399,744,1001,965,605,286,363,415,458,731,423,319,597,499,381,788,247,599,382,159,518,249,974,281,408,226,250,411,526,776,340,552,330,449,337,262,337,685,619,511,1163,585,178,432,682,293,187,259,1175,149,686,358,753,409,284,620,1257,413,251,1036,279,335,503,395,369,416,414,555,235,483,350,307,906,366,378,440,463,239,585,376,300,392,520,957,627,424,350,1042,1632,487,345,361,429,1137,921,1562,293,272,603,219,230,408,359,674,709,231,1088,787,373,579,308,551,238,181,331,616,302,165,276,325,337,526,298,372,351,536,245,363,420,575,526,331,336,502,582,343,310,545,481,484,265,599,406,339,751,594,639,208,847,819,666,919,618,406,222,726,273,414,449,472,668,328,450,215,235,278,499,372"
"image-keyboard-response","32","39190","0.0-5.0-1.14","taskTesting","bdp_cybrbll","Mon Mar 06 2023 15:00:08 GMT-0500 (Eastern Standard Time)","415587","3","1","","null","","","","","","img/3to2/1.png","null","211","0.6","0.6","3","2","","",""
"animation","33","40484","0.0-5.0-2.14","taskTesting","bdp_cybrbll","Mon Mar 06 2023 15:00:08 GMT-0500 (Eastern Standard Time)","415587","3","1","","","","","","","","","","211","","","3","2","[{""stimulus"":""img/3to2/1.png"",""time"":111},{""stimulus"":""img/3to2/2.png"",""time"":208},{""stimulus"":""img/3to2/3.png"",""time"":302},{""stimulus"":""img/3to2/4.png"",""time"":401},{""stimulus"":""img/3to2/5.png"",""time"":511},{""stimulus"":""img/3to2/6.png"",""time"":609},{""stimulus"":""img/3to2/7.png"",""time"":703},{""stimulus"":""img/3to2/8.png"",""time"":801},{""stimulus"":""img/3to2/9.png"",""time"":895},{""stimulus"":""img/3to2/10.png"",""time"":1010},{""stimulus"":""img/3to2/11.png"",""time"":1103},{""stimulus"":""img/3to2/12.png"",""time"":1202}]","[]","194,1818,234,391,163,306,216,326,569,689,309,453,250,489,493,629,739,282,252,454,261,577,289,414,1087,911,987,618,409,628,197,300,274,549,278,768,1092,778,245,591,303,650,385,425,735,579,304,644,404,354,220,1094,549,1471,515,521,1239,272,641,703,542,1466,739,219,718,833,522,347,334,185,284,541,493,439,1204,616,291,460,609,243,282,434,471,388,261,923,987,419,474,375,352,380,261,1194,285,1158,443,254,264,707,177,538,312,795,1108,413,455,616,1353,513,214,317,247,225,415,836,506,268,1189,289,495,384,198,573,1262,871,200,203,263,507,627,194,445,469,392,840,448,783,509,403,1444,307,1267,379,741,630,436,188,326,1560,322,720,872,242,446,388,367,341,536,325,317,178,634,206,255,433,416,1569,1236,413,1016,803,552,578,500,334,989,859,708,1098,493,596,311,836,225,662,1861,192,885,244,408,431,589,350,356,346,693,647,277,1062,489,177,736,175,923,162,243,196,674,911,791,848,530,282,160,490,589,334,584,986,265,571,1132,265,743,1567,566,552,276,209,581,228,355,433,262,331,1324,189,474,172,289,380,421,370,750,191,567,556,550,1268,462,398,549,305,197,554,188,312,584,463,363,228,324,197,253,628,514,498,302,297,727,326,546,266,530,325,287,928,440,512,332,1057,255,425,457,511,627,484,407,355,266,598,289,527,914,222,685,730,222,410,511,254,771,864,312,451,799,1232,162,734,402,319,1163,639,618,348,1008,167,1271,276,463,450,1188,268,616,620,492,384,249,663,706,935,503,389,660,264,310,459,500,246,359,888,292,510,468,420,453,401,371,226,283,539,258,229,540,756,356,680,1458,610,180,157,241,761,523,309,269,354,679,523,467,1269,510,386,409,585,522,144,349,293,442,318,871,322,188,450,456,546,290,853,345,651,213,610,573,416,685,576,283,350,260,513,1076,311,568,266,362,895,614,748,229,443,640,795,607,1474,302,440,345,1180,390,1066,343,388,149,837,911,554,392,354,881,413,835,442,369,408,1150,236,872,324,248,834,215,382,556,621,547,575,946,496,388,415,858,379,444,415,328,394,483,559,849,236,368,306,248,488,628,311,779,365,1509,715,642,321,350,839,543,385,687,559,283,480,527,169,202,794,265,400,819,1004,544,228,242,435,759,841,534,719,412,178,262,341,682,1042,1603,691,793,555,1161,291,321,225,333,266,1805,680,292,286,218,1832,410,704,630,314,410,776,488,423,159,359,224,724,909,1249,336,500,558,444,535,417,279,440,1293,871,321,258,249,694,483,672,481,335,281,943,673,681,394,921,480,317,329,274,506,638,843,940,532,229,243,329,1203,501,499,293,468,298,310,921,880,788,490,458,707,701,453,736,289,450,371,463,1010,391,313,1685,544,247,215,526,529,264,888,878,281,499,300,1177,270,457,286,273,442,896,348,791,785,563,1131,144,290,671,550,307,339,502,505,257,619,804,329,195,862,274,292,494,579,325,589,811,473,902,897,604,367,318,666,835,533,265,589,298,777,314,800,325,732,394,329,682,165,484,1031,291,791,637,347,687,800,1472,510,443,130,246,280,716,191,258,638,303,347,765,254,399,744,1001,965,605,286,363,415,458,731,423,319,597,499,381,788,247,599,382,159,518,249,974,281,408,226,250,411,526,776,340,552,330,449,337,262,337,685,619,511,1163,585,178,432,682,293,187,259,1175,149,686,358,753,409,284,620,1257,413,251,1036,279,335,503,395,369,416,414,555,235,483,350,307,906,366,378,440,463,239,585,376,300,392,520,957,627,424,350,1042,1632,487,345,361,429,1137,921,1562,293,272,603,219,230,408,359,674,709,231,1088,787,373,579,308,551,238,181,331,616,302,165,276,325,337,526,298,372,351,536,245,363,420,575,526,331,336,502,582,343,310,545,481,484,265,599,406,339,751,594,639,208,847,819,666,919,618,406,222,726,273,414,449,472,668,328,450,215,235,278,499,372"
"image-keyboard-response","34","40541","0.0-5.0-1.15","taskTesting","bdp_cybrbll","Mon Mar 06 2023 15:00:08 GMT-0500 (Eastern Standard Time)","415587","3","1","","56","","","","","","img/2to1/1.png","1","210","0.6","0.6","2","1","","",""
"animation","35","41833","0.0-5.0-2.15","taskTesting","bdp_cybrbll","Mon Mar 06 2023 15:00:08 GMT-0500 (Eastern Standard Time)","415587","3","1","","","","","","","","","","210","","","2","1","[{""stimulus"":""img/2to1/1.png"",""time"":106},{""stimulus"":""img/2to1/2.png"",""time"":202},{""stimulus"":""img/2to1/3.png"",""time"":315},{""stimulus"":""img/2to1/4.png"",""time"":407},{""stimulus"":""img/2to1/5.png"",""time"":507},{""stimulus"":""img/2to1/6.png"",""time"":601},{""stimulus"":""img/2to1/7.png"",""time"":698},{""stimulus"":""img/2to1/8.png"",""time"":808},{""stimulus"":""img/2to1/9.png"",""time"":907},{""stimulus"":""img/2to1/10.png"",""time"":1001},{""stimulus"":""img/2to1/11.png"",""time"":1098},{""stimulus"":""img/2to1/12.png"",""time"":1192}]","[]","194,1818,234,391,163,306,216,326,569,689,309,453,250,489,493,629,739,282,252,454,261,577,289,414,1087,911,987,618,409,628,197,300,274,549,278,768,1092,778,245,591,303,650,385,425,735,579,304,644,404,354,220,1094,549,1471,515,521,1239,272,641,703,542,1466,739,219,718,833,522,347,334,185,284,541,493,439,1204,616,291,460,609,243,282,434,471,388,261,923,987,419,474,375,352,380,261,1194,285,1158,443,254,264,707,177,538,312,795,1108,413,455,616,1353,513,214,317,247,225,415,836,506,268,1189,289,495,384,198,573,1262,871,200,203,263,507,627,194,445,469,392,840,448,783,509,403,1444,307,1267,379,741,630,436,188,326,1560,322,720,872,242,446,388,367,341,536,325,317,178,634,206,255,433,416,1569,1236,413,1016,803,552,578,500,334,989,859,708,1098,493,596,311,836,225,662,1861,192,885,244,408,431,589,350,356,346,693,647,277,1062,489,177,736,175,923,162,243,196,674,911,791,848,530,282,160,490,589,334,584,986,265,571,1132,265,743,1567,566,552,276,209,581,228,355,433,262,331,1324,189,474,172,289,380,421,370,750,191,567,556,550,1268,462,398,549,305,197,554,188,312,584,463,363,228,324,197,253,628,514,498,302,297,727,326,546,266,530,325,287,928,440,512,332,1057,255,425,457,511,627,484,407,355,266,598,289,527,914,222,685,730,222,410,511,254,771,864,312,451,799,1232,162,734,402,319,1163,639,618,348,1008,167,1271,276,463,450,1188,268,616,620,492,384,249,663,706,935,503,389,660,264,310,459,500,246,359,888,292,510,468,420,453,401,371,226,283,539,258,229,540,756,356,680,1458,610,180,157,241,761,523,309,269,354,679,523,467,1269,510,386,409,585,522,144,349,293,442,318,871,322,188,450,456,546,290,853,345,651,213,610,573,416,685,576,283,350,260,513,1076,311,568,266,362,895,614,748,229,443,640,795,607,1474,302,440,345,1180,390,1066,343,388,149,837,911,554,392,354,881,413,835,442,369,408,1150,236,872,324,248,834,215,382,556,621,547,575,946,496,388,415,858,379,444,415,328,394,483,559,849,236,368,306,248,488,628,311,779,365,1509,715,642,321,350,839,543,385,687,559,283,480,527,169,202,794,265,400,819,1004,544,228,242,435,759,841,534,719,412,178,262,341,682,1042,1603,691,793,555,1161,291,321,225,333,266,1805,680,292,286,218,1832,410,704,630,314,410,776,488,423,159,359,224,724,909,1249,336,500,558,444,535,417,279,440,1293,871,321,258,249,694,483,672,481,335,281,943,673,681,394,921,480,317,329,274,506,638,843,940,532,229,243,329,1203,501,499,293,468,298,310,921,880,788,490,458,707,701,453,736,289,450,371,463,1010,391,313,1685,544,247,215,526,529,264,888,878,281,499,300,1177,270,457,286,273,442,896,348,791,785,563,1131,144,290,671,550,307,339,502,505,257,619,804,329,195,862,274,292,494,579,325,589,811,473,902,897,604,367,318,666,835,533,265,589,298,777,314,800,325,732,394,329,682,165,484,1031,291,791,637,347,687,800,1472,510,443,130,246,280,716,191,258,638,303,347,765,254,399,744,1001,965,605,286,363,415,458,731,423,319,597,499,381,788,247,599,382,159,518,249,974,281,408,226,250,411,526,776,340,552,330,449,337,262,337,685,619,511,1163,585,178,432,682,293,187,259,1175,149,686,358,753,409,284,620,1257,413,251,1036,279,335,503,395,369,416,414,555,235,483,350,307,906,366,378,440,463,239,585,376,300,392,520,957,627,424,350,1042,1632,487,345,361,429,1137,921,1562,293,272,603,219,230,408,359,674,709,231,1088,787,373,579,308,551,238,181,331,616,302,165,276,325,337,526,298,372,351,536,245,363,420,575,526,331,336,502,582,343,310,545,481,484,265,599,406,339,751,594,639,208,847,819,666,919,618,406,222,726,273,414,449,472,668,328,450,215,235,278,499,372"
"image-keyboard-response","36","42040","0.0-5.0-1.16","taskTesting","bdp_cybrbll","Mon Mar 06 2023 15:00:08 GMT-0500 (Eastern Standard Time)","415587","3","1","","null","","","","","","img/1to3/1.png","null","209","0.6","0.6","1","3","","",""
"animation","37","43335","0.0-5.0-2.16","taskTesting","bdp_cybrbll","Mon Mar 06 2023 15:00:08 GMT-0500 (Eastern Standard Time)","415587","3","1","","","","","","","","","","209","","","1","3","[{""stimulus"":""img/1to3/1.png"",""time"":111},{""stimulus"":""img/1to3/2.png"",""time"":209},{""stimulus"":""img/1to3/3.png"",""time"":302},{""stimulus"":""img/1to3/4.png"",""time"":413},{""stimulus"":""img/1to3/5.png"",""time"":511},{""stimulus"":""img/1to3/6.png"",""time"":609},{""stimulus"":""img/1to3/7.png"",""time"":702},{""stimulus"":""img/1to3/8.png"",""time"":797},{""stimulus"":""img/1to3/9.png"",""time"":894},{""stimulus"":""img/1to3/10.png"",""time"":1006},{""stimulus"":""img/1to3/11.png"",""time"":1103},{""stimulus"":""img/1to3/12.png"",""time"":1198}]","[]","194,1818,234,391,163,306,216,326,569,689,309,453,250,489,493,629,739,282,252,454,261,577,289,414,1087,911,987,618,409,628,197,300,274,549,278,768,1092,778,245,591,303,650,385,425,735,579,304,644,404,354,220,1094,549,1471,515,521,1239,272,641,703,542,1466,739,219,718,833,522,347,334,185,284,541,493,439,1204,616,291,460,609,243,282,434,471,388,261,923,987,419,474,375,352,380,261,1194,285,1158,443,254,264,707,177,538,312,795,1108,413,455,616,1353,513,214,317,247,225,415,836,506,268,1189,289,495,384,198,573,1262,871,200,203,263,507,627,194,445,469,392,840,448,783,509,403,1444,307,1267,379,741,630,436,188,326,1560,322,720,872,242,446,388,367,341,536,325,317,178,634,206,255,433,416,1569,1236,413,1016,803,552,578,500,334,989,859,708,1098,493,596,311,836,225,662,1861,192,885,244,408,431,589,350,356,346,693,647,277,1062,489,177,736,175,923,162,243,196,674,911,791,848,530,282,160,490,589,334,584,986,265,571,1132,265,743,1567,566,552,276,209,581,228,355,433,262,331,1324,189,474,172,289,380,421,370,750,191,567,556,550,1268,462,398,549,305,197,554,188,312,584,463,363,228,324,197,253,628,514,498,302,297,727,326,546,266,530,325,287,928,440,512,332,1057,255,425,457,511,627,484,407,355,266,598,289,527,914,222,685,730,222,410,511,254,771,864,312,451,799,1232,162,734,402,319,1163,639,618,348,1008,167,1271,276,463,450,1188,268,616,620,492,384,249,663,706,935,503,389,660,264,310,459,500,246,359,888,292,510,468,420,453,401,371,226,283,539,258,229,540,756,356,680,1458,610,180,157,241,761,523,309,269,354,679,523,467,1269,510,386,409,585,522,144,349,293,442,318,871,322,188,450,456,546,290,853,345,651,213,610,573,416,685,576,283,350,260,513,1076,311,568,266,362,895,614,748,229,443,640,795,607,1474,302,440,345,1180,390,1066,343,388,149,837,911,554,392,354,881,413,835,442,369,408,1150,236,872,324,248,834,215,382,556,621,547,575,946,496,388,415,858,379,444,415,328,394,483,559,849,236,368,306,248,488,628,311,779,365,1509,715,642,321,350,839,543,385,687,559,283,480,527,169,202,794,265,400,819,1004,544,228,242,435,759,841,534,719,412,178,262,341,682,1042,1603,691,793,555,1161,291,321,225,333,266,1805,680,292,286,218,1832,410,704,630,314,410,776,488,423,159,359,224,724,909,1249,336,500,558,444,535,417,279,440,1293,871,321,258,249,694,483,672,481,335,281,943,673,681,394,921,480,317,329,274,506,638,843,940,532,229,243,329,1203,501,499,293,468,298,310,921,880,788,490,458,707,701,453,736,289,450,371,463,1010,391,313,1685,544,247,215,526,529,264,888,878,281,499,300,1177,270,457,286,273,442,896,348,791,785,563,1131,144,290,671,550,307,339,502,505,257,619,804,329,195,862,274,292,494,579,325,589,811,473,902,897,604,367,318,666,835,533,265,589,298,777,314,800,325,732,394,329,682,165,484,1031,291,791,637,347,687,800,1472,510,443,130,246,280,716,191,258,638,303,347,765,254,399,744,1001,965,605,286,363,415,458,731,423,319,597,499,381,788,247,599,382,159,518,249,974,281,408,226,250,411,526,776,340,552,330,449,337,262,337,685,619,511,1163,585,178,432,682,293,187,259,1175,149,686,358,753,409,284,620,1257,413,251,1036,279,335,503,395,369,416,414,555,235,483,350,307,906,366,378,440,463,239,585,376,300,392,520,957,627,424,350,1042,1632,487,345,361,429,1137,921,1562,293,272,603,219,230,408,359,674,709,231,1088,787,373,579,308,551,238,181,331,616,302,165,276,325,337,526,298,372,351,536,245,363,420,575,526,331,336,502,582,343,310,545,481,484,265,599,406,339,751,594,639,208,847,819,666,919,618,406,222,726,273,414,449,472,668,328,450,215,235,278,499,372"
"image-keyboard-response","38","43816","0.0-5.0-1.17","taskTesting","bdp_cybrbll","Mon Mar 06 2023 15:00:08 GMT-0500 (Eastern Standard Time)","415587","3","1","","null","","","","","","img/3to2/1.png","null","208","0.6","0.6","3","2","","",""
"animation","39","45111","0.0-5.0-2.17","taskTesting","bdp_cybrbll","Mon Mar 06 2023 15:00:08 GMT-0500 (Eastern Standard Time)","415587","3","1","","","","","","","","","","208","","","3","2","[{""stimulus"":""img/3to2/1.png"",""time"":112},{""stimulus"":""img/3to2/2.png"",""time"":208},{""stimulus"":""img/3to2/3.png"",""time"":302},{""stimulus"":""img/3to2/4.png"",""time"":412},{""stimulus"":""img/3to2/5.png"",""time"":511},{""stimulus"":""img/3to2/6.png"",""time"":607},{""stimulus"":""img/3to2/7.png"",""time"":702},{""stimulus"":""img/3to2/8.png"",""time"":798},{""stimulus"":""img/3to2/9.png"",""time"":894},{""stimulus"":""img/3to2/10.png"",""time"":1005},{""stimulus"":""img/3to2/11.png"",""time"":1103},{""stimulus"":""img/3to2/12.png"",""time"":1200}]","[]","194,1818,234,391,163,306,216,326,569,689,309,453,250,489,493,629,739,282,252,454,261,577,289,414,1087,911,987,618,409,628,197,300,274,549,278,768,1092,778,245,591,303,650,385,425,735,579,304,644,404,354,220,1094,549,1471,515,521,1239,272,641,703,542,1466,739,219,718,833,522,347,334,185,284,541,493,439,1204,616,291,460,609,243,282,434,471,388,261,923,987,419,474,375,352,380,261,1194,285,1158,443,254,264,707,177,538,312,795,1108,413,455,616,1353,513,214,317,247,225,415,836,506,268,1189,289,495,384,198,573,1262,871,200,203,263,507,627,194,445,469,392,840,448,783,509,403,1444,307,1267,379,741,630,436,188,326,1560,322,720,872,242,446,388,367,341,536,325,317,178,634,206,255,433,416,1569,1236,413,1016,803,552,578,500,334,989,859,708,1098,493,596,311,836,225,662,1861,192,885,244,408,431,589,350,356,346,693,647,277,1062,489,177,736,175,923,162,243,196,674,911,791,848,530,282,160,490,589,334,584,986,265,571,1132,265,743,1567,566,552,276,209,581,228,355,433,262,331,1324,189,474,172,289,380,421,370,750,191,567,556,550,1268,462,398,549,305,197,554,188,312,584,463,363,228,324,197,253,628,514,498,302,297,727,326,546,266,530,325,287,928,440,512,332,1057,255,425,457,511,627,484,407,355,266,598,289,527,914,222,685,730,222,410,511,254,771,864,312,451,799,1232,162,734,402,319,1163,639,618,348,1008,167,1271,276,463,450,1188,268,616,620,492,384,249,663,706,935,503,389,660,264,310,459,500,246,359,888,292,510,468,420,453,401,371,226,283,539,258,229,540,756,356,680,1458,610,180,157,241,761,523,309,269,354,679,523,467,1269,510,386,409,585,522,144,349,293,442,318,871,322,188,450,456,546,290,853,345,651,213,610,573,416,685,576,283,350,260,513,1076,311,568,266,362,895,614,748,229,443,640,795,607,1474,302,440,345,1180,390,1066,343,388,149,837,911,554,392,354,881,413,835,442,369,408,1150,236,872,324,248,834,215,382,556,621,547,575,946,496,388,415,858,379,444,415,328,394,483,559,849,236,368,306,248,488,628,311,779,365,1509,715,642,321,350,839,543,385,687,559,283,480,527,169,202,794,265,400,819,1004,544,228,242,435,759,841,534,719,412,178,262,341,682,1042,1603,691,793,555,1161,291,321,225,333,266,1805,680,292,286,218,1832,410,704,630,314,410,776,488,423,159,359,224,724,909,1249,336,500,558,444,535,417,279,440,1293,871,321,258,249,694,483,672,481,335,281,943,673,681,394,921,480,317,329,274,506,638,843,940,532,229,243,329,1203,501,499,293,468,298,310,921,880,788,490,458,707,701,453,736,289,450,371,463,1010,391,313,1685,544,247,215,526,529,264,888,878,281,499,300,1177,270,457,286,273,442,896,348,791,785,563,1131,144,290,671,550,307,339,502,505,257,619,804,329,195,862,274,292,494,579,325,589,811,473,902,897,604,367,318,666,835,533,265,589,298,777,314,800,325,732,394,329,682,165,484,1031,291,791,637,347,687,800,1472,510,443,130,246,280,716,191,258,638,303,347,765,254,399,744,1001,965,605,286,363,415,458,731,423,319,597,499,381,788,247,599,382,159,518,249,974,281,408,226,250,411,526,776,340,552,330,449,337,262,337,685,619,511,1163,585,178,432,682,293,187,259,1175,149,686,358,753,409,284,620,1257,413,251,1036,279,335,503,395,369,416,414,555,235,483,350,307,906,366,378,440,463,239,585,376,300,392,520,957,627,424,350,1042,1632,487,345,361,429,1137,921,1562,293,272,603,219,230,408,359,674,709,231,1088,787,373,579,308,551,238,181,331,616,302,165,276,325,337,526,298,372,351,536,245,363,420,575,526,331,336,502,582,343,310,545,481,484,265,599,406,339,751,594,639,208,847,819,666,919,618,406,222,726,273,414,449,472,668,328,450,215,235,278,499,372"
"image-keyboard-response","40","45334","0.0-5.0-1.18","taskTesting","bdp_cybrbll","Mon Mar 06 2023 15:00:08 GMT-0500 (Eastern Standard Time)","415587","3","1","","223","","","","","","img/2to1/1.png","2","207","0.6","0.6","2","3","","",""
"animation","41","46632","0.0-5.0-2.18","taskTesting","bdp_cybrbll","Mon Mar 06 2023 15:00:08 GMT-0500 (Eastern Standard Time)","415587","3","1","","","","","","","","","","207","","","2","3","[{""stimulus"":""img/2to3/1.png"",""time"":114},{""stimulus"":""img/2to3/2.png"",""time"":209},{""stimulus"":""img/2to3/3.png"",""time"":305},{""stimulus"":""img/2to3/4.png"",""time"":399},{""stimulus"":""img/2to3/5.png"",""time"":514},{""stimulus"":""img/2to3/6.png"",""time"":609},{""stimulus"":""img/2to3/7.png"",""time"":706},{""stimulus"":""img/2to3/8.png"",""time"":799},{""stimulus"":""img/2to3/9.png"",""time"":898},{""stimulus"":""img/2to3/10.png"",""time"":994},{""stimulus"":""img/2to3/11.png"",""time"":1106},{""stimulus"":""img/2to3/12.png"",""time"":1199}]","[]","194,1818,234,391,163,306,216,326,569,689,309,453,250,489,493,629,739,282,252,454,261,577,289,414,1087,911,987,618,409,628,197,300,274,549,278,768,1092,778,245,591,303,650,385,425,735,579,304,644,404,354,220,1094,549,1471,515,521,1239,272,641,703,542,1466,739,219,718,833,522,347,334,185,284,541,493,439,1204,616,291,460,609,243,282,434,471,388,261,923,987,419,474,375,352,380,261,1194,285,1158,443,254,264,707,177,538,312,795,1108,413,455,616,1353,513,214,317,247,225,415,836,506,268,1189,289,495,384,198,573,1262,871,200,203,263,507,627,194,445,469,392,840,448,783,509,403,1444,307,1267,379,741,630,436,188,326,1560,322,720,872,242,446,388,367,341,536,325,317,178,634,206,255,433,416,1569,1236,413,1016,803,552,578,500,334,989,859,708,1098,493,596,311,836,225,662,1861,192,885,244,408,431,589,350,356,346,693,647,277,1062,489,177,736,175,923,162,243,196,674,911,791,848,530,282,160,490,589,334,584,986,265,571,1132,265,743,1567,566,552,276,209,581,228,355,433,262,331,1324,189,474,172,289,380,421,370,750,191,567,556,550,1268,462,398,549,305,197,554,188,312,584,463,363,228,324,197,253,628,514,498,302,297,727,326,546,266,530,325,287,928,440,512,332,1057,255,425,457,511,627,484,407,355,266,598,289,527,914,222,685,730,222,410,511,254,771,864,312,451,799,1232,162,734,402,319,1163,639,618,348,1008,167,1271,276,463,450,1188,268,616,620,492,384,249,663,706,935,503,389,660,264,310,459,500,246,359,888,292,510,468,420,453,401,371,226,283,539,258,229,540,756,356,680,1458,610,180,157,241,761,523,309,269,354,679,523,467,1269,510,386,409,585,522,144,349,293,442,318,871,322,188,450,456,546,290,853,345,651,213,610,573,416,685,576,283,350,260,513,1076,311,568,266,362,895,614,748,229,443,640,795,607,1474,302,440,345,1180,390,1066,343,388,149,837,911,554,392,354,881,413,835,442,369,408,1150,236,872,324,248,834,215,382,556,621,547,575,946,496,388,415,858,379,444,415,328,394,483,559,849,236,368,306,248,488,628,311,779,365,1509,715,642,321,350,839,543,385,687,559,283,480,527,169,202,794,265,400,819,1004,544,228,242,435,759,841,534,719,412,178,262,341,682,1042,1603,691,793,555,1161,291,321,225,333,266,1805,680,292,286,218,1832,410,704,630,314,410,776,488,423,159,359,224,724,909,1249,336,500,558,444,535,417,279,440,1293,871,321,258,249,694,483,672,481,335,281,943,673,681,394,921,480,317,329,274,506,638,843,940,532,229,243,329,1203,501,499,293,468,298,310,921,880,788,490,458,707,701,453,736,289,450,371,463,1010,391,313,1685,544,247,215,526,529,264,888,878,281,499,300,1177,270,457,286,273,442,896,348,791,785,563,1131,144,290,671,550,307,339,502,505,257,619,804,329,195,862,274,292,494,579,325,589,811,473,902,897,604,367,318,666,835,533,265,589,298,777,314,800,325,732,394,329,682,165,484,1031,291,791,637,347,687,800,1472,510,443,130,246,280,716,191,258,638,303,347,765,254,399,744,1001,965,605,286,363,415,458,731,423,319,597,499,381,788,247,599,382,159,518,249,974,281,408,226,250,411,526,776,340,552,330,449,337,262,337,685,619,511,1163,585,178,432,682,293,187,259,1175,149,686,358,753,409,284,620,1257,413,251,1036,279,335,503,395,369,416,414,555,235,483,350,307,906,366,378,440,463,239,585,376,300,392,520,957,627,424,350,1042,1632,487,345,361,429,1137,921,1562,293,272,603,219,230,408,359,674,709,231,1088,787,373,579,308,551,238,181,331,616,302,165,276,325,337,526,298,372,351,536,245,363,420,575,526,331,336,502,582,343,310,545,481,484,265,599,406,339,751,594,639,208,847,819,666,919,618,406,222,726,273,414,449,472,668,328,450,215,235,278,499,372"
"image-keyboard-response","42","46853","0.0-5.0-1.19","taskTesting","bdp_cybrbll","Mon Mar 06 2023 15:00:08 GMT-0500 (Eastern Standard Time)","415587","3","1","","null","","","","","","img/3to2/1.png","null","206","0.6","0.6","3","2","","",""
"animation","43","48153","0.0-5.0-2.19","taskTesting","bdp_cybrbll","Mon Mar 06 2023 15:00:08 GMT-0500 (Eastern Standard Time)","415587","3","1","","","","","","","","","","206","","","3","2","[{""stimulus"":""img/3to2/1.png"",""time"":116},{""stimulus"":""img/3to2/2.png"",""time"":209},{""stimulus"":""img/3to2/3.png"",""time"":307},{""stimulus"":""img/3to2/4.png"",""time"":402},{""stimulus"":""img/3to2/5.png"",""time"":499},{""stimulus"":""img/3to2/6.png"",""time"":609},{""stimulus"":""img/3to2/7.png"",""time"":708},{""stimulus"":""img/3to2/8.png"",""time"":804},{""stimulus"":""img/3to2/9.png"",""time"":899},{""stimulus"":""img/3to2/10.png"",""time"":992},{""stimulus"":""img/3to2/11.png"",""time"":1104},{""stimulus"":""img/3to2/12.png"",""time"":1202}]","[]","194,1818,234,391,163,306,216,326,569,689,309,453,250,489,493,629,739,282,252,454,261,577,289,414,1087,911,987,618,409,628,197,300,274,549,278,768,1092,778,245,591,303,650,385,425,735,579,304,644,404,354,220,1094,549,1471,515,521,1239,272,641,703,542,1466,739,219,718,833,522,347,334,185,284,541,493,439,1204,616,291,460,609,243,282,434,471,388,261,923,987,419,474,375,352,380,261,1194,285,1158,443,254,264,707,177,538,312,795,1108,413,455,616,1353,513,214,317,247,225,415,836,506,268,1189,289,495,384,198,573,1262,871,200,203,263,507,627,194,445,469,392,840,448,783,509,403,1444,307,1267,379,741,630,436,188,326,1560,322,720,872,242,446,388,367,341,536,325,317,178,634,206,255,433,416,1569,1236,413,1016,803,552,578,500,334,989,859,708,1098,493,596,311,836,225,662,1861,192,885,244,408,431,589,350,356,346,693,647,277,1062,489,177,736,175,923,162,243,196,674,911,791,848,530,282,160,490,589,334,584,986,265,571,1132,265,743,1567,566,552,276,209,581,228,355,433,262,331,1324,189,474,172,289,380,421,370,750,191,567,556,550,1268,462,398,549,305,197,554,188,312,584,463,363,228,324,197,253,628,514,498,302,297,727,326,546,266,530,325,287,928,440,512,332,1057,255,425,457,511,627,484,407,355,266,598,289,527,914,222,685,730,222,410,511,254,771,864,312,451,799,1232,162,734,402,319,1163,639,618,348,1008,167,1271,276,463,450,1188,268,616,620,492,384,249,663,706,935,503,389,660,264,310,459,500,246,359,888,292,510,468,420,453,401,371,226,283,539,258,229,540,756,356,680,1458,610,180,157,241,761,523,309,269,354,679,523,467,1269,510,386,409,585,522,144,349,293,442,318,871,322,188,450,456,546,290,853,345,651,213,610,573,416,685,576,283,350,260,513,1076,311,568,266,362,895,614,748,229,443,640,795,607,1474,302,440,345,1180,390,1066,343,388,149,837,911,554,392,354,881,413,835,442,369,408,1150,236,872,324,248,834,215,382,556,621,547,575,946,496,388,415,858,379,444,415,328,394,483,559,849,236,368,306,248,488,628,311,779,365,1509,715,642,321,350,839,543,385,687,559,283,480,527,169,202,794,265,400,819,1004,544,228,242,435,759,841,534,719,412,178,262,341,682,1042,1603,691,793,555,1161,291,321,225,333,266,1805,680,292,286,218,1832,410,704,630,314,410,776,488,423,159,359,224,724,909,1249,336,500,558,444,535,417,279,440,1293,871,321,258,249,694,483,672,481,335,281,943,673,681,394,921,480,317,329,274,506,638,843,940,532,229,243,329,1203,501,499,293,468,298,310,921,880,788,490,458,707,701,453,736,289,450,371,463,1010,391,313,1685,544,247,215,526,529,264,888,878,281,499,300,1177,270,457,286,273,442,896,348,791,785,563,1131,144,290,671,550,307,339,502,505,257,619,804,329,195,862,274,292,494,579,325,589,811,473,902,897,604,367,318,666,835,533,265,589,298,777,314,800,325,732,394,329,682,165,484,1031,291,791,637,347,687,800,1472,510,443,130,246,280,716,191,258,638,303,347,765,254,399,744,1001,965,605,286,363,415,458,731,423,319,597,499,381,788,247,599,382,159,518,249,974,281,408,226,250,411,526,776,340,552,330,449,337,262,337,685,619,511,1163,585,178,432,682,293,187,259,1175,149,686,358,753,409,284,620,1257,413,251,1036,279,335,503,395,369,416,414,555,235,483,350,307,906,366,378,440,463,239,585,376,300,392,520,957,627,424,350,1042,1632,487,345,361,429,1137,921,1562,293,272,603,219,230,408,359,674,709,231,1088,787,373,579,308,551,238,181,331,616,302,165,276,325,337,526,298,372,351,536,245,363,420,575,526,331,336,502,582,343,310,545,481,484,265,599,406,339,751,594,639,208,847,819,666,919,618,406,222,726,273,414,449,472,668,328,450,215,235,278,499,372"
"image-keyboard-response","44","48269","0.0-5.0-1.20","taskTesting","bdp_cybrbll","Mon Mar 06 2023 15:00:08 GMT-0500 (Eastern Standard Time)","415587","3","1","","115","","","","","","img/2to1/1.png","1","205","0.6","0.6","2","1","","",""
"animation","45","49577","0.0-5.0-2.20","taskTesting","bdp_cybrbll","Mon Mar 06 2023 15:00:08 GMT-0500 (Eastern Standard Time)","415587","3","1","","","","","","","","","","205","","","2","1","[{""stimulus"":""img/2to1/1.png"",""time"":106},{""stimulus"":""img/2to1/2.png"",""time"":202},{""stimulus"":""img/2to1/3.png"",""time"":313},{""stimulus"":""img/2to1/4.png"",""time"":411},{""stimulus"":""img/2to1/5.png"",""time"":507},{""stimulus"":""img/2to1/6.png"",""time"":603},{""stimulus"":""img/2to1/7.png"",""time"":697},{""stimulus"":""img/2to1/8.png"",""time"":810},{""stimulus"":""img/2to1/9.png"",""time"":907},{""stimulus"":""img/2to1/10.png"",""time"":1000},{""stimulus"":""img/2to1/11.png"",""time"":1098},{""stimulus"":""img/2to1/12.png"",""time"":1195}]","[]","194,1818,234,391,163,306,216,326,569,689,309,453,250,489,493,629,739,282,252,454,261,577,289,414,1087,911,987,618,409,628,197,300,274,549,278,768,1092,778,245,591,303,650,385,425,735,579,304,644,404,354,220,1094,549,1471,515,521,1239,272,641,703,542,1466,739,219,718,833,522,347,334,185,284,541,493,439,1204,616,291,460,609,243,282,434,471,388,261,923,987,419,474,375,352,380,261,1194,285,1158,443,254,264,707,177,538,312,795,1108,413,455,616,1353,513,214,317,247,225,415,836,506,268,1189,289,495,384,198,573,1262,871,200,203,263,507,627,194,445,469,392,840,448,783,509,403,1444,307,1267,379,741,630,436,188,326,1560,322,720,872,242,446,388,367,341,536,325,317,178,634,206,255,433,416,1569,1236,413,1016,803,552,578,500,334,989,859,708,1098,493,596,311,836,225,662,1861,192,885,244,408,431,589,350,356,346,693,647,277,1062,489,177,736,175,923,162,243,196,674,911,791,848,530,282,160,490,589,334,584,986,265,571,1132,265,743,1567,566,552,276,209,581,228,355,433,262,331,1324,189,474,172,289,380,421,370,750,191,567,556,550,1268,462,398,549,305,197,554,188,312,584,463,363,228,324,197,253,628,514,498,302,297,727,326,546,266,530,325,287,928,440,512,332,1057,255,425,457,511,627,484,407,355,266,598,289,527,914,222,685,730,222,410,511,254,771,864,312,451,799,1232,162,734,402,319,1163,639,618,348,1008,167,1271,276,463,450,1188,268,616,620,492,384,249,663,706,935,503,389,660,264,310,459,500,246,359,888,292,510,468,420,453,401,371,226,283,539,258,229,540,756,356,680,1458,610,180,157,241,761,523,309,269,354,679,523,467,1269,510,386,409,585,522,144,349,293,442,318,871,322,188,450,456,546,290,853,345,651,213,610,573,416,685,576,283,350,260,513,1076,311,568,266,362,895,614,748,229,443,640,795,607,1474,302,440,345,1180,390,1066,343,388,149,837,911,554,392,354,881,413,835,442,369,408,1150,236,872,324,248,834,215,382,556,621,547,575,946,496,388,415,858,379,444,415,328,394,483,559,849,236,368,306,248,488,628,311,779,365,1509,715,642,321,350,839,543,385,687,559,283,480,527,169,202,794,265,400,819,1004,544,228,242,435,759,841,534,719,412,178,262,341,682,1042,1603,691,793,555,1161,291,321,225,333,266,1805,680,292,286,218,1832,410,704,630,314,410,776,488,423,159,359,224,724,909,1249,336,500,558,444,535,417,279,440,1293,871,321,258,249,694,483,672,481,335,281,943,673,681,394,921,480,317,329,274,506,638,843,940,532,229,243,329,1203,501,499,293,468,298,310,921,880,788,490,458,707,701,453,736,289,450,371,463,1010,391,313,1685,544,247,215,526,529,264,888,878,281,499,300,1177,270,457,286,273,442,896,348,791,785,563,1131,144,290,671,550,307,339,502,505,257,619,804,329,195,862,274,292,494,579,325,589,811,473,902,897,604,367,318,666,835,533,265,589,298,777,314,800,325,732,394,329,682,165,484,1031,291,791,637,347,687,800,1472,510,443,130,246,280,716,191,258,638,303,347,765,254,399,744,1001,965,605,286,363,415,458,731,423,319,597,499,381,788,247,599,382,159,518,249,974,281,408,226,250,411,526,776,340,552,330,449,337,262,337,685,619,511,1163,585,178,432,682,293,187,259,1175,149,686,358,753,409,284,620,1257,413,251,1036,279,335,503,395,369,416,414,555,235,483,350,307,906,366,378,440,463,239,585,376,300,392,520,957,627,424,350,1042,1632,487,345,361,429,1137,921,1562,293,272,603,219,230,408,359,674,709,231,1088,787,373,579,308,551,238,181,331,616,302,165,276,325,337,526,298,372,351,536,245,363,420,575,526,331,336,502,582,343,310,545,481,484,265,599,406,339,751,594,639,208,847,819,666,919,618,406,222,726,273,414,449,472,668,328,450,215,235,278,499,372"
"image-keyboard-response","46","50440","0.0-5.0-1.21","taskTesting","bdp_cybrbll","Mon Mar 06 2023 15:00:08 GMT-0500 (Eastern Standard Time)","415587","3","1","","null","","","","","","img/1to3/1.png","null","204","0.6","0.6","1","2","","",""
"animation","47","51735","0.0-5.0-2.21","taskTesting","bdp_cybrbll","Mon Mar 06 2023 15:00:08 GMT-0500 (Eastern Standard Time)","415587","3","1","","","","","","","","","","204","","","1","2","[{""stimulus"":""img/1to2/1.png"",""time"":109},{""stimulus"":""img/1to2/2.png"",""time"":208},{""stimulus"":""img/1to2/3.png"",""time"":302},{""stimulus"":""img/1to2/4.png"",""time"":414},{""stimulus"":""img/1to2/5.png"",""time"":510},{""stimulus"":""img/1to2/6.png"",""time"":605},{""stimulus"":""img/1to2/7.png"",""time"":702},{""stimulus"":""img/1to2/8.png"",""time"":801},{""stimulus"":""img/1to2/9.png"",""time"":893},{""stimulus"":""img/1to2/10.png"",""time"":1004},{""stimulus"":""img/1to2/11.png"",""time"":1102},{""stimulus"":""img/1to2/12.png"",""time"":1196}]","[]","194,1818,234,391,163,306,216,326,569,689,309,453,250,489,493,629,739,282,252,454,261,577,289,414,1087,911,987,618,409,628,197,300,274,549,278,768,1092,778,245,591,303,650,385,425,735,579,304,644,404,354,220,1094,549,1471,515,521,1239,272,641,703,542,1466,739,219,718,833,522,347,334,185,284,541,493,439,1204,616,291,460,609,243,282,434,471,388,261,923,987,419,474,375,352,380,261,1194,285,1158,443,254,264,707,177,538,312,795,1108,413,455,616,1353,513,214,317,247,225,415,836,506,268,1189,289,495,384,198,573,1262,871,200,203,263,507,627,194,445,469,392,840,448,783,509,403,1444,307,1267,379,741,630,436,188,326,1560,322,720,872,242,446,388,367,341,536,325,317,178,634,206,255,433,416,1569,1236,413,1016,803,552,578,500,334,989,859,708,1098,493,596,311,836,225,662,1861,192,885,244,408,431,589,350,356,346,693,647,277,1062,489,177,736,175,923,162,243,196,674,911,791,848,530,282,160,490,589,334,584,986,265,571,1132,265,743,1567,566,552,276,209,581,228,355,433,262,331,1324,189,474,172,289,380,421,370,750,191,567,556,550,1268,462,398,549,305,197,554,188,312,584,463,363,228,324,197,253,628,514,498,302,297,727,326,546,266,530,325,287,928,440,512,332,1057,255,425,457,511,627,484,407,355,266,598,289,527,914,222,685,730,222,410,511,254,771,864,312,451,799,1232,162,734,402,319,1163,639,618,348,1008,167,1271,276,463,450,1188,268,616,620,492,384,249,663,706,935,503,389,660,264,310,459,500,246,359,888,292,510,468,420,453,401,371,226,283,539,258,229,540,756,356,680,1458,610,180,157,241,761,523,309,269,354,679,523,467,1269,510,386,409,585,522,144,349,293,442,318,871,322,188,450,456,546,290,853,345,651,213,610,573,416,685,576,283,350,260,513,1076,311,568,266,362,895,614,748,229,443,640,795,607,1474,302,440,345,1180,390,1066,343,388,149,837,911,554,392,354,881,413,835,442,369,408,1150,236,872,324,248,834,215,382,556,621,547,575,946,496,388,415,858,379,444,415,328,394,483,559,849,236,368,306,248,488,628,311,779,365,1509,715,642,321,350,839,543,385,687,559,283,480,527,169,202,794,265,400,819,1004,544,228,242,435,759,841,534,719,412,178,262,341,682,1042,1603,691,793,555,1161,291,321,225,333,266,1805,680,292,286,218,1832,410,704,630,314,410,776,488,423,159,359,224,724,909,1249,336,500,558,444,535,417,279,440,1293,871,321,258,249,694,483,672,481,335,281,943,673,681,394,921,480,317,329,274,506,638,843,940,532,229,243,329,1203,501,499,293,468,298,310,921,880,788,490,458,707,701,453,736,289,450,371,463,1010,391,313,1685,544,247,215,526,529,264,888,878,281,499,300,1177,270,457,286,273,442,896,348,791,785,563,1131,144,290,671,550,307,339,502,505,257,619,804,329,195,862,274,292,494,579,325,589,811,473,902,897,604,367,318,666,835,533,265,589,298,777,314,800,325,732,394,329,682,165,484,1031,291,791,637,347,687,800,1472,510,443,130,246,280,716,191,258,638,303,347,765,254,399,744,1001,965,605,286,363,415,458,731,423,319,597,499,381,788,247,599,382,159,518,249,974,281,408,226,250,411,526,776,340,552,330,449,337,262,337,685,619,511,1163,585,178,432,682,293,187,259,1175,149,686,358,753,409,284,620,1257,413,251,1036,279,335,503,395,369,416,414,555,235,483,350,307,906,366,378,440,463,239,585,376,300,392,520,957,627,424,350,1042,1632,487,345,361,429,1137,921,1562,293,272,603,219,230,408,359,674,709,231,1088,787,373,579,308,551,238,181,331,616,302,165,276,325,337,526,298,372,351,536,245,363,420,575,526,331,336,502,582,343,310,545,481,484,265,599,406,339,751,594,639,208,847,819,666,919,618,406,222,726,273,414,449,472,668,328,450,215,235,278,499,372"
