"trial_type","trial_index","time_elapsed","internal_node_id","subject_id","task","startTime","totalTime","fairPartner","unfairPartner","view_history","rt","event","trial","time","trialtype","success","stimulus","key_press","throwsLeft","rtDur","pFair","pUnfair","holder","receiver","animation_sequence","responses"
"pavlovia","0","3","0.0-0.0","63d42387aba51e699ab9ce5c","bdp_cybrbll","Fri Mar 24 2023 21:16:32 GMT-0400 (Eastern Daylight Time)","426319","1","3","","","","","","","","","","","","","","","","",""
"instructions","1","4940","0.0-1.0","63d42387aba51e699ab9ce5c","bdp_cybrbll","Fri Mar 24 2023 21:16:32 GMT-0400 (Eastern Daylight Time)","426319","1","3","[{""page_index"":0,""viewing_time"":4936}]","4936","","","","","","","","","","","","","","",""
"","","","","63d42387aba51e699ab9ce5c","bdp_cybrbll","Fri Mar 24 2023 21:16:32 GMT-0400 (Eastern Daylight Time)","426319","1","3","","","fullscreenenter","2","8186","fullscreenenter","","","","","","","","","","",""
"fullscreen","2","9142","0.0-2.0","63d42387aba51e699ab9ce5c","bdp_cybrbll","Fri Mar 24 2023 21:16:32 GMT-0400 (Eastern Daylight Time)","426319","1","3","","","","","","","true","","","","","","","","","",""
"instructions","3","39366","0.0-4.0","63d42387aba51e699ab9ce5c","bdp_cybrbll","Fri Mar 24 2023 21:16:32 GMT-0400 (Eastern Daylight Time)","426319","1","3","[{""page_index"":0,""viewing_time"":30222}]","30222","","","","","","","","","","","","","","",""
"image-keyboard-response","4","40379","0.0-5.0-1.0","63d42387aba51e699ab9ce5c","bdp_cybrbll","Fri Mar 24 2023 21:16:32 GMT-0400 (Eastern Daylight Time)","426319","1","3","","1011","","","","choice","","img/2to1/1.png","1","225","819","0.5","0.5","2","1","",""
"animation","5","41667","0.0-5.0-2.0","63d42387aba51e699ab9ce5c","bdp_cybrbll","Fri Mar 24 2023 21:16:32 GMT-0400 (Eastern Daylight Time)","426319","1","3","","","","","","","","","","225","","","","2","1","[{""stimulus"":""img/2to1/1.png"",""time"":120},{""stimulus"":""img/2to1/2.png"",""time"":199},{""stimulus"":""img/2to1/3.png"",""time"":307},{""stimulus"":""img/2to1/4.png"",""time"":396},{""stimulus"":""img/2to1/5.png"",""time"":496},{""stimulus"":""img/2to1/6.png"",""time"":602},{""stimulus"":""img/2to1/7.png"",""time"":695},{""stimulus"":""img/2to1/8.png"",""time"":882},{""stimulus"":""img/2to1/9.png"",""time"":910},{""stimulus"":""img/2to1/10.png"",""time"":1000},{""stimulus"":""img/2to1/11.png"",""time"":1094},{""stimulus"":""img/2to1/12.png"",""time"":1189}]","[]"
"image-keyboard-response","6","42032","0.0-5.0-1.1","63d42387aba51e699ab9ce5c","bdp_cybrbll","Fri Mar 24 2023 21:16:32 GMT-0400 (Eastern Daylight Time)","426319","1","3","","null","","","","observe","","img/1to3/1.png","null","224","363","0.5","0.5","1","2","",""
"animation","7","43320","0.0-5.0-2.1","63d42387aba51e699ab9ce5c","bdp_cybrbll","Fri Mar 24 2023 21:16:32 GMT-0400 (Eastern Daylight Time)","426319","1","3","","","","","","","","","","224","","","","1","2","[{""stimulus"":""img/1to2/1.png"",""time"":101},{""stimulus"":""img/1to2/2.png"",""time"":198},{""stimulus"":""img/1to2/3.png"",""time"":298},{""stimulus"":""img/1to2/4.png"",""time"":397},{""stimulus"":""img/1to2/5.png"",""time"":496},{""stimulus"":""img/1to2/6.png"",""time"":594},{""stimulus"":""img/1to2/7.png"",""time"":694},{""stimulus"":""img/1to2/8.png"",""time"":793},{""stimulus"":""img/1to2/9.png"",""time"":892},{""stimulus"":""img/1to2/10.png"",""time"":990},{""stimulus"":""img/1to2/11.png"",""time"":1089},{""stimulus"":""img/1to2/12.png"",""time"":1188}]","[]"
"image-keyboard-response","8","43430","0.0-5.0-1.2","63d42387aba51e699ab9ce5c","bdp_cybrbll","Fri Mar 24 2023 21:16:32 GMT-0400 (Eastern Daylight Time)","426319","1","3","","109","","","","choice","","img/2to1/1.png","2","223","353","0.5","0.5","2","3","",""
"animation","9","44718","0.0-5.0-2.2","63d42387aba51e699ab9ce5c","bdp_cybrbll","Fri Mar 24 2023 21:16:32 GMT-0400 (Eastern Daylight Time)","426319","1","3","","","","","","","","","","223","","","","2","3","[{""stimulus"":""img/2to3/1.png"",""time"":100},{""stimulus"":""img/2to3/2.png"",""time"":200},{""stimulus"":""img/2to3/3.png"",""time"":298},{""stimulus"":""img/2to3/4.png"",""time"":397},{""stimulus"":""img/2to3/5.png"",""time"":497},{""stimulus"":""img/2to3/6.png"",""time"":595},{""stimulus"":""img/2to3/7.png"",""time"":695},{""stimulus"":""img/2to3/8.png"",""time"":794},{""stimulus"":""img/2to3/9.png"",""time"":892},{""stimulus"":""img/2to3/10.png"",""time"":991},{""stimulus"":""img/2to3/11.png"",""time"":1090},{""stimulus"":""img/2to3/12.png"",""time"":1189}]","[]"
"image-keyboard-response","10","45218","0.0-5.0-1.3","63d42387aba51e699ab9ce5c","bdp_cybrbll","Fri Mar 24 2023 21:16:32 GMT-0400 (Eastern Daylight Time)","426319","1","3","","null","","","","observe","","img/3to2/1.png","null","222","499","0.5","0.5","3","1","",""
"animation","11","46506","0.0-5.0-2.3","63d42387aba51e699ab9ce5c","bdp_cybrbll","Fri Mar 24 2023 21:16:32 GMT-0400 (Eastern Daylight Time)","426319","1","3","","","","","","","","","","222","","","","3","1","[{""stimulus"":""img/3to1/1.png"",""time"":100},{""stimulus"":""img/3to1/2.png"",""time"":199},{""stimulus"":""img/3to1/3.png"",""time"":297},{""stimulus"":""img/3to1/4.png"",""time"":397},{""stimulus"":""img/3to1/5.png"",""time"":496},{""stimulus"":""img/3to1/6.png"",""time"":595},{""stimulus"":""img/3to1/7.png"",""time"":694},{""stimulus"":""img/3to1/8.png"",""time"":793},{""stimulus"":""img/3to1/9.png"",""time"":892},{""stimulus"":""img/3to1/10.png"",""time"":991},{""stimulus"":""img/3to1/11.png"",""time"":1089},{""stimulus"":""img/3to1/12.png"",""time"":1190}]","[]"
"image-keyboard-response","12","47429","0.0-5.0-1.4","63d42387aba51e699ab9ce5c","bdp_cybrbll","Fri Mar 24 2023 21:16:32 GMT-0400 (Eastern Daylight Time)","426319","1","3","","null","","","","observe","","img/1to3/1.png","null","221","921","0.5","0.5","1","2","",""
"animation","13","48718","0.0-5.0-2.4","63d42387aba51e699ab9ce5c","bdp_cybrbll","Fri Mar 24 2023 21:16:32 GMT-0400 (Eastern Daylight Time)","426319","1","3","","","","","","","","","","221","","","","1","2","[{""stimulus"":""img/1to2/1.png"",""time"":101},{""stimulus"":""img/1to2/2.png"",""time"":199},{""stimulus"":""img/1to2/3.png"",""time"":299},{""stimulus"":""img/1to2/4.png"",""time"":398},{""stimulus"":""img/1to2/5.png"",""time"":496},{""stimulus"":""img/1to2/6.png"",""time"":595},{""stimulus"":""img/1to2/7.png"",""time"":694},{""stimulus"":""img/1to2/8.png"",""time"":793},{""stimulus"":""img/1to2/9.png"",""time"":892},{""stimulus"":""img/1to2/10.png"",""time"":992},{""stimulus"":""img/1to2/11.png"",""time"":1091},{""stimulus"":""img/1to2/12.png"",""time"":1190}]","[]"
"image-keyboard-response","14","49853","0.0-5.0-1.5","63d42387aba51e699ab9ce5c","bdp_cybrbll","Fri Mar 24 2023 21:16:32 GMT-0400 (Eastern Daylight Time)","426319","1","3","","1134","","","","choice","","img/2to1/1.png","2","220","871","0.5","0.5","2","3","",""
"animation","15","51140","0.0-5.0-2.5","63d42387aba51e699ab9ce5c","bdp_cybrbll","Fri Mar 24 2023 21:16:32 GMT-0400 (Eastern Daylight Time)","426319","1","3","","","","","","","","","","220","","","","2","3","[{""stimulus"":""img/2to3/1.png"",""time"":99},{""stimulus"":""img/2to3/2.png"",""time"":198},{""stimulus"":""img/2to3/3.png"",""time"":298},{""stimulus"":""img/2to3/4.png"",""time"":396},{""stimulus"":""img/2to3/5.png"",""time"":496},{""stimulus"":""img/2to3/6.png"",""time"":595},{""stimulus"":""img/2to3/7.png"",""time"":694},{""stimulus"":""img/2to3/8.png"",""time"":801},{""stimulus"":""img/2to3/9.png"",""time"":892},{""stimulus"":""img/2to3/10.png"",""time"":991},{""stimulus"":""img/2to3/11.png"",""time"":1090},{""stimulus"":""img/2to3/12.png"",""time"":1189}]","[]"
"image-keyboard-response","16","51642","0.0-5.0-1.6","63d42387aba51e699ab9ce5c","bdp_cybrbll","Fri Mar 24 2023 21:16:32 GMT-0400 (Eastern Daylight Time)","426319","1","3","","null","","","","observe","","img/3to2/1.png","null","219","495","0.5","0.5","3","2","",""
"animation","17","52930","0.0-5.0-2.6","63d42387aba51e699ab9ce5c","bdp_cybrbll","Fri Mar 24 2023 21:16:32 GMT-0400 (Eastern Daylight Time)","426319","1","3","","","","","","","","","","219","","","","3","2","[{""stimulus"":""img/3to2/1.png"",""time"":101},{""stimulus"":""img/3to2/2.png"",""time"":199},{""stimulus"":""img/3to2/3.png"",""time"":298},{""stimulus"":""img/3to2/4.png"",""time"":397},{""stimulus"":""img/3to2/5.png"",""time"":496},{""stimulus"":""img/3to2/6.png"",""time"":595},{""stimulus"":""img/3to2/7.png"",""time"":695},{""stimulus"":""img/3to2/8.png"",""time"":793},{""stimulus"":""img/3to2/9.png"",""time"":892},{""stimulus"":""img/3to2/10.png"",""time"":992},{""stimulus"":""img/3to2/11.png"",""time"":1091},{""stimulus"":""img/3to2/12.png"",""time"":1189}]","[]"
"image-keyboard-response","18","53237","0.0-5.0-1.7","63d42387aba51e699ab9ce5c","bdp_cybrbll","Fri Mar 24 2023 21:16:32 GMT-0400 (Eastern Daylight Time)","426319","1","3","","305","","","","choice","","img/2to1/1.png","1","218","325","0.5","0.5","2","1","",""
"animation","19","54525","0.0-5.0-2.7","63d42387aba51e699ab9ce5c","bdp_cybrbll","Fri Mar 24 2023 21:16:32 GMT-0400 (Eastern Daylight Time)","426319","1","3","","","","","","","","","","218","","","","2","1","[{""stimulus"":""img/2to1/1.png"",""time"":99},{""stimulus"":""img/2to1/2.png"",""time"":199},{""stimulus"":""img/2to1/3.png"",""time"":298},{""stimulus"":""img/2to1/4.png"",""time"":397},{""stimulus"":""img/2to1/5.png"",""time"":495},{""stimulus"":""img/2to1/6.png"",""time"":595},{""stimulus"":""img/2to1/7.png"",""time"":694},{""stimulus"":""img/2to1/8.png"",""time"":792},{""stimulus"":""img/2to1/9.png"",""time"":892},{""stimulus"":""img/2to1/10.png"",""time"":990},{""stimulus"":""img/2to1/11.png"",""time"":1090},{""stimulus"":""img/2to1/12.png"",""time"":1189}]","[]"
"image-keyboard-response","20","54745","0.0-5.0-1.8","63d42387aba51e699ab9ce5c","bdp_cybrbll","Fri Mar 24 2023 21:16:32 GMT-0400 (Eastern Daylight Time)","426319","1","3","","null","","","","observe","","img/1to3/1.png","null","217","219","0.5","0.5","1","3","",""
"animation","21","56034","0.0-5.0-2.8","63d42387aba51e699ab9ce5c","bdp_cybrbll","Fri Mar 24 2023 21:16:32 GMT-0400 (Eastern Daylight Time)","426319","1","3","","","","","","","","","","217","","","","1","3","[{""stimulus"":""img/1to3/1.png"",""time"":100},{""stimulus"":""img/1to3/2.png"",""time"":199},{""stimulus"":""img/1to3/3.png"",""time"":298},{""stimulus"":""img/1to3/4.png"",""time"":400},{""stimulus"":""img/1to3/5.png"",""time"":496},{""stimulus"":""img/1to3/6.png"",""time"":595},{""stimulus"":""img/1to3/7.png"",""time"":709},{""stimulus"":""img/1to3/8.png"",""time"":794},{""stimulus"":""img/1to3/9.png"",""time"":892},{""stimulus"":""img/1to3/10.png"",""time"":991},{""stimulus"":""img/1to3/11.png"",""time"":1090},{""stimulus"":""img/1to3/12.png"",""time"":1196}]","[]"
"image-keyboard-response","22","56437","0.0-5.0-1.9","63d42387aba51e699ab9ce5c","bdp_cybrbll","Fri Mar 24 2023 21:16:32 GMT-0400 (Eastern Daylight Time)","426319","1","3","","null","","","","observe","","img/3to2/1.png","null","216","402","0.5","0.5","3","2","",""
"animation","23","57725","0.0-5.0-2.9","63d42387aba51e699ab9ce5c","bdp_cybrbll","Fri Mar 24 2023 21:16:32 GMT-0400 (Eastern Daylight Time)","426319","1","3","","","","","","","","","","216","","","","3","2","[{""stimulus"":""img/3to2/1.png"",""time"":100},{""stimulus"":""img/3to2/2.png"",""time"":199},{""stimulus"":""img/3to2/3.png"",""time"":299},{""stimulus"":""img/3to2/4.png"",""time"":397},{""stimulus"":""img/3to2/5.png"",""time"":496},{""stimulus"":""img/3to2/6.png"",""time"":596},{""stimulus"":""img/3to2/7.png"",""time"":694},{""stimulus"":""img/3to2/8.png"",""time"":793},{""stimulus"":""img/3to2/9.png"",""time"":893},{""stimulus"":""img/3to2/10.png"",""time"":991},{""stimulus"":""img/3to2/11.png"",""time"":1091},{""stimulus"":""img/3to2/12.png"",""time"":1189}]","[]"
"image-keyboard-response","24","58007","0.0-5.0-1.10","63d42387aba51e699ab9ce5c","bdp_cybrbll","Fri Mar 24 2023 21:16:32 GMT-0400 (Eastern Daylight Time)","426319","1","3","","281","","","","choice","","img/2to1/1.png","1","215","480","0.5","0.5","2","1","",""
"animation","25","59294","0.0-5.0-2.10","63d42387aba51e699ab9ce5c","bdp_cybrbll","Fri Mar 24 2023 21:16:32 GMT-0400 (Eastern Daylight Time)","426319","1","3","","","","","","","","","","215","","","","2","1","[{""stimulus"":""img/2to1/1.png"",""time"":99},{""stimulus"":""img/2to1/2.png"",""time"":199},{""stimulus"":""img/2to1/3.png"",""time"":298},{""stimulus"":""img/2to1/4.png"",""time"":397},{""stimulus"":""img/2to1/5.png"",""time"":496},{""stimulus"":""img/2to1/6.png"",""time"":595},{""stimulus"":""img/2to1/7.png"",""time"":694},{""stimulus"":""img/2to1/8.png"",""time"":793},{""stimulus"":""img/2to1/9.png"",""time"":893},{""stimulus"":""img/2to1/10.png"",""time"":991},{""stimulus"":""img/2to1/11.png"",""time"":1091},{""stimulus"":""img/2to1/12.png"",""time"":1189}]","[]"
"image-keyboard-response","26","60155","0.0-5.0-1.11","63d42387aba51e699ab9ce5c","bdp_cybrbll","Fri Mar 24 2023 21:16:32 GMT-0400 (Eastern Daylight Time)","426319","1","3","","null","","","","observe","","img/1to3/1.png","null","214","859","0.5","0.5","1","3","",""
"animation","27","61443","0.0-5.0-2.11","63d42387aba51e699ab9ce5c","bdp_cybrbll","Fri Mar 24 2023 21:16:32 GMT-0400 (Eastern Daylight Time)","426319","1","3","","","","","","","","","","214","","","","1","3","[{""stimulus"":""img/1to3/1.png"",""time"":99},{""stimulus"":""img/1to3/2.png"",""time"":199},{""stimulus"":""img/1to3/3.png"",""time"":299},{""stimulus"":""img/1to3/4.png"",""time"":397},{""stimulus"":""img/1to3/5.png"",""time"":496},{""stimulus"":""img/1to3/6.png"",""time"":595},{""stimulus"":""img/1to3/7.png"",""time"":694},{""stimulus"":""img/1to3/8.png"",""time"":792},{""stimulus"":""img/1to3/9.png"",""time"":891},{""stimulus"":""img/1to3/10.png"",""time"":991},{""stimulus"":""img/1to3/11.png"",""time"":1089},{""stimulus"":""img/1to3/12.png"",""time"":1189}]","[]"
"image-keyboard-response","28","61892","0.0-5.0-1.12","63d42387aba51e699ab9ce5c","bdp_cybrbll","Fri Mar 24 2023 21:16:32 GMT-0400 (Eastern Daylight Time)","426319","1","3","","null","","","","observe","","img/3to2/1.png","null","213","448","0.5","0.5","3","2","",""
"animation","29","63180","0.0-5.0-2.12","63d42387aba51e699ab9ce5c","bdp_cybrbll","Fri Mar 24 2023 21:16:32 GMT-0400 (Eastern Daylight Time)","426319","1","3","","","","","","","","","","213","","","","3","2","[{""stimulus"":""img/3to2/1.png"",""time"":100},{""stimulus"":""img/3to2/2.png"",""time"":199},{""stimulus"":""img/3to2/3.png"",""time"":299},{""stimulus"":""img/3to2/4.png"",""time"":398},{""stimulus"":""img/3to2/5.png"",""time"":495},{""stimulus"":""img/3to2/6.png"",""time"":595},{""stimulus"":""img/3to2/7.png"",""time"":694},{""stimulus"":""img/3to2/8.png"",""time"":793},{""stimulus"":""img/3to2/9.png"",""time"":892},{""stimulus"":""img/3to2/10.png"",""time"":990},{""stimulus"":""img/3to2/11.png"",""time"":1089},{""stimulus"":""img/3to2/12.png"",""time"":1189}]","[]"
"image-keyboard-response","30","64229","0.0-5.0-1.13","63d42387aba51e699ab9ce5c","bdp_cybrbll","Fri Mar 24 2023 21:16:32 GMT-0400 (Eastern Daylight Time)","426319","1","3","","1049","","","","choice","","img/2to1/1.png","1","212","639","0.5","0.5","2","1","",""
"animation","31","65517","0.0-5.0-2.13","63d42387aba51e699ab9ce5c","bdp_cybrbll","Fri Mar 24 2023 21:16:32 GMT-0400 (Eastern Daylight Time)","426319","1","3","","","","","","","","","","212","","","","2","1","[{""stimulus"":""img/2to1/1.png"",""time"":100},{""stimulus"":""img/2to1/2.png"",""time"":200},{""stimulus"":""img/2to1/3.png"",""time"":298},{""stimulus"":""img/2to1/4.png"",""time"":398},{""stimulus"":""img/2to1/5.png"",""time"":496},{""stimulus"":""img/2to1/6.png"",""time"":594},{""stimulus"":""img/2to1/7.png"",""time"":695},{""stimulus"":""img/2to1/8.png"",""time"":793},{""stimulus"":""img/2to1/9.png"",""time"":892},{""stimulus"":""img/2to1/10.png"",""time"":991},{""stimulus"":""img/2to1/11.png"",""time"":1091},{""stimulus"":""img/2to1/12.png"",""time"":1189}]","[]"
"image-keyboard-response","32","65663","0.0-5.0-1.14","63d42387aba51e699ab9ce5c","bdp_cybrbll","Fri Mar 24 2023 21:16:32 GMT-0400 (Eastern Daylight Time)","426319","1","3","","null","","","","observe","","img/1to3/1.png","null","211","144","0.5","0.5","1","2","",""
"animation","33","66951","0.0-5.0-2.14","63d42387aba51e699ab9ce5c","bdp_cybrbll","Fri Mar 24 2023 21:16:32 GMT-0400 (Eastern Daylight Time)","426319","1","3","","","","","","","","","","211","","","","1","2","[{""stimulus"":""img/1to2/1.png"",""time"":99},{""stimulus"":""img/1to2/2.png"",""time"":198},{""stimulus"":""img/1to2/3.png"",""time"":297},{""stimulus"":""img/1to2/4.png"",""time"":397},{""stimulus"":""img/1to2/5.png"",""time"":496},{""stimulus"":""img/1to2/6.png"",""time"":595},{""stimulus"":""img/1to2/7.png"",""time"":694},{""stimulus"":""img/1to2/8.png"",""time"":795},{""stimulus"":""img/1to2/9.png"",""time"":892},{""stimulus"":""img/1to2/10.png"",""time"":991},{""stimulus"":""img/1to2/11.png"",""time"":1089},{""stimulus"":""img/1to2/12.png"",""time"":1189}]","[]"
"image-keyboard-response","34","67285","0.0-5.0-1.15","63d42387aba51e699ab9ce5c","bdp_cybrbll","Fri Mar 24 2023 21:16:32 GMT-0400 (Eastern Daylight Time)","426319","1","3","","334","","","","choice","","img/2to1/1.png","1","210","276","0.5","0.5","2","1","",""
"animation","35","68572","0.0-5.0-2.15","63d42387aba51e699ab9ce5c","bdp_cybrbll","Fri Mar 24 2023 21:16:32 GMT-0400 (Eastern Daylight Time)","426319","1","3","","","","","","","","","","210","","","","2","1","[{""stimulus"":""img/2to1/1.png"",""time"":100},{""stimulus"":""img/2to1/2.png"",""time"":199},{""stimulus"":""img/2to1/3.png"",""time"":298},{""stimulus"":""img/2to1/4.png"",""time"":397},{""stimulus"":""img/2to1/5.png"",""time"":495},{""stimulus"":""img/2to1/6.png"",""time"":595},{""stimulus"":""img/2to1/7.png"",""time"":694},{""stimulus"":""img/2to1/8.png"",""time"":795},{""stimulus"":""img/2to1/9.png"",""time"":893},{""stimulus"":""img/2to1/10.png"",""time"":991},{""stimulus"":""img/2to1/11.png"",""time"":1090},{""stimulus"":""img/2to1/12.png"",""time"":1188}]","[]"
"image-keyboard-response","36","69027","0.0-5.0-1.16","63d42387aba51e699ab9ce5c","bdp_cybrbll","Fri Mar 24 2023 21:16:32 GMT-0400 (Eastern Daylight Time)","426319","1","3","","null","","","","observe","","img/1to3/1.png","null","209","453","0.5","0.5","1","2","",""
"animation","37","70407","0.0-5.0-2.16","63d42387aba51e699ab9ce5c","bdp_cybrbll","Fri Mar 24 2023 21:16:32 GMT-0400 (Eastern Daylight Time)","426319","1","3","","","","","","","","","","209","","","","1","2","[{""stimulus"":""img/1to2/1.png"",""time"":100},{""stimulus"":""img/1to2/2.png"",""time"":200},{""stimulus"":""img/1to2/3.png"",""time"":298},{""stimulus"":""img/1to2/4.png"",""time"":397},{""stimulus"":""img/1to2/5.png"",""time"":496},{""stimulus"":""img/1to2/6.png"",""time"":594},{""stimulus"":""img/1to2/7.png"",""time"":694},{""stimulus"":""img/1to2/8.png"",""time"":798},{""stimulus"":""img/1to2/9.png"",""time"":892},{""stimulus"":""img/1to2/10.png"",""time"":994},{""stimulus"":""img/1to2/11.png"",""time"":1099},{""stimulus"":""img/1to2/12.png"",""time"":1189}]","[]"
"image-keyboard-response","38","71617","0.0-5.0-1.17","63d42387aba51e699ab9ce5c","bdp_cybrbll","Fri Mar 24 2023 21:16:32 GMT-0400 (Eastern Daylight Time)","426319","1","3","","1210","","","","choice","","img/2to1/1.png","2","208","547","0.5","0.5","2","3","",""
"animation","39","72905","0.0-5.0-2.17","63d42387aba51e699ab9ce5c","bdp_cybrbll","Fri Mar 24 2023 21:16:32 GMT-0400 (Eastern Daylight Time)","426319","1","3","","","","","","","","","","208","","","","2","3","[{""stimulus"":""img/2to3/1.png"",""time"":100},{""stimulus"":""img/2to3/2.png"",""time"":199},{""stimulus"":""img/2to3/3.png"",""time"":298},{""stimulus"":""img/2to3/4.png"",""time"":397},{""stimulus"":""img/2to3/5.png"",""time"":495},{""stimulus"":""img/2to3/6.png"",""time"":594},{""stimulus"":""img/2to3/7.png"",""time"":693},{""stimulus"":""img/2to3/8.png"",""time"":793},{""stimulus"":""img/2to3/9.png"",""time"":891},{""stimulus"":""img/2to3/10.png"",""time"":991},{""stimulus"":""img/2to3/11.png"",""time"":1090},{""stimulus"":""img/2to3/12.png"",""time"":1188}]","[]"
"image-keyboard-response","40","73241","0.0-5.0-1.18","63d42387aba51e699ab9ce5c","bdp_cybrbll","Fri Mar 24 2023 21:16:32 GMT-0400 (Eastern Daylight Time)","426319","1","3","","null","","","","observe","","img/3to2/1.png","null","207","335","0.5","0.5","3","2","",""
"animation","41","74529","0.0-5.0-2.18","63d42387aba51e699ab9ce5c","bdp_cybrbll","Fri Mar 24 2023 21:16:32 GMT-0400 (Eastern Daylight Time)","426319","1","3","","","","","","","","","","207","","","","3","2","[{""stimulus"":""img/3to2/1.png"",""time"":100},{""stimulus"":""img/3to2/2.png"",""time"":199},{""stimulus"":""img/3to2/3.png"",""time"":298},{""stimulus"":""img/3to2/4.png"",""time"":398},{""stimulus"":""img/3to2/5.png"",""time"":508},{""stimulus"":""img/3to2/6.png"",""time"":594},{""stimulus"":""img/3to2/7.png"",""time"":694},{""stimulus"":""img/3to2/8.png"",""time"":793},{""stimulus"":""img/3to2/9.png"",""time"":891},{""stimulus"":""img/3to2/10.png"",""time"":991},{""stimulus"":""img/3to2/11.png"",""time"":1090},{""stimulus"":""img/3to2/12.png"",""time"":1189}]","[]"
"image-keyboard-response","42","74594","0.0-5.0-1.19","63d42387aba51e699ab9ce5c","bdp_cybrbll","Fri Mar 24 2023 21:16:32 GMT-0400 (Eastern Daylight Time)","426319","1","3","","65","","","","choice","","img/2to1/1.png","2","206","446","0.5","0.5","2","3","",""
"animation","43","75882","0.0-5.0-2.19","63d42387aba51e699ab9ce5c","bdp_cybrbll","Fri Mar 24 2023 21:16:32 GMT-0400 (Eastern Daylight Time)","426319","1","3","","","","","","","","","","206","","","","2","3","[{""stimulus"":""img/2to3/1.png"",""time"":100},{""stimulus"":""img/2to3/2.png"",""time"":199},{""stimulus"":""img/2to3/3.png"",""time"":298},{""stimulus"":""img/2to3/4.png"",""time"":397},{""stimulus"":""img/2to3/5.png"",""time"":496},{""stimulus"":""img/2to3/6.png"",""time"":595},{""stimulus"":""img/2to3/7.png"",""time"":695},{""stimulus"":""img/2to3/8.png"",""time"":792},{""stimulus"":""img/2to3/9.png"",""time"":892},{""stimulus"":""img/2to3/10.png"",""time"":991},{""stimulus"":""img/2to3/11.png"",""time"":1090},{""stimulus"":""img/2to3/12.png"",""time"":1190}]","[]"
"image-keyboard-response","44","76016","0.0-5.0-1.20","63d42387aba51e699ab9ce5c","bdp_cybrbll","Fri Mar 24 2023 21:16:32 GMT-0400 (Eastern Daylight Time)","426319","1","3","","null","","","","observe","","img/3to2/1.png","null","205","130","0.5","0.5","3","2","",""
"animation","45","77303","0.0-5.0-2.20","63d42387aba51e699ab9ce5c","bdp_cybrbll","Fri Mar 24 2023 21:16:32 GMT-0400 (Eastern Daylight Time)","426319","1","3","","","","","","","","","","205","","","","3","2","[{""stimulus"":""img/3to2/1.png"",""time"":99},{""stimulus"":""img/3to2/2.png"",""time"":199},{""stimulus"":""img/3to2/3.png"",""time"":298},{""stimulus"":""img/3to2/4.png"",""time"":396},{""stimulus"":""img/3to2/5.png"",""time"":496},{""stimulus"":""img/3to2/6.png"",""time"":594},{""stimulus"":""img/3to2/7.png"",""time"":693},{""stimulus"":""img/3to2/8.png"",""time"":794},{""stimulus"":""img/3to2/9.png"",""time"":893},{""stimulus"":""img/3to2/10.png"",""time"":991},{""stimulus"":""img/3to2/11.png"",""time"":1090},{""stimulus"":""img/3to2/12.png"",""time"":1189}]","[]"
"image-keyboard-response","46","77944","0.0-5.0-1.21","63d42387aba51e699ab9ce5c","bdp_cybrbll","Fri Mar 24 2023 21:16:32 GMT-0400 (Eastern Daylight Time)","426319","1","3","","640","","","","choice","","img/2to1/1.png","1","204","265","0.5","0.5","2","1","",""
"animation","47","79232","0.0-5.0-2.21","63d42387aba51e699ab9ce5c","bdp_cybrbll","Fri Mar 24 2023 21:16:32 GMT-0400 (Eastern Daylight Time)","426319","1","3","","","","","","","","","","204","","","","2","1","[{""stimulus"":""img/2to1/1.png"",""time"":99},{""stimulus"":""img/2to1/2.png"",""time"":199},{""stimulus"":""img/2to1/3.png"",""time"":298},{""stimulus"":""img/2to1/4.png"",""time"":397},{""stimulus"":""img/2to1/5.png"",""time"":496},{""stimulus"":""img/2to1/6.png"",""time"":595},{""stimulus"":""img/2to1/7.png"",""time"":697},{""stimulus"":""img/2to1/8.png"",""time"":793},{""stimulus"":""img/2to1/9.png"",""time"":919},{""stimulus"":""img/2to1/10.png"",""time"":995},{""stimulus"":""img/2to1/11.png"",""time"":1090},{""stimulus"":""img/2to1/12.png"",""time"":1190}]","[]"
"image-keyboard-response","48","79539","0.0-5.0-1.22","63d42387aba51e699ab9ce5c","bdp_cybrbll","Fri Mar 24 2023 21:16:32 GMT-0400 (Eastern Daylight Time)","426319","1","3","","null","","","","observe","","img/1to3/1.png","null","203","307","0.5","0.5","1","3","",""
"animation","49","80827","0.0-5.0-2.22","63d42387aba51e699ab9ce5c","bdp_cybrbll","Fri Mar 24 2023 21:16:32 GMT-0400 (Eastern Daylight Time)","426319","1","3","","","","","","","","","","203","","","","1","3","[{""stimulus"":""img/1to3/1.png"",""time"":100},{""stimulus"":""img/1to3/2.png"",""time"":200},{""stimulus"":""img/1to3/3.png"",""time"":299},{""stimulus"":""img/1to3/4.png"",""time"":398},{""stimulus"":""img/1to3/5.png"",""time"":496},{""stimulus"":""img/1to3/6.png"",""time"":595},{""stimulus"":""img/1to3/7.png"",""time"":694},{""stimulus"":""img/1to3/8.png"",""time"":793},{""stimulus"":""img/1to3/9.png"",""time"":893},{""stimulus"":""img/1to3/10.png"",""time"":991},{""stimulus"":""img/1to3/11.png"",""time"":1090},{""stimulus"":""img/1to3/12.png"",""time"":1190}]","[]"
"image-keyboard-response","50","81300","0.0-5.0-1.23","63d42387aba51e699ab9ce5c","bdp_cybrbll","Fri Mar 24 2023 21:16:32 GMT-0400 (Eastern Daylight Time)","426319","1","3","","null","","","","observe","","img/3to2/1.png","null","202","472","0.5","0.5","3","1","",""
"animation","51","82596","0.0-5.0-2.23","63d42387aba51e699ab9ce5c","bdp_cybrbll","Fri Mar 24 2023 21:16:32 GMT-0400 (Eastern Daylight Time)","426319","1","3","","","","","","","","","","202","","","","3","1","[{""stimulus"":""img/3to1/1.png"",""time"":100},{""stimulus"":""img/3to1/2.png"",""time"":200},{""stimulus"":""img/3to1/3.png"",""time"":298},{""stimulus"":""img/3to1/4.png"",""time"":397},{""stimulus"":""img/3to1/5.png"",""time"":496},{""stimulus"":""img/3to1/6.png"",""time"":595},{""stimulus"":""img/3to1/7.png"",""time"":694},{""stimulus"":""img/3to1/8.png"",""time"":793},{""stimulus"":""img/3to1/9.png"",""time"":892},{""stimulus"":""img/3to1/10.png"",""time"":991},{""stimulus"":""img/3to1/11.png"",""time"":1090},{""stimulus"":""img/3to1/12.png"",""time"":1226}]","[]"
"image-keyboard-response","52","83540","0.0-5.0-1.24","63d42387aba51e699ab9ce5c","bdp_cybrbll","Fri Mar 24 2023 21:16:32 GMT-0400 (Eastern Daylight Time)","426319","1","3","","null","","","","observe","","img/1to3/1.png","null","201","943","0.5","0.5","1","3","",""
"animation","53","84829","0.0-5.0-2.24","63d42387aba51e699ab9ce5c","bdp_cybrbll","Fri Mar 24 2023 21:16:32 GMT-0400 (Eastern Daylight Time)","426319","1","3","","","","","","","","","","201","","","","1","3","[{""stimulus"":""img/1to3/1.png"",""time"":100},{""stimulus"":""img/1to3/2.png"",""time"":199},{""stimulus"":""img/1to3/3.png"",""time"":298},{""stimulus"":""img/1to3/4.png"",""time"":397},{""stimulus"":""img/1to3/5.png"",""time"":496},{""stimulus"":""img/1to3/6.png"",""time"":596},{""stimulus"":""img/1to3/7.png"",""time"":697},{""stimulus"":""img/1to3/8.png"",""time"":793},{""stimulus"":""img/1to3/9.png"",""time"":893},{""stimulus"":""img/1to3/10.png"",""time"":991},{""stimulus"":""img/1to3/11.png"",""time"":1091},{""stimulus"":""img/1to3/12.png"",""time"":1191}]","[]"
"image-keyboard-response","54","85615","0.0-5.0-1.25","63d42387aba51e699ab9ce5c","bdp_cybrbll","Fri Mar 24 2023 21:16:32 GMT-0400 (Eastern Daylight Time)","426319","1","3","","null","","","","observe","","img/3to2/1.png","null","200","785","0.5","0.5","3","1","",""
"animation","55","86903","0.0-5.0-2.25","63d42387aba51e699ab9ce5c","bdp_cybrbll","Fri Mar 24 2023 21:16:32 GMT-0400 (Eastern Daylight Time)","426319","1","3","","","","","","","","","","200","","","","3","1","[{""stimulus"":""img/3to1/1.png"",""time"":100},{""stimulus"":""img/3to1/2.png"",""time"":198},{""stimulus"":""img/3to1/3.png"",""time"":297},{""stimulus"":""img/3to1/4.png"",""time"":398},{""stimulus"":""img/3to1/5.png"",""time"":496},{""stimulus"":""img/3to1/6.png"",""time"":596},{""stimulus"":""img/3to1/7.png"",""time"":694},{""stimulus"":""img/3to1/8.png"",""time"":794},{""stimulus"":""img/3to1/9.png"",""time"":892},{""stimulus"":""img/3to1/10.png"",""time"":991},{""stimulus"":""img/3to1/11.png"",""time"":1091},{""stimulus"":""img/3to1/12.png"",""time"":1188}]","[]"
"image-keyboard-response","56","87507","0.0-5.0-1.26","63d42387aba51e699ab9ce5c","bdp_cybrbll","Fri Mar 24 2023 21:16:32 GMT-0400 (Eastern Daylight Time)","426319","1","3","","null","","","","observe","","img/1to3/1.png","null","199","603","0.5","0.5","1","3","",""
"animation","57","88795","0.0-5.0-2.26","63d42387aba51e699ab9ce5c","bdp_cybrbll","Fri Mar 24 2023 21:16:32 GMT-0400 (Eastern Daylight Time)","426319","1","3","","","","","","","","","","199","","","","1","3","[{""stimulus"":""img/1to3/1.png"",""time"":100},{""stimulus"":""img/1to3/2.png"",""time"":200},{""stimulus"":""img/1to3/3.png"",""time"":299},{""stimulus"":""img/1to3/4.png"",""time"":397},{""stimulus"":""img/1to3/5.png"",""time"":509},{""stimulus"":""img/1to3/6.png"",""time"":596},{""stimulus"":""img/1to3/7.png"",""time"":695},{""stimulus"":""img/1to3/8.png"",""time"":793},{""stimulus"":""img/1to3/9.png"",""time"":892},{""stimulus"":""img/1to3/10.png"",""time"":992},{""stimulus"":""img/1to3/11.png"",""time"":1090},{""stimulus"":""img/1to3/12.png"",""time"":1189}]","[]"
"image-keyboard-response","58","89355","0.0-5.0-1.27","63d42387aba51e699ab9ce5c","bdp_cybrbll","Fri Mar 24 2023 21:16:32 GMT-0400 (Eastern Daylight Time)","426319","1","3","","null","","","","observe","","img/3to2/1.png","null","198","559","0.5","0.5","3","1","",""
"animation","59","90644","0.0-5.0-2.27","63d42387aba51e699ab9ce5c","bdp_cybrbll","Fri Mar 24 2023 21:16:32 GMT-0400 (Eastern Daylight Time)","426319","1","3","","","","","","","","","","198","","","","3","1","[{""stimulus"":""img/3to1/1.png"",""time"":101},{""stimulus"":""img/3to1/2.png"",""time"":199},{""stimulus"":""img/3to1/3.png"",""time"":298},{""stimulus"":""img/3to1/4.png"",""time"":397},{""stimulus"":""img/3to1/5.png"",""time"":496},{""stimulus"":""img/3to1/6.png"",""time"":595},{""stimulus"":""img/3to1/7.png"",""time"":694},{""stimulus"":""img/3to1/8.png"",""time"":793},{""stimulus"":""img/3to1/9.png"",""time"":891},{""stimulus"":""img/3to1/10.png"",""time"":991},{""stimulus"":""img/3to1/11.png"",""time"":1090},{""stimulus"":""img/3to1/12.png"",""time"":1190}]","[]"
"image-keyboard-response","60","91188","0.0-5.0-1.28","63d42387aba51e699ab9ce5c","bdp_cybrbll","Fri Mar 24 2023 21:16:32 GMT-0400 (Eastern Daylight Time)","426319","1","3","","null","","","","observe","","img/1to3/1.png","null","197","543","0.5","0.5","1","3","",""
"animation","61","92475","0.0-5.0-2.28","63d42387aba51e699ab9ce5c","bdp_cybrbll","Fri Mar 24 2023 21:16:32 GMT-0400 (Eastern Daylight Time)","426319","1","3","","","","","","","","","","197","","","","1","3","[{""stimulus"":""img/1to3/1.png"",""time"":99},{""stimulus"":""img/1to3/2.png"",""time"":199},{""stimulus"":""img/1to3/3.png"",""time"":298},{""stimulus"":""img/1to3/4.png"",""time"":397},{""stimulus"":""img/1to3/5.png"",""time"":495},{""stimulus"":""img/1to3/6.png"",""time"":595},{""stimulus"":""img/1to3/7.png"",""time"":693},{""stimulus"":""img/1to3/8.png"",""time"":792},{""stimulus"":""img/1to3/9.png"",""time"":892},{""stimulus"":""img/1to3/10.png"",""time"":992},{""stimulus"":""img/1to3/11.png"",""time"":1090},{""stimulus"":""img/1to3/12.png"",""time"":1189}]","[]"
"image-keyboard-response","62","93221","0.0-5.0-1.29","63d42387aba51e699ab9ce5c","bdp_cybrbll","Fri Mar 24 2023 21:16:32 GMT-0400 (Eastern Daylight Time)","426319","1","3","","null","","","","observe","","img/3to2/1.png","null","196","731","0.5","0.5","3","1","",""
"animation","63","94509","0.0-5.0-2.29","63d42387aba51e699ab9ce5c","bdp_cybrbll","Fri Mar 24 2023 21:16:32 GMT-0400 (Eastern Daylight Time)","426319","1","3","","","","","","","","","","196","","","","3","1","[{""stimulus"":""img/3to1/1.png"",""time"":100},{""stimulus"":""img/3to1/2.png"",""time"":200},{""stimulus"":""img/3to1/3.png"",""time"":298},{""stimulus"":""img/3to1/4.png"",""time"":398},{""stimulus"":""img/3to1/5.png"",""time"":499},{""stimulus"":""img/3to1/6.png"",""time"":595},{""stimulus"":""img/3to1/7.png"",""time"":702},{""stimulus"":""img/3to1/8.png"",""time"":794},{""stimulus"":""img/3to1/9.png"",""time"":892},{""stimulus"":""img/3to1/10.png"",""time"":992},{""stimulus"":""img/3to1/11.png"",""time"":1091},{""stimulus"":""img/3to1/12.png"",""time"":1189}]","[]"
"image-keyboard-response","64","94902","0.0-5.0-1.30","63d42387aba51e699ab9ce5c","bdp_cybrbll","Fri Mar 24 2023 21:16:32 GMT-0400 (Eastern Daylight Time)","426319","1","3","","null","","","","observe","","img/1to3/1.png","null","195","391","0.5","0.5","1","3","",""
"animation","65","96190","0.0-5.0-2.30","63d42387aba51e699ab9ce5c","bdp_cybrbll","Fri Mar 24 2023 21:16:32 GMT-0400 (Eastern Daylight Time)","426319","1","3","","","","","","","","","","195","","","","1","3","[{""stimulus"":""img/1to3/1.png"",""time"":100},{""stimulus"":""img/1to3/2.png"",""time"":199},{""stimulus"":""img/1to3/3.png"",""time"":298},{""stimulus"":""img/1to3/4.png"",""time"":407},{""stimulus"":""img/1to3/5.png"",""time"":496},{""stimulus"":""img/1to3/6.png"",""time"":596},{""stimulus"":""img/1to3/7.png"",""time"":695},{""stimulus"":""img/1to3/8.png"",""time"":794},{""stimulus"":""img/1to3/9.png"",""time"":894},{""stimulus"":""img/1to3/10.png"",""time"":993},{""stimulus"":""img/1to3/11.png"",""time"":1091},{""stimulus"":""img/1to3/12.png"",""time"":1190}]","[]"
"image-keyboard-response","66","96624","0.0-5.0-1.31","63d42387aba51e699ab9ce5c","bdp_cybrbll","Fri Mar 24 2023 21:16:32 GMT-0400 (Eastern Daylight Time)","426319","1","3","","null","","","","observe","","img/3to2/1.png","null","194","432","0.5","0.5","3","1","",""
"animation","67","97911","0.0-5.0-2.31","63d42387aba51e699ab9ce5c","bdp_cybrbll","Fri Mar 24 2023 21:16:32 GMT-0400 (Eastern Daylight Time)","426319","1","3","","","","","","","","","","194","","","","3","1","[{""stimulus"":""img/3to1/1.png"",""time"":99},{""stimulus"":""img/3to1/2.png"",""time"":200},{""stimulus"":""img/3to1/3.png"",""time"":298},{""stimulus"":""img/3to1/4.png"",""time"":396},{""stimulus"":""img/3to1/5.png"",""time"":496},{""stimulus"":""img/3to1/6.png"",""time"":595},{""stimulus"":""img/3to1/7.png"",""time"":693},{""stimulus"":""img/3to1/8.png"",""time"":792},{""stimulus"":""img/3to1/9.png"",""time"":892},{""stimulus"":""img/3to1/10.png"",""time"":991},{""stimulus"":""img/3to1/11.png"",""time"":1089},{""stimulus"":""img/3to1/12.png"",""time"":1201}]","[]"
"image-keyboard-response","68","98674","0.0-5.0-1.32","63d42387aba51e699ab9ce5c","bdp_cybrbll","Fri Mar 24 2023 21:16:32 GMT-0400 (Eastern Daylight Time)","426319","1","3","","null","","","","observe","","img/1to3/1.png","null","193","761","0.5","0.5","1","3","",""
"animation","69","99961","0.0-5.0-2.32","63d42387aba51e699ab9ce5c","bdp_cybrbll","Fri Mar 24 2023 21:16:32 GMT-0400 (Eastern Daylight Time)","426319","1","3","","","","","","","","","","193","","","","1","3","[{""stimulus"":""img/1to3/1.png"",""time"":100},{""stimulus"":""img/1to3/2.png"",""time"":198},{""stimulus"":""img/1to3/3.png"",""time"":298},{""stimulus"":""img/1to3/4.png"",""time"":397},{""stimulus"":""img/1to3/5.png"",""time"":496},{""stimulus"":""img/1to3/6.png"",""time"":595},{""stimulus"":""img/1to3/7.png"",""time"":694},{""stimulus"":""img/1to3/8.png"",""time"":793},{""stimulus"":""img/1to3/9.png"",""time"":891},{""stimulus"":""img/1to3/10.png"",""time"":990},{""stimulus"":""img/1to3/11.png"",""time"":1089},{""stimulus"":""img/1to3/12.png"",""time"":1189}]","[]"
"image-keyboard-response","70","100208","0.0-5.0-1.33","63d42387aba51e699ab9ce5c","bdp_cybrbll","Fri Mar 24 2023 21:16:32 GMT-0400 (Eastern Daylight Time)","426319","1","3","","null","","","","observe","","img/3to2/1.png","null","192","238","0.5","0.5","3","2","",""
"animation","71","101497","0.0-5.0-2.33","63d42387aba51e699ab9ce5c","bdp_cybrbll","Fri Mar 24 2023 21:16:32 GMT-0400 (Eastern Daylight Time)","426319","1","3","","","","","","","","","","192","","","","3","2","[{""stimulus"":""img/3to2/1.png"",""time"":109},{""stimulus"":""img/3to2/2.png"",""time"":215},{""stimulus"":""img/3to2/3.png"",""time"":298},{""stimulus"":""img/3to2/4.png"",""time"":409},{""stimulus"":""img/3to2/5.png"",""time"":496},{""stimulus"":""img/3to2/6.png"",""time"":596},{""stimulus"":""img/3to2/7.png"",""time"":694},{""stimulus"":""img/3to2/8.png"",""time"":794},{""stimulus"":""img/3to2/9.png"",""time"":893},{""stimulus"":""img/3to2/10.png"",""time"":1031},{""stimulus"":""img/3to2/11.png"",""time"":1090},{""stimulus"":""img/3to2/12.png"",""time"":1193}]","[]"
"image-keyboard-response","72","101528","0.0-5.0-1.34","63d42387aba51e699ab9ce5c","bdp_cybrbll","Fri Mar 24 2023 21:16:32 GMT-0400 (Eastern Daylight Time)","426319","1","3","","30","","","","choice","","img/2to1/1.png","1","191","424","0.5","0.5","2","1","",""
"animation","73","102816","0.0-5.0-2.34","63d42387aba51e699ab9ce5c","bdp_cybrbll","Fri Mar 24 2023 21:16:32 GMT-0400 (Eastern Daylight Time)","426319","1","3","","","","","","","","","","191","","","","2","1","[{""stimulus"":""img/2to1/1.png"",""time"":108},{""stimulus"":""img/2to1/2.png"",""time"":200},{""stimulus"":""img/2to1/3.png"",""time"":298},{""stimulus"":""img/2to1/4.png"",""time"":397},{""stimulus"":""img/2to1/5.png"",""time"":497},{""stimulus"":""img/2to1/6.png"",""time"":595},{""stimulus"":""img/2to1/7.png"",""time"":693},{""stimulus"":""img/2to1/8.png"",""time"":793},{""stimulus"":""img/2to1/9.png"",""time"":892},{""stimulus"":""img/2to1/10.png"",""time"":991},{""stimulus"":""img/2to1/11.png"",""time"":1090},{""stimulus"":""img/2to1/12.png"",""time"":1189}]","[]"
"image-keyboard-response","74","103202","0.0-5.0-1.35","63d42387aba51e699ab9ce5c","bdp_cybrbll","Fri Mar 24 2023 21:16:32 GMT-0400 (Eastern Daylight Time)","426319","1","3","","null","","","","observe","","img/1to3/1.png","null","190","385","0.5","0.5","1","2","",""
"animation","75","104491","0.0-5.0-2.35","63d42387aba51e699ab9ce5c","bdp_cybrbll","Fri Mar 24 2023 21:16:32 GMT-0400 (Eastern Daylight Time)","426319","1","3","","","","","","","","","","190","","","","1","2","[{""stimulus"":""img/1to2/1.png"",""time"":101},{""stimulus"":""img/1to2/2.png"",""time"":199},{""stimulus"":""img/1to2/3.png"",""time"":299},{""stimulus"":""img/1to2/4.png"",""time"":399},{""stimulus"":""img/1to2/5.png"",""time"":497},{""stimulus"":""img/1to2/6.png"",""time"":595},{""stimulus"":""img/1to2/7.png"",""time"":695},{""stimulus"":""img/1to2/8.png"",""time"":793},{""stimulus"":""img/1to2/9.png"",""time"":894},{""stimulus"":""img/1to2/10.png"",""time"":992},{""stimulus"":""img/1to2/11.png"",""time"":1091},{""stimulus"":""img/1to2/12.png"",""time"":1203}]","[]"
"image-keyboard-response","76","105000","0.0-5.0-1.36","63d42387aba51e699ab9ce5c","bdp_cybrbll","Fri Mar 24 2023 21:16:32 GMT-0400 (Eastern Daylight Time)","426319","1","3","","509","","","","choice","","img/2to1/1.png","2","189","668","0.5","0.5","2","3","",""
"animation","77","106287","0.0-5.0-2.36","63d42387aba51e699ab9ce5c","bdp_cybrbll","Fri Mar 24 2023 21:16:32 GMT-0400 (Eastern Daylight Time)","426319","1","3","","","","","","","","","","189","","","","2","3","[{""stimulus"":""img/2to3/1.png"",""time"":100},{""stimulus"":""img/2to3/2.png"",""time"":204},{""stimulus"":""img/2to3/3.png"",""time"":298},{""stimulus"":""img/2to3/4.png"",""time"":397},{""stimulus"":""img/2to3/5.png"",""time"":496},{""stimulus"":""img/2to3/6.png"",""time"":595},{""stimulus"":""img/2to3/7.png"",""time"":693},{""stimulus"":""img/2to3/8.png"",""time"":800},{""stimulus"":""img/2to3/9.png"",""time"":892},{""stimulus"":""img/2to3/10.png"",""time"":990},{""stimulus"":""img/2to3/11.png"",""time"":1090},{""stimulus"":""img/2to3/12.png"",""time"":1189}]","[]"
"image-keyboard-response","78","106813","0.0-5.0-1.37","63d42387aba51e699ab9ce5c","bdp_cybrbll","Fri Mar 24 2023 21:16:32 GMT-0400 (Eastern Daylight Time)","426319","1","3","","null","","","","observe","","img/3to2/1.png","null","188","511","0.5","0.5","3","1","",""
"animation","79","108101","0.0-5.0-2.37","63d42387aba51e699ab9ce5c","bdp_cybrbll","Fri Mar 24 2023 21:16:32 GMT-0400 (Eastern Daylight Time)","426319","1","3","","","","","","","","","","188","","","","3","1","[{""stimulus"":""img/3to1/1.png"",""time"":99},{""stimulus"":""img/3to1/2.png"",""time"":198},{""stimulus"":""img/3to1/3.png"",""time"":297},{""stimulus"":""img/3to1/4.png"",""time"":396},{""stimulus"":""img/3to1/5.png"",""time"":496},{""stimulus"":""img/3to1/6.png"",""time"":594},{""stimulus"":""img/3to1/7.png"",""time"":693},{""stimulus"":""img/3to1/8.png"",""time"":793},{""stimulus"":""img/3to1/9.png"",""time"":891},{""stimulus"":""img/3to1/10.png"",""time"":991},{""stimulus"":""img/3to1/11.png"",""time"":1090},{""stimulus"":""img/3to1/12.png"",""time"":1189}]","[]"
"image-keyboard-response","80","108647","0.0-5.0-1.38","63d42387aba51e699ab9ce5c","bdp_cybrbll","Fri Mar 24 2023 21:16:32 GMT-0400 (Eastern Daylight Time)","426319","1","3","","null","","","","observe","","img/1to3/1.png","null","187","545","0.5","0.5","1","3","",""
"animation","81","109935","0.0-5.0-2.38","63d42387aba51e699ab9ce5c","bdp_cybrbll","Fri Mar 24 2023 21:16:32 GMT-0400 (Eastern Daylight Time)","426319","1","3","","","","","","","","","","187","","","","1","3","[{""stimulus"":""img/1to3/1.png"",""time"":101},{""stimulus"":""img/1to3/2.png"",""time"":200},{""stimulus"":""img/1to3/3.png"",""time"":299},{""stimulus"":""img/1to3/4.png"",""time"":397},{""stimulus"":""img/1to3/5.png"",""time"":496},{""stimulus"":""img/1to3/6.png"",""time"":596},{""stimulus"":""img/1to3/7.png"",""time"":694},{""stimulus"":""img/1to3/8.png"",""time"":794},{""stimulus"":""img/1to3/9.png"",""time"":891},{""stimulus"":""img/1to3/10.png"",""time"":991},{""stimulus"":""img/1to3/11.png"",""time"":1090},{""stimulus"":""img/1to3/12.png"",""time"":1189}]","[]"
"image-keyboard-response","82","110386","0.0-5.0-1.39","63d42387aba51e699ab9ce5c","bdp_cybrbll","Fri Mar 24 2023 21:16:32 GMT-0400 (Eastern Daylight Time)","426319","1","3","","null","","","","observe","","img/3to2/1.png","null","186","450","0.5","0.5","3","2","",""
"animation","83","111674","0.0-5.0-2.39","63d42387aba51e699ab9ce5c","bdp_cybrbll","Fri Mar 24 2023 21:16:32 GMT-0400 (Eastern Daylight Time)","426319","1","3","","","","","","","","","","186","","","","3","2","[{""stimulus"":""img/3to2/1.png"",""time"":100},{""stimulus"":""img/3to2/2.png"",""time"":198},{""stimulus"":""img/3to2/3.png"",""time"":298},{""stimulus"":""img/3to2/4.png"",""time"":397},{""stimulus"":""img/3to2/5.png"",""time"":496},{""stimulus"":""img/3to2/6.png"",""time"":595},{""stimulus"":""img/3to2/7.png"",""time"":694},{""stimulus"":""img/3to2/8.png"",""time"":792},{""stimulus"":""img/3to2/9.png"",""time"":891},{""stimulus"":""img/3to2/10.png"",""time"":991},{""stimulus"":""img/3to2/11.png"",""time"":1090},{""stimulus"":""img/3to2/12.png"",""time"":1188}]","[]"
"image-keyboard-response","84","112058","0.0-5.0-1.40","63d42387aba51e699ab9ce5c","bdp_cybrbll","Fri Mar 24 2023 21:16:32 GMT-0400 (Eastern Daylight Time)","426319","1","3","","384","","","","choice","","img/2to1/1.png","2","185","224","0.5","0.5","2","3","",""
"animation","85","113346","0.0-5.0-2.40","63d42387aba51e699ab9ce5c","bdp_cybrbll","Fri Mar 24 2023 21:16:32 GMT-0400 (Eastern Daylight Time)","426319","1","3","","","","","","","","","","185","","","","2","3","[{""stimulus"":""img/2to3/1.png"",""time"":100},{""stimulus"":""img/2to3/2.png"",""time"":198},{""stimulus"":""img/2to3/3.png"",""time"":298},{""stimulus"":""img/2to3/4.png"",""time"":397},{""stimulus"":""img/2to3/5.png"",""time"":496},{""stimulus"":""img/2to3/6.png"",""time"":595},{""stimulus"":""img/2to3/7.png"",""time"":694},{""stimulus"":""img/2to3/8.png"",""time"":793},{""stimulus"":""img/2to3/9.png"",""time"":892},{""stimulus"":""img/2to3/10.png"",""time"":991},{""stimulus"":""img/2to3/11.png"",""time"":1090},{""stimulus"":""img/2to3/12.png"",""time"":1189}]","[]"
"image-keyboard-response","86","113780","0.0-5.0-1.41","63d42387aba51e699ab9ce5c","bdp_cybrbll","Fri Mar 24 2023 21:16:32 GMT-0400 (Eastern Daylight Time)","426319","1","3","","null","","","","observe","","img/3to2/1.png","null","184","433","0.5","0.5","3","2","",""
"animation","87","115067","0.0-5.0-2.41","63d42387aba51e699ab9ce5c","bdp_cybrbll","Fri Mar 24 2023 21:16:32 GMT-0400 (Eastern Daylight Time)","426319","1","3","","","","","","","","","","184","","","","3","2","[{""stimulus"":""img/3to2/1.png"",""time"":101},{""stimulus"":""img/3to2/2.png"",""time"":199},{""stimulus"":""img/3to2/3.png"",""time"":298},{""stimulus"":""img/3to2/4.png"",""time"":398},{""stimulus"":""img/3to2/5.png"",""time"":496},{""stimulus"":""img/3to2/6.png"",""time"":595},{""stimulus"":""img/3to2/7.png"",""time"":694},{""stimulus"":""img/3to2/8.png"",""time"":793},{""stimulus"":""img/3to2/9.png"",""time"":892},{""stimulus"":""img/3to2/10.png"",""time"":991},{""stimulus"":""img/3to2/11.png"",""time"":1091},{""stimulus"":""img/3to2/12.png"",""time"":1190}]","[]"
"image-keyboard-response","88","115308","0.0-5.0-1.42","63d42387aba51e699ab9ce5c","bdp_cybrbll","Fri Mar 24 2023 21:16:32 GMT-0400 (Eastern Daylight Time)","426319","1","3","","240","","","","choice","","img/2to1/1.png","1","183","888","0.5","0.5","2","1","",""
"animation","89","116596","0.0-5.0-2.42","63d42387aba51e699ab9ce5c","bdp_cybrbll","Fri Mar 24 2023 21:16:32 GMT-0400 (Eastern Daylight Time)","426319","1","3","","","","","","","","","","183","","","","2","1","[{""stimulus"":""img/2to1/1.png"",""time"":134},{""stimulus"":""img/2to1/2.png"",""time"":200},{""stimulus"":""img/2to1/3.png"",""time"":299},{""stimulus"":""img/2to1/4.png"",""time"":407},{""stimulus"":""img/2to1/5.png"",""time"":496},{""stimulus"":""img/2to1/6.png"",""time"":596},{""stimulus"":""img/2to1/7.png"",""time"":700},{""stimulus"":""img/2to1/8.png"",""time"":793},{""stimulus"":""img/2to1/9.png"",""time"":915},{""stimulus"":""img/2to1/10.png"",""time"":991},{""stimulus"":""img/2to1/11.png"",""time"":1090},{""stimulus"":""img/2to1/12.png"",""time"":1198}]","[]"
"image-keyboard-response","90","118070","0.0-5.0-1.43","63d42387aba51e699ab9ce5c","bdp_cybrbll","Fri Mar 24 2023 21:16:32 GMT-0400 (Eastern Daylight Time)","426319","1","3","","null","","","","observe","","img/1to3/1.png","null","182","1474","0.5","0.5","1","2","",""
"animation","91","119357","0.0-5.0-2.43","63d42387aba51e699ab9ce5c","bdp_cybrbll","Fri Mar 24 2023 21:16:32 GMT-0400 (Eastern Daylight Time)","426319","1","3","","","","","","","","","","182","","","","1","2","[{""stimulus"":""img/1to2/1.png"",""time"":100},{""stimulus"":""img/1to2/2.png"",""time"":199},{""stimulus"":""img/1to2/3.png"",""time"":298},{""stimulus"":""img/1to2/4.png"",""time"":398},{""stimulus"":""img/1to2/5.png"",""time"":496},{""stimulus"":""img/1to2/6.png"",""time"":595},{""stimulus"":""img/1to2/7.png"",""time"":694},{""stimulus"":""img/1to2/8.png"",""time"":793},{""stimulus"":""img/1to2/9.png"",""time"":893},{""stimulus"":""img/1to2/10.png"",""time"":991},{""stimulus"":""img/1to2/11.png"",""time"":1090},{""stimulus"":""img/1to2/12.png"",""time"":1189}]","[]"
"image-keyboard-response","92","119602","0.0-5.0-1.44","63d42387aba51e699ab9ce5c","bdp_cybrbll","Fri Mar 24 2023 21:16:32 GMT-0400 (Eastern Daylight Time)","426319","1","3","","243","","","","choice","","img/2to1/1.png","2","181","408","0.5","0.5","2","3","",""
"animation","93","120889","0.0-5.0-2.44","63d42387aba51e699ab9ce5c","bdp_cybrbll","Fri Mar 24 2023 21:16:32 GMT-0400 (Eastern Daylight Time)","426319","1","3","","","","","","","","","","181","","","","2","3","[{""stimulus"":""img/2to3/1.png"",""time"":99},{""stimulus"":""img/2to3/2.png"",""time"":199},{""stimulus"":""img/2to3/3.png"",""time"":298},{""stimulus"":""img/2to3/4.png"",""time"":397},{""stimulus"":""img/2to3/5.png"",""time"":496},{""stimulus"":""img/2to3/6.png"",""time"":594},{""stimulus"":""img/2to3/7.png"",""time"":693},{""stimulus"":""img/2to3/8.png"",""time"":793},{""stimulus"":""img/2to3/9.png"",""time"":892},{""stimulus"":""img/2to3/10.png"",""time"":990},{""stimulus"":""img/2to3/11.png"",""time"":1090},{""stimulus"":""img/2to3/12.png"",""time"":1188}]","[]"
"image-keyboard-response","94","121089","0.0-5.0-1.45","63d42387aba51e699ab9ce5c","bdp_cybrbll","Fri Mar 24 2023 21:16:32 GMT-0400 (Eastern Daylight Time)","426319","1","3","","null","","","","observe","","img/3to2/1.png","null","180","199","0.5","0.5","3","2","",""
"animation","95","122377","0.0-5.0-2.45","63d42387aba51e699ab9ce5c","bdp_cybrbll","Fri Mar 24 2023 21:16:32 GMT-0400 (Eastern Daylight Time)","426319","1","3","","","","","","","","","","180","","","","3","2","[{""stimulus"":""img/3to2/1.png"",""time"":101},{""stimulus"":""img/3to2/2.png"",""time"":199},{""stimulus"":""img/3to2/3.png"",""time"":298},{""stimulus"":""img/3to2/4.png"",""time"":397},{""stimulus"":""img/3to2/5.png"",""time"":497},{""stimulus"":""img/3to2/6.png"",""time"":595},{""stimulus"":""img/3to2/7.png"",""time"":694},{""stimulus"":""img/3to2/8.png"",""time"":794},{""stimulus"":""img/3to2/9.png"",""time"":892},{""stimulus"":""img/3to2/10.png"",""time"":991},{""stimulus"":""img/3to2/11.png"",""time"":1091},{""stimulus"":""img/3to2/12.png"",""time"":1188}]","[]"
"image-keyboard-response","96","122639","0.0-5.0-1.46","63d42387aba51e699ab9ce5c","bdp_cybrbll","Fri Mar 24 2023 21:16:32 GMT-0400 (Eastern Daylight Time)","426319","1","3","","262","","","","choice","","img/2to1/1.png","1","179","847","0.5","0.5","2","1","",""
"animation","97","123926","0.0-5.0-2.46","63d42387aba51e699ab9ce5c","bdp_cybrbll","Fri Mar 24 2023 21:16:32 GMT-0400 (Eastern Daylight Time)","426319","1","3","","","","","","","","","","179","","","","2","1","[{""stimulus"":""img/2to1/1.png"",""time"":101},{""stimulus"":""img/2to1/2.png"",""time"":209},{""stimulus"":""img/2to1/3.png"",""time"":299},{""stimulus"":""img/2to1/4.png"",""time"":397},{""stimulus"":""img/2to1/5.png"",""time"":496},{""stimulus"":""img/2to1/6.png"",""time"":595},{""stimulus"":""img/2to1/7.png"",""time"":694},{""stimulus"":""img/2to1/8.png"",""time"":793},{""stimulus"":""img/2to1/9.png"",""time"":892},{""stimulus"":""img/2to1/10.png"",""time"":992},{""stimulus"":""img/2to1/11.png"",""time"":1101},{""stimulus"":""img/2to1/12.png"",""time"":1209}]","[]"
"image-keyboard-response","98","124191","0.0-5.0-1.47","63d42387aba51e699ab9ce5c","bdp_cybrbll","Fri Mar 24 2023 21:16:32 GMT-0400 (Eastern Daylight Time)","426319","1","3","","null","","","","observe","","img/1to3/1.png","null","178","262","0.5","0.5","1","3","",""
"animation","99","125480","0.0-5.0-2.47","63d42387aba51e699ab9ce5c","bdp_cybrbll","Fri Mar 24 2023 21:16:32 GMT-0400 (Eastern Daylight Time)","426319","1","3","","","","","","","","","","178","","","","1","3","[{""stimulus"":""img/1to3/1.png"",""time"":100},{""stimulus"":""img/1to3/2.png"",""time"":198},{""stimulus"":""img/1to3/3.png"",""time"":297},{""stimulus"":""img/1to3/4.png"",""time"":398},{""stimulus"":""img/1to3/5.png"",""time"":496},{""stimulus"":""img/1to3/6.png"",""time"":594},{""stimulus"":""img/1to3/7.png"",""time"":693},{""stimulus"":""img/1to3/8.png"",""time"":792},{""stimulus"":""img/1to3/9.png"",""time"":891},{""stimulus"":""img/1to3/10.png"",""time"":990},{""stimulus"":""img/1to3/11.png"",""time"":1090},{""stimulus"":""img/1to3/12.png"",""time"":1189}]","[]"
"image-keyboard-response","100","125893","0.0-5.0-1.48","63d42387aba51e699ab9ce5c","bdp_cybrbll","Fri Mar 24 2023 21:16:32 GMT-0400 (Eastern Daylight Time)","426319","1","3","","null","","","","observe","","img/3to2/1.png","null","177","412","0.5","0.5","3","2","",""
"animation","101","127181","0.0-5.0-2.48","63d42387aba51e699ab9ce5c","bdp_cybrbll","Fri Mar 24 2023 21:16:32 GMT-0400 (Eastern Daylight Time)","426319","1","3","","","","","","","","","","177","","","","3","2","[{""stimulus"":""img/3to2/1.png"",""time"":100},{""stimulus"":""img/3to2/2.png"",""time"":199},{""stimulus"":""img/3to2/3.png"",""time"":299},{""stimulus"":""img/3to2/4.png"",""time"":398},{""stimulus"":""img/3to2/5.png"",""time"":496},{""stimulus"":""img/3to2/6.png"",""time"":595},{""stimulus"":""img/3to2/7.png"",""time"":694},{""stimulus"":""img/3to2/8.png"",""time"":793},{""stimulus"":""img/3to2/9.png"",""time"":892},{""stimulus"":""img/3to2/10.png"",""time"":991},{""stimulus"":""img/3to2/11.png"",""time"":1090},{""stimulus"":""img/3to2/12.png"",""time"":1189}]","[]"
"image-keyboard-response","102","127246","0.0-5.0-1.49","63d42387aba51e699ab9ce5c","bdp_cybrbll","Fri Mar 24 2023 21:16:32 GMT-0400 (Eastern Daylight Time)","426319","1","3","","64","","","","choice","","img/2to1/1.png","1","176","300","0.5","0.5","2","1","",""
"animation","103","128534","0.0-5.0-2.49","63d42387aba51e699ab9ce5c","bdp_cybrbll","Fri Mar 24 2023 21:16:32 GMT-0400 (Eastern Daylight Time)","426319","1","3","","","","","","","","","","176","","","","2","1","[{""stimulus"":""img/2to1/1.png"",""time"":100},{""stimulus"":""img/2to1/2.png"",""time"":199},{""stimulus"":""img/2to1/3.png"",""time"":298},{""stimulus"":""img/2to1/4.png"",""time"":398},{""stimulus"":""img/2to1/5.png"",""time"":497},{""stimulus"":""img/2to1/6.png"",""time"":595},{""stimulus"":""img/2to1/7.png"",""time"":695},{""stimulus"":""img/2to1/8.png"",""time"":793},{""stimulus"":""img/2to1/9.png"",""time"":892},{""stimulus"":""img/2to1/10.png"",""time"":1004},{""stimulus"":""img/2to1/11.png"",""time"":1091},{""stimulus"":""img/2to1/12.png"",""time"":1189}]","[]"
"image-keyboard-response","104","129139","0.0-5.0-1.50","63d42387aba51e699ab9ce5c","bdp_cybrbll","Fri Mar 24 2023 21:16:32 GMT-0400 (Eastern Daylight Time)","426319","1","3","","null","","","","observe","","img/1to3/1.png","null","175","604","0.5","0.5","1","2","",""
"animation","105","130427","0.0-5.0-2.50","63d42387aba51e699ab9ce5c","bdp_cybrbll","Fri Mar 24 2023 21:16:32 GMT-0400 (Eastern Daylight Time)","426319","1","3","","","","","","","","","","175","","","","1","2","[{""stimulus"":""img/1to2/1.png"",""time"":101},{""stimulus"":""img/1to2/2.png"",""time"":200},{""stimulus"":""img/1to2/3.png"",""time"":299},{""stimulus"":""img/1to2/4.png"",""time"":397},{""stimulus"":""img/1to2/5.png"",""time"":496},{""stimulus"":""img/1to2/6.png"",""time"":595},{""stimulus"":""img/1to2/7.png"",""time"":694},{""stimulus"":""img/1to2/8.png"",""time"":794},{""stimulus"":""img/1to2/9.png"",""time"":892},{""stimulus"":""img/1to2/10.png"",""time"":992},{""stimulus"":""img/1to2/11.png"",""time"":1090},{""stimulus"":""img/1to2/12.png"",""time"":1222}]","[]"
"image-keyboard-response","106","130603","0.0-5.0-1.51","63d42387aba51e699ab9ce5c","bdp_cybrbll","Fri Mar 24 2023 21:16:32 GMT-0400 (Eastern Daylight Time)","426319","1","3","","176","","","","choice","","img/2to1/1.png","2","174","840","0.5","0.5","2","3","",""
"animation","107","131891","0.0-5.0-2.51","63d42387aba51e699ab9ce5c","bdp_cybrbll","Fri Mar 24 2023 21:16:32 GMT-0400 (Eastern Daylight Time)","426319","1","3","","","","","","","","","","174","","","","2","3","[{""stimulus"":""img/2to3/1.png"",""time"":100},{""stimulus"":""img/2to3/2.png"",""time"":199},{""stimulus"":""img/2to3/3.png"",""time"":298},{""stimulus"":""img/2to3/4.png"",""time"":397},{""stimulus"":""img/2to3/5.png"",""time"":500},{""stimulus"":""img/2to3/6.png"",""time"":619},{""stimulus"":""img/2to3/7.png"",""time"":706},{""stimulus"":""img/2to3/8.png"",""time"":795},{""stimulus"":""img/2to3/9.png"",""time"":897},{""stimulus"":""img/2to3/10.png"",""time"":991},{""stimulus"":""img/2to3/11.png"",""time"":1090},{""stimulus"":""img/2to3/12.png"",""time"":1196}]","[]"
"image-keyboard-response","108","132085","0.0-5.0-1.52","63d42387aba51e699ab9ce5c","bdp_cybrbll","Fri Mar 24 2023 21:16:32 GMT-0400 (Eastern Daylight Time)","426319","1","3","","null","","","","observe","","img/3to2/1.png","null","173","194","0.5","0.5","3","2","",""
"animation","109","133373","0.0-5.0-2.52","63d42387aba51e699ab9ce5c","bdp_cybrbll","Fri Mar 24 2023 21:16:32 GMT-0400 (Eastern Daylight Time)","426319","1","3","","","","","","","","","","173","","","","3","2","[{""stimulus"":""img/3to2/1.png"",""time"":100},{""stimulus"":""img/3to2/2.png"",""time"":199},{""stimulus"":""img/3to2/3.png"",""time"":298},{""stimulus"":""img/3to2/4.png"",""time"":397},{""stimulus"":""img/3to2/5.png"",""time"":496},{""stimulus"":""img/3to2/6.png"",""time"":595},{""stimulus"":""img/3to2/7.png"",""time"":694},{""stimulus"":""img/3to2/8.png"",""time"":793},{""stimulus"":""img/3to2/9.png"",""time"":892},{""stimulus"":""img/3to2/10.png"",""time"":991},{""stimulus"":""img/3to2/11.png"",""time"":1091},{""stimulus"":""img/3to2/12.png"",""time"":1189}]","[]"
"image-keyboard-response","110","133381","0.0-5.0-1.53","63d42387aba51e699ab9ce5c","bdp_cybrbll","Fri Mar 24 2023 21:16:32 GMT-0400 (Eastern Daylight Time)","426319","1","3","","8","","","","choice","","img/2to1/1.png","1","172","372","0.5","0.5","2","1","",""
"animation","111","134669","0.0-5.0-2.53","63d42387aba51e699ab9ce5c","bdp_cybrbll","Fri Mar 24 2023 21:16:32 GMT-0400 (Eastern Daylight Time)","426319","1","3","","","","","","","","","","172","","","","2","1","[{""stimulus"":""img/2to1/1.png"",""time"":101},{""stimulus"":""img/2to1/2.png"",""time"":199},{""stimulus"":""img/2to1/3.png"",""time"":299},{""stimulus"":""img/2to1/4.png"",""time"":397},{""stimulus"":""img/2to1/5.png"",""time"":496},{""stimulus"":""img/2to1/6.png"",""time"":595},{""stimulus"":""img/2to1/7.png"",""time"":694},{""stimulus"":""img/2to1/8.png"",""time"":794},{""stimulus"":""img/2to1/9.png"",""time"":893},{""stimulus"":""img/2to1/10.png"",""time"":995},{""stimulus"":""img/2to1/11.png"",""time"":1104},{""stimulus"":""img/2to1/12.png"",""time"":1191}]","[]"
"image-keyboard-response","112","135029","0.0-5.0-1.54","63d42387aba51e699ab9ce5c","bdp_cybrbll","Fri Mar 24 2023 21:16:32 GMT-0400 (Eastern Daylight Time)","426319","1","3","","null","","","","observe","","img/1to3/1.png","null","171","358","0.5","0.5","1","3","",""
"animation","113","136317","0.0-5.0-2.54","63d42387aba51e699ab9ce5c","bdp_cybrbll","Fri Mar 24 2023 21:16:32 GMT-0400 (Eastern Daylight Time)","426319","1","3","","","","","","","","","","171","","","","1","3","[{""stimulus"":""img/1to3/1.png"",""time"":100},{""stimulus"":""img/1to3/2.png"",""time"":198},{""stimulus"":""img/1to3/3.png"",""time"":298},{""stimulus"":""img/1to3/4.png"",""time"":397},{""stimulus"":""img/1to3/5.png"",""time"":495},{""stimulus"":""img/1to3/6.png"",""time"":595},{""stimulus"":""img/1to3/7.png"",""time"":693},{""stimulus"":""img/1to3/8.png"",""time"":793},{""stimulus"":""img/1to3/9.png"",""time"":891},{""stimulus"":""img/1to3/10.png"",""time"":991},{""stimulus"":""img/1to3/11.png"",""time"":1089},{""stimulus"":""img/1to3/12.png"",""time"":1188}]","[]"
"image-keyboard-response","114","136611","0.0-5.0-1.55","63d42387aba51e699ab9ce5c","bdp_cybrbll","Fri Mar 24 2023 21:16:32 GMT-0400 (Eastern Daylight Time)","426319","1","3","","null","","","","observe","","img/3to2/1.png","null","170","293","0.5","0.5","3","1","",""
"animation","115","137900","0.0-5.0-2.55","63d42387aba51e699ab9ce5c","bdp_cybrbll","Fri Mar 24 2023 21:16:32 GMT-0400 (Eastern Daylight Time)","426319","1","3","","","","","","","","","","170","","","","3","1","[{""stimulus"":""img/3to1/1.png"",""time"":99},{""stimulus"":""img/3to1/2.png"",""time"":198},{""stimulus"":""img/3to1/3.png"",""time"":297},{""stimulus"":""img/3to1/4.png"",""time"":396},{""stimulus"":""img/3to1/5.png"",""time"":496},{""stimulus"":""img/3to1/6.png"",""time"":595},{""stimulus"":""img/3to1/7.png"",""time"":705},{""stimulus"":""img/3to1/8.png"",""time"":793},{""stimulus"":""img/3to1/9.png"",""time"":891},{""stimulus"":""img/3to1/10.png"",""time"":991},{""stimulus"":""img/3to1/11.png"",""time"":1089},{""stimulus"":""img/3to1/12.png"",""time"":1189}]","[]"
"image-keyboard-response","116","138343","0.0-5.0-1.56","63d42387aba51e699ab9ce5c","bdp_cybrbll","Fri Mar 24 2023 21:16:32 GMT-0400 (Eastern Daylight Time)","426319","1","3","","null","","","","observe","","img/1to3/1.png","null","169","442","0.5","0.5","1","3","",""
"animation","117","139631","0.0-5.0-2.56","63d42387aba51e699ab9ce5c","bdp_cybrbll","Fri Mar 24 2023 21:16:32 GMT-0400 (Eastern Daylight Time)","426319","1","3","","","","","","","","","","169","","","","1","3","[{""stimulus"":""img/1to3/1.png"",""time"":99},{""stimulus"":""img/1to3/2.png"",""time"":199},{""stimulus"":""img/1to3/3.png"",""time"":298},{""stimulus"":""img/1to3/4.png"",""time"":397},{""stimulus"":""img/1to3/5.png"",""time"":506},{""stimulus"":""img/1to3/6.png"",""time"":594},{""stimulus"":""img/1to3/7.png"",""time"":695},{""stimulus"":""img/1to3/8.png"",""time"":793},{""stimulus"":""img/1to3/9.png"",""time"":892},{""stimulus"":""img/1to3/10.png"",""time"":991},{""stimulus"":""img/1to3/11.png"",""time"":1091},{""stimulus"":""img/1to3/12.png"",""time"":1189}]","[]"
"image-keyboard-response","118","140443","0.0-5.0-1.57","63d42387aba51e699ab9ce5c","bdp_cybrbll","Fri Mar 24 2023 21:16:32 GMT-0400 (Eastern Daylight Time)","426319","1","3","","null","","","","observe","","img/3to2/1.png","null","168","811","0.5","0.5","3","1","",""
"animation","119","141732","0.0-5.0-2.57","63d42387aba51e699ab9ce5c","bdp_cybrbll","Fri Mar 24 2023 21:16:32 GMT-0400 (Eastern Daylight Time)","426319","1","3","","","","","","","","","","168","","","","3","1","[{""stimulus"":""img/3to1/1.png"",""time"":100},{""stimulus"":""img/3to1/2.png"",""time"":199},{""stimulus"":""img/3to1/3.png"",""time"":298},{""stimulus"":""img/3to1/4.png"",""time"":397},{""stimulus"":""img/3to1/5.png"",""time"":498},{""stimulus"":""img/3to1/6.png"",""time"":595},{""stimulus"":""img/3to1/7.png"",""time"":696},{""stimulus"":""img/3to1/8.png"",""time"":793},{""stimulus"":""img/3to1/9.png"",""time"":893},{""stimulus"":""img/3to1/10.png"",""time"":991},{""stimulus"":""img/3to1/11.png"",""time"":1090},{""stimulus"":""img/3to1/12.png"",""time"":1189}]","[]"
"image-keyboard-response","120","142521","0.0-5.0-1.58","63d42387aba51e699ab9ce5c","bdp_cybrbll","Fri Mar 24 2023 21:16:32 GMT-0400 (Eastern Daylight Time)","426319","1","3","","null","","","","observe","","img/1to3/1.png","null","167","788","0.5","0.5","1","3","",""
"animation","121","143810","0.0-5.0-2.58","63d42387aba51e699ab9ce5c","bdp_cybrbll","Fri Mar 24 2023 21:16:32 GMT-0400 (Eastern Daylight Time)","426319","1","3","","","","","","","","","","167","","","","1","3","[{""stimulus"":""img/1to3/1.png"",""time"":100},{""stimulus"":""img/1to3/2.png"",""time"":200},{""stimulus"":""img/1to3/3.png"",""time"":298},{""stimulus"":""img/1to3/4.png"",""time"":397},{""stimulus"":""img/1to3/5.png"",""time"":496},{""stimulus"":""img/1to3/6.png"",""time"":594},{""stimulus"":""img/1to3/7.png"",""time"":694},{""stimulus"":""img/1to3/8.png"",""time"":792},{""stimulus"":""img/1to3/9.png"",""time"":892},{""stimulus"":""img/1to3/10.png"",""time"":991},{""stimulus"":""img/1to3/11.png"",""time"":1090},{""stimulus"":""img/1to3/12.png"",""time"":1189}]","[]"
"image-keyboard-response","122","144262","0.0-5.0-1.59","63d42387aba51e699ab9ce5c","bdp_cybrbll","Fri Mar 24 2023 21:16:32 GMT-0400 (Eastern Daylight Time)","426319","1","3","","null","","","","observe","","img/3to2/1.png","null","166","451","0.5","0.5","3","1","",""
"animation","123","145550","0.0-5.0-2.59","63d42387aba51e699ab9ce5c","bdp_cybrbll","Fri Mar 24 2023 21:16:32 GMT-0400 (Eastern Daylight Time)","426319","1","3","","","","","","","","","","166","","","","3","1","[{""stimulus"":""img/3to1/1.png"",""time"":100},{""stimulus"":""img/3to1/2.png"",""time"":199},{""stimulus"":""img/3to1/3.png"",""time"":298},{""stimulus"":""img/3to1/4.png"",""time"":398},{""stimulus"":""img/3to1/5.png"",""time"":495},{""stimulus"":""img/3to1/6.png"",""time"":595},{""stimulus"":""img/3to1/7.png"",""time"":695},{""stimulus"":""img/3to1/8.png"",""time"":792},{""stimulus"":""img/3to1/9.png"",""time"":892},{""stimulus"":""img/3to1/10.png"",""time"":991},{""stimulus"":""img/3to1/11.png"",""time"":1111},{""stimulus"":""img/3to1/12.png"",""time"":1189}]","[]"
"image-keyboard-response","124","146287","0.0-5.0-1.60","63d42387aba51e699ab9ce5c","bdp_cybrbll","Fri Mar 24 2023 21:16:32 GMT-0400 (Eastern Daylight Time)","426319","1","3","","null","","","","observe","","img/1to3/1.png","null","165","736","0.5","0.5","1","3","",""
"animation","125","147575","0.0-5.0-2.60","63d42387aba51e699ab9ce5c","bdp_cybrbll","Fri Mar 24 2023 21:16:32 GMT-0400 (Eastern Daylight Time)","426319","1","3","","","","","","","","","","165","","","","1","3","[{""stimulus"":""img/1to3/1.png"",""time"":102},{""stimulus"":""img/1to3/2.png"",""time"":199},{""stimulus"":""img/1to3/3.png"",""time"":298},{""stimulus"":""img/1to3/4.png"",""time"":398},{""stimulus"":""img/1to3/5.png"",""time"":497},{""stimulus"":""img/1to3/6.png"",""time"":595},{""stimulus"":""img/1to3/7.png"",""time"":694},{""stimulus"":""img/1to3/8.png"",""time"":793},{""stimulus"":""img/1to3/9.png"",""time"":904},{""stimulus"":""img/1to3/10.png"",""time"":992},{""stimulus"":""img/1to3/11.png"",""time"":1090},{""stimulus"":""img/1to3/12.png"",""time"":1189}]","[]"
"image-keyboard-response","126","148372","0.0-5.0-1.61","63d42387aba51e699ab9ce5c","bdp_cybrbll","Fri Mar 24 2023 21:16:32 GMT-0400 (Eastern Daylight Time)","426319","1","3","","null","","","","observe","","img/3to2/1.png","null","164","795","0.5","0.5","3","2","",""
"animation","127","149659","0.0-5.0-2.61","63d42387aba51e699ab9ce5c","bdp_cybrbll","Fri Mar 24 2023 21:16:32 GMT-0400 (Eastern Daylight Time)","426319","1","3","","","","","","","","","","164","","","","3","2","[{""stimulus"":""img/3to2/1.png"",""time"":99},{""stimulus"":""img/3to2/2.png"",""time"":199},{""stimulus"":""img/3to2/3.png"",""time"":298},{""stimulus"":""img/3to2/4.png"",""time"":396},{""stimulus"":""img/3to2/5.png"",""time"":495},{""stimulus"":""img/3to2/6.png"",""time"":595},{""stimulus"":""img/3to2/7.png"",""time"":694},{""stimulus"":""img/3to2/8.png"",""time"":792},{""stimulus"":""img/3to2/9.png"",""time"":892},{""stimulus"":""img/3to2/10.png"",""time"":991},{""stimulus"":""img/3to2/11.png"",""time"":1090},{""stimulus"":""img/3to2/12.png"",""time"":1188}]","[]"
"image-keyboard-response","128","150048","0.0-5.0-1.62","63d42387aba51e699ab9ce5c","bdp_cybrbll","Fri Mar 24 2023 21:16:32 GMT-0400 (Eastern Daylight Time)","426319","1","3","","388","","","","choice","","img/2to1/1.png","1","163","510","0.5","0.5","2","1","",""
"animation","129","151336","0.0-5.0-2.62","63d42387aba51e699ab9ce5c","bdp_cybrbll","Fri Mar 24 2023 21:16:32 GMT-0400 (Eastern Daylight Time)","426319","1","3","","","","","","","","","","163","","","","2","1","[{""stimulus"":""img/2to1/1.png"",""time"":99},{""stimulus"":""img/2to1/2.png"",""time"":199},{""stimulus"":""img/2to1/3.png"",""time"":312},{""stimulus"":""img/2to1/4.png"",""time"":397},{""stimulus"":""img/2to1/5.png"",""time"":496},{""stimulus"":""img/2to1/6.png"",""time"":594},{""stimulus"":""img/2to1/7.png"",""time"":694},{""stimulus"":""img/2to1/8.png"",""time"":792},{""stimulus"":""img/2to1/9.png"",""time"":891},{""stimulus"":""img/2to1/10.png"",""time"":990},{""stimulus"":""img/2to1/11.png"",""time"":1090},{""stimulus"":""img/2to1/12.png"",""time"":1188}]","[]"
"image-keyboard-response","130","151946","0.0-5.0-1.63","63d42387aba51e699ab9ce5c","bdp_cybrbll","Fri Mar 24 2023 21:16:32 GMT-0400 (Eastern Daylight Time)","426319","1","3","","null","","","","observe","","img/1to3/1.png","null","162","609","0.5","0.5","1","2","",""
"animation","131","153235","0.0-5.0-2.63","63d42387aba51e699ab9ce5c","bdp_cybrbll","Fri Mar 24 2023 21:16:32 GMT-0400 (Eastern Daylight Time)","426319","1","3","","","","","","","","","","162","","","","1","2","[{""stimulus"":""img/1to2/1.png"",""time"":100},{""stimulus"":""img/1to2/2.png"",""time"":199},{""stimulus"":""img/1to2/3.png"",""time"":298},{""stimulus"":""img/1to2/4.png"",""time"":397},{""stimulus"":""img/1to2/5.png"",""time"":496},{""stimulus"":""img/1to2/6.png"",""time"":595},{""stimulus"":""img/1to2/7.png"",""time"":695},{""stimulus"":""img/1to2/8.png"",""time"":793},{""stimulus"":""img/1to2/9.png"",""time"":893},{""stimulus"":""img/1to2/10.png"",""time"":998},{""stimulus"":""img/1to2/11.png"",""time"":1090},{""stimulus"":""img/1to2/12.png"",""time"":1189}]","[]"
"image-keyboard-response","132","153362","0.0-5.0-1.64","63d42387aba51e699ab9ce5c","bdp_cybrbll","Fri Mar 24 2023 21:16:32 GMT-0400 (Eastern Daylight Time)","426319","1","3","","126","","","","choice","","img/2to1/1.png","2","161","414","0.5","0.5","2","3","",""
"animation","133","154650","0.0-5.0-2.64","63d42387aba51e699ab9ce5c","bdp_cybrbll","Fri Mar 24 2023 21:16:32 GMT-0400 (Eastern Daylight Time)","426319","1","3","","","","","","","","","","161","","","","2","3","[{""stimulus"":""img/2to3/1.png"",""time"":100},{""stimulus"":""img/2to3/2.png"",""time"":199},{""stimulus"":""img/2to3/3.png"",""time"":306},{""stimulus"":""img/2to3/4.png"",""time"":403},{""stimulus"":""img/2to3/5.png"",""time"":496},{""stimulus"":""img/2to3/6.png"",""time"":594},{""stimulus"":""img/2to3/7.png"",""time"":694},{""stimulus"":""img/2to3/8.png"",""time"":806},{""stimulus"":""img/2to3/9.png"",""time"":898},{""stimulus"":""img/2to3/10.png"",""time"":990},{""stimulus"":""img/2to3/11.png"",""time"":1091},{""stimulus"":""img/2to3/12.png"",""time"":1189}]","[]"
"image-keyboard-response","134","154969","0.0-5.0-1.65","63d42387aba51e699ab9ce5c","bdp_cybrbll","Fri Mar 24 2023 21:16:32 GMT-0400 (Eastern Daylight Time)","426319","1","3","","null","","","","observe","","img/3to2/1.png","null","160","311","0.5","0.5","3","2","",""
"animation","135","156264","0.0-5.0-2.65","63d42387aba51e699ab9ce5c","bdp_cybrbll","Fri Mar 24 2023 21:16:32 GMT-0400 (Eastern Daylight Time)","426319","1","3","","","","","","","","","","160","","","","3","2","[{""stimulus"":""img/3to2/1.png"",""time"":111},{""stimulus"":""img/3to2/2.png"",""time"":199},{""stimulus"":""img/3to2/3.png"",""time"":298},{""stimulus"":""img/3to2/4.png"",""time"":396},{""stimulus"":""img/3to2/5.png"",""time"":496},{""stimulus"":""img/3to2/6.png"",""time"":596},{""stimulus"":""img/3to2/7.png"",""time"":694},{""stimulus"":""img/3to2/8.png"",""time"":793},{""stimulus"":""img/3to2/9.png"",""time"":892},{""stimulus"":""img/3to2/10.png"",""time"":990},{""stimulus"":""img/3to2/11.png"",""time"":1090},{""stimulus"":""img/3to2/12.png"",""time"":1188}]","[]"
"image-keyboard-response","136","156501","0.0-5.0-1.66","63d42387aba51e699ab9ce5c","bdp_cybrbll","Fri Mar 24 2023 21:16:32 GMT-0400 (Eastern Daylight Time)","426319","1","3","","236","","","","choice","","img/2to1/1.png","1","159","720","0.5","0.5","2","1","",""
"animation","137","157789","0.0-5.0-2.66","63d42387aba51e699ab9ce5c","bdp_cybrbll","Fri Mar 24 2023 21:16:32 GMT-0400 (Eastern Daylight Time)","426319","1","3","","","","","","","","","","159","","","","2","1","[{""stimulus"":""img/2to1/1.png"",""time"":100},{""stimulus"":""img/2to1/2.png"",""time"":199},{""stimulus"":""img/2to1/3.png"",""time"":298},{""stimulus"":""img/2to1/4.png"",""time"":397},{""stimulus"":""img/2to1/5.png"",""time"":496},{""stimulus"":""img/2to1/6.png"",""time"":596},{""stimulus"":""img/2to1/7.png"",""time"":694},{""stimulus"":""img/2to1/8.png"",""time"":793},{""stimulus"":""img/2to1/9.png"",""time"":892},{""stimulus"":""img/2to1/10.png"",""time"":991},{""stimulus"":""img/2to1/11.png"",""time"":1091},{""stimulus"":""img/2to1/12.png"",""time"":1190}]","[]"
"image-keyboard-response","138","158062","0.0-5.0-1.67","63d42387aba51e699ab9ce5c","bdp_cybrbll","Fri Mar 24 2023 21:16:32 GMT-0400 (Eastern Daylight Time)","426319","1","3","","null","","","","observe","","img/1to3/1.png","null","158","273","0.5","0.5","1","2","",""
"animation","139","159350","0.0-5.0-2.67","63d42387aba51e699ab9ce5c","bdp_cybrbll","Fri Mar 24 2023 21:16:32 GMT-0400 (Eastern Daylight Time)","426319","1","3","","","","","","","","","","158","","","","1","2","[{""stimulus"":""img/1to2/1.png"",""time"":100},{""stimulus"":""img/1to2/2.png"",""time"":200},{""stimulus"":""img/1to2/3.png"",""time"":299},{""stimulus"":""img/1to2/4.png"",""time"":398},{""stimulus"":""img/1to2/5.png"",""time"":497},{""stimulus"":""img/1to2/6.png"",""time"":595},{""stimulus"":""img/1to2/7.png"",""time"":694},{""stimulus"":""img/1to2/8.png"",""time"":793},{""stimulus"":""img/1to2/9.png"",""time"":892},{""stimulus"":""img/1to2/10.png"",""time"":991},{""stimulus"":""img/1to2/11.png"",""time"":1102},{""stimulus"":""img/1to2/12.png"",""time"":1190}]","[]"
"image-keyboard-response","140","159509","0.0-5.0-1.68","63d42387aba51e699ab9ce5c","bdp_cybrbll","Fri Mar 24 2023 21:16:32 GMT-0400 (Eastern Daylight Time)","426319","1","3","","158","","","","choice","","img/2to1/1.png","2","157","638","0.5","0.5","2","3","",""
"animation","141","160797","0.0-5.0-2.68","63d42387aba51e699ab9ce5c","bdp_cybrbll","Fri Mar 24 2023 21:16:32 GMT-0400 (Eastern Daylight Time)","426319","1","3","","","","","","","","","","157","","","","2","3","[{""stimulus"":""img/2to3/1.png"",""time"":100},{""stimulus"":""img/2to3/2.png"",""time"":199},{""stimulus"":""img/2to3/3.png"",""time"":299},{""stimulus"":""img/2to3/4.png"",""time"":397},{""stimulus"":""img/2to3/5.png"",""time"":496},{""stimulus"":""img/2to3/6.png"",""time"":596},{""stimulus"":""img/2to3/7.png"",""time"":694},{""stimulus"":""img/2to3/8.png"",""time"":794},{""stimulus"":""img/2to3/9.png"",""time"":892},{""stimulus"":""img/2to3/10.png"",""time"":1014},{""stimulus"":""img/2to3/11.png"",""time"":1090},{""stimulus"":""img/2to3/12.png"",""time"":1193}]","[]"
"image-keyboard-response","142","161009","0.0-5.0-1.69","63d42387aba51e699ab9ce5c","bdp_cybrbll","Fri Mar 24 2023 21:16:32 GMT-0400 (Eastern Daylight Time)","426319","1","3","","null","","","","observe","","img/3to2/1.png","null","156","211","0.5","0.5","3","2","",""
"animation","143","162298","0.0-5.0-2.69","63d42387aba51e699ab9ce5c","bdp_cybrbll","Fri Mar 24 2023 21:16:32 GMT-0400 (Eastern Daylight Time)","426319","1","3","","","","","","","","","","156","","","","3","2","[{""stimulus"":""img/3to2/1.png"",""time"":101},{""stimulus"":""img/3to2/2.png"",""time"":200},{""stimulus"":""img/3to2/3.png"",""time"":318},{""stimulus"":""img/3to2/4.png"",""time"":408},{""stimulus"":""img/3to2/5.png"",""time"":496},{""stimulus"":""img/3to2/6.png"",""time"":596},{""stimulus"":""img/3to2/7.png"",""time"":700},{""stimulus"":""img/3to2/8.png"",""time"":793},{""stimulus"":""img/3to2/9.png"",""time"":891},{""stimulus"":""img/3to2/10.png"",""time"":991},{""stimulus"":""img/3to2/11.png"",""time"":1090},{""stimulus"":""img/3to2/12.png"",""time"":1189}]","[]"
"image-keyboard-response","144","162498","0.0-5.0-1.70","63d42387aba51e699ab9ce5c","bdp_cybrbll","Fri Mar 24 2023 21:16:32 GMT-0400 (Eastern Daylight Time)","426319","1","3","","199","","","","choice","","img/2to1/1.png","1","155","848","0.5","0.5","2","1","",""
"animation","145","163786","0.0-5.0-2.70","63d42387aba51e699ab9ce5c","bdp_cybrbll","Fri Mar 24 2023 21:16:32 GMT-0400 (Eastern Daylight Time)","426319","1","3","","","","","","","","","","155","","","","2","1","[{""stimulus"":""img/2to1/1.png"",""time"":100},{""stimulus"":""img/2to1/2.png"",""time"":199},{""stimulus"":""img/2to1/3.png"",""time"":299},{""stimulus"":""img/2to1/4.png"",""time"":397},{""stimulus"":""img/2to1/5.png"",""time"":495},{""stimulus"":""img/2to1/6.png"",""time"":595},{""stimulus"":""img/2to1/7.png"",""time"":694},{""stimulus"":""img/2to1/8.png"",""time"":793},{""stimulus"":""img/2to1/9.png"",""time"":891},{""stimulus"":""img/2to1/10.png"",""time"":991},{""stimulus"":""img/2to1/11.png"",""time"":1089},{""stimulus"":""img/2to1/12.png"",""time"":1189}]","[]"
"image-keyboard-response","146","163936","0.0-5.0-1.71","63d42387aba51e699ab9ce5c","bdp_cybrbll","Fri Mar 24 2023 21:16:32 GMT-0400 (Eastern Daylight Time)","426319","1","3","","null","","","","observe","","img/1to3/1.png","null","154","149","0.5","0.5","1","2","",""
"animation","147","165225","0.0-5.0-2.71","63d42387aba51e699ab9ce5c","bdp_cybrbll","Fri Mar 24 2023 21:16:32 GMT-0400 (Eastern Daylight Time)","426319","1","3","","","","","","","","","","154","","","","1","2","[{""stimulus"":""img/1to2/1.png"",""time"":100},{""stimulus"":""img/1to2/2.png"",""time"":208},{""stimulus"":""img/1to2/3.png"",""time"":298},{""stimulus"":""img/1to2/4.png"",""time"":397},{""stimulus"":""img/1to2/5.png"",""time"":496},{""stimulus"":""img/1to2/6.png"",""time"":595},{""stimulus"":""img/1to2/7.png"",""time"":694},{""stimulus"":""img/1to2/8.png"",""time"":793},{""stimulus"":""img/1to2/9.png"",""time"":891},{""stimulus"":""img/1to2/10.png"",""time"":990},{""stimulus"":""img/1to2/11.png"",""time"":1090},{""stimulus"":""img/1to2/12.png"",""time"":1190}]","[]"
"image-keyboard-response","148","165348","0.0-5.0-1.72","63d42387aba51e699ab9ce5c","bdp_cybrbll","Fri Mar 24 2023 21:16:32 GMT-0400 (Eastern Daylight Time)","426319","1","3","","123","","","","choice","","img/2to1/1.png","2","153","321","0.5","0.5","2","3","",""
"animation","149","166636","0.0-5.0-2.72","63d42387aba51e699ab9ce5c","bdp_cybrbll","Fri Mar 24 2023 21:16:32 GMT-0400 (Eastern Daylight Time)","426319","1","3","","","","","","","","","","153","","","","2","3","[{""stimulus"":""img/2to3/1.png"",""time"":100},{""stimulus"":""img/2to3/2.png"",""time"":198},{""stimulus"":""img/2to3/3.png"",""time"":297},{""stimulus"":""img/2to3/4.png"",""time"":397},{""stimulus"":""img/2to3/5.png"",""time"":496},{""stimulus"":""img/2to3/6.png"",""time"":594},{""stimulus"":""img/2to3/7.png"",""time"":694},{""stimulus"":""img/2to3/8.png"",""time"":792},{""stimulus"":""img/2to3/9.png"",""time"":891},{""stimulus"":""img/2to3/10.png"",""time"":991},{""stimulus"":""img/2to3/11.png"",""time"":1090},{""stimulus"":""img/2to3/12.png"",""time"":1188}]","[]"
"image-keyboard-response","150","167062","0.0-5.0-1.73","63d42387aba51e699ab9ce5c","bdp_cybrbll","Fri Mar 24 2023 21:16:32 GMT-0400 (Eastern Daylight Time)","426319","1","3","","null","","","","observe","","img/3to2/1.png","null","152","425","0.5","0.5","3","1","",""
"animation","151","168349","0.0-5.0-2.73","63d42387aba51e699ab9ce5c","bdp_cybrbll","Fri Mar 24 2023 21:16:32 GMT-0400 (Eastern Daylight Time)","426319","1","3","","","","","","","","","","152","","","","3","1","[{""stimulus"":""img/3to1/1.png"",""time"":99},{""stimulus"":""img/3to1/2.png"",""time"":199},{""stimulus"":""img/3to1/3.png"",""time"":298},{""stimulus"":""img/3to1/4.png"",""time"":396},{""stimulus"":""img/3to1/5.png"",""time"":496},{""stimulus"":""img/3to1/6.png"",""time"":594},{""stimulus"":""img/3to1/7.png"",""time"":693},{""stimulus"":""img/3to1/8.png"",""time"":793},{""stimulus"":""img/3to1/9.png"",""time"":892},{""stimulus"":""img/3to1/10.png"",""time"":991},{""stimulus"":""img/3to1/11.png"",""time"":1090},{""stimulus"":""img/3to1/12.png"",""time"":1188}]","[]"
"image-keyboard-response","152","168682","0.0-5.0-1.74","63d42387aba51e699ab9ce5c","bdp_cybrbll","Fri Mar 24 2023 21:16:32 GMT-0400 (Eastern Daylight Time)","426319","1","3","","null","","","","observe","","img/1to3/1.png","null","151","331","0.5","0.5","1","3","",""
"animation","153","169969","0.0-5.0-2.74","63d42387aba51e699ab9ce5c","bdp_cybrbll","Fri Mar 24 2023 21:16:32 GMT-0400 (Eastern Daylight Time)","426319","1","3","","","","","","","","","","151","","","","1","3","[{""stimulus"":""img/1to3/1.png"",""time"":101},{""stimulus"":""img/1to3/2.png"",""time"":238},{""stimulus"":""img/1to3/3.png"",""time"":299},{""stimulus"":""img/1to3/4.png"",""time"":396},{""stimulus"":""img/1to3/5.png"",""time"":496},{""stimulus"":""img/1to3/6.png"",""time"":595},{""stimulus"":""img/1to3/7.png"",""time"":693},{""stimulus"":""img/1to3/8.png"",""time"":793},{""stimulus"":""img/1to3/9.png"",""time"":891},{""stimulus"":""img/1to3/10.png"",""time"":990},{""stimulus"":""img/1to3/11.png"",""time"":1089},{""stimulus"":""img/1to3/12.png"",""time"":1189}]","[]"
"image-keyboard-response","154","170201","0.0-5.0-1.75","63d42387aba51e699ab9ce5c","bdp_cybrbll","Fri Mar 24 2023 21:16:32 GMT-0400 (Eastern Daylight Time)","426319","1","3","","null","","","","observe","","img/3to2/1.png","null","150","229","0.5","0.5","3","2","",""
"animation","155","171489","0.0-5.0-2.75","63d42387aba51e699ab9ce5c","bdp_cybrbll","Fri Mar 24 2023 21:16:32 GMT-0400 (Eastern Daylight Time)","426319","1","3","","","","","","","","","","150","","","","3","2","[{""stimulus"":""img/3to2/1.png"",""time"":100},{""stimulus"":""img/3to2/2.png"",""time"":199},{""stimulus"":""img/3to2/3.png"",""time"":309},{""stimulus"":""img/3to2/4.png"",""time"":396},{""stimulus"":""img/3to2/5.png"",""time"":496},{""stimulus"":""img/3to2/6.png"",""time"":594},{""stimulus"":""img/3to2/7.png"",""time"":693},{""stimulus"":""img/3to2/8.png"",""time"":793},{""stimulus"":""img/3to2/9.png"",""time"":891},{""stimulus"":""img/3to2/10.png"",""time"":990},{""stimulus"":""img/3to2/11.png"",""time"":1090},{""stimulus"":""img/3to2/12.png"",""time"":1189}]","[]"
"image-keyboard-response","156","171696","0.0-5.0-1.76","63d42387aba51e699ab9ce5c","bdp_cybrbll","Fri Mar 24 2023 21:16:32 GMT-0400 (Eastern Daylight Time)","426319","1","3","","207","","","","choice","","img/2to1/1.png","1","149","499","0.5","0.1","2","1","",""
"animation","157","172984","0.0-5.0-2.76","63d42387aba51e699ab9ce5c","bdp_cybrbll","Fri Mar 24 2023 21:16:32 GMT-0400 (Eastern Daylight Time)","426319","1","3","","","","","","","","","","149","","","","2","1","[{""stimulus"":""img/2to1/1.png"",""time"":101},{""stimulus"":""img/2to1/2.png"",""time"":199},{""stimulus"":""img/2to1/3.png"",""time"":297},{""stimulus"":""img/2to1/4.png"",""time"":397},{""stimulus"":""img/2to1/5.png"",""time"":497},{""stimulus"":""img/2to1/6.png"",""time"":596},{""stimulus"":""img/2to1/7.png"",""time"":694},{""stimulus"":""img/2to1/8.png"",""time"":794},{""stimulus"":""img/2to1/9.png"",""time"":892},{""stimulus"":""img/2to1/10.png"",""time"":991},{""stimulus"":""img/2to1/11.png"",""time"":1089},{""stimulus"":""img/2to1/12.png"",""time"":1189}]","[]"
"image-keyboard-response","158","173353","0.0-5.0-1.77","63d42387aba51e699ab9ce5c","bdp_cybrbll","Fri Mar 24 2023 21:16:32 GMT-0400 (Eastern Daylight Time)","426319","1","3","","null","","","","observe","","img/1to3/1.png","null","148","368","0.5","0.1","1","3","",""
"animation","159","174642","0.0-5.0-2.77","63d42387aba51e699ab9ce5c","bdp_cybrbll","Fri Mar 24 2023 21:16:32 GMT-0400 (Eastern Daylight Time)","426319","1","3","","","","","","","","","","148","","","","1","3","[{""stimulus"":""img/1to3/1.png"",""time"":101},{""stimulus"":""img/1to3/2.png"",""time"":199},{""stimulus"":""img/1to3/3.png"",""time"":298},{""stimulus"":""img/1to3/4.png"",""time"":398},{""stimulus"":""img/1to3/5.png"",""time"":496},{""stimulus"":""img/1to3/6.png"",""time"":594},{""stimulus"":""img/1to3/7.png"",""time"":693},{""stimulus"":""img/1to3/8.png"",""time"":792},{""stimulus"":""img/1to3/9.png"",""time"":892},{""stimulus"":""img/1to3/10.png"",""time"":992},{""stimulus"":""img/1to3/11.png"",""time"":1091},{""stimulus"":""img/1to3/12.png"",""time"":1188}]","[]"
"image-keyboard-response","160","175211","0.0-5.0-1.78","63d42387aba51e699ab9ce5c","bdp_cybrbll","Fri Mar 24 2023 21:16:32 GMT-0400 (Eastern Daylight Time)","426319","1","3","","null","","","","observe","","img/3to2/1.png","null","147","568","0.5","0.1","3","1","",""
"animation","161","176499","0.0-5.0-2.78","63d42387aba51e699ab9ce5c","bdp_cybrbll","Fri Mar 24 2023 21:16:32 GMT-0400 (Eastern Daylight Time)","426319","1","3","","","","","","","","","","147","","","","3","1","[{""stimulus"":""img/3to1/1.png"",""time"":100},{""stimulus"":""img/3to1/2.png"",""time"":199},{""stimulus"":""img/3to1/3.png"",""time"":347},{""stimulus"":""img/3to1/4.png"",""time"":398},{""stimulus"":""img/3to1/5.png"",""time"":515},{""stimulus"":""img/3to1/6.png"",""time"":595},{""stimulus"":""img/3to1/7.png"",""time"":694},{""stimulus"":""img/3to1/8.png"",""time"":794},{""stimulus"":""img/3to1/9.png"",""time"":905},{""stimulus"":""img/3to1/10.png"",""time"":992},{""stimulus"":""img/3to1/11.png"",""time"":1109},{""stimulus"":""img/3to1/12.png"",""time"":1203}]","[]"
"image-keyboard-response","162","176925","0.0-5.0-1.79","63d42387aba51e699ab9ce5c","bdp_cybrbll","Fri Mar 24 2023 21:16:32 GMT-0400 (Eastern Daylight Time)","426319","1","3","","null","","","","observe","","img/1to3/1.png","null","146","425","0.5","0.1","1","3","",""
"animation","163","178213","0.0-5.0-2.79","63d42387aba51e699ab9ce5c","bdp_cybrbll","Fri Mar 24 2023 21:16:32 GMT-0400 (Eastern Daylight Time)","426319","1","3","","","","","","","","","","146","","","","1","3","[{""stimulus"":""img/1to3/1.png"",""time"":100},{""stimulus"":""img/1to3/2.png"",""time"":200},{""stimulus"":""img/1to3/3.png"",""time"":298},{""stimulus"":""img/1to3/4.png"",""time"":398},{""stimulus"":""img/1to3/5.png"",""time"":496},{""stimulus"":""img/1to3/6.png"",""time"":595},{""stimulus"":""img/1to3/7.png"",""time"":695},{""stimulus"":""img/1to3/8.png"",""time"":793},{""stimulus"":""img/1to3/9.png"",""time"":892},{""stimulus"":""img/1to3/10.png"",""time"":991},{""stimulus"":""img/1to3/11.png"",""time"":1090},{""stimulus"":""img/1to3/12.png"",""time"":1189}]","[]"
"image-keyboard-response","164","178442","0.0-5.0-1.80","63d42387aba51e699ab9ce5c","bdp_cybrbll","Fri Mar 24 2023 21:16:32 GMT-0400 (Eastern Daylight Time)","426319","1","3","","null","","","","observe","","img/3to2/1.png","null","145","229","0.5","0.1","3","1","",""
"animation","165","179730","0.0-5.0-2.80","63d42387aba51e699ab9ce5c","bdp_cybrbll","Fri Mar 24 2023 21:16:32 GMT-0400 (Eastern Daylight Time)","426319","1","3","","","","","","","","","","145","","","","3","1","[{""stimulus"":""img/3to1/1.png"",""time"":100},{""stimulus"":""img/3to1/2.png"",""time"":199},{""stimulus"":""img/3to1/3.png"",""time"":297},{""stimulus"":""img/3to1/4.png"",""time"":397},{""stimulus"":""img/3to1/5.png"",""time"":496},{""stimulus"":""img/3to1/6.png"",""time"":594},{""stimulus"":""img/3to1/7.png"",""time"":693},{""stimulus"":""img/3to1/8.png"",""time"":792},{""stimulus"":""img/3to1/9.png"",""time"":892},{""stimulus"":""img/3to1/10.png"",""time"":990},{""stimulus"":""img/3to1/11.png"",""time"":1089},{""stimulus"":""img/3to1/12.png"",""time"":1188}]","[]"
"image-keyboard-response","166","180238","0.0-5.0-1.81","63d42387aba51e699ab9ce5c","bdp_cybrbll","Fri Mar 24 2023 21:16:32 GMT-0400 (Eastern Daylight Time)","426319","1","3","","null","","","","observe","","img/1to3/1.png","null","144","506","0.5","0.1","1","3","",""
"animation","167","181525","0.0-5.0-2.81","63d42387aba51e699ab9ce5c","bdp_cybrbll","Fri Mar 24 2023 21:16:32 GMT-0400 (Eastern Daylight Time)","426319","1","3","","","","","","","","","","144","","","","1","3","[{""stimulus"":""img/1to3/1.png"",""time"":100},{""stimulus"":""img/1to3/2.png"",""time"":199},{""stimulus"":""img/1to3/3.png"",""time"":298},{""stimulus"":""img/1to3/4.png"",""time"":396},{""stimulus"":""img/1to3/5.png"",""time"":496},{""stimulus"":""img/1to3/6.png"",""time"":595},{""stimulus"":""img/1to3/7.png"",""time"":693},{""stimulus"":""img/1to3/8.png"",""time"":792},{""stimulus"":""img/1to3/9.png"",""time"":893},{""stimulus"":""img/1to3/10.png"",""time"":991},{""stimulus"":""img/1to3/11.png"",""time"":1089},{""stimulus"":""img/1to3/12.png"",""time"":1188}]","[]"
"image-keyboard-response","168","181922","0.0-5.0-1.82","63d42387aba51e699ab9ce5c","bdp_cybrbll","Fri Mar 24 2023 21:16:32 GMT-0400 (Eastern Daylight Time)","426319","1","3","","null","","","","observe","","img/3to2/1.png","null","143","395","0.5","0.1","3","1","",""
"animation","169","183210","0.0-5.0-2.82","63d42387aba51e699ab9ce5c","bdp_cybrbll","Fri Mar 24 2023 21:16:32 GMT-0400 (Eastern Daylight Time)","426319","1","3","","","","","","","","","","143","","","","3","1","[{""stimulus"":""img/3to1/1.png"",""time"":99},{""stimulus"":""img/3to1/2.png"",""time"":198},{""stimulus"":""img/3to1/3.png"",""time"":298},{""stimulus"":""img/3to1/4.png"",""time"":396},{""stimulus"":""img/3to1/5.png"",""time"":495},{""stimulus"":""img/3to1/6.png"",""time"":595},{""stimulus"":""img/3to1/7.png"",""time"":693},{""stimulus"":""img/3to1/8.png"",""time"":792},{""stimulus"":""img/3to1/9.png"",""time"":891},{""stimulus"":""img/3to1/10.png"",""time"":991},{""stimulus"":""img/3to1/11.png"",""time"":1089},{""stimulus"":""img/3to1/12.png"",""time"":1189}]","[]"
"image-keyboard-response","170","184054","0.0-5.0-1.83","63d42387aba51e699ab9ce5c","bdp_cybrbll","Fri Mar 24 2023 21:16:32 GMT-0400 (Eastern Daylight Time)","426319","1","3","","null","","","","observe","","img/1to3/1.png","null","142","841","0.5","0.1","1","2","",""
"animation","171","185342","0.0-5.0-2.83","63d42387aba51e699ab9ce5c","bdp_cybrbll","Fri Mar 24 2023 21:16:32 GMT-0400 (Eastern Daylight Time)","426319","1","3","","","","","","","","","","142","","","","1","2","[{""stimulus"":""img/1to2/1.png"",""time"":101},{""stimulus"":""img/1to2/2.png"",""time"":199},{""stimulus"":""img/1to2/3.png"",""time"":297},{""stimulus"":""img/1to2/4.png"",""time"":396},{""stimulus"":""img/1to2/5.png"",""time"":496},{""stimulus"":""img/1to2/6.png"",""time"":594},{""stimulus"":""img/1to2/7.png"",""time"":694},{""stimulus"":""img/1to2/8.png"",""time"":793},{""stimulus"":""img/1to2/9.png"",""time"":892},{""stimulus"":""img/1to2/10.png"",""time"":990},{""stimulus"":""img/1to2/11.png"",""time"":1090},{""stimulus"":""img/1to2/12.png"",""time"":1189}]","[]"
"image-keyboard-response","172","187907","0.0-5.0-1.84","63d42387aba51e699ab9ce5c","bdp_cybrbll","Fri Mar 24 2023 21:16:32 GMT-0400 (Eastern Daylight Time)","426319","1","3","","2565","","","","choice","","img/2to1/1.png","2","141","743","0.5","0.1","2","3","",""
"animation","173","189196","0.0-5.0-2.84","63d42387aba51e699ab9ce5c","bdp_cybrbll","Fri Mar 24 2023 21:16:32 GMT-0400 (Eastern Daylight Time)","426319","1","3","","","","","","","","","","141","","","","2","3","[{""stimulus"":""img/2to3/1.png"",""time"":101},{""stimulus"":""img/2to3/2.png"",""time"":199},{""stimulus"":""img/2to3/3.png"",""time"":299},{""stimulus"":""img/2to3/4.png"",""time"":398},{""stimulus"":""img/2to3/5.png"",""time"":507},{""stimulus"":""img/2to3/6.png"",""time"":596},{""stimulus"":""img/2to3/7.png"",""time"":694},{""stimulus"":""img/2to3/8.png"",""time"":793},{""stimulus"":""img/2to3/9.png"",""time"":892},{""stimulus"":""img/2to3/10.png"",""time"":992},{""stimulus"":""img/2to3/11.png"",""time"":1091},{""stimulus"":""img/2to3/12.png"",""time"":1190}]","[]"
"image-keyboard-response","174","190122","0.0-5.0-1.85","63d42387aba51e699ab9ce5c","bdp_cybrbll","Fri Mar 24 2023 21:16:32 GMT-0400 (Eastern Daylight Time)","426319","1","3","","null","","","","observe","","img/3to2/1.png","null","140","925","0.5","0.1","3","1","",""
"animation","175","191410","0.0-5.0-2.85","63d42387aba51e699ab9ce5c","bdp_cybrbll","Fri Mar 24 2023 21:16:32 GMT-0400 (Eastern Daylight Time)","426319","1","3","","","","","","","","","","140","","","","3","1","[{""stimulus"":""img/3to1/1.png"",""time"":106},{""stimulus"":""img/3to1/2.png"",""time"":199},{""stimulus"":""img/3to1/3.png"",""time"":335},{""stimulus"":""img/3to1/4.png"",""time"":397},{""stimulus"":""img/3to1/5.png"",""time"":509},{""stimulus"":""img/3to1/6.png"",""time"":595},{""stimulus"":""img/3to1/7.png"",""time"":695},{""stimulus"":""img/3to1/8.png"",""time"":793},{""stimulus"":""img/3to1/9.png"",""time"":893},{""stimulus"":""img/3to1/10.png"",""time"":993},{""stimulus"":""img/3to1/11.png"",""time"":1092},{""stimulus"":""img/3to1/12.png"",""time"":1247}]","[]"
"image-keyboard-response","176","192126","0.0-5.0-1.86","63d42387aba51e699ab9ce5c","bdp_cybrbll","Fri Mar 24 2023 21:16:32 GMT-0400 (Eastern Daylight Time)","426319","1","3","","null","","","","observe","","img/1to3/1.png","null","139","714","0.5","0.1","1","3","",""
"animation","177","193414","0.0-5.0-2.86","63d42387aba51e699ab9ce5c","bdp_cybrbll","Fri Mar 24 2023 21:16:32 GMT-0400 (Eastern Daylight Time)","426319","1","3","","","","","","","","","","139","","","","1","3","[{""stimulus"":""img/1to3/1.png"",""time"":100},{""stimulus"":""img/1to3/2.png"",""time"":199},{""stimulus"":""img/1to3/3.png"",""time"":298},{""stimulus"":""img/1to3/4.png"",""time"":397},{""stimulus"":""img/1to3/5.png"",""time"":495},{""stimulus"":""img/1to3/6.png"",""time"":596},{""stimulus"":""img/1to3/7.png"",""time"":694},{""stimulus"":""img/1to3/8.png"",""time"":793},{""stimulus"":""img/1to3/9.png"",""time"":891},{""stimulus"":""img/1to3/10.png"",""time"":991},{""stimulus"":""img/1to3/11.png"",""time"":1091},{""stimulus"":""img/1to3/12.png"",""time"":1188}]","[]"
"image-keyboard-response","178","193782","0.0-5.0-1.87","63d42387aba51e699ab9ce5c","bdp_cybrbll","Fri Mar 24 2023 21:16:32 GMT-0400 (Eastern Daylight Time)","426319","1","3","","null","","","","observe","","img/3to2/1.png","null","138","367","0.5","0.1","3","1","",""
"animation","179","195070","0.0-5.0-2.87","63d42387aba51e699ab9ce5c","bdp_cybrbll","Fri Mar 24 2023 21:16:32 GMT-0400 (Eastern Daylight Time)","426319","1","3","","","","","","","","","","138","","","","3","1","[{""stimulus"":""img/3to1/1.png"",""time"":99},{""stimulus"":""img/3to1/2.png"",""time"":198},{""stimulus"":""img/3to1/3.png"",""time"":298},{""stimulus"":""img/3to1/4.png"",""time"":396},{""stimulus"":""img/3to1/5.png"",""time"":495},{""stimulus"":""img/3to1/6.png"",""time"":594},{""stimulus"":""img/3to1/7.png"",""time"":694},{""stimulus"":""img/3to1/8.png"",""time"":792},{""stimulus"":""img/3to1/9.png"",""time"":892},{""stimulus"":""img/3to1/10.png"",""time"":991},{""stimulus"":""img/3to1/11.png"",""time"":1090},{""stimulus"":""img/3to1/12.png"",""time"":1189}]","[]"
"image-keyboard-response","180","195390","0.0-5.0-1.88","63d42387aba51e699ab9ce5c","bdp_cybrbll","Fri Mar 24 2023 21:16:32 GMT-0400 (Eastern Daylight Time)","426319","1","3","","null","","","","observe","","img/1to3/1.png","null","137","318","0.5","0.1","1","3","",""
"animation","181","196678","0.0-5.0-2.88","63d42387aba51e699ab9ce5c","bdp_cybrbll","Fri Mar 24 2023 21:16:32 GMT-0400 (Eastern Daylight Time)","426319","1","3","","","","","","","","","","137","","","","1","3","[{""stimulus"":""img/1to3/1.png"",""time"":100},{""stimulus"":""img/1to3/2.png"",""time"":200},{""stimulus"":""img/1to3/3.png"",""time"":298},{""stimulus"":""img/1to3/4.png"",""time"":397},{""stimulus"":""img/1to3/5.png"",""time"":496},{""stimulus"":""img/1to3/6.png"",""time"":595},{""stimulus"":""img/1to3/7.png"",""time"":694},{""stimulus"":""img/1to3/8.png"",""time"":793},{""stimulus"":""img/1to3/9.png"",""time"":892},{""stimulus"":""img/1to3/10.png"",""time"":991},{""stimulus"":""img/1to3/11.png"",""time"":1090},{""stimulus"":""img/1to3/12.png"",""time"":1189}]","[]"
"image-keyboard-response","182","196856","0.0-5.0-1.89","63d42387aba51e699ab9ce5c","bdp_cybrbll","Fri Mar 24 2023 21:16:32 GMT-0400 (Eastern Daylight Time)","426319","1","3","","null","","","","observe","","img/3to2/1.png","null","136","177","0.5","0.1","3","1","",""
"animation","183","198144","0.0-5.0-2.89","63d42387aba51e699ab9ce5c","bdp_cybrbll","Fri Mar 24 2023 21:16:32 GMT-0400 (Eastern Daylight Time)","426319","1","3","","","","","","","","","","136","","","","3","1","[{""stimulus"":""img/3to1/1.png"",""time"":100},{""stimulus"":""img/3to1/2.png"",""time"":199},{""stimulus"":""img/3to1/3.png"",""time"":298},{""stimulus"":""img/3to1/4.png"",""time"":397},{""stimulus"":""img/3to1/5.png"",""time"":496},{""stimulus"":""img/3to1/6.png"",""time"":596},{""stimulus"":""img/3to1/7.png"",""time"":695},{""stimulus"":""img/3to1/8.png"",""time"":793},{""stimulus"":""img/3to1/9.png"",""time"":893},{""stimulus"":""img/3to1/10.png"",""time"":992},{""stimulus"":""img/3to1/11.png"",""time"":1090},{""stimulus"":""img/3to1/12.png"",""time"":1189}]","[]"
"image-keyboard-response","184","198322","0.0-5.0-1.90","63d42387aba51e699ab9ce5c","bdp_cybrbll","Fri Mar 24 2023 21:16:32 GMT-0400 (Eastern Daylight Time)","426319","1","3","","null","","","","observe","","img/1to3/1.png","null","135","177","0.5","0.1","1","2","",""
"animation","185","199610","0.0-5.0-2.90","63d42387aba51e699ab9ce5c","bdp_cybrbll","Fri Mar 24 2023 21:16:32 GMT-0400 (Eastern Daylight Time)","426319","1","3","","","","","","","","","","135","","","","1","2","[{""stimulus"":""img/1to2/1.png"",""time"":101},{""stimulus"":""img/1to2/2.png"",""time"":199},{""stimulus"":""img/1to2/3.png"",""time"":298},{""stimulus"":""img/1to2/4.png"",""time"":398},{""stimulus"":""img/1to2/5.png"",""time"":495},{""stimulus"":""img/1to2/6.png"",""time"":655},{""stimulus"":""img/1to2/7.png"",""time"":694},{""stimulus"":""img/1to2/8.png"",""time"":792},{""stimulus"":""img/1to2/9.png"",""time"":891},{""stimulus"":""img/1to2/10.png"",""time"":992},{""stimulus"":""img/1to2/11.png"",""time"":1090},{""stimulus"":""img/1to2/12.png"",""time"":1188}]","[]"
"image-keyboard-response","186","199682","0.0-5.0-1.91","63d42387aba51e699ab9ce5c","bdp_cybrbll","Fri Mar 24 2023 21:16:32 GMT-0400 (Eastern Daylight Time)","426319","1","3","","72","","","","choice","","img/2to1/1.png","2","134","453","0.5","0.1","2","3","",""
"animation","187","200970","0.0-5.0-2.91","63d42387aba51e699ab9ce5c","bdp_cybrbll","Fri Mar 24 2023 21:16:32 GMT-0400 (Eastern Daylight Time)","426319","1","3","","","","","","","","","","134","","","","2","3","[{""stimulus"":""img/2to3/1.png"",""time"":101},{""stimulus"":""img/2to3/2.png"",""time"":200},{""stimulus"":""img/2to3/3.png"",""time"":298},{""stimulus"":""img/2to3/4.png"",""time"":397},{""stimulus"":""img/2to3/5.png"",""time"":497},{""stimulus"":""img/2to3/6.png"",""time"":596},{""stimulus"":""img/2to3/7.png"",""time"":695},{""stimulus"":""img/2to3/8.png"",""time"":794},{""stimulus"":""img/2to3/9.png"",""time"":892},{""stimulus"":""img/2to3/10.png"",""time"":991},{""stimulus"":""img/2to3/11.png"",""time"":1091},{""stimulus"":""img/2to3/12.png"",""time"":1194}]","[]"
"image-keyboard-response","188","201747","0.0-5.0-1.92","63d42387aba51e699ab9ce5c","bdp_cybrbll","Fri Mar 24 2023 21:16:32 GMT-0400 (Eastern Daylight Time)","426319","1","3","","null","","","","observe","","img/3to2/1.png","null","133","776","0.5","0.1","3","2","",""
"animation","189","203035","0.0-5.0-2.92","63d42387aba51e699ab9ce5c","bdp_cybrbll","Fri Mar 24 2023 21:16:32 GMT-0400 (Eastern Daylight Time)","426319","1","3","","","","","","","","","","133","","","","3","2","[{""stimulus"":""img/3to2/1.png"",""time"":100},{""stimulus"":""img/3to2/2.png"",""time"":200},{""stimulus"":""img/3to2/3.png"",""time"":298},{""stimulus"":""img/3to2/4.png"",""time"":398},{""stimulus"":""img/3to2/5.png"",""time"":496},{""stimulus"":""img/3to2/6.png"",""time"":595},{""stimulus"":""img/3to2/7.png"",""time"":695},{""stimulus"":""img/3to2/8.png"",""time"":793},{""stimulus"":""img/3to2/9.png"",""time"":893},{""stimulus"":""img/3to2/10.png"",""time"":991},{""stimulus"":""img/3to2/11.png"",""time"":1090},{""stimulus"":""img/3to2/12.png"",""time"":1189}]","[]"
"image-keyboard-response","190","203551","0.0-5.0-1.93","63d42387aba51e699ab9ce5c","bdp_cybrbll","Fri Mar 24 2023 21:16:32 GMT-0400 (Eastern Daylight Time)","426319","1","3","","514","","","","choice","","img/2to1/1.png","1","132","693","0.5","0.1","2","1","",""
