"trial_type","trial_index","time_elapsed","internal_node_id","subject_id","task","startTime","totalTime","fairPartner","unfairPartner","view_history","rt","event","trial","time","trialtype","success","stimulus","key_press","throwsLeft","rtDur","pFair","pUnfair","holder","receiver","animation_sequence","responses"
"pavlovia","0","6","0.0-0.0","611343092396f1d9ed7018ad","bdp_cybrbll","Sun Apr 16 2023 19:32:24 GMT-0600 (Mountain Daylight Time)","452613","1","3","","","","","","","","","","","","","","","","",""
"instructions","1","3114","0.0-1.0","611343092396f1d9ed7018ad","bdp_cybrbll","Sun Apr 16 2023 19:32:24 GMT-0600 (Mountain Daylight Time)","452613","1","3","[{""page_index"":0,""viewing_time"":3106}]","3107","","","","","","","","","","","","","","",""
"","","","","611343092396f1d9ed7018ad","bdp_cybrbll","Sun Apr 16 2023 19:32:24 GMT-0600 (Mountain Daylight Time)","452613","1","3","","","fullscreenenter","2","5240","fullscreenenter","","","","","","","","","","",""
"fullscreen","2","6205","0.0-2.0","611343092396f1d9ed7018ad","bdp_cybrbll","Sun Apr 16 2023 19:32:24 GMT-0600 (Mountain Daylight Time)","452613","1","3","","","","","","","true","","","","","","","","","",""
"instructions","3","44293","0.0-4.0","611343092396f1d9ed7018ad","bdp_cybrbll","Sun Apr 16 2023 19:32:24 GMT-0600 (Mountain Daylight Time)","452613","1","3","[{""page_index"":0,""viewing_time"":38087}]","38087","","","","","","","","","","","","","","",""
"image-keyboard-response","4","51553","0.0-5.0-1.0","611343092396f1d9ed7018ad","bdp_cybrbll","Sun Apr 16 2023 19:32:24 GMT-0600 (Mountain Daylight Time)","452613","1","3","","7256","","","","choice","","img/2to1/1.png","2","225","359","0.5","0.5","2","3","",""
"animation","5","52843","0.0-5.0-2.0","611343092396f1d9ed7018ad","bdp_cybrbll","Sun Apr 16 2023 19:32:24 GMT-0600 (Mountain Daylight Time)","452613","1","3","","","","","","","","","","225","","","","2","3","[{""stimulus"":""img/2to3/1.png"",""time"":109},{""stimulus"":""img/2to3/2.png"",""time"":203},{""stimulus"":""img/2to3/3.png"",""time"":313},{""stimulus"":""img/2to3/4.png"",""time"":407},{""stimulus"":""img/2to3/5.png"",""time"":497},{""stimulus"":""img/2to3/6.png"",""time"":606},{""stimulus"":""img/2to3/7.png"",""time"":698},{""stimulus"":""img/2to3/8.png"",""time"":806},{""stimulus"":""img/2to3/9.png"",""time"":893},{""stimulus"":""img/2to3/10.png"",""time"":991},{""stimulus"":""img/2to3/11.png"",""time"":1091},{""stimulus"":""img/2to3/12.png"",""time"":1189}]","[]"
"image-keyboard-response","6","53753","0.0-5.0-1.1","611343092396f1d9ed7018ad","bdp_cybrbll","Sun Apr 16 2023 19:32:24 GMT-0600 (Mountain Daylight Time)","452613","1","3","","null","","","","observe","","img/3to2/1.png","null","224","896","0.5","0.5","3","2","",""
"animation","7","55044","0.0-5.0-2.1","611343092396f1d9ed7018ad","bdp_cybrbll","Sun Apr 16 2023 19:32:24 GMT-0600 (Mountain Daylight Time)","452613","1","3","","","","","","","","","","224","","","","3","2","[{""stimulus"":""img/3to2/1.png"",""time"":109},{""stimulus"":""img/3to2/2.png"",""time"":200},{""stimulus"":""img/3to2/3.png"",""time"":307},{""stimulus"":""img/3to2/4.png"",""time"":398},{""stimulus"":""img/3to2/5.png"",""time"":510},{""stimulus"":""img/3to2/6.png"",""time"":603},{""stimulus"":""img/3to2/7.png"",""time"":694},{""stimulus"":""img/3to2/8.png"",""time"":794},{""stimulus"":""img/3to2/9.png"",""time"":892},{""stimulus"":""img/3to2/10.png"",""time"":995},{""stimulus"":""img/3to2/11.png"",""time"":1091},{""stimulus"":""img/3to2/12.png"",""time"":1198}]","[]"
"image-keyboard-response","8","55783","0.0-5.0-1.2","611343092396f1d9ed7018ad","bdp_cybrbll","Sun Apr 16 2023 19:32:24 GMT-0600 (Mountain Daylight Time)","452613","1","3","","737","","","","choice","","img/2to1/1.png","1","223","191","0.5","0.5","2","1","",""
"animation","9","57071","0.0-5.0-2.2","611343092396f1d9ed7018ad","bdp_cybrbll","Sun Apr 16 2023 19:32:24 GMT-0600 (Mountain Daylight Time)","452613","1","3","","","","","","","","","","223","","","","2","1","[{""stimulus"":""img/2to1/1.png"",""time"":106},{""stimulus"":""img/2to1/2.png"",""time"":199},{""stimulus"":""img/2to1/3.png"",""time"":309},{""stimulus"":""img/2to1/4.png"",""time"":397},{""stimulus"":""img/2to1/5.png"",""time"":496},{""stimulus"":""img/2to1/6.png"",""time"":608},{""stimulus"":""img/2to1/7.png"",""time"":694},{""stimulus"":""img/2to1/8.png"",""time"":795},{""stimulus"":""img/2to1/9.png"",""time"":892},{""stimulus"":""img/2to1/10.png"",""time"":991},{""stimulus"":""img/2to1/11.png"",""time"":1090},{""stimulus"":""img/2to1/12.png"",""time"":1189}]","[]"
"image-keyboard-response","10","57315","0.0-5.0-1.3","611343092396f1d9ed7018ad","bdp_cybrbll","Sun Apr 16 2023 19:32:24 GMT-0600 (Mountain Daylight Time)","452613","1","3","","null","","","","observe","","img/1to3/1.png","null","222","243","0.5","0.5","1","2","",""
"animation","11","58605","0.0-5.0-2.3","611343092396f1d9ed7018ad","bdp_cybrbll","Sun Apr 16 2023 19:32:24 GMT-0600 (Mountain Daylight Time)","452613","1","3","","","","","","","","","","222","","","","1","2","[{""stimulus"":""img/1to2/1.png"",""time"":104},{""stimulus"":""img/1to2/2.png"",""time"":199},{""stimulus"":""img/1to2/3.png"",""time"":298},{""stimulus"":""img/1to2/4.png"",""time"":399},{""stimulus"":""img/1to2/5.png"",""time"":496},{""stimulus"":""img/1to2/6.png"",""time"":602},{""stimulus"":""img/1to2/7.png"",""time"":694},{""stimulus"":""img/1to2/8.png"",""time"":805},{""stimulus"":""img/1to2/9.png"",""time"":891},{""stimulus"":""img/1to2/10.png"",""time"":1004},{""stimulus"":""img/1to2/11.png"",""time"":1090},{""stimulus"":""img/1to2/12.png"",""time"":1189}]","[]"
"image-keyboard-response","12","60042","0.0-5.0-1.4","611343092396f1d9ed7018ad","bdp_cybrbll","Sun Apr 16 2023 19:32:24 GMT-0600 (Mountain Daylight Time)","452613","1","3","","1436","","","","choice","","img/2to1/1.png","2","221","552","0.5","0.5","2","3","",""
"animation","13","61331","0.0-5.0-2.4","611343092396f1d9ed7018ad","bdp_cybrbll","Sun Apr 16 2023 19:32:24 GMT-0600 (Mountain Daylight Time)","452613","1","3","","","","","","","","","","221","","","","2","3","[{""stimulus"":""img/2to3/1.png"",""time"":109},{""stimulus"":""img/2to3/2.png"",""time"":200},{""stimulus"":""img/2to3/3.png"",""time"":313},{""stimulus"":""img/2to3/4.png"",""time"":405},{""stimulus"":""img/2to3/5.png"",""time"":497},{""stimulus"":""img/2to3/6.png"",""time"":609},{""stimulus"":""img/2to3/7.png"",""time"":695},{""stimulus"":""img/2to3/8.png"",""time"":796},{""stimulus"":""img/2to3/9.png"",""time"":904},{""stimulus"":""img/2to3/10.png"",""time"":991},{""stimulus"":""img/2to3/11.png"",""time"":1091},{""stimulus"":""img/2to3/12.png"",""time"":1190}]","[]"
"image-keyboard-response","14","61962","0.0-5.0-1.5","611343092396f1d9ed7018ad","bdp_cybrbll","Sun Apr 16 2023 19:32:24 GMT-0600 (Mountain Daylight Time)","452613","1","3","","null","","","","observe","","img/3to2/1.png","null","220","621","0.5","0.5","3","1","",""
"animation","15","63251","0.0-5.0-2.5","611343092396f1d9ed7018ad","bdp_cybrbll","Sun Apr 16 2023 19:32:24 GMT-0600 (Mountain Daylight Time)","452613","1","3","","","","","","","","","","220","","","","3","1","[{""stimulus"":""img/3to1/1.png"",""time"":112},{""stimulus"":""img/3to1/2.png"",""time"":206},{""stimulus"":""img/3to1/3.png"",""time"":299},{""stimulus"":""img/3to1/4.png"",""time"":407},{""stimulus"":""img/3to1/5.png"",""time"":497},{""stimulus"":""img/3to1/6.png"",""time"":597},{""stimulus"":""img/3to1/7.png"",""time"":695},{""stimulus"":""img/3to1/8.png"",""time"":793},{""stimulus"":""img/3to1/9.png"",""time"":892},{""stimulus"":""img/3to1/10.png"",""time"":998},{""stimulus"":""img/3to1/11.png"",""time"":1090},{""stimulus"":""img/3to1/12.png"",""time"":1189}]","[]"
"image-keyboard-response","16","63645","0.0-5.0-1.6","611343092396f1d9ed7018ad","bdp_cybrbll","Sun Apr 16 2023 19:32:24 GMT-0600 (Mountain Daylight Time)","452613","1","3","","null","","","","observe","","img/1to3/1.png","null","219","392","0.5","0.5","1","2","",""
"animation","17","64943","0.0-5.0-2.6","611343092396f1d9ed7018ad","bdp_cybrbll","Sun Apr 16 2023 19:32:24 GMT-0600 (Mountain Daylight Time)","452613","1","3","","","","","","","","","","219","","","","1","2","[{""stimulus"":""img/1to2/1.png"",""time"":114},{""stimulus"":""img/1to2/2.png"",""time"":207},{""stimulus"":""img/1to2/3.png"",""time"":301},{""stimulus"":""img/1to2/4.png"",""time"":411},{""stimulus"":""img/1to2/5.png"",""time"":506},{""stimulus"":""img/1to2/6.png"",""time"":594},{""stimulus"":""img/1to2/7.png"",""time"":707},{""stimulus"":""img/1to2/8.png"",""time"":803},{""stimulus"":""img/1to2/9.png"",""time"":893},{""stimulus"":""img/1to2/10.png"",""time"":991},{""stimulus"":""img/1to2/11.png"",""time"":1090},{""stimulus"":""img/1to2/12.png"",""time"":1189}]","[]"
"image-keyboard-response","18","65232","0.0-5.0-1.7","611343092396f1d9ed7018ad","bdp_cybrbll","Sun Apr 16 2023 19:32:24 GMT-0600 (Mountain Daylight Time)","452613","1","3","","288","","","","choice","","img/2to1/1.png","2","218","172","0.5","0.5","2","3","",""
"animation","19","66533","0.0-5.0-2.7","611343092396f1d9ed7018ad","bdp_cybrbll","Sun Apr 16 2023 19:32:24 GMT-0600 (Mountain Daylight Time)","452613","1","3","","","","","","","","","","218","","","","2","3","[{""stimulus"":""img/2to3/1.png"",""time"":103},{""stimulus"":""img/2to3/2.png"",""time"":198},{""stimulus"":""img/2to3/3.png"",""time"":297},{""stimulus"":""img/2to3/4.png"",""time"":396},{""stimulus"":""img/2to3/5.png"",""time"":496},{""stimulus"":""img/2to3/6.png"",""time"":595},{""stimulus"":""img/2to3/7.png"",""time"":694},{""stimulus"":""img/2to3/8.png"",""time"":793},{""stimulus"":""img/2to3/9.png"",""time"":892},{""stimulus"":""img/2to3/10.png"",""time"":991},{""stimulus"":""img/2to3/11.png"",""time"":1096},{""stimulus"":""img/2to3/12.png"",""time"":1189}]","[]"
"image-keyboard-response","20","67533","0.0-5.0-1.8","611343092396f1d9ed7018ad","bdp_cybrbll","Sun Apr 16 2023 19:32:24 GMT-0600 (Mountain Daylight Time)","452613","1","3","","null","","","","observe","","img/3to2/1.png","null","217","987","0.5","0.5","3","2","",""
"animation","21","68821","0.0-5.0-2.8","611343092396f1d9ed7018ad","bdp_cybrbll","Sun Apr 16 2023 19:32:24 GMT-0600 (Mountain Daylight Time)","452613","1","3","","","","","","","","","","217","","","","3","2","[{""stimulus"":""img/3to2/1.png"",""time"":108},{""stimulus"":""img/3to2/2.png"",""time"":199},{""stimulus"":""img/3to2/3.png"",""time"":298},{""stimulus"":""img/3to2/4.png"",""time"":404},{""stimulus"":""img/3to2/5.png"",""time"":497},{""stimulus"":""img/3to2/6.png"",""time"":605},{""stimulus"":""img/3to2/7.png"",""time"":700},{""stimulus"":""img/3to2/8.png"",""time"":794},{""stimulus"":""img/3to2/9.png"",""time"":902},{""stimulus"":""img/3to2/10.png"",""time"":991},{""stimulus"":""img/3to2/11.png"",""time"":1090},{""stimulus"":""img/3to2/12.png"",""time"":1189}]","[]"
"image-keyboard-response","22","69013","0.0-5.0-1.9","611343092396f1d9ed7018ad","bdp_cybrbll","Sun Apr 16 2023 19:32:24 GMT-0600 (Mountain Daylight Time)","452613","1","3","","190","","","","choice","","img/2to1/1.png","1","216","196","0.5","0.5","2","1","",""
"animation","23","70301","0.0-5.0-2.9","611343092396f1d9ed7018ad","bdp_cybrbll","Sun Apr 16 2023 19:32:24 GMT-0600 (Mountain Daylight Time)","452613","1","3","","","","","","","","","","216","","","","2","1","[{""stimulus"":""img/2to1/1.png"",""time"":107},{""stimulus"":""img/2to1/2.png"",""time"":200},{""stimulus"":""img/2to1/3.png"",""time"":309},{""stimulus"":""img/2to1/4.png"",""time"":397},{""stimulus"":""img/2to1/5.png"",""time"":496},{""stimulus"":""img/2to1/6.png"",""time"":596},{""stimulus"":""img/2to1/7.png"",""time"":694},{""stimulus"":""img/2to1/8.png"",""time"":793},{""stimulus"":""img/2to1/9.png"",""time"":904},{""stimulus"":""img/2to1/10.png"",""time"":991},{""stimulus"":""img/2to1/11.png"",""time"":1091},{""stimulus"":""img/2to1/12.png"",""time"":1200}]","[]"
"image-keyboard-response","24","70681","0.0-5.0-1.10","611343092396f1d9ed7018ad","bdp_cybrbll","Sun Apr 16 2023 19:32:24 GMT-0600 (Mountain Daylight Time)","452613","1","3","","null","","","","observe","","img/1to3/1.png","null","215","372","0.5","0.5","1","3","",""
"animation","25","71979","0.0-5.0-2.10","611343092396f1d9ed7018ad","bdp_cybrbll","Sun Apr 16 2023 19:32:24 GMT-0600 (Mountain Daylight Time)","452613","1","3","","","","","","","","","","215","","","","1","3","[{""stimulus"":""img/1to3/1.png"",""time"":110},{""stimulus"":""img/1to3/2.png"",""time"":199},{""stimulus"":""img/1to3/3.png"",""time"":298},{""stimulus"":""img/1to3/4.png"",""time"":408},{""stimulus"":""img/1to3/5.png"",""time"":502},{""stimulus"":""img/1to3/6.png"",""time"":596},{""stimulus"":""img/1to3/7.png"",""time"":694},{""stimulus"":""img/1to3/8.png"",""time"":793},{""stimulus"":""img/1to3/9.png"",""time"":893},{""stimulus"":""img/1to3/10.png"",""time"":991},{""stimulus"":""img/1to3/11.png"",""time"":1090},{""stimulus"":""img/1to3/12.png"",""time"":1189}]","[]"
"image-keyboard-response","26","73438","0.0-5.0-1.11","611343092396f1d9ed7018ad","bdp_cybrbll","Sun Apr 16 2023 19:32:24 GMT-0600 (Mountain Daylight Time)","452613","1","3","","null","","","","observe","","img/3to2/1.png","null","214","1444","0.5","0.5","3","2","",""
"animation","27","74726","0.0-5.0-2.11","611343092396f1d9ed7018ad","bdp_cybrbll","Sun Apr 16 2023 19:32:24 GMT-0600 (Mountain Daylight Time)","452613","1","3","","","","","","","","","","214","","","","3","2","[{""stimulus"":""img/3to2/1.png"",""time"":108},{""stimulus"":""img/3to2/2.png"",""time"":200},{""stimulus"":""img/3to2/3.png"",""time"":300},{""stimulus"":""img/3to2/4.png"",""time"":398},{""stimulus"":""img/3to2/5.png"",""time"":501},{""stimulus"":""img/3to2/6.png"",""time"":595},{""stimulus"":""img/3to2/7.png"",""time"":704},{""stimulus"":""img/3to2/8.png"",""time"":793},{""stimulus"":""img/3to2/9.png"",""time"":908},{""stimulus"":""img/3to2/10.png"",""time"":991},{""stimulus"":""img/3to2/11.png"",""time"":1091},{""stimulus"":""img/3to2/12.png"",""time"":1190}]","[]"
"image-keyboard-response","28","75334","0.0-5.0-1.12","611343092396f1d9ed7018ad","bdp_cybrbll","Sun Apr 16 2023 19:32:24 GMT-0600 (Mountain Daylight Time)","452613","1","3","","607","","","","choice","","img/2to1/1.png","2","213","282","0.5","0.5","2","3","",""
"animation","29","76623","0.0-5.0-2.12","611343092396f1d9ed7018ad","bdp_cybrbll","Sun Apr 16 2023 19:32:24 GMT-0600 (Mountain Daylight Time)","452613","1","3","","","","","","","","","","213","","","","2","3","[{""stimulus"":""img/2to3/1.png"",""time"":106},{""stimulus"":""img/2to3/2.png"",""time"":200},{""stimulus"":""img/2to3/3.png"",""time"":307},{""stimulus"":""img/2to3/4.png"",""time"":397},{""stimulus"":""img/2to3/5.png"",""time"":496},{""stimulus"":""img/2to3/6.png"",""time"":603},{""stimulus"":""img/2to3/7.png"",""time"":694},{""stimulus"":""img/2to3/8.png"",""time"":805},{""stimulus"":""img/2to3/9.png"",""time"":892},{""stimulus"":""img/2to3/10.png"",""time"":992},{""stimulus"":""img/2to3/11.png"",""time"":1100},{""stimulus"":""img/2to3/12.png"",""time"":1190}]","[]"
"image-keyboard-response","30","76893","0.0-5.0-1.13","611343092396f1d9ed7018ad","bdp_cybrbll","Sun Apr 16 2023 19:32:24 GMT-0600 (Mountain Daylight Time)","452613","1","3","","null","","","","observe","","img/3to2/1.png","null","212","268","0.5","0.5","3","1","",""
"animation","31","78181","0.0-5.0-2.13","611343092396f1d9ed7018ad","bdp_cybrbll","Sun Apr 16 2023 19:32:24 GMT-0600 (Mountain Daylight Time)","452613","1","3","","","","","","","","","","212","","","","3","1","[{""stimulus"":""img/3to1/1.png"",""time"":106},{""stimulus"":""img/3to1/2.png"",""time"":199},{""stimulus"":""img/3to1/3.png"",""time"":298},{""stimulus"":""img/3to1/4.png"",""time"":397},{""stimulus"":""img/3to1/5.png"",""time"":496},{""stimulus"":""img/3to1/6.png"",""time"":596},{""stimulus"":""img/3to1/7.png"",""time"":700},{""stimulus"":""img/3to1/8.png"",""time"":793},{""stimulus"":""img/3to1/9.png"",""time"":902},{""stimulus"":""img/3to1/10.png"",""time"":992},{""stimulus"":""img/3to1/11.png"",""time"":1091},{""stimulus"":""img/3to1/12.png"",""time"":1189}]","[]"
"image-keyboard-response","32","78421","0.0-5.0-1.14","611343092396f1d9ed7018ad","bdp_cybrbll","Sun Apr 16 2023 19:32:24 GMT-0600 (Mountain Daylight Time)","452613","1","3","","null","","","","observe","","img/1to3/1.png","null","211","238","0.5","0.5","1","3","",""
"animation","33","79709","0.0-5.0-2.14","611343092396f1d9ed7018ad","bdp_cybrbll","Sun Apr 16 2023 19:32:24 GMT-0600 (Mountain Daylight Time)","452613","1","3","","","","","","","","","","211","","","","1","3","[{""stimulus"":""img/1to3/1.png"",""time"":109},{""stimulus"":""img/1to3/2.png"",""time"":204},{""stimulus"":""img/1to3/3.png"",""time"":299},{""stimulus"":""img/1to3/4.png"",""time"":398},{""stimulus"":""img/1to3/5.png"",""time"":500},{""stimulus"":""img/1to3/6.png"",""time"":596},{""stimulus"":""img/1to3/7.png"",""time"":705},{""stimulus"":""img/1to3/8.png"",""time"":794},{""stimulus"":""img/1to3/9.png"",""time"":892},{""stimulus"":""img/1to3/10.png"",""time"":992},{""stimulus"":""img/1to3/11.png"",""time"":1091},{""stimulus"":""img/1to3/12.png"",""time"":1202}]","[]"
"image-keyboard-response","34","80811","0.0-5.0-1.15","611343092396f1d9ed7018ad","bdp_cybrbll","Sun Apr 16 2023 19:32:24 GMT-0600 (Mountain Daylight Time)","452613","1","3","","null","","","","observe","","img/3to2/1.png","null","210","1092","0.5","0.5","3","1","",""
"animation","35","82099","0.0-5.0-2.15","611343092396f1d9ed7018ad","bdp_cybrbll","Sun Apr 16 2023 19:32:24 GMT-0600 (Mountain Daylight Time)","452613","1","3","","","","","","","","","","210","","","","3","1","[{""stimulus"":""img/3to1/1.png"",""time"":112},{""stimulus"":""img/3to1/2.png"",""time"":199},{""stimulus"":""img/3to1/3.png"",""time"":300},{""stimulus"":""img/3to1/4.png"",""time"":398},{""stimulus"":""img/3to1/5.png"",""time"":502},{""stimulus"":""img/3to1/6.png"",""time"":609},{""stimulus"":""img/3to1/7.png"",""time"":701},{""stimulus"":""img/3to1/8.png"",""time"":795},{""stimulus"":""img/3to1/9.png"",""time"":892},{""stimulus"":""img/3to1/10.png"",""time"":991},{""stimulus"":""img/3to1/11.png"",""time"":1104},{""stimulus"":""img/3to1/12.png"",""time"":1189}]","[]"
"image-keyboard-response","36","83239","0.0-5.0-1.16","611343092396f1d9ed7018ad","bdp_cybrbll","Sun Apr 16 2023 19:32:24 GMT-0600 (Mountain Daylight Time)","452613","1","3","","null","","","","observe","","img/1to3/1.png","null","209","1131","0.5","0.5","1","2","",""
"animation","37","84528","0.0-5.0-2.16","611343092396f1d9ed7018ad","bdp_cybrbll","Sun Apr 16 2023 19:32:24 GMT-0600 (Mountain Daylight Time)","452613","1","3","","","","","","","","","","209","","","","1","2","[{""stimulus"":""img/1to2/1.png"",""time"":107},{""stimulus"":""img/1to2/2.png"",""time"":199},{""stimulus"":""img/1to2/3.png"",""time"":298},{""stimulus"":""img/1to2/4.png"",""time"":403},{""stimulus"":""img/1to2/5.png"",""time"":497},{""stimulus"":""img/1to2/6.png"",""time"":596},{""stimulus"":""img/1to2/7.png"",""time"":698},{""stimulus"":""img/1to2/8.png"",""time"":793},{""stimulus"":""img/1to2/9.png"",""time"":902},{""stimulus"":""img/1to2/10.png"",""time"":990},{""stimulus"":""img/1to2/11.png"",""time"":1091},{""stimulus"":""img/1to2/12.png"",""time"":1198}]","[]"
"image-keyboard-response","38","84644","0.0-5.0-1.17","611343092396f1d9ed7018ad","bdp_cybrbll","Sun Apr 16 2023 19:32:24 GMT-0600 (Mountain Daylight Time)","452613","1","3","","116","","","","choice","","img/2to1/1.png","2","208","609","0.5","0.5","2","3","",""
"animation","39","85934","0.0-5.0-2.17","611343092396f1d9ed7018ad","bdp_cybrbll","Sun Apr 16 2023 19:32:24 GMT-0600 (Mountain Daylight Time)","452613","1","3","","","","","","","","","","208","","","","2","3","[{""stimulus"":""img/2to3/1.png"",""time"":103},{""stimulus"":""img/2to3/2.png"",""time"":199},{""stimulus"":""img/2to3/3.png"",""time"":308},{""stimulus"":""img/2to3/4.png"",""time"":398},{""stimulus"":""img/2to3/5.png"",""time"":496},{""stimulus"":""img/2to3/6.png"",""time"":595},{""stimulus"":""img/2to3/7.png"",""time"":694},{""stimulus"":""img/2to3/8.png"",""time"":794},{""stimulus"":""img/2to3/9.png"",""time"":892},{""stimulus"":""img/2to3/10.png"",""time"":997},{""stimulus"":""img/2to3/11.png"",""time"":1090},{""stimulus"":""img/2to3/12.png"",""time"":1198}]","[]"
"image-keyboard-response","40","86838","0.0-5.0-1.18","611343092396f1d9ed7018ad","bdp_cybrbll","Sun Apr 16 2023 19:32:24 GMT-0600 (Mountain Daylight Time)","452613","1","3","","null","","","","observe","","img/3to2/1.png","null","207","888","0.5","0.5","3","2","",""
"animation","41","88132","0.0-5.0-2.18","611343092396f1d9ed7018ad","bdp_cybrbll","Sun Apr 16 2023 19:32:24 GMT-0600 (Mountain Daylight Time)","452613","1","3","","","","","","","","","","207","","","","3","2","[{""stimulus"":""img/3to2/1.png"",""time"":109},{""stimulus"":""img/3to2/2.png"",""time"":205},{""stimulus"":""img/3to2/3.png"",""time"":298},{""stimulus"":""img/3to2/4.png"",""time"":404},{""stimulus"":""img/3to2/5.png"",""time"":496},{""stimulus"":""img/3to2/6.png"",""time"":607},{""stimulus"":""img/3to2/7.png"",""time"":694},{""stimulus"":""img/3to2/8.png"",""time"":796},{""stimulus"":""img/3to2/9.png"",""time"":904},{""stimulus"":""img/3to2/10.png"",""time"":991},{""stimulus"":""img/3to2/11.png"",""time"":1091},{""stimulus"":""img/3to2/12.png"",""time"":1199}]","[]"
"image-keyboard-response","42","88793","0.0-5.0-1.19","611343092396f1d9ed7018ad","bdp_cybrbll","Sun Apr 16 2023 19:32:24 GMT-0600 (Mountain Daylight Time)","452613","1","3","","660","","","","choice","","img/2to1/1.png","1","206","311","0.5","0.5","2","1","",""
"animation","43","90088","0.0-5.0-2.19","611343092396f1d9ed7018ad","bdp_cybrbll","Sun Apr 16 2023 19:32:24 GMT-0600 (Mountain Daylight Time)","452613","1","3","","","","","","","","","","206","","","","2","1","[{""stimulus"":""img/2to1/1.png"",""time"":113},{""stimulus"":""img/2to1/2.png"",""time"":199},{""stimulus"":""img/2to1/3.png"",""time"":298},{""stimulus"":""img/2to1/4.png"",""time"":398},{""stimulus"":""img/2to1/5.png"",""time"":495},{""stimulus"":""img/2to1/6.png"",""time"":595},{""stimulus"":""img/2to1/7.png"",""time"":704},{""stimulus"":""img/2to1/8.png"",""time"":799},{""stimulus"":""img/2to1/9.png"",""time"":892},{""stimulus"":""img/2to1/10.png"",""time"":999},{""stimulus"":""img/2to1/11.png"",""time"":1094},{""stimulus"":""img/2to1/12.png"",""time"":1189}]","[]"
"image-keyboard-response","44","90526","0.0-5.0-1.20","611343092396f1d9ed7018ad","bdp_cybrbll","Sun Apr 16 2023 19:32:24 GMT-0600 (Mountain Daylight Time)","452613","1","3","","null","","","","observe","","img/1to3/1.png","null","205","435","0.5","0.5","1","3","",""
"animation","45","91814","0.0-5.0-2.20","611343092396f1d9ed7018ad","bdp_cybrbll","Sun Apr 16 2023 19:32:24 GMT-0600 (Mountain Daylight Time)","452613","1","3","","","","","","","","","","205","","","","1","3","[{""stimulus"":""img/1to3/1.png"",""time"":110},{""stimulus"":""img/1to3/2.png"",""time"":202},{""stimulus"":""img/1to3/3.png"",""time"":312},{""stimulus"":""img/1to3/4.png"",""time"":405},{""stimulus"":""img/1to3/5.png"",""time"":496},{""stimulus"":""img/1to3/6.png"",""time"":595},{""stimulus"":""img/1to3/7.png"",""time"":695},{""stimulus"":""img/1to3/8.png"",""time"":796},{""stimulus"":""img/1to3/9.png"",""time"":904},{""stimulus"":""img/1to3/10.png"",""time"":1000},{""stimulus"":""img/1to3/11.png"",""time"":1094},{""stimulus"":""img/1to3/12.png"",""time"":1189}]","[]"
"image-keyboard-response","46","92511","0.0-5.0-1.21","611343092396f1d9ed7018ad","bdp_cybrbll","Sun Apr 16 2023 19:32:24 GMT-0600 (Mountain Daylight Time)","452613","1","3","","null","","","","observe","","img/3to2/1.png","null","204","682","0.5","0.5","3","2","",""
"animation","47","93799","0.0-5.0-2.21","611343092396f1d9ed7018ad","bdp_cybrbll","Sun Apr 16 2023 19:32:24 GMT-0600 (Mountain Daylight Time)","452613","1","3","","","","","","","","","","204","","","","3","2","[{""stimulus"":""img/3to2/1.png"",""time"":109},{""stimulus"":""img/3to2/2.png"",""time"":200},{""stimulus"":""img/3to2/3.png"",""time"":298},{""stimulus"":""img/3to2/4.png"",""time"":405},{""stimulus"":""img/3to2/5.png"",""time"":497},{""stimulus"":""img/3to2/6.png"",""time"":596},{""stimulus"":""img/3to2/7.png"",""time"":694},{""stimulus"":""img/3to2/8.png"",""time"":794},{""stimulus"":""img/3to2/9.png"",""time"":892},{""stimulus"":""img/3to2/10.png"",""time"":999},{""stimulus"":""img/3to2/11.png"",""time"":1090},{""stimulus"":""img/3to2/12.png"",""time"":1202}]","[]"
"image-keyboard-response","48","93964","0.0-5.0-1.22","611343092396f1d9ed7018ad","bdp_cybrbll","Sun Apr 16 2023 19:32:24 GMT-0600 (Mountain Daylight Time)","452613","1","3","","164","","","","choice","","img/2to1/1.png","1","203","753","0.5","0.5","2","1","",""
"animation","49","95252","0.0-5.0-2.22","611343092396f1d9ed7018ad","bdp_cybrbll","Sun Apr 16 2023 19:32:24 GMT-0600 (Mountain Daylight Time)","452613","1","3","","","","","","","","","","203","","","","2","1","[{""stimulus"":""img/2to1/1.png"",""time"":109},{""stimulus"":""img/2to1/2.png"",""time"":203},{""stimulus"":""img/2to1/3.png"",""time"":312},{""stimulus"":""img/2to1/4.png"",""time"":398},{""stimulus"":""img/2to1/5.png"",""time"":498},{""stimulus"":""img/2to1/6.png"",""time"":596},{""stimulus"":""img/2to1/7.png"",""time"":701},{""stimulus"":""img/2to1/8.png"",""time"":795},{""stimulus"":""img/2to1/9.png"",""time"":893},{""stimulus"":""img/2to1/10.png"",""time"":995},{""stimulus"":""img/2to1/11.png"",""time"":1090},{""stimulus"":""img/2to1/12.png"",""time"":1197}]","[]"
"image-keyboard-response","50","95578","0.0-5.0-1.23","611343092396f1d9ed7018ad","bdp_cybrbll","Sun Apr 16 2023 19:32:24 GMT-0600 (Mountain Daylight Time)","452613","1","3","","null","","","","observe","","img/1to3/1.png","null","202","322","0.5","0.5","1","2","",""
"animation","51","96867","0.0-5.0-2.23","611343092396f1d9ed7018ad","bdp_cybrbll","Sun Apr 16 2023 19:32:24 GMT-0600 (Mountain Daylight Time)","452613","1","3","","","","","","","","","","202","","","","1","2","[{""stimulus"":""img/1to2/1.png"",""time"":111},{""stimulus"":""img/1to2/2.png"",""time"":199},{""stimulus"":""img/1to2/3.png"",""time"":298},{""stimulus"":""img/1to2/4.png"",""time"":408},{""stimulus"":""img/1to2/5.png"",""time"":500},{""stimulus"":""img/1to2/6.png"",""time"":608},{""stimulus"":""img/1to2/7.png"",""time"":701},{""stimulus"":""img/1to2/8.png"",""time"":793},{""stimulus"":""img/1to2/9.png"",""time"":904},{""stimulus"":""img/1to2/10.png"",""time"":991},{""stimulus"":""img/1to2/11.png"",""time"":1105},{""stimulus"":""img/1to2/12.png"",""time"":1188}]","[]"
"image-keyboard-response","52","97553","0.0-5.0-1.24","611343092396f1d9ed7018ad","bdp_cybrbll","Sun Apr 16 2023 19:32:24 GMT-0600 (Mountain Daylight Time)","452613","1","3","","686","","","","choice","","img/2to1/1.png","2","201","500","0.5","0.5","2","3","",""
"animation","53","98841","0.0-5.0-2.24","611343092396f1d9ed7018ad","bdp_cybrbll","Sun Apr 16 2023 19:32:24 GMT-0600 (Mountain Daylight Time)","452613","1","3","","","","","","","","","","201","","","","2","3","[{""stimulus"":""img/2to3/1.png"",""time"":109},{""stimulus"":""img/2to3/2.png"",""time"":201},{""stimulus"":""img/2to3/3.png"",""time"":310},{""stimulus"":""img/2to3/4.png"",""time"":402},{""stimulus"":""img/2to3/5.png"",""time"":496},{""stimulus"":""img/2to3/6.png"",""time"":605},{""stimulus"":""img/2to3/7.png"",""time"":694},{""stimulus"":""img/2to3/8.png"",""time"":807},{""stimulus"":""img/2to3/9.png"",""time"":899},{""stimulus"":""img/2to3/10.png"",""time"":992},{""stimulus"":""img/2to3/11.png"",""time"":1090},{""stimulus"":""img/2to3/12.png"",""time"":1189}]","[]"
"image-keyboard-response","54","99266","0.0-5.0-1.25","611343092396f1d9ed7018ad","bdp_cybrbll","Sun Apr 16 2023 19:32:24 GMT-0600 (Mountain Daylight Time)","452613","1","3","","null","","","","observe","","img/3to2/1.png","null","200","410","0.5","0.5","3","1","",""
"animation","55","100557","0.0-5.0-2.25","611343092396f1d9ed7018ad","bdp_cybrbll","Sun Apr 16 2023 19:32:24 GMT-0600 (Mountain Daylight Time)","452613","1","3","","","","","","","","","","200","","","","3","1","[{""stimulus"":""img/3to1/1.png"",""time"":109},{""stimulus"":""img/3to1/2.png"",""time"":200},{""stimulus"":""img/3to1/3.png"",""time"":298},{""stimulus"":""img/3to1/4.png"",""time"":405},{""stimulus"":""img/3to1/5.png"",""time"":497},{""stimulus"":""img/3to1/6.png"",""time"":596},{""stimulus"":""img/3to1/7.png"",""time"":702},{""stimulus"":""img/3to1/8.png"",""time"":794},{""stimulus"":""img/3to1/9.png"",""time"":892},{""stimulus"":""img/3to1/10.png"",""time"":991},{""stimulus"":""img/3to1/11.png"",""time"":1091},{""stimulus"":""img/3to1/12.png"",""time"":1200}]","[]"
"image-keyboard-response","56","101407","0.0-5.0-1.26","611343092396f1d9ed7018ad","bdp_cybrbll","Sun Apr 16 2023 19:32:24 GMT-0600 (Mountain Daylight Time)","452613","1","3","","null","","","","observe","","img/1to3/1.png","null","199","836","0.5","0.5","1","2","",""
"animation","57","102706","0.0-5.0-2.26","611343092396f1d9ed7018ad","bdp_cybrbll","Sun Apr 16 2023 19:32:24 GMT-0600 (Mountain Daylight Time)","452613","1","3","","","","","","","","","","199","","","","1","2","[{""stimulus"":""img/1to2/1.png"",""time"":110},{""stimulus"":""img/1to2/2.png"",""time"":200},{""stimulus"":""img/1to2/3.png"",""time"":310},{""stimulus"":""img/1to2/4.png"",""time"":398},{""stimulus"":""img/1to2/5.png"",""time"":497},{""stimulus"":""img/1to2/6.png"",""time"":605},{""stimulus"":""img/1to2/7.png"",""time"":694},{""stimulus"":""img/1to2/8.png"",""time"":794},{""stimulus"":""img/1to2/9.png"",""time"":892},{""stimulus"":""img/1to2/10.png"",""time"":991},{""stimulus"":""img/1to2/11.png"",""time"":1093},{""stimulus"":""img/1to2/12.png"",""time"":1190}]","[]"
"image-keyboard-response","58","102853","0.0-5.0-1.27","611343092396f1d9ed7018ad","bdp_cybrbll","Sun Apr 16 2023 19:32:24 GMT-0600 (Mountain Daylight Time)","452613","1","3","","146","","","","choice","","img/2to1/1.png","2","198","310","0.5","0.5","2","3","",""
"animation","59","104141","0.0-5.0-2.27","611343092396f1d9ed7018ad","bdp_cybrbll","Sun Apr 16 2023 19:32:24 GMT-0600 (Mountain Daylight Time)","452613","1","3","","","","","","","","","","198","","","","2","3","[{""stimulus"":""img/2to3/1.png"",""time"":107},{""stimulus"":""img/2to3/2.png"",""time"":200},{""stimulus"":""img/2to3/3.png"",""time"":310},{""stimulus"":""img/2to3/4.png"",""time"":402},{""stimulus"":""img/2to3/5.png"",""time"":496},{""stimulus"":""img/2to3/6.png"",""time"":596},{""stimulus"":""img/2to3/7.png"",""time"":694},{""stimulus"":""img/2to3/8.png"",""time"":809},{""stimulus"":""img/2to3/9.png"",""time"":893},{""stimulus"":""img/2to3/10.png"",""time"":996},{""stimulus"":""img/2to3/11.png"",""time"":1091},{""stimulus"":""img/2to3/12.png"",""time"":1190}]","[]"
"image-keyboard-response","60","104574","0.0-5.0-1.28","611343092396f1d9ed7018ad","bdp_cybrbll","Sun Apr 16 2023 19:32:24 GMT-0600 (Mountain Daylight Time)","452613","1","3","","null","","","","observe","","img/3to2/1.png","null","197","420","0.5","0.5","3","1","",""
"animation","61","105876","0.0-5.0-2.28","611343092396f1d9ed7018ad","bdp_cybrbll","Sun Apr 16 2023 19:32:24 GMT-0600 (Mountain Daylight Time)","452613","1","3","","","","","","","","","","197","","","","3","1","[{""stimulus"":""img/3to1/1.png"",""time"":112},{""stimulus"":""img/3to1/2.png"",""time"":200},{""stimulus"":""img/3to1/3.png"",""time"":302},{""stimulus"":""img/3to1/4.png"",""time"":398},{""stimulus"":""img/3to1/5.png"",""time"":504},{""stimulus"":""img/3to1/6.png"",""time"":596},{""stimulus"":""img/3to1/7.png"",""time"":695},{""stimulus"":""img/3to1/8.png"",""time"":793},{""stimulus"":""img/3to1/9.png"",""time"":893},{""stimulus"":""img/3to1/10.png"",""time"":992},{""stimulus"":""img/3to1/11.png"",""time"":1091},{""stimulus"":""img/3to1/12.png"",""time"":1191}]","[]"
"image-keyboard-response","62","106571","0.0-5.0-1.29","611343092396f1d9ed7018ad","bdp_cybrbll","Sun Apr 16 2023 19:32:24 GMT-0600 (Mountain Daylight Time)","452613","1","3","","null","","","","observe","","img/1to3/1.png","null","196","682","0.5","0.5","1","3","",""
"animation","63","107859","0.0-5.0-2.29","611343092396f1d9ed7018ad","bdp_cybrbll","Sun Apr 16 2023 19:32:24 GMT-0600 (Mountain Daylight Time)","452613","1","3","","","","","","","","","","196","","","","1","3","[{""stimulus"":""img/1to3/1.png"",""time"":112},{""stimulus"":""img/1to3/2.png"",""time"":200},{""stimulus"":""img/1to3/3.png"",""time"":302},{""stimulus"":""img/1to3/4.png"",""time"":397},{""stimulus"":""img/1to3/5.png"",""time"":505},{""stimulus"":""img/1to3/6.png"",""time"":595},{""stimulus"":""img/1to3/7.png"",""time"":695},{""stimulus"":""img/1to3/8.png"",""time"":794},{""stimulus"":""img/1to3/9.png"",""time"":895},{""stimulus"":""img/1to3/10.png"",""time"":991},{""stimulus"":""img/1to3/11.png"",""time"":1090},{""stimulus"":""img/1to3/12.png"",""time"":1194}]","[]"
"image-keyboard-response","64","108188","0.0-5.0-1.30","611343092396f1d9ed7018ad","bdp_cybrbll","Sun Apr 16 2023 19:32:24 GMT-0600 (Mountain Daylight Time)","452613","1","3","","null","","","","observe","","img/3to2/1.png","null","195","324","0.5","0.5","3","2","",""
"animation","65","109476","0.0-5.0-2.30","611343092396f1d9ed7018ad","bdp_cybrbll","Sun Apr 16 2023 19:32:24 GMT-0600 (Mountain Daylight Time)","452613","1","3","","","","","","","","","","195","","","","3","2","[{""stimulus"":""img/3to2/1.png"",""time"":110},{""stimulus"":""img/3to2/2.png"",""time"":200},{""stimulus"":""img/3to2/3.png"",""time"":300},{""stimulus"":""img/3to2/4.png"",""time"":397},{""stimulus"":""img/3to2/5.png"",""time"":504},{""stimulus"":""img/3to2/6.png"",""time"":595},{""stimulus"":""img/3to2/7.png"",""time"":695},{""stimulus"":""img/3to2/8.png"",""time"":794},{""stimulus"":""img/3to2/9.png"",""time"":893},{""stimulus"":""img/3to2/10.png"",""time"":991},{""stimulus"":""img/3to2/11.png"",""time"":1091},{""stimulus"":""img/3to2/12.png"",""time"":1190}]","[]"
"image-keyboard-response","66","109575","0.0-5.0-1.31","611343092396f1d9ed7018ad","bdp_cybrbll","Sun Apr 16 2023 19:32:24 GMT-0600 (Mountain Daylight Time)","452613","1","3","","98","","","","choice","","img/2to1/1.png","1","194","339","0.5","0.5","2","1","",""
"animation","67","110863","0.0-5.0-2.31","611343092396f1d9ed7018ad","bdp_cybrbll","Sun Apr 16 2023 19:32:24 GMT-0600 (Mountain Daylight Time)","452613","1","3","","","","","","","","","","194","","","","2","1","[{""stimulus"":""img/2to1/1.png"",""time"":105},{""stimulus"":""img/2to1/2.png"",""time"":213},{""stimulus"":""img/2to1/3.png"",""time"":307},{""stimulus"":""img/2to1/4.png"",""time"":401},{""stimulus"":""img/2to1/5.png"",""time"":496},{""stimulus"":""img/2to1/6.png"",""time"":596},{""stimulus"":""img/2to1/7.png"",""time"":694},{""stimulus"":""img/2to1/8.png"",""time"":809},{""stimulus"":""img/2to1/9.png"",""time"":902},{""stimulus"":""img/2to1/10.png"",""time"":992},{""stimulus"":""img/2to1/11.png"",""time"":1104},{""stimulus"":""img/2to1/12.png"",""time"":1189}]","[]"
"image-keyboard-response","68","112560","0.0-5.0-1.32","611343092396f1d9ed7018ad","bdp_cybrbll","Sun Apr 16 2023 19:32:24 GMT-0600 (Mountain Daylight Time)","452613","1","3","","null","","","","observe","","img/1to3/1.png","null","193","1685","0.5","0.5","1","3","",""
"animation","69","113853","0.0-5.0-2.32","611343092396f1d9ed7018ad","bdp_cybrbll","Sun Apr 16 2023 19:32:24 GMT-0600 (Mountain Daylight Time)","452613","1","3","","","","","","","","","","193","","","","1","3","[{""stimulus"":""img/1to3/1.png"",""time"":112},{""stimulus"":""img/1to3/2.png"",""time"":205},{""stimulus"":""img/1to3/3.png"",""time"":298},{""stimulus"":""img/1to3/4.png"",""time"":408},{""stimulus"":""img/1to3/5.png"",""time"":497},{""stimulus"":""img/1to3/6.png"",""time"":595},{""stimulus"":""img/1to3/7.png"",""time"":694},{""stimulus"":""img/1to3/8.png"",""time"":793},{""stimulus"":""img/1to3/9.png"",""time"":906},{""stimulus"":""img/1to3/10.png"",""time"":990},{""stimulus"":""img/1to3/11.png"",""time"":1090},{""stimulus"":""img/1to3/12.png"",""time"":1200}]","[]"
"image-keyboard-response","70","114358","0.0-5.0-1.33","611343092396f1d9ed7018ad","bdp_cybrbll","Sun Apr 16 2023 19:32:24 GMT-0600 (Mountain Daylight Time)","452613","1","3","","null","","","","observe","","img/3to2/1.png","null","192","500","0.5","0.5","3","2","",""
"animation","71","115646","0.0-5.0-2.33","611343092396f1d9ed7018ad","bdp_cybrbll","Sun Apr 16 2023 19:32:24 GMT-0600 (Mountain Daylight Time)","452613","1","3","","","","","","","","","","192","","","","3","2","[{""stimulus"":""img/3to2/1.png"",""time"":108},{""stimulus"":""img/3to2/2.png"",""time"":199},{""stimulus"":""img/3to2/3.png"",""time"":309},{""stimulus"":""img/3to2/4.png"",""time"":401},{""stimulus"":""img/3to2/5.png"",""time"":497},{""stimulus"":""img/3to2/6.png"",""time"":595},{""stimulus"":""img/3to2/7.png"",""time"":700},{""stimulus"":""img/3to2/8.png"",""time"":793},{""stimulus"":""img/3to2/9.png"",""time"":892},{""stimulus"":""img/3to2/10.png"",""time"":991},{""stimulus"":""img/3to2/11.png"",""time"":1091},{""stimulus"":""img/3to2/12.png"",""time"":1190}]","[]"
"image-keyboard-response","72","115774","0.0-5.0-1.34","611343092396f1d9ed7018ad","bdp_cybrbll","Sun Apr 16 2023 19:32:24 GMT-0600 (Mountain Daylight Time)","452613","1","3","","127","","","","choice","","img/2to1/1.png","1","191","286","0.5","0.5","2","1","",""
"animation","73","117063","0.0-5.0-2.34","611343092396f1d9ed7018ad","bdp_cybrbll","Sun Apr 16 2023 19:32:24 GMT-0600 (Mountain Daylight Time)","452613","1","3","","","","","","","","","","191","","","","2","1","[{""stimulus"":""img/2to1/1.png"",""time"":109},{""stimulus"":""img/2to1/2.png"",""time"":202},{""stimulus"":""img/2to1/3.png"",""time"":312},{""stimulus"":""img/2to1/4.png"",""time"":405},{""stimulus"":""img/2to1/5.png"",""time"":496},{""stimulus"":""img/2to1/6.png"",""time"":609},{""stimulus"":""img/2to1/7.png"",""time"":702},{""stimulus"":""img/2to1/8.png"",""time"":793},{""stimulus"":""img/2to1/9.png"",""time"":892},{""stimulus"":""img/2to1/10.png"",""time"":1002},{""stimulus"":""img/2to1/11.png"",""time"":1090},{""stimulus"":""img/2to1/12.png"",""time"":1191}]","[]"
"image-keyboard-response","74","117467","0.0-5.0-1.35","611343092396f1d9ed7018ad","bdp_cybrbll","Sun Apr 16 2023 19:32:24 GMT-0600 (Mountain Daylight Time)","452613","1","3","","null","","","","observe","","img/1to3/1.png","null","190","403","0.5","0.5","1","2","",""
"animation","75","118767","0.0-5.0-2.35","611343092396f1d9ed7018ad","bdp_cybrbll","Sun Apr 16 2023 19:32:24 GMT-0600 (Mountain Daylight Time)","452613","1","3","","","","","","","","","","190","","","","1","2","[{""stimulus"":""img/1to2/1.png"",""time"":110},{""stimulus"":""img/1to2/2.png"",""time"":200},{""stimulus"":""img/1to2/3.png"",""time"":300},{""stimulus"":""img/1to2/4.png"",""time"":397},{""stimulus"":""img/1to2/5.png"",""time"":504},{""stimulus"":""img/1to2/6.png"",""time"":595},{""stimulus"":""img/1to2/7.png"",""time"":695},{""stimulus"":""img/1to2/8.png"",""time"":794},{""stimulus"":""img/1to2/9.png"",""time"":892},{""stimulus"":""img/1to2/10.png"",""time"":1002},{""stimulus"":""img/1to2/11.png"",""time"":1091},{""stimulus"":""img/1to2/12.png"",""time"":1189}]","[]"
"image-keyboard-response","76","118815","0.0-5.0-1.36","611343092396f1d9ed7018ad","bdp_cybrbll","Sun Apr 16 2023 19:32:24 GMT-0600 (Mountain Daylight Time)","452613","1","3","","47","","","","choice","","img/2to1/1.png","2","189","619","0.5","0.5","2","3","",""
"animation","77","120107","0.0-5.0-2.36","611343092396f1d9ed7018ad","bdp_cybrbll","Sun Apr 16 2023 19:32:24 GMT-0600 (Mountain Daylight Time)","452613","1","3","","","","","","","","","","189","","","","2","3","[{""stimulus"":""img/2to3/1.png"",""time"":110},{""stimulus"":""img/2to3/2.png"",""time"":203},{""stimulus"":""img/2to3/3.png"",""time"":313},{""stimulus"":""img/2to3/4.png"",""time"":398},{""stimulus"":""img/2to3/5.png"",""time"":496},{""stimulus"":""img/2to3/6.png"",""time"":596},{""stimulus"":""img/2to3/7.png"",""time"":694},{""stimulus"":""img/2to3/8.png"",""time"":793},{""stimulus"":""img/2to3/9.png"",""time"":891},{""stimulus"":""img/2to3/10.png"",""time"":991},{""stimulus"":""img/2to3/11.png"",""time"":1102},{""stimulus"":""img/2to3/12.png"",""time"":1189}]","[]"
"image-keyboard-response","78","120575","0.0-5.0-1.37","611343092396f1d9ed7018ad","bdp_cybrbll","Sun Apr 16 2023 19:32:24 GMT-0600 (Mountain Daylight Time)","452613","1","3","","null","","","","observe","","img/3to2/1.png","null","188","463","0.5","0.5","3","1","",""
"animation","79","121871","0.0-5.0-2.37","611343092396f1d9ed7018ad","bdp_cybrbll","Sun Apr 16 2023 19:32:24 GMT-0600 (Mountain Daylight Time)","452613","1","3","","","","","","","","","","188","","","","3","1","[{""stimulus"":""img/3to1/1.png"",""time"":111},{""stimulus"":""img/3to1/2.png"",""time"":203},{""stimulus"":""img/3to1/3.png"",""time"":299},{""stimulus"":""img/3to1/4.png"",""time"":398},{""stimulus"":""img/3to1/5.png"",""time"":500},{""stimulus"":""img/3to1/6.png"",""time"":595},{""stimulus"":""img/3to1/7.png"",""time"":703},{""stimulus"":""img/3to1/8.png"",""time"":793},{""stimulus"":""img/3to1/9.png"",""time"":892},{""stimulus"":""img/3to1/10.png"",""time"":991},{""stimulus"":""img/3to1/11.png"",""time"":1090},{""stimulus"":""img/3to1/12.png"",""time"":1200}]","[]"
"image-keyboard-response","80","122921","0.0-5.0-1.38","611343092396f1d9ed7018ad","bdp_cybrbll","Sun Apr 16 2023 19:32:24 GMT-0600 (Mountain Daylight Time)","452613","1","3","","null","","","","observe","","img/1to3/1.png","null","187","1036","0.5","0.5","1","2","",""
"animation","81","124211","0.0-5.0-2.38","611343092396f1d9ed7018ad","bdp_cybrbll","Sun Apr 16 2023 19:32:24 GMT-0600 (Mountain Daylight Time)","452613","1","3","","","","","","","","","","187","","","","1","2","[{""stimulus"":""img/1to2/1.png"",""time"":108},{""stimulus"":""img/1to2/2.png"",""time"":200},{""stimulus"":""img/1to2/3.png"",""time"":308},{""stimulus"":""img/1to2/4.png"",""time"":397},{""stimulus"":""img/1to2/5.png"",""time"":496},{""stimulus"":""img/1to2/6.png"",""time"":606},{""stimulus"":""img/1to2/7.png"",""time"":694},{""stimulus"":""img/1to2/8.png"",""time"":794},{""stimulus"":""img/1to2/9.png"",""time"":904},{""stimulus"":""img/1to2/10.png"",""time"":997},{""stimulus"":""img/1to2/11.png"",""time"":1090},{""stimulus"":""img/1to2/12.png"",""time"":1190}]","[]"
"image-keyboard-response","82","124265","0.0-5.0-1.39","611343092396f1d9ed7018ad","bdp_cybrbll","Sun Apr 16 2023 19:32:24 GMT-0600 (Mountain Daylight Time)","452613","1","3","","51","","","","choice","","img/2to1/1.png","2","186","225","0.5","0.5","2","3","",""
"animation","83","125554","0.0-5.0-2.39","611343092396f1d9ed7018ad","bdp_cybrbll","Sun Apr 16 2023 19:32:24 GMT-0600 (Mountain Daylight Time)","452613","1","3","","","","","","","","","","186","","","","2","3","[{""stimulus"":""img/2to3/1.png"",""time"":108},{""stimulus"":""img/2to3/2.png"",""time"":201},{""stimulus"":""img/2to3/3.png"",""time"":311},{""stimulus"":""img/2to3/4.png"",""time"":405},{""stimulus"":""img/2to3/5.png"",""time"":499},{""stimulus"":""img/2to3/6.png"",""time"":594},{""stimulus"":""img/2to3/7.png"",""time"":701},{""stimulus"":""img/2to3/8.png"",""time"":793},{""stimulus"":""img/2to3/9.png"",""time"":905},{""stimulus"":""img/2to3/10.png"",""time"":991},{""stimulus"":""img/2to3/11.png"",""time"":1090},{""stimulus"":""img/2to3/12.png"",""time"":1201}]","[]"
"image-keyboard-response","84","126535","0.0-5.0-1.40","611343092396f1d9ed7018ad","bdp_cybrbll","Sun Apr 16 2023 19:32:24 GMT-0600 (Mountain Daylight Time)","452613","1","3","","null","","","","observe","","img/3to2/1.png","null","185","965","0.5","0.5","3","2","",""
"animation","85","127829","0.0-5.0-2.40","611343092396f1d9ed7018ad","bdp_cybrbll","Sun Apr 16 2023 19:32:24 GMT-0600 (Mountain Daylight Time)","452613","1","3","","","","","","","","","","185","","","","3","2","[{""stimulus"":""img/3to2/1.png"",""time"":112},{""stimulus"":""img/3to2/2.png"",""time"":199},{""stimulus"":""img/3to2/3.png"",""time"":303},{""stimulus"":""img/3to2/4.png"",""time"":412},{""stimulus"":""img/3to2/5.png"",""time"":497},{""stimulus"":""img/3to2/6.png"",""time"":596},{""stimulus"":""img/3to2/7.png"",""time"":694},{""stimulus"":""img/3to2/8.png"",""time"":794},{""stimulus"":""img/3to2/9.png"",""time"":893},{""stimulus"":""img/3to2/10.png"",""time"":998},{""stimulus"":""img/3to2/11.png"",""time"":1092},{""stimulus"":""img/3to2/12.png"",""time"":1190}]","[]"
"image-keyboard-response","86","131694","0.0-5.0-1.41","611343092396f1d9ed7018ad","bdp_cybrbll","Sun Apr 16 2023 19:32:24 GMT-0600 (Mountain Daylight Time)","452613","1","3","","3864","","","","choice","","img/2to1/1.png","1","184","513","0.5","0.5","2","1","",""
"animation","87","132984","0.0-5.0-2.41","611343092396f1d9ed7018ad","bdp_cybrbll","Sun Apr 16 2023 19:32:24 GMT-0600 (Mountain Daylight Time)","452613","1","3","","","","","","","","","","184","","","","2","1","[{""stimulus"":""img/2to1/1.png"",""time"":104},{""stimulus"":""img/2to1/2.png"",""time"":214},{""stimulus"":""img/2to1/3.png"",""time"":308},{""stimulus"":""img/2to1/4.png"",""time"":401},{""stimulus"":""img/2to1/5.png"",""time"":496},{""stimulus"":""img/2to1/6.png"",""time"":596},{""stimulus"":""img/2to1/7.png"",""time"":695},{""stimulus"":""img/2to1/8.png"",""time"":794},{""stimulus"":""img/2to1/9.png"",""time"":893},{""stimulus"":""img/2to1/10.png"",""time"":992},{""stimulus"":""img/2to1/11.png"",""time"":1091},{""stimulus"":""img/2to1/12.png"",""time"":1195}]","[]"
"image-keyboard-response","88","133527","0.0-5.0-1.42","611343092396f1d9ed7018ad","bdp_cybrbll","Sun Apr 16 2023 19:32:24 GMT-0600 (Mountain Daylight Time)","452613","1","3","","null","","","","observe","","img/1to3/1.png","null","183","539","0.5","0.5","1","3","",""
"animation","89","134823","0.0-5.0-2.42","611343092396f1d9ed7018ad","bdp_cybrbll","Sun Apr 16 2023 19:32:24 GMT-0600 (Mountain Daylight Time)","452613","1","3","","","","","","","","","","183","","","","1","3","[{""stimulus"":""img/1to3/1.png"",""time"":112},{""stimulus"":""img/1to3/2.png"",""time"":199},{""stimulus"":""img/1to3/3.png"",""time"":312},{""stimulus"":""img/1to3/4.png"",""time"":407},{""stimulus"":""img/1to3/5.png"",""time"":496},{""stimulus"":""img/1to3/6.png"",""time"":595},{""stimulus"":""img/1to3/7.png"",""time"":694},{""stimulus"":""img/1to3/8.png"",""time"":794},{""stimulus"":""img/1to3/9.png"",""time"":892},{""stimulus"":""img/1to3/10.png"",""time"":997},{""stimulus"":""img/1to3/11.png"",""time"":1091},{""stimulus"":""img/1to3/12.png"",""time"":1190}]","[]"
"image-keyboard-response","90","135041","0.0-5.0-1.43","611343092396f1d9ed7018ad","bdp_cybrbll","Sun Apr 16 2023 19:32:24 GMT-0600 (Mountain Daylight Time)","452613","1","3","","null","","","","observe","","img/3to2/1.png","null","182","202","0.5","0.5","3","2","",""
"animation","91","136330","0.0-5.0-2.43","611343092396f1d9ed7018ad","bdp_cybrbll","Sun Apr 16 2023 19:32:24 GMT-0600 (Mountain Daylight Time)","452613","1","3","","","","","","","","","","182","","","","3","2","[{""stimulus"":""img/3to2/1.png"",""time"":112},{""stimulus"":""img/3to2/2.png"",""time"":200},{""stimulus"":""img/3to2/3.png"",""time"":313},{""stimulus"":""img/3to2/4.png"",""time"":397},{""stimulus"":""img/3to2/5.png"",""time"":499},{""stimulus"":""img/3to2/6.png"",""time"":609},{""stimulus"":""img/3to2/7.png"",""time"":694},{""stimulus"":""img/3to2/8.png"",""time"":796},{""stimulus"":""img/3to2/9.png"",""time"":906},{""stimulus"":""img/3to2/10.png"",""time"":992},{""stimulus"":""img/3to2/11.png"",""time"":1090},{""stimulus"":""img/3to2/12.png"",""time"":1190}]","[]"
"image-keyboard-response","92","136405","0.0-5.0-1.44","611343092396f1d9ed7018ad","bdp_cybrbll","Sun Apr 16 2023 19:32:24 GMT-0600 (Mountain Daylight Time)","452613","1","3","","74","","","","choice","","img/2to1/1.png","1","181","668","0.5","0.5","2","1","",""
"animation","93","137692","0.0-5.0-2.44","611343092396f1d9ed7018ad","bdp_cybrbll","Sun Apr 16 2023 19:32:24 GMT-0600 (Mountain Daylight Time)","452613","1","3","","","","","","","","","","181","","","","2","1","[{""stimulus"":""img/2to1/1.png"",""time"":107},{""stimulus"":""img/2to1/2.png"",""time"":201},{""stimulus"":""img/2to1/3.png"",""time"":310},{""stimulus"":""img/2to1/4.png"",""time"":404},{""stimulus"":""img/2to1/5.png"",""time"":497},{""stimulus"":""img/2to1/6.png"",""time"":594},{""stimulus"":""img/2to1/7.png"",""time"":701},{""stimulus"":""img/2to1/8.png"",""time"":793},{""stimulus"":""img/2to1/9.png"",""time"":904},{""stimulus"":""img/2to1/10.png"",""time"":990},{""stimulus"":""img/2to1/11.png"",""time"":1090},{""stimulus"":""img/2to1/12.png"",""time"":1202}]","[]"
"image-keyboard-response","94","137886","0.0-5.0-1.45","611343092396f1d9ed7018ad","bdp_cybrbll","Sun Apr 16 2023 19:32:24 GMT-0600 (Mountain Daylight Time)","452613","1","3","","null","","","","observe","","img/1to3/1.png","null","180","188","0.5","0.5","1","3","",""
"animation","95","139175","0.0-5.0-2.45","611343092396f1d9ed7018ad","bdp_cybrbll","Sun Apr 16 2023 19:32:24 GMT-0600 (Mountain Daylight Time)","452613","1","3","","","","","","","","","","180","","","","1","3","[{""stimulus"":""img/1to3/1.png"",""time"":109},{""stimulus"":""img/1to3/2.png"",""time"":200},{""stimulus"":""img/1to3/3.png"",""time"":298},{""stimulus"":""img/1to3/4.png"",""time"":398},{""stimulus"":""img/1to3/5.png"",""time"":497},{""stimulus"":""img/1to3/6.png"",""time"":609},{""stimulus"":""img/1to3/7.png"",""time"":702},{""stimulus"":""img/1to3/8.png"",""time"":793},{""stimulus"":""img/1to3/9.png"",""time"":893},{""stimulus"":""img/1to3/10.png"",""time"":1000},{""stimulus"":""img/1to3/11.png"",""time"":1093},{""stimulus"":""img/1to3/12.png"",""time"":1190}]","[]"
"image-keyboard-response","96","139581","0.0-5.0-1.46","611343092396f1d9ed7018ad","bdp_cybrbll","Sun Apr 16 2023 19:32:24 GMT-0600 (Mountain Daylight Time)","452613","1","3","","null","","","","observe","","img/3to2/1.png","null","179","404","0.5","0.5","3","2","",""
"animation","97","140882","0.0-5.0-2.46","611343092396f1d9ed7018ad","bdp_cybrbll","Sun Apr 16 2023 19:32:24 GMT-0600 (Mountain Daylight Time)","452613","1","3","","","","","","","","","","179","","","","3","2","[{""stimulus"":""img/3to2/1.png"",""time"":102},{""stimulus"":""img/3to2/2.png"",""time"":199},{""stimulus"":""img/3to2/3.png"",""time"":304},{""stimulus"":""img/3to2/4.png"",""time"":397},{""stimulus"":""img/3to2/5.png"",""time"":497},{""stimulus"":""img/3to2/6.png"",""time"":601},{""stimulus"":""img/3to2/7.png"",""time"":693},{""stimulus"":""img/3to2/8.png"",""time"":793},{""stimulus"":""img/3to2/9.png"",""time"":892},{""stimulus"":""img/3to2/10.png"",""time"":1006},{""stimulus"":""img/3to2/11.png"",""time"":1099},{""stimulus"":""img/3to2/12.png"",""time"":1189}]","[]"
"image-keyboard-response","98","140885","0.0-5.0-1.47","611343092396f1d9ed7018ad","bdp_cybrbll","Sun Apr 16 2023 19:32:24 GMT-0600 (Mountain Daylight Time)","452613","1","3","","2","","","","choice","","img/2to1/1.png","1","178","681","0.5","0.5","2","1","",""
"animation","99","142173","0.0-5.0-2.47","611343092396f1d9ed7018ad","bdp_cybrbll","Sun Apr 16 2023 19:32:24 GMT-0600 (Mountain Daylight Time)","452613","1","3","","","","","","","","","","178","","","","2","1","[{""stimulus"":""img/2to1/1.png"",""time"":101},{""stimulus"":""img/2to1/2.png"",""time"":200},{""stimulus"":""img/2to1/3.png"",""time"":308},{""stimulus"":""img/2to1/4.png"",""time"":397},{""stimulus"":""img/2to1/5.png"",""time"":495},{""stimulus"":""img/2to1/6.png"",""time"":594},{""stimulus"":""img/2to1/7.png"",""time"":695},{""stimulus"":""img/2to1/8.png"",""time"":793},{""stimulus"":""img/2to1/9.png"",""time"":891},{""stimulus"":""img/2to1/10.png"",""time"":1000},{""stimulus"":""img/2to1/11.png"",""time"":1094},{""stimulus"":""img/2to1/12.png"",""time"":1189}]","[]"
"image-keyboard-response","100","142699","0.0-5.0-1.48","611343092396f1d9ed7018ad","bdp_cybrbll","Sun Apr 16 2023 19:32:24 GMT-0600 (Mountain Daylight Time)","452613","1","3","","null","","","","observe","","img/1to3/1.png","null","177","520","0.5","0.5","1","2","",""
"animation","101","143988","0.0-5.0-2.48","611343092396f1d9ed7018ad","bdp_cybrbll","Sun Apr 16 2023 19:32:24 GMT-0600 (Mountain Daylight Time)","452613","1","3","","","","","","","","","","177","","","","1","2","[{""stimulus"":""img/1to2/1.png"",""time"":110},{""stimulus"":""img/1to2/2.png"",""time"":199},{""stimulus"":""img/1to2/3.png"",""time"":299},{""stimulus"":""img/1to2/4.png"",""time"":397},{""stimulus"":""img/1to2/5.png"",""time"":501},{""stimulus"":""img/1to2/6.png"",""time"":595},{""stimulus"":""img/1to2/7.png"",""time"":703},{""stimulus"":""img/1to2/8.png"",""time"":793},{""stimulus"":""img/1to2/9.png"",""time"":893},{""stimulus"":""img/1to2/10.png"",""time"":992},{""stimulus"":""img/1to2/11.png"",""time"":1091},{""stimulus"":""img/1to2/12.png"",""time"":1203}]","[]"
"image-keyboard-response","102","144245","0.0-5.0-1.49","611343092396f1d9ed7018ad","bdp_cybrbll","Sun Apr 16 2023 19:32:24 GMT-0600 (Mountain Daylight Time)","452613","1","3","","256","","","","choice","","img/2to1/1.png","2","176","511","0.5","0.5","2","3","",""
"animation","103","145534","0.0-5.0-2.49","611343092396f1d9ed7018ad","bdp_cybrbll","Sun Apr 16 2023 19:32:24 GMT-0600 (Mountain Daylight Time)","452613","1","3","","","","","","","","","","176","","","","2","3","[{""stimulus"":""img/2to3/1.png"",""time"":108},{""stimulus"":""img/2to3/2.png"",""time"":202},{""stimulus"":""img/2to3/3.png"",""time"":312},{""stimulus"":""img/2to3/4.png"",""time"":406},{""stimulus"":""img/2to3/5.png"",""time"":496},{""stimulus"":""img/2to3/6.png"",""time"":608},{""stimulus"":""img/2to3/7.png"",""time"":700},{""stimulus"":""img/2to3/8.png"",""time"":794},{""stimulus"":""img/2to3/9.png"",""time"":892},{""stimulus"":""img/2to3/10.png"",""time"":991},{""stimulus"":""img/2to3/11.png"",""time"":1090},{""stimulus"":""img/2to3/12.png"",""time"":1189}]","[]"
"image-keyboard-response","104","146367","0.0-5.0-1.50","611343092396f1d9ed7018ad","bdp_cybrbll","Sun Apr 16 2023 19:32:24 GMT-0600 (Mountain Daylight Time)","452613","1","3","","null","","","","observe","","img/3to2/1.png","null","175","819","0.5","0.5","3","2","",""
"animation","105","147656","0.0-5.0-2.50","611343092396f1d9ed7018ad","bdp_cybrbll","Sun Apr 16 2023 19:32:24 GMT-0600 (Mountain Daylight Time)","452613","1","3","","","","","","","","","","175","","","","3","2","[{""stimulus"":""img/3to2/1.png"",""time"":110},{""stimulus"":""img/3to2/2.png"",""time"":206},{""stimulus"":""img/3to2/3.png"",""time"":298},{""stimulus"":""img/3to2/4.png"",""time"":408},{""stimulus"":""img/3to2/5.png"",""time"":502},{""stimulus"":""img/3to2/6.png"",""time"":597},{""stimulus"":""img/3to2/7.png"",""time"":705},{""stimulus"":""img/3to2/8.png"",""time"":793},{""stimulus"":""img/3to2/9.png"",""time"":892},{""stimulus"":""img/3to2/10.png"",""time"":991},{""stimulus"":""img/3to2/11.png"",""time"":1090},{""stimulus"":""img/3to2/12.png"",""time"":1189}]","[]"
"image-keyboard-response","106","148046","0.0-5.0-1.51","611343092396f1d9ed7018ad","bdp_cybrbll","Sun Apr 16 2023 19:32:24 GMT-0600 (Mountain Daylight Time)","452613","1","3","","389","","","","choice","","img/2to1/1.png","2","174","258","0.5","0.5","2","3","",""
"animation","107","149334","0.0-5.0-2.51","611343092396f1d9ed7018ad","bdp_cybrbll","Sun Apr 16 2023 19:32:24 GMT-0600 (Mountain Daylight Time)","452613","1","3","","","","","","","","","","174","","","","2","3","[{""stimulus"":""img/2to3/1.png"",""time"":101},{""stimulus"":""img/2to3/2.png"",""time"":212},{""stimulus"":""img/2to3/3.png"",""time"":306},{""stimulus"":""img/2to3/4.png"",""time"":400},{""stimulus"":""img/2to3/5.png"",""time"":496},{""stimulus"":""img/2to3/6.png"",""time"":595},{""stimulus"":""img/2to3/7.png"",""time"":694},{""stimulus"":""img/2to3/8.png"",""time"":793},{""stimulus"":""img/2to3/9.png"",""time"":904},{""stimulus"":""img/2to3/10.png"",""time"":996},{""stimulus"":""img/2to3/11.png"",""time"":1090},{""stimulus"":""img/2to3/12.png"",""time"":1198}]","[]"
"image-keyboard-response","108","149558","0.0-5.0-1.52","611343092396f1d9ed7018ad","bdp_cybrbll","Sun Apr 16 2023 19:32:24 GMT-0600 (Mountain Daylight Time)","452613","1","3","","null","","","","observe","","img/3to2/1.png","null","173","208","0.5","0.5","3","1","",""
"animation","109","150847","0.0-5.0-2.52","611343092396f1d9ed7018ad","bdp_cybrbll","Sun Apr 16 2023 19:32:24 GMT-0600 (Mountain Daylight Time)","452613","1","3","","","","","","","","","","173","","","","3","1","[{""stimulus"":""img/3to1/1.png"",""time"":111},{""stimulus"":""img/3to1/2.png"",""time"":199},{""stimulus"":""img/3to1/3.png"",""time"":299},{""stimulus"":""img/3to1/4.png"",""time"":408},{""stimulus"":""img/3to1/5.png"",""time"":496},{""stimulus"":""img/3to1/6.png"",""time"":595},{""stimulus"":""img/3to1/7.png"",""time"":694},{""stimulus"":""img/3to1/8.png"",""time"":792},{""stimulus"":""img/3to1/9.png"",""time"":892},{""stimulus"":""img/3to1/10.png"",""time"":998},{""stimulus"":""img/3to1/11.png"",""time"":1093},{""stimulus"":""img/3to1/12.png"",""time"":1189}]","[]"
"image-keyboard-response","110","151043","0.0-5.0-1.53","611343092396f1d9ed7018ad","bdp_cybrbll","Sun Apr 16 2023 19:32:24 GMT-0600 (Mountain Daylight Time)","452613","1","3","","null","","","","observe","","img/1to3/1.png","null","172","187","0.5","0.5","1","2","",""
"animation","111","152333","0.0-5.0-2.53","611343092396f1d9ed7018ad","bdp_cybrbll","Sun Apr 16 2023 19:32:24 GMT-0600 (Mountain Daylight Time)","452613","1","3","","","","","","","","","","172","","","","1","2","[{""stimulus"":""img/1to2/1.png"",""time"":110},{""stimulus"":""img/1to2/2.png"",""time"":199},{""stimulus"":""img/1to2/3.png"",""time"":299},{""stimulus"":""img/1to2/4.png"",""time"":398},{""stimulus"":""img/1to2/5.png"",""time"":497},{""stimulus"":""img/1to2/6.png"",""time"":608},{""stimulus"":""img/1to2/7.png"",""time"":693},{""stimulus"":""img/1to2/8.png"",""time"":793},{""stimulus"":""img/1to2/9.png"",""time"":903},{""stimulus"":""img/1to2/10.png"",""time"":991},{""stimulus"":""img/1to2/11.png"",""time"":1090},{""stimulus"":""img/1to2/12.png"",""time"":1189}]","[]"
"image-keyboard-response","112","152885","0.0-5.0-1.54","611343092396f1d9ed7018ad","bdp_cybrbll","Sun Apr 16 2023 19:32:24 GMT-0600 (Mountain Daylight Time)","452613","1","3","","552","","","","choice","","img/2to1/1.png","2","171","536","0.5","0.5","2","3","",""
"animation","113","154174","0.0-5.0-2.54","611343092396f1d9ed7018ad","bdp_cybrbll","Sun Apr 16 2023 19:32:24 GMT-0600 (Mountain Daylight Time)","452613","1","3","","","","","","","","","","171","","","","2","3","[{""stimulus"":""img/2to3/1.png"",""time"":109},{""stimulus"":""img/2to3/2.png"",""time"":203},{""stimulus"":""img/2to3/3.png"",""time"":312},{""stimulus"":""img/2to3/4.png"",""time"":404},{""stimulus"":""img/2to3/5.png"",""time"":496},{""stimulus"":""img/2to3/6.png"",""time"":607},{""stimulus"":""img/2to3/7.png"",""time"":695},{""stimulus"":""img/2to3/8.png"",""time"":792},{""stimulus"":""img/2to3/9.png"",""time"":892},{""stimulus"":""img/2to3/10.png"",""time"":991},{""stimulus"":""img/2to3/11.png"",""time"":1091},{""stimulus"":""img/2to3/12.png"",""time"":1189}]","[]"
"image-keyboard-response","114","154684","0.0-5.0-1.55","611343092396f1d9ed7018ad","bdp_cybrbll","Sun Apr 16 2023 19:32:24 GMT-0600 (Mountain Daylight Time)","452613","1","3","","null","","","","observe","","img/3to2/1.png","null","170","507","0.5","0.5","3","2","",""
"animation","115","155978","0.0-5.0-2.55","611343092396f1d9ed7018ad","bdp_cybrbll","Sun Apr 16 2023 19:32:24 GMT-0600 (Mountain Daylight Time)","452613","1","3","","","","","","","","","","170","","","","3","2","[{""stimulus"":""img/3to2/1.png"",""time"":108},{""stimulus"":""img/3to2/2.png"",""time"":199},{""stimulus"":""img/3to2/3.png"",""time"":299},{""stimulus"":""img/3to2/4.png"",""time"":397},{""stimulus"":""img/3to2/5.png"",""time"":496},{""stimulus"":""img/3to2/6.png"",""time"":608},{""stimulus"":""img/3to2/7.png"",""time"":693},{""stimulus"":""img/3to2/8.png"",""time"":795},{""stimulus"":""img/3to2/9.png"",""time"":904},{""stimulus"":""img/3to2/10.png"",""time"":990},{""stimulus"":""img/3to2/11.png"",""time"":1090},{""stimulus"":""img/3to2/12.png"",""time"":1189}]","[]"
"image-keyboard-response","116","156095","0.0-5.0-1.56","611343092396f1d9ed7018ad","bdp_cybrbll","Sun Apr 16 2023 19:32:24 GMT-0600 (Mountain Daylight Time)","452613","1","3","","115","","","","choice","","img/2to1/1.png","1","169","757","0.5","0.5","2","1","",""
"animation","117","157389","0.0-5.0-2.56","611343092396f1d9ed7018ad","bdp_cybrbll","Sun Apr 16 2023 19:32:24 GMT-0600 (Mountain Daylight Time)","452613","1","3","","","","","","","","","","169","","","","2","1","[{""stimulus"":""img/2to1/1.png"",""time"":103},{""stimulus"":""img/2to1/2.png"",""time"":213},{""stimulus"":""img/2to1/3.png"",""time"":305},{""stimulus"":""img/2to1/4.png"",""time"":398},{""stimulus"":""img/2to1/5.png"",""time"":510},{""stimulus"":""img/2to1/6.png"",""time"":596},{""stimulus"":""img/2to1/7.png"",""time"":695},{""stimulus"":""img/2to1/8.png"",""time"":793},{""stimulus"":""img/2to1/9.png"",""time"":902},{""stimulus"":""img/2to1/10.png"",""time"":992},{""stimulus"":""img/2to1/11.png"",""time"":1105},{""stimulus"":""img/2to1/12.png"",""time"":1190}]","[]"
"image-keyboard-response","118","157722","0.0-5.0-1.57","611343092396f1d9ed7018ad","bdp_cybrbll","Sun Apr 16 2023 19:32:24 GMT-0600 (Mountain Daylight Time)","452613","1","3","","null","","","","observe","","img/1to3/1.png","null","168","331","0.5","0.5","1","3","",""
"animation","119","159010","0.0-5.0-2.57","611343092396f1d9ed7018ad","bdp_cybrbll","Sun Apr 16 2023 19:32:24 GMT-0600 (Mountain Daylight Time)","452613","1","3","","","","","","","","","","168","","","","1","3","[{""stimulus"":""img/1to3/1.png"",""time"":104},{""stimulus"":""img/1to3/2.png"",""time"":200},{""stimulus"":""img/1to3/3.png"",""time"":299},{""stimulus"":""img/1to3/4.png"",""time"":397},{""stimulus"":""img/1to3/5.png"",""time"":496},{""stimulus"":""img/1to3/6.png"",""time"":594},{""stimulus"":""img/1to3/7.png"",""time"":694},{""stimulus"":""img/1to3/8.png"",""time"":793},{""stimulus"":""img/1to3/9.png"",""time"":904},{""stimulus"":""img/1to3/10.png"",""time"":991},{""stimulus"":""img/1to3/11.png"",""time"":1090},{""stimulus"":""img/1to3/12.png"",""time"":1200}]","[]"
"image-keyboard-response","120","159453","0.0-5.0-1.58","611343092396f1d9ed7018ad","bdp_cybrbll","Sun Apr 16 2023 19:32:24 GMT-0600 (Mountain Daylight Time)","452613","1","3","","null","","","","observe","","img/3to2/1.png","null","167","442","0.5","0.5","3","1","",""
"animation","121","160742","0.0-5.0-2.58","611343092396f1d9ed7018ad","bdp_cybrbll","Sun Apr 16 2023 19:32:24 GMT-0600 (Mountain Daylight Time)","452613","1","3","","","","","","","","","","167","","","","3","1","[{""stimulus"":""img/3to1/1.png"",""time"":103},{""stimulus"":""img/3to1/2.png"",""time"":199},{""stimulus"":""img/3to1/3.png"",""time"":309},{""stimulus"":""img/3to1/4.png"",""time"":404},{""stimulus"":""img/3to1/5.png"",""time"":498},{""stimulus"":""img/3to1/6.png"",""time"":606},{""stimulus"":""img/3to1/7.png"",""time"":700},{""stimulus"":""img/3to1/8.png"",""time"":808},{""stimulus"":""img/3to1/9.png"",""time"":903},{""stimulus"":""img/3to1/10.png"",""time"":991},{""stimulus"":""img/3to1/11.png"",""time"":1105},{""stimulus"":""img/3to1/12.png"",""time"":1190}]","[]"
"image-keyboard-response","122","161353","0.0-5.0-1.59","611343092396f1d9ed7018ad","bdp_cybrbll","Sun Apr 16 2023 19:32:24 GMT-0600 (Mountain Daylight Time)","452613","1","3","","null","","","","observe","","img/1to3/1.png","null","166","598","0.5","0.5","1","2","",""
"animation","123","162641","0.0-5.0-2.59","611343092396f1d9ed7018ad","bdp_cybrbll","Sun Apr 16 2023 19:32:24 GMT-0600 (Mountain Daylight Time)","452613","1","3","","","","","","","","","","166","","","","1","2","[{""stimulus"":""img/1to2/1.png"",""time"":112},{""stimulus"":""img/1to2/2.png"",""time"":200},{""stimulus"":""img/1to2/3.png"",""time"":314},{""stimulus"":""img/1to2/4.png"",""time"":398},{""stimulus"":""img/1to2/5.png"",""time"":501},{""stimulus"":""img/1to2/6.png"",""time"":597},{""stimulus"":""img/1to2/7.png"",""time"":695},{""stimulus"":""img/1to2/8.png"",""time"":794},{""stimulus"":""img/1to2/9.png"",""time"":893},{""stimulus"":""img/1to2/10.png"",""time"":992},{""stimulus"":""img/1to2/11.png"",""time"":1091},{""stimulus"":""img/1to2/12.png"",""time"":1190}]","[]"
"image-keyboard-response","124","162696","0.0-5.0-1.60","611343092396f1d9ed7018ad","bdp_cybrbll","Sun Apr 16 2023 19:32:24 GMT-0600 (Mountain Daylight Time)","452613","1","3","","54","","","","choice","","img/2to1/1.png","1","165","286","0.5","0.5","2","1","",""
"animation","125","163998","0.0-5.0-2.60","611343092396f1d9ed7018ad","bdp_cybrbll","Sun Apr 16 2023 19:32:24 GMT-0600 (Mountain Daylight Time)","452613","1","3","","","","","","","","","","165","","","","2","1","[{""stimulus"":""img/2to1/1.png"",""time"":115},{""stimulus"":""img/2to1/2.png"",""time"":199},{""stimulus"":""img/2to1/3.png"",""time"":304},{""stimulus"":""img/2to1/4.png"",""time"":397},{""stimulus"":""img/2to1/5.png"",""time"":496},{""stimulus"":""img/2to1/6.png"",""time"":595},{""stimulus"":""img/2to1/7.png"",""time"":695},{""stimulus"":""img/2to1/8.png"",""time"":794},{""stimulus"":""img/2to1/9.png"",""time"":892},{""stimulus"":""img/2to1/10.png"",""time"":992},{""stimulus"":""img/2to1/11.png"",""time"":1090},{""stimulus"":""img/2to1/12.png"",""time"":1189}]","[]"
"image-keyboard-response","126","164939","0.0-5.0-1.61","611343092396f1d9ed7018ad","bdp_cybrbll","Sun Apr 16 2023 19:32:24 GMT-0600 (Mountain Daylight Time)","452613","1","3","","null","","","","observe","","img/1to3/1.png","null","164","925","0.5","0.5","1","3","",""
"animation","127","166228","0.0-5.0-2.61","611343092396f1d9ed7018ad","bdp_cybrbll","Sun Apr 16 2023 19:32:24 GMT-0600 (Mountain Daylight Time)","452613","1","3","","","","","","","","","","164","","","","1","3","[{""stimulus"":""img/1to3/1.png"",""time"":110},{""stimulus"":""img/1to3/2.png"",""time"":199},{""stimulus"":""img/1to3/3.png"",""time"":300},{""stimulus"":""img/1to3/4.png"",""time"":398},{""stimulus"":""img/1to3/5.png"",""time"":497},{""stimulus"":""img/1to3/6.png"",""time"":606},{""stimulus"":""img/1to3/7.png"",""time"":695},{""stimulus"":""img/1to3/8.png"",""time"":808},{""stimulus"":""img/1to3/9.png"",""time"":892},{""stimulus"":""img/1to3/10.png"",""time"":995},{""stimulus"":""img/1to3/11.png"",""time"":1104},{""stimulus"":""img/1to3/12.png"",""time"":1189}]","[]"
"image-keyboard-response","128","167327","0.0-5.0-1.62","611343092396f1d9ed7018ad","bdp_cybrbll","Sun Apr 16 2023 19:32:24 GMT-0600 (Mountain Daylight Time)","452613","1","3","","null","","","","observe","","img/3to2/1.png","null","163","1098","0.5","0.5","3","2","",""
"animation","129","168624","0.0-5.0-2.62","611343092396f1d9ed7018ad","bdp_cybrbll","Sun Apr 16 2023 19:32:24 GMT-0600 (Mountain Daylight Time)","452613","1","3","","","","","","","","","","163","","","","3","2","[{""stimulus"":""img/3to2/1.png"",""time"":112},{""stimulus"":""img/3to2/2.png"",""time"":199},{""stimulus"":""img/3to2/3.png"",""time"":313},{""stimulus"":""img/3to2/4.png"",""time"":407},{""stimulus"":""img/3to2/5.png"",""time"":497},{""stimulus"":""img/3to2/6.png"",""time"":595},{""stimulus"":""img/3to2/7.png"",""time"":704},{""stimulus"":""img/3to2/8.png"",""time"":793},{""stimulus"":""img/3to2/9.png"",""time"":893},{""stimulus"":""img/3to2/10.png"",""time"":992},{""stimulus"":""img/3to2/11.png"",""time"":1090},{""stimulus"":""img/3to2/12.png"",""time"":1190}]","[]"
"image-keyboard-response","130","168635","0.0-5.0-1.63","611343092396f1d9ed7018ad","bdp_cybrbll","Sun Apr 16 2023 19:32:24 GMT-0600 (Mountain Daylight Time)","452613","1","3","","10","","","","choice","","img/2to1/1.png","1","162","197","0.5","0.5","2","1","",""
"animation","131","169938","0.0-5.0-2.63","611343092396f1d9ed7018ad","bdp_cybrbll","Sun Apr 16 2023 19:32:24 GMT-0600 (Mountain Daylight Time)","452613","1","3","","","","","","","","","","162","","","","2","1","[{""stimulus"":""img/2to1/1.png"",""time"":100},{""stimulus"":""img/2to1/2.png"",""time"":210},{""stimulus"":""img/2to1/3.png"",""time"":305},{""stimulus"":""img/2to1/4.png"",""time"":400},{""stimulus"":""img/2to1/5.png"",""time"":496},{""stimulus"":""img/2to1/6.png"",""time"":594},{""stimulus"":""img/2to1/7.png"",""time"":694},{""stimulus"":""img/2to1/8.png"",""time"":793},{""stimulus"":""img/2to1/9.png"",""time"":893},{""stimulus"":""img/2to1/10.png"",""time"":991},{""stimulus"":""img/2to1/11.png"",""time"":1099},{""stimulus"":""img/2to1/12.png"",""time"":1189}]","[]"
"image-keyboard-response","132","170438","0.0-5.0-1.64","611343092396f1d9ed7018ad","bdp_cybrbll","Sun Apr 16 2023 19:32:24 GMT-0600 (Mountain Daylight Time)","452613","1","3","","null","","","","observe","","img/1to3/1.png","null","161","490","0.5","0.5","1","3","",""
"animation","133","171726","0.0-5.0-2.64","611343092396f1d9ed7018ad","bdp_cybrbll","Sun Apr 16 2023 19:32:24 GMT-0600 (Mountain Daylight Time)","452613","1","3","","","","","","","","","","161","","","","1","3","[{""stimulus"":""img/1to3/1.png"",""time"":109},{""stimulus"":""img/1to3/2.png"",""time"":199},{""stimulus"":""img/1to3/3.png"",""time"":297},{""stimulus"":""img/1to3/4.png"",""time"":397},{""stimulus"":""img/1to3/5.png"",""time"":498},{""stimulus"":""img/1to3/6.png"",""time"":595},{""stimulus"":""img/1to3/7.png"",""time"":701},{""stimulus"":""img/1to3/8.png"",""time"":794},{""stimulus"":""img/1to3/9.png"",""time"":893},{""stimulus"":""img/1to3/10.png"",""time"":992},{""stimulus"":""img/1to3/11.png"",""time"":1091},{""stimulus"":""img/1to3/12.png"",""time"":1189}]","[]"
"image-keyboard-response","134","172310","0.0-5.0-1.65","611343092396f1d9ed7018ad","bdp_cybrbll","Sun Apr 16 2023 19:32:24 GMT-0600 (Mountain Daylight Time)","452613","1","3","","null","","","","observe","","img/3to2/1.png","null","160","579","0.5","0.5","3","1","",""
"animation","135","173599","0.0-5.0-2.65","611343092396f1d9ed7018ad","bdp_cybrbll","Sun Apr 16 2023 19:32:24 GMT-0600 (Mountain Daylight Time)","452613","1","3","","","","","","","","","","160","","","","3","1","[{""stimulus"":""img/3to1/1.png"",""time"":111},{""stimulus"":""img/3to1/2.png"",""time"":199},{""stimulus"":""img/3to1/3.png"",""time"":313},{""stimulus"":""img/3to1/4.png"",""time"":407},{""stimulus"":""img/3to1/5.png"",""time"":497},{""stimulus"":""img/3to1/6.png"",""time"":609},{""stimulus"":""img/3to1/7.png"",""time"":702},{""stimulus"":""img/3to1/8.png"",""time"":792},{""stimulus"":""img/3to1/9.png"",""time"":892},{""stimulus"":""img/3to1/10.png"",""time"":991},{""stimulus"":""img/3to1/11.png"",""time"":1091},{""stimulus"":""img/3to1/12.png"",""time"":1189}]","[]"
"image-keyboard-response","136","174220","0.0-5.0-1.66","611343092396f1d9ed7018ad","bdp_cybrbll","Sun Apr 16 2023 19:32:24 GMT-0600 (Mountain Daylight Time)","452613","1","3","","null","","","","observe","","img/1to3/1.png","null","159","612","0.5","0.5","1","3","",""
"animation","137","175509","0.0-5.0-2.66","611343092396f1d9ed7018ad","bdp_cybrbll","Sun Apr 16 2023 19:32:24 GMT-0600 (Mountain Daylight Time)","452613","1","3","","","","","","","","","","159","","","","1","3","[{""stimulus"":""img/1to3/1.png"",""time"":110},{""stimulus"":""img/1to3/2.png"",""time"":200},{""stimulus"":""img/1to3/3.png"",""time"":299},{""stimulus"":""img/1to3/4.png"",""time"":406},{""stimulus"":""img/1to3/5.png"",""time"":497},{""stimulus"":""img/1to3/6.png"",""time"":610},{""stimulus"":""img/1to3/7.png"",""time"":703},{""stimulus"":""img/1to3/8.png"",""time"":797},{""stimulus"":""img/1to3/9.png"",""time"":906},{""stimulus"":""img/1to3/10.png"",""time"":992},{""stimulus"":""img/1to3/11.png"",""time"":1090},{""stimulus"":""img/1to3/12.png"",""time"":1189}]","[]"
"image-keyboard-response","138","175909","0.0-5.0-1.67","611343092396f1d9ed7018ad","bdp_cybrbll","Sun Apr 16 2023 19:32:24 GMT-0600 (Mountain Daylight Time)","452613","1","3","","null","","","","observe","","img/3to2/1.png","null","158","391","0.5","0.5","3","1","",""
"animation","139","177198","0.0-5.0-2.67","611343092396f1d9ed7018ad","bdp_cybrbll","Sun Apr 16 2023 19:32:24 GMT-0600 (Mountain Daylight Time)","452613","1","3","","","","","","","","","","158","","","","3","1","[{""stimulus"":""img/3to1/1.png"",""time"":110},{""stimulus"":""img/3to1/2.png"",""time"":200},{""stimulus"":""img/3to1/3.png"",""time"":298},{""stimulus"":""img/3to1/4.png"",""time"":410},{""stimulus"":""img/3to1/5.png"",""time"":497},{""stimulus"":""img/3to1/6.png"",""time"":598},{""stimulus"":""img/3to1/7.png"",""time"":710},{""stimulus"":""img/3to1/8.png"",""time"":794},{""stimulus"":""img/3to1/9.png"",""time"":893},{""stimulus"":""img/3to1/10.png"",""time"":992},{""stimulus"":""img/3to1/11.png"",""time"":1090},{""stimulus"":""img/3to1/12.png"",""time"":1190}]","[]"
"image-keyboard-response","140","178108","0.0-5.0-1.68","611343092396f1d9ed7018ad","bdp_cybrbll","Sun Apr 16 2023 19:32:24 GMT-0600 (Mountain Daylight Time)","452613","1","3","","null","","","","observe","","img/1to3/1.png","null","157","906","0.5","0.5","1","2","",""
"animation","141","179397","0.0-5.0-2.68","611343092396f1d9ed7018ad","bdp_cybrbll","Sun Apr 16 2023 19:32:24 GMT-0600 (Mountain Daylight Time)","452613","1","3","","","","","","","","","","157","","","","1","2","[{""stimulus"":""img/1to2/1.png"",""time"":110},{""stimulus"":""img/1to2/2.png"",""time"":199},{""stimulus"":""img/1to2/3.png"",""time"":298},{""stimulus"":""img/1to2/4.png"",""time"":398},{""stimulus"":""img/1to2/5.png"",""time"":502},{""stimulus"":""img/1to2/6.png"",""time"":594},{""stimulus"":""img/1to2/7.png"",""time"":694},{""stimulus"":""img/1to2/8.png"",""time"":800},{""stimulus"":""img/1to2/9.png"",""time"":891},{""stimulus"":""img/1to2/10.png"",""time"":991},{""stimulus"":""img/1to2/11.png"",""time"":1090},{""stimulus"":""img/1to2/12.png"",""time"":1190}]","[]"
"image-keyboard-response","142","180196","0.0-5.0-1.69","611343092396f1d9ed7018ad","bdp_cybrbll","Sun Apr 16 2023 19:32:24 GMT-0600 (Mountain Daylight Time)","452613","1","3","","798","","","","choice","","img/2to1/1.png","2","156","495","0.5","0.5","2","3","",""
"animation","143","181485","0.0-5.0-2.69","611343092396f1d9ed7018ad","bdp_cybrbll","Sun Apr 16 2023 19:32:24 GMT-0600 (Mountain Daylight Time)","452613","1","3","","","","","","","","","","156","","","","2","3","[{""stimulus"":""img/2to3/1.png"",""time"":106},{""stimulus"":""img/2to3/2.png"",""time"":199},{""stimulus"":""img/2to3/3.png"",""time"":297},{""stimulus"":""img/2to3/4.png"",""time"":397},{""stimulus"":""img/2to3/5.png"",""time"":496},{""stimulus"":""img/2to3/6.png"",""time"":595},{""stimulus"":""img/2to3/7.png"",""time"":694},{""stimulus"":""img/2to3/8.png"",""time"":808},{""stimulus"":""img/2to3/9.png"",""time"":900},{""stimulus"":""img/2to3/10.png"",""time"":992},{""stimulus"":""img/2to3/11.png"",""time"":1101},{""stimulus"":""img/2to3/12.png"",""time"":1189}]","[]"
"image-keyboard-response","144","181765","0.0-5.0-1.70","611343092396f1d9ed7018ad","bdp_cybrbll","Sun Apr 16 2023 19:32:24 GMT-0600 (Mountain Daylight Time)","452613","1","3","","null","","","","observe","","img/3to2/1.png","null","155","279","0.5","0.5","3","1","",""
"animation","145","183059","0.0-5.0-2.70","611343092396f1d9ed7018ad","bdp_cybrbll","Sun Apr 16 2023 19:32:24 GMT-0600 (Mountain Daylight Time)","452613","1","3","","","","","","","","","","155","","","","3","1","[{""stimulus"":""img/3to1/1.png"",""time"":108},{""stimulus"":""img/3to1/2.png"",""time"":202},{""stimulus"":""img/3to1/3.png"",""time"":312},{""stimulus"":""img/3to1/4.png"",""time"":404},{""stimulus"":""img/3to1/5.png"",""time"":496},{""stimulus"":""img/3to1/6.png"",""time"":607},{""stimulus"":""img/3to1/7.png"",""time"":695},{""stimulus"":""img/3to1/8.png"",""time"":794},{""stimulus"":""img/3to1/9.png"",""time"":904},{""stimulus"":""img/3to1/10.png"",""time"":991},{""stimulus"":""img/3to1/11.png"",""time"":1091},{""stimulus"":""img/3to1/12.png"",""time"":1199}]","[]"
"image-keyboard-response","146","183291","0.0-5.0-1.71","611343092396f1d9ed7018ad","bdp_cybrbll","Sun Apr 16 2023 19:32:24 GMT-0600 (Mountain Daylight Time)","452613","1","3","","null","","","","observe","","img/1to3/1.png","null","154","231","0.5","0.5","1","2","",""
"animation","147","184580","0.0-5.0-2.71","611343092396f1d9ed7018ad","bdp_cybrbll","Sun Apr 16 2023 19:32:24 GMT-0600 (Mountain Daylight Time)","452613","1","3","","","","","","","","","","154","","","","1","2","[{""stimulus"":""img/1to2/1.png"",""time"":109},{""stimulus"":""img/1to2/2.png"",""time"":199},{""stimulus"":""img/1to2/3.png"",""time"":298},{""stimulus"":""img/1to2/4.png"",""time"":397},{""stimulus"":""img/1to2/5.png"",""time"":501},{""stimulus"":""img/1to2/6.png"",""time"":595},{""stimulus"":""img/1to2/7.png"",""time"":705},{""stimulus"":""img/1to2/8.png"",""time"":798},{""stimulus"":""img/1to2/9.png"",""time"":906},{""stimulus"":""img/1to2/10.png"",""time"":991},{""stimulus"":""img/1to2/11.png"",""time"":1090},{""stimulus"":""img/1to2/12.png"",""time"":1190}]","[]"
"image-keyboard-response","148","184686","0.0-5.0-1.72","611343092396f1d9ed7018ad","bdp_cybrbll","Sun Apr 16 2023 19:32:24 GMT-0600 (Mountain Daylight Time)","452613","1","3","","105","","","","choice","","img/2to1/1.png","2","153","1265","0.5","0.5","2","3","",""
"animation","149","185978","0.0-5.0-2.72","611343092396f1d9ed7018ad","bdp_cybrbll","Sun Apr 16 2023 19:32:24 GMT-0600 (Mountain Daylight Time)","452613","1","3","","","","","","","","","","153","","","","2","3","[{""stimulus"":""img/2to3/1.png"",""time"":102},{""stimulus"":""img/2to3/2.png"",""time"":211},{""stimulus"":""img/2to3/3.png"",""time"":303},{""stimulus"":""img/2to3/4.png"",""time"":398},{""stimulus"":""img/2to3/5.png"",""time"":496},{""stimulus"":""img/2to3/6.png"",""time"":596},{""stimulus"":""img/2to3/7.png"",""time"":693},{""stimulus"":""img/2to3/8.png"",""time"":792},{""stimulus"":""img/2to3/9.png"",""time"":892},{""stimulus"":""img/2to3/10.png"",""time"":992},{""stimulus"":""img/2to3/11.png"",""time"":1103},{""stimulus"":""img/2to3/12.png"",""time"":1189}]","[]"
"image-keyboard-response","150","186181","0.0-5.0-1.73","611343092396f1d9ed7018ad","bdp_cybrbll","Sun Apr 16 2023 19:32:24 GMT-0600 (Mountain Daylight Time)","452613","1","3","","null","","","","observe","","img/3to2/1.png","null","152","199","0.5","0.5","3","2","",""
"animation","151","187480","0.0-5.0-2.73","611343092396f1d9ed7018ad","bdp_cybrbll","Sun Apr 16 2023 19:32:24 GMT-0600 (Mountain Daylight Time)","452613","1","3","","","","","","","","","","152","","","","3","2","[{""stimulus"":""img/3to2/1.png"",""time"":111},{""stimulus"":""img/3to2/2.png"",""time"":200},{""stimulus"":""img/3to2/3.png"",""time"":299},{""stimulus"":""img/3to2/4.png"",""time"":407},{""stimulus"":""img/3to2/5.png"",""time"":496},{""stimulus"":""img/3to2/6.png"",""time"":596},{""stimulus"":""img/3to2/7.png"",""time"":695},{""stimulus"":""img/3to2/8.png"",""time"":798},{""stimulus"":""img/3to2/9.png"",""time"":893},{""stimulus"":""img/3to2/10.png"",""time"":992},{""stimulus"":""img/3to2/11.png"",""time"":1091},{""stimulus"":""img/3to2/12.png"",""time"":1189}]","[]"
"image-keyboard-response","152","187956","0.0-5.0-1.74","611343092396f1d9ed7018ad","bdp_cybrbll","Sun Apr 16 2023 19:32:24 GMT-0600 (Mountain Daylight Time)","452613","1","3","","475","","","","choice","","img/2to1/1.png","1","151","366","0.5","0.5","2","1","",""
"animation","153","189244","0.0-5.0-2.74","611343092396f1d9ed7018ad","bdp_cybrbll","Sun Apr 16 2023 19:32:24 GMT-0600 (Mountain Daylight Time)","452613","1","3","","","","","","","","","","151","","","","2","1","[{""stimulus"":""img/2to1/1.png"",""time"":103},{""stimulus"":""img/2to1/2.png"",""time"":212},{""stimulus"":""img/2to1/3.png"",""time"":305},{""stimulus"":""img/2to1/4.png"",""time"":400},{""stimulus"":""img/2to1/5.png"",""time"":497},{""stimulus"":""img/2to1/6.png"",""time"":596},{""stimulus"":""img/2to1/7.png"",""time"":709},{""stimulus"":""img/2to1/8.png"",""time"":794},{""stimulus"":""img/2to1/9.png"",""time"":894},{""stimulus"":""img/2to1/10.png"",""time"":992},{""stimulus"":""img/2to1/11.png"",""time"":1091},{""stimulus"":""img/2to1/12.png"",""time"":1197}]","[]"
"image-keyboard-response","154","189639","0.0-5.0-1.75","611343092396f1d9ed7018ad","bdp_cybrbll","Sun Apr 16 2023 19:32:24 GMT-0600 (Mountain Daylight Time)","452613","1","3","","null","","","","observe","","img/1to3/1.png","null","150","382","0.5","0.5","1","2","",""
"animation","155","190931","0.0-5.0-2.75","611343092396f1d9ed7018ad","bdp_cybrbll","Sun Apr 16 2023 19:32:24 GMT-0600 (Mountain Daylight Time)","452613","1","3","","","","","","","","","","150","","","","1","2","[{""stimulus"":""img/1to2/1.png"",""time"":108},{""stimulus"":""img/1to2/2.png"",""time"":200},{""stimulus"":""img/1to2/3.png"",""time"":312},{""stimulus"":""img/1to2/4.png"",""time"":406},{""stimulus"":""img/1to2/5.png"",""time"":496},{""stimulus"":""img/1to2/6.png"",""time"":610},{""stimulus"":""img/1to2/7.png"",""time"":694},{""stimulus"":""img/1to2/8.png"",""time"":795},{""stimulus"":""img/1to2/9.png"",""time"":906},{""stimulus"":""img/1to2/10.png"",""time"":999},{""stimulus"":""img/1to2/11.png"",""time"":1090},{""stimulus"":""img/1to2/12.png"",""time"":1190}]","[]"
"image-keyboard-response","156","191336","0.0-5.0-1.76","611343092396f1d9ed7018ad","bdp_cybrbll","Sun Apr 16 2023 19:32:24 GMT-0600 (Mountain Daylight Time)","452613","1","3","","404","","","","choice","","img/2to1/1.png","2","149","263","0.5","0.1","2","3","",""
"animation","157","192636","0.0-5.0-2.76","611343092396f1d9ed7018ad","bdp_cybrbll","Sun Apr 16 2023 19:32:24 GMT-0600 (Mountain Daylight Time)","452613","1","3","","","","","","","","","","149","","","","2","3","[{""stimulus"":""img/2to3/1.png"",""time"":100},{""stimulus"":""img/2to3/2.png"",""time"":208},{""stimulus"":""img/2to3/3.png"",""time"":302},{""stimulus"":""img/2to3/4.png"",""time"":398},{""stimulus"":""img/2to3/5.png"",""time"":496},{""stimulus"":""img/2to3/6.png"",""time"":597},{""stimulus"":""img/2to3/7.png"",""time"":695},{""stimulus"":""img/2to3/8.png"",""time"":803},{""stimulus"":""img/2to3/9.png"",""time"":892},{""stimulus"":""img/2to3/10.png"",""time"":992},{""stimulus"":""img/2to3/11.png"",""time"":1091},{""stimulus"":""img/2to3/12.png"",""time"":1191}]","[]"
"image-keyboard-response","158","193827","0.0-5.0-1.77","611343092396f1d9ed7018ad","bdp_cybrbll","Sun Apr 16 2023 19:32:24 GMT-0600 (Mountain Daylight Time)","452613","1","3","","null","","","","observe","","img/3to2/1.png","null","148","1177","0.5","0.1","3","1","",""
"animation","159","195119","0.0-5.0-2.77","611343092396f1d9ed7018ad","bdp_cybrbll","Sun Apr 16 2023 19:32:24 GMT-0600 (Mountain Daylight Time)","452613","1","3","","","","","","","","","","148","","","","3","1","[{""stimulus"":""img/3to1/1.png"",""time"":109},{""stimulus"":""img/3to1/2.png"",""time"":199},{""stimulus"":""img/3to1/3.png"",""time"":311},{""stimulus"":""img/3to1/4.png"",""time"":403},{""stimulus"":""img/3to1/5.png"",""time"":497},{""stimulus"":""img/3to1/6.png"",""time"":605},{""stimulus"":""img/3to1/7.png"",""time"":695},{""stimulus"":""img/3to1/8.png"",""time"":794},{""stimulus"":""img/3to1/9.png"",""time"":892},{""stimulus"":""img/3to1/10.png"",""time"":992},{""stimulus"":""img/3to1/11.png"",""time"":1090},{""stimulus"":""img/3to1/12.png"",""time"":1190}]","[]"
"image-keyboard-response","160","196202","0.0-5.0-1.78","611343092396f1d9ed7018ad","bdp_cybrbll","Sun Apr 16 2023 19:32:24 GMT-0600 (Mountain Daylight Time)","452613","1","3","","null","","","","observe","","img/1to3/1.png","null","147","1076","0.5","0.1","1","3","",""
"animation","161","197491","0.0-5.0-2.78","611343092396f1d9ed7018ad","bdp_cybrbll","Sun Apr 16 2023 19:32:24 GMT-0600 (Mountain Daylight Time)","452613","1","3","","","","","","","","","","147","","","","1","3","[{""stimulus"":""img/1to3/1.png"",""time"":109},{""stimulus"":""img/1to3/2.png"",""time"":199},{""stimulus"":""img/1to3/3.png"",""time"":298},{""stimulus"":""img/1to3/4.png"",""time"":398},{""stimulus"":""img/1to3/5.png"",""time"":497},{""stimulus"":""img/1to3/6.png"",""time"":609},{""stimulus"":""img/1to3/7.png"",""time"":704},{""stimulus"":""img/1to3/8.png"",""time"":793},{""stimulus"":""img/1to3/9.png"",""time"":907},{""stimulus"":""img/1to3/10.png"",""time"":990},{""stimulus"":""img/1to3/11.png"",""time"":1090},{""stimulus"":""img/1to3/12.png"",""time"":1189}]","[]"
"image-keyboard-response","162","198134","0.0-5.0-1.79","611343092396f1d9ed7018ad","bdp_cybrbll","Sun Apr 16 2023 19:32:24 GMT-0600 (Mountain Daylight Time)","452613","1","3","","null","","","","observe","","img/3to2/1.png","null","146","627","0.5","0.1","3","1","",""
"animation","163","199423","0.0-5.0-2.79","611343092396f1d9ed7018ad","bdp_cybrbll","Sun Apr 16 2023 19:32:24 GMT-0600 (Mountain Daylight Time)","452613","1","3","","","","","","","","","","146","","","","3","1","[{""stimulus"":""img/3to1/1.png"",""time"":112},{""stimulus"":""img/3to1/2.png"",""time"":204},{""stimulus"":""img/3to1/3.png"",""time"":298},{""stimulus"":""img/3to1/4.png"",""time"":405},{""stimulus"":""img/3to1/5.png"",""time"":499},{""stimulus"":""img/3to1/6.png"",""time"":608},{""stimulus"":""img/3to1/7.png"",""time"":694},{""stimulus"":""img/3to1/8.png"",""time"":797},{""stimulus"":""img/3to1/9.png"",""time"":892},{""stimulus"":""img/3to1/10.png"",""time"":1002},{""stimulus"":""img/3to1/11.png"",""time"":1090},{""stimulus"":""img/3to1/12.png"",""time"":1189}]","[]"
"image-keyboard-response","164","200141","0.0-5.0-1.80","611343092396f1d9ed7018ad","bdp_cybrbll","Sun Apr 16 2023 19:32:24 GMT-0600 (Mountain Daylight Time)","452613","1","3","","null","","","","observe","","img/1to3/1.png","null","145","707","0.5","0.1","1","3","",""
"animation","165","201436","0.0-5.0-2.80","611343092396f1d9ed7018ad","bdp_cybrbll","Sun Apr 16 2023 19:32:24 GMT-0600 (Mountain Daylight Time)","452613","1","3","","","","","","","","","","145","","","","1","3","[{""stimulus"":""img/1to3/1.png"",""time"":110},{""stimulus"":""img/1to3/2.png"",""time"":200},{""stimulus"":""img/1to3/3.png"",""time"":299},{""stimulus"":""img/1to3/4.png"",""time"":398},{""stimulus"":""img/1to3/5.png"",""time"":502},{""stimulus"":""img/1to3/6.png"",""time"":596},{""stimulus"":""img/1to3/7.png"",""time"":706},{""stimulus"":""img/1to3/8.png"",""time"":798},{""stimulus"":""img/1to3/9.png"",""time"":907},{""stimulus"":""img/1to3/10.png"",""time"":1000},{""stimulus"":""img/1to3/11.png"",""time"":1090},{""stimulus"":""img/1to3/12.png"",""time"":1190}]","[]"
"image-keyboard-response","166","202015","0.0-5.0-1.81","611343092396f1d9ed7018ad","bdp_cybrbll","Sun Apr 16 2023 19:32:24 GMT-0600 (Mountain Daylight Time)","452613","1","3","","null","","","","observe","","img/3to2/1.png","null","144","569","0.5","0.1","3","1","",""
"animation","167","203304","0.0-5.0-2.81","611343092396f1d9ed7018ad","bdp_cybrbll","Sun Apr 16 2023 19:32:24 GMT-0600 (Mountain Daylight Time)","452613","1","3","","","","","","","","","","144","","","","3","1","[{""stimulus"":""img/3to1/1.png"",""time"":110},{""stimulus"":""img/3to1/2.png"",""time"":198},{""stimulus"":""img/3to1/3.png"",""time"":299},{""stimulus"":""img/3to1/4.png"",""time"":408},{""stimulus"":""img/3to1/5.png"",""time"":496},{""stimulus"":""img/3to1/6.png"",""time"":594},{""stimulus"":""img/3to1/7.png"",""time"":693},{""stimulus"":""img/3to1/8.png"",""time"":793},{""stimulus"":""img/3to1/9.png"",""time"":904},{""stimulus"":""img/3to1/10.png"",""time"":990},{""stimulus"":""img/3to1/11.png"",""time"":1090},{""stimulus"":""img/3to1/12.png"",""time"":1189}]","[]"
"image-keyboard-response","168","204236","0.0-5.0-1.82","611343092396f1d9ed7018ad","bdp_cybrbll","Sun Apr 16 2023 19:32:24 GMT-0600 (Mountain Daylight Time)","452613","1","3","","null","","","","observe","","img/1to3/1.png","null","143","921","0.5","0.1","1","2","",""
"animation","169","205525","0.0-5.0-2.82","611343092396f1d9ed7018ad","bdp_cybrbll","Sun Apr 16 2023 19:32:24 GMT-0600 (Mountain Daylight Time)","452613","1","3","","","","","","","","","","143","","","","1","2","[{""stimulus"":""img/1to2/1.png"",""time"":110},{""stimulus"":""img/1to2/2.png"",""time"":200},{""stimulus"":""img/1to2/3.png"",""time"":299},{""stimulus"":""img/1to2/4.png"",""time"":410},{""stimulus"":""img/1to2/5.png"",""time"":497},{""stimulus"":""img/1to2/6.png"",""time"":601},{""stimulus"":""img/1to2/7.png"",""time"":695},{""stimulus"":""img/1to2/8.png"",""time"":793},{""stimulus"":""img/1to2/9.png"",""time"":893},{""stimulus"":""img/1to2/10.png"",""time"":992},{""stimulus"":""img/1to2/11.png"",""time"":1091},{""stimulus"":""img/1to2/12.png"",""time"":1190}]","[]"
"image-keyboard-response","170","206098","0.0-5.0-1.83","611343092396f1d9ed7018ad","bdp_cybrbll","Sun Apr 16 2023 19:32:24 GMT-0600 (Mountain Daylight Time)","452613","1","3","","572","","","","choice","","img/2to1/1.png","1","142","584","0.5","0.1","2","1","",""
"animation","171","207385","0.0-5.0-2.83","611343092396f1d9ed7018ad","bdp_cybrbll","Sun Apr 16 2023 19:32:24 GMT-0600 (Mountain Daylight Time)","452613","1","3","","","","","","","","","","142","","","","2","1","[{""stimulus"":""img/2to1/1.png"",""time"":106},{""stimulus"":""img/2to1/2.png"",""time"":201},{""stimulus"":""img/2to1/3.png"",""time"":312},{""stimulus"":""img/2to1/4.png"",""time"":396},{""stimulus"":""img/2to1/5.png"",""time"":496},{""stimulus"":""img/2to1/6.png"",""time"":608},{""stimulus"":""img/2to1/7.png"",""time"":700},{""stimulus"":""img/2to1/8.png"",""time"":794},{""stimulus"":""img/2to1/9.png"",""time"":904},{""stimulus"":""img/2to1/10.png"",""time"":991},{""stimulus"":""img/2to1/11.png"",""time"":1091},{""stimulus"":""img/2to1/12.png"",""time"":1199}]","[]"
"image-keyboard-response","172","207939","0.0-5.0-1.84","611343092396f1d9ed7018ad","bdp_cybrbll","Sun Apr 16 2023 19:32:24 GMT-0600 (Mountain Daylight Time)","452613","1","3","","null","","","","observe","","img/1to3/1.png","null","141","544","0.5","0.1","1","3","",""
"animation","173","209232","0.0-5.0-2.84","611343092396f1d9ed7018ad","bdp_cybrbll","Sun Apr 16 2023 19:32:24 GMT-0600 (Mountain Daylight Time)","452613","1","3","","","","","","","","","","141","","","","1","3","[{""stimulus"":""img/1to3/1.png"",""time"":110},{""stimulus"":""img/1to3/2.png"",""time"":199},{""stimulus"":""img/1to3/3.png"",""time"":298},{""stimulus"":""img/1to3/4.png"",""time"":397},{""stimulus"":""img/1to3/5.png"",""time"":500},{""stimulus"":""img/1to3/6.png"",""time"":595},{""stimulus"":""img/1to3/7.png"",""time"":703},{""stimulus"":""img/1to3/8.png"",""time"":793},{""stimulus"":""img/1to3/9.png"",""time"":892},{""stimulus"":""img/1to3/10.png"",""time"":996},{""stimulus"":""img/1to3/11.png"",""time"":1090},{""stimulus"":""img/1to3/12.png"",""time"":1189}]","[]"
"image-keyboard-response","174","210156","0.0-5.0-1.85","611343092396f1d9ed7018ad","bdp_cybrbll","Sun Apr 16 2023 19:32:24 GMT-0600 (Mountain Daylight Time)","452613","1","3","","null","","","","observe","","img/3to2/1.png","null","140","921","0.5","0.1","3","1","",""
"animation","175","211444","0.0-5.0-2.85","611343092396f1d9ed7018ad","bdp_cybrbll","Sun Apr 16 2023 19:32:24 GMT-0600 (Mountain Daylight Time)","452613","1","3","","","","","","","","","","140","","","","3","1","[{""stimulus"":""img/3to1/1.png"",""time"":111},{""stimulus"":""img/3to1/2.png"",""time"":199},{""stimulus"":""img/3to1/3.png"",""time"":298},{""stimulus"":""img/3to1/4.png"",""time"":408},{""stimulus"":""img/3to1/5.png"",""time"":501},{""stimulus"":""img/3to1/6.png"",""time"":595},{""stimulus"":""img/3to1/7.png"",""time"":694},{""stimulus"":""img/3to1/8.png"",""time"":795},{""stimulus"":""img/3to1/9.png"",""time"":893},{""stimulus"":""img/3to1/10.png"",""time"":992},{""stimulus"":""img/3to1/11.png"",""time"":1090},{""stimulus"":""img/3to1/12.png"",""time"":1190}]","[]"
"image-keyboard-response","176","211938","0.0-5.0-1.86","611343092396f1d9ed7018ad","bdp_cybrbll","Sun Apr 16 2023 19:32:24 GMT-0600 (Mountain Daylight Time)","452613","1","3","","null","","","","observe","","img/1to3/1.png","null","139","490","0.5","0.1","1","2","",""
"animation","177","213232","0.0-5.0-2.86","611343092396f1d9ed7018ad","bdp_cybrbll","Sun Apr 16 2023 19:32:24 GMT-0600 (Mountain Daylight Time)","452613","1","3","","","","","","","","","","139","","","","1","2","[{""stimulus"":""img/1to2/1.png"",""time"":109},{""stimulus"":""img/1to2/2.png"",""time"":200},{""stimulus"":""img/1to2/3.png"",""time"":312},{""stimulus"":""img/1to2/4.png"",""time"":406},{""stimulus"":""img/1to2/5.png"",""time"":497},{""stimulus"":""img/1to2/6.png"",""time"":609},{""stimulus"":""img/1to2/7.png"",""time"":703},{""stimulus"":""img/1to2/8.png"",""time"":793},{""stimulus"":""img/1to2/9.png"",""time"":893},{""stimulus"":""img/1to2/10.png"",""time"":998},{""stimulus"":""img/1to2/11.png"",""time"":1106},{""stimulus"":""img/1to2/12.png"",""time"":1189}]","[]"
"image-keyboard-response","178","213718","0.0-5.0-1.87","611343092396f1d9ed7018ad","bdp_cybrbll","Sun Apr 16 2023 19:32:24 GMT-0600 (Mountain Daylight Time)","452613","1","3","","485","","","","choice","","img/2to1/1.png","2","138","167","0.5","0.1","2","3","",""
"animation","179","215005","0.0-5.0-2.87","611343092396f1d9ed7018ad","bdp_cybrbll","Sun Apr 16 2023 19:32:24 GMT-0600 (Mountain Daylight Time)","452613","1","3","","","","","","","","","","138","","","","2","3","[{""stimulus"":""img/2to3/1.png"",""time"":107},{""stimulus"":""img/2to3/2.png"",""time"":202},{""stimulus"":""img/2to3/3.png"",""time"":298},{""stimulus"":""img/2to3/4.png"",""time"":397},{""stimulus"":""img/2to3/5.png"",""time"":499},{""stimulus"":""img/2to3/6.png"",""time"":608},{""stimulus"":""img/2to3/7.png"",""time"":694},{""stimulus"":""img/2to3/8.png"",""time"":798},{""stimulus"":""img/2to3/9.png"",""time"":893},{""stimulus"":""img/2to3/10.png"",""time"":1002},{""stimulus"":""img/2to3/11.png"",""time"":1089},{""stimulus"":""img/2to3/12.png"",""time"":1192}]","[]"
"image-keyboard-response","180","215335","0.0-5.0-1.88","611343092396f1d9ed7018ad","bdp_cybrbll","Sun Apr 16 2023 19:32:24 GMT-0600 (Mountain Daylight Time)","452613","1","3","","null","","","","observe","","img/3to2/1.png","null","137","321","0.5","0.1","3","2","",""
"animation","181","216623","0.0-5.0-2.88","611343092396f1d9ed7018ad","bdp_cybrbll","Sun Apr 16 2023 19:32:24 GMT-0600 (Mountain Daylight Time)","452613","1","3","","","","","","","","","","137","","","","3","2","[{""stimulus"":""img/3to2/1.png"",""time"":112},{""stimulus"":""img/3to2/2.png"",""time"":199},{""stimulus"":""img/3to2/3.png"",""time"":299},{""stimulus"":""img/3to2/4.png"",""time"":409},{""stimulus"":""img/3to2/5.png"",""time"":497},{""stimulus"":""img/3to2/6.png"",""time"":610},{""stimulus"":""img/3to2/7.png"",""time"":694},{""stimulus"":""img/3to2/8.png"",""time"":793},{""stimulus"":""img/3to2/9.png"",""time"":906},{""stimulus"":""img/3to2/10.png"",""time"":991},{""stimulus"":""img/3to2/11.png"",""time"":1090},{""stimulus"":""img/3to2/12.png"",""time"":1189}]","[]"
"image-keyboard-response","182","216748","0.0-5.0-1.89","611343092396f1d9ed7018ad","bdp_cybrbll","Sun Apr 16 2023 19:32:24 GMT-0600 (Mountain Daylight Time)","452613","1","3","","124","","","","choice","","img/2to1/1.png","2","136","1066","0.5","0.1","2","3","",""
"animation","183","218037","0.0-5.0-2.89","611343092396f1d9ed7018ad","bdp_cybrbll","Sun Apr 16 2023 19:32:24 GMT-0600 (Mountain Daylight Time)","452613","1","3","","","","","","","","","","136","","","","2","3","[{""stimulus"":""img/2to3/1.png"",""time"":104},{""stimulus"":""img/2to3/2.png"",""time"":200},{""stimulus"":""img/2to3/3.png"",""time"":307},{""stimulus"":""img/2to3/4.png"",""time"":402},{""stimulus"":""img/2to3/5.png"",""time"":497},{""stimulus"":""img/2to3/6.png"",""time"":596},{""stimulus"":""img/2to3/7.png"",""time"":694},{""stimulus"":""img/2to3/8.png"",""time"":793},{""stimulus"":""img/2to3/9.png"",""time"":893},{""stimulus"":""img/2to3/10.png"",""time"":991},{""stimulus"":""img/2to3/11.png"",""time"":1090},{""stimulus"":""img/2to3/12.png"",""time"":1201}]","[]"
"image-keyboard-response","184","218515","0.0-5.0-1.90","611343092396f1d9ed7018ad","bdp_cybrbll","Sun Apr 16 2023 19:32:24 GMT-0600 (Mountain Daylight Time)","452613","1","3","","null","","","","observe","","img/3to2/1.png","null","135","463","0.5","0.1","3","1","",""
"animation","185","219804","0.0-5.0-2.90","611343092396f1d9ed7018ad","bdp_cybrbll","Sun Apr 16 2023 19:32:24 GMT-0600 (Mountain Daylight Time)","452613","1","3","","","","","","","","","","135","","","","3","1","[{""stimulus"":""img/3to1/1.png"",""time"":111},{""stimulus"":""img/3to1/2.png"",""time"":204},{""stimulus"":""img/3to1/3.png"",""time"":298},{""stimulus"":""img/3to1/4.png"",""time"":406},{""stimulus"":""img/3to1/5.png"",""time"":496},{""stimulus"":""img/3to1/6.png"",""time"":595},{""stimulus"":""img/3to1/7.png"",""time"":705},{""stimulus"":""img/3to1/8.png"",""time"":793},{""stimulus"":""img/3to1/9.png"",""time"":892},{""stimulus"":""img/3to1/10.png"",""time"":1005},{""stimulus"":""img/3to1/11.png"",""time"":1091},{""stimulus"":""img/3to1/12.png"",""time"":1190}]","[]"
"image-keyboard-response","186","220393","0.0-5.0-1.91","611343092396f1d9ed7018ad","bdp_cybrbll","Sun Apr 16 2023 19:32:24 GMT-0600 (Mountain Daylight Time)","452613","1","3","","null","","","","observe","","img/1to3/1.png","null","134","581","0.5","0.1","1","2","",""
"animation","187","221682","0.0-5.0-2.91","611343092396f1d9ed7018ad","bdp_cybrbll","Sun Apr 16 2023 19:32:24 GMT-0600 (Mountain Daylight Time)","452613","1","3","","","","","","","","","","134","","","","1","2","[{""stimulus"":""img/1to2/1.png"",""time"":109},{""stimulus"":""img/1to2/2.png"",""time"":200},{""stimulus"":""img/1to2/3.png"",""time"":310},{""stimulus"":""img/1to2/4.png"",""time"":404},{""stimulus"":""img/1to2/5.png"",""time"":496},{""stimulus"":""img/1to2/6.png"",""time"":605},{""stimulus"":""img/1to2/7.png"",""time"":694},{""stimulus"":""img/1to2/8.png"",""time"":794},{""stimulus"":""img/1to2/9.png"",""time"":903},{""stimulus"":""img/1to2/10.png"",""time"":991},{""stimulus"":""img/1to2/11.png"",""time"":1091},{""stimulus"":""img/1to2/12.png"",""time"":1189}]","[]"
"image-keyboard-response","188","221688","0.0-5.0-1.92","611343092396f1d9ed7018ad","bdp_cybrbll","Sun Apr 16 2023 19:32:24 GMT-0600 (Mountain Daylight Time)","452613","1","3","","6","","","","choice","","img/2to1/1.png","1","133","339","0.5","0.1","2","1","",""
"animation","189","222976","0.0-5.0-2.92","611343092396f1d9ed7018ad","bdp_cybrbll","Sun Apr 16 2023 19:32:24 GMT-0600 (Mountain Daylight Time)","452613","1","3","","","","","","","","","","133","","","","2","1","[{""stimulus"":""img/2to1/1.png"",""time"":109},{""stimulus"":""img/2to1/2.png"",""time"":201},{""stimulus"":""img/2to1/3.png"",""time"":311},{""stimulus"":""img/2to1/4.png"",""time"":398},{""stimulus"":""img/2to1/5.png"",""time"":499},{""stimulus"":""img/2to1/6.png"",""time"":595},{""stimulus"":""img/2to1/7.png"",""time"":694},{""stimulus"":""img/2to1/8.png"",""time"":798},{""stimulus"":""img/2to1/9.png"",""time"":907},{""stimulus"":""img/2to1/10.png"",""time"":1002},{""stimulus"":""img/2to1/11.png"",""time"":1097},{""stimulus"":""img/2to1/12.png"",""time"":1190}]","[]"
"image-keyboard-response","190","223150","0.0-5.0-1.93","611343092396f1d9ed7018ad","bdp_cybrbll","Sun Apr 16 2023 19:32:24 GMT-0600 (Mountain Daylight Time)","452613","1","3","","null","","","","observe","","img/1to3/1.png","null","132","158","0.5","0.1","1","3","",""
