"trial_type","trial_index","time_elapsed","internal_node_id","subject_id","task","startTime","totalTime","fairPartner","unfairPartner","view_history","rt","event","trial","time","trialtype","success","stimulus","key_press","throwsLeft","rtDur","pFair","pUnfair","holder","receiver","animation_sequence","responses","numBlurs"
"pavlovia","0","2","0.0-0.0","63bef4ddef5b4d7295effbbd","bdp_cybrbll","Tue Mar 28 2023 14:05:50 GMT-0500 (Central Daylight Time)","450690","3","1","","","","","","","","","","","","","","","","","",""
"instructions","1","3705","0.0-1.0","63bef4ddef5b4d7295effbbd","bdp_cybrbll","Tue Mar 28 2023 14:05:50 GMT-0500 (Central Daylight Time)","450690","3","1","[{""page_index"":0,""viewing_time"":3703}]","3703","","","","","","","","","","","","","","","",""
"","","","","63bef4ddef5b4d7295effbbd","bdp_cybrbll","Tue Mar 28 2023 14:05:50 GMT-0500 (Central Daylight Time)","450690","3","1","","","fullscreenenter","2","5467","fullscreenenter","","","","","","","","","","","",""
"fullscreen","2","6457","0.0-2.0","63bef4ddef5b4d7295effbbd","bdp_cybrbll","Tue Mar 28 2023 14:05:50 GMT-0500 (Central Daylight Time)","450690","3","1","","","","","","","true","","","","","","","","","","",""
"instructions","3","27523","0.0-4.0","63bef4ddef5b4d7295effbbd","bdp_cybrbll","Tue Mar 28 2023 14:05:50 GMT-0500 (Central Daylight Time)","450690","3","1","[{""page_index"":0,""viewing_time"":21064}]","21064","","","","","","","","","","","","","","","",""
"image-keyboard-response","4","29432","0.0-5.0-1.0","63bef4ddef5b4d7295effbbd","bdp_cybrbll","Tue Mar 28 2023 14:05:50 GMT-0500 (Central Daylight Time)","450690","3","1","","1908","","","","choice","","img/2to1/1.png","1","225","341","0.5","0.5","2","1","","",""
"animation","5","30735","0.0-5.0-2.0","63bef4ddef5b4d7295effbbd","bdp_cybrbll","Tue Mar 28 2023 14:05:50 GMT-0500 (Central Daylight Time)","450690","3","1","","","","","","","","","","225","","","","2","1","[{""stimulus"":""img/2to1/1.png"",""time"":107},{""stimulus"":""img/2to1/2.png"",""time"":201},{""stimulus"":""img/2to1/3.png"",""time"":310},{""stimulus"":""img/2to1/4.png"",""time"":397},{""stimulus"":""img/2to1/5.png"",""time"":496},{""stimulus"":""img/2to1/6.png"",""time"":596},{""stimulus"":""img/2to1/7.png"",""time"":699},{""stimulus"":""img/2to1/8.png"",""time"":793},{""stimulus"":""img/2to1/9.png"",""time"":892},{""stimulus"":""img/2to1/10.png"",""time"":991},{""stimulus"":""img/2to1/11.png"",""time"":1102},{""stimulus"":""img/2to1/12.png"",""time"":1189}]","[]",""
"image-keyboard-response","6","31276","0.0-5.0-1.1","63bef4ddef5b4d7295effbbd","bdp_cybrbll","Tue Mar 28 2023 14:05:50 GMT-0500 (Central Daylight Time)","450690","3","1","","null","","","","observe","","img/1to3/1.png","null","224","530","0.5","0.5","1","2","","",""
"animation","7","32566","0.0-5.0-2.1","63bef4ddef5b4d7295effbbd","bdp_cybrbll","Tue Mar 28 2023 14:05:50 GMT-0500 (Central Daylight Time)","450690","3","1","","","","","","","","","","224","","","","1","2","[{""stimulus"":""img/1to2/1.png"",""time"":107},{""stimulus"":""img/1to2/2.png"",""time"":199},{""stimulus"":""img/1to2/3.png"",""time"":310},{""stimulus"":""img/1to2/4.png"",""time"":404},{""stimulus"":""img/1to2/5.png"",""time"":497},{""stimulus"":""img/1to2/6.png"",""time"":596},{""stimulus"":""img/1to2/7.png"",""time"":694},{""stimulus"":""img/1to2/8.png"",""time"":793},{""stimulus"":""img/1to2/9.png"",""time"":902},{""stimulus"":""img/1to2/10.png"",""time"":996},{""stimulus"":""img/1to2/11.png"",""time"":1091},{""stimulus"":""img/1to2/12.png"",""time"":1190}]","[]",""
"image-keyboard-response","8","32801","0.0-5.0-1.2","63bef4ddef5b4d7295effbbd","bdp_cybrbll","Tue Mar 28 2023 14:05:50 GMT-0500 (Central Daylight Time)","450690","3","1","","233","","","","choice","","img/2to1/1.png","2","223","596","0.5","0.5","2","3","","",""
"animation","9","34089","0.0-5.0-2.2","63bef4ddef5b4d7295effbbd","bdp_cybrbll","Tue Mar 28 2023 14:05:50 GMT-0500 (Central Daylight Time)","450690","3","1","","","","","","","","","","223","","","","2","3","[{""stimulus"":""img/2to3/1.png"",""time"":100},{""stimulus"":""img/2to3/2.png"",""time"":205},{""stimulus"":""img/2to3/3.png"",""time"":313},{""stimulus"":""img/2to3/4.png"",""time"":407},{""stimulus"":""img/2to3/5.png"",""time"":496},{""stimulus"":""img/2to3/6.png"",""time"":609},{""stimulus"":""img/2to3/7.png"",""time"":702},{""stimulus"":""img/2to3/8.png"",""time"":796},{""stimulus"":""img/2to3/9.png"",""time"":892},{""stimulus"":""img/2to3/10.png"",""time"":991},{""stimulus"":""img/2to3/11.png"",""time"":1090},{""stimulus"":""img/2to3/12.png"",""time"":1189}]","[]",""
"image-keyboard-response","10","35089","0.0-5.0-1.3","63bef4ddef5b4d7295effbbd","bdp_cybrbll","Tue Mar 28 2023 14:05:50 GMT-0500 (Central Daylight Time)","450690","3","1","","null","","","","observe","","img/3to2/1.png","null","222","986","0.5","0.5","3","2","","",""
"animation","11","36378","0.0-5.0-2.3","63bef4ddef5b4d7295effbbd","bdp_cybrbll","Tue Mar 28 2023 14:05:50 GMT-0500 (Central Daylight Time)","450690","3","1","","","","","","","","","","222","","","","3","2","[{""stimulus"":""img/3to2/1.png"",""time"":108},{""stimulus"":""img/3to2/2.png"",""time"":199},{""stimulus"":""img/3to2/3.png"",""time"":298},{""stimulus"":""img/3to2/4.png"",""time"":397},{""stimulus"":""img/3to2/5.png"",""time"":497},{""stimulus"":""img/3to2/6.png"",""time"":605},{""stimulus"":""img/3to2/7.png"",""time"":694},{""stimulus"":""img/3to2/8.png"",""time"":807},{""stimulus"":""img/3to2/9.png"",""time"":892},{""stimulus"":""img/3to2/10.png"",""time"":995},{""stimulus"":""img/3to2/11.png"",""time"":1104},{""stimulus"":""img/3to2/12.png"",""time"":1189}]","[]",""
"image-keyboard-response","12","36841","0.0-5.0-1.4","63bef4ddef5b4d7295effbbd","bdp_cybrbll","Tue Mar 28 2023 14:05:50 GMT-0500 (Central Daylight Time)","450690","3","1","","462","","","","choice","","img/2to1/1.png","1","221","339","0.5","0.5","2","1","","",""
"animation","13","38128","0.0-5.0-2.4","63bef4ddef5b4d7295effbbd","bdp_cybrbll","Tue Mar 28 2023 14:05:50 GMT-0500 (Central Daylight Time)","450690","3","1","","","","","","","","","","221","","","","2","1","[{""stimulus"":""img/2to1/1.png"",""time"":113},{""stimulus"":""img/2to1/2.png"",""time"":206},{""stimulus"":""img/2to1/3.png"",""time"":299},{""stimulus"":""img/2to1/4.png"",""time"":397},{""stimulus"":""img/2to1/5.png"",""time"":497},{""stimulus"":""img/2to1/6.png"",""time"":595},{""stimulus"":""img/2to1/7.png"",""time"":706},{""stimulus"":""img/2to1/8.png"",""time"":799},{""stimulus"":""img/2to1/9.png"",""time"":908},{""stimulus"":""img/2to1/10.png"",""time"":992},{""stimulus"":""img/2to1/11.png"",""time"":1093},{""stimulus"":""img/2to1/12.png"",""time"":1189}]","[]",""
"image-keyboard-response","14","38384","0.0-5.0-1.5","63bef4ddef5b4d7295effbbd","bdp_cybrbll","Tue Mar 28 2023 14:05:50 GMT-0500 (Central Daylight Time)","450690","3","1","","null","","","","observe","","img/1to3/1.png","null","220","254","0.5","0.5","1","3","","",""
"animation","15","39686","0.0-5.0-2.5","63bef4ddef5b4d7295effbbd","bdp_cybrbll","Tue Mar 28 2023 14:05:50 GMT-0500 (Central Daylight Time)","450690","3","1","","","","","","","","","","220","","","","1","3","[{""stimulus"":""img/1to3/1.png"",""time"":109},{""stimulus"":""img/1to3/2.png"",""time"":199},{""stimulus"":""img/1to3/3.png"",""time"":311},{""stimulus"":""img/1to3/4.png"",""time"":397},{""stimulus"":""img/1to3/5.png"",""time"":497},{""stimulus"":""img/1to3/6.png"",""time"":604},{""stimulus"":""img/1to3/7.png"",""time"":697},{""stimulus"":""img/1to3/8.png"",""time"":794},{""stimulus"":""img/1to3/9.png"",""time"":899},{""stimulus"":""img/1to3/10.png"",""time"":991},{""stimulus"":""img/1to3/11.png"",""time"":1090},{""stimulus"":""img/1to3/12.png"",""time"":1195}]","[]",""
"image-keyboard-response","16","39902","0.0-5.0-1.6","63bef4ddef5b4d7295effbbd","bdp_cybrbll","Tue Mar 28 2023 14:05:50 GMT-0500 (Central Daylight Time)","450690","3","1","","null","","","","observe","","img/3to2/1.png","null","219","215","0.5","0.5","3","1","","",""
"animation","17","41194","0.0-5.0-2.6","63bef4ddef5b4d7295effbbd","bdp_cybrbll","Tue Mar 28 2023 14:05:50 GMT-0500 (Central Daylight Time)","450690","3","1","","","","","","","","","","219","","","","3","1","[{""stimulus"":""img/3to1/1.png"",""time"":109},{""stimulus"":""img/3to1/2.png"",""time"":199},{""stimulus"":""img/3to1/3.png"",""time"":311},{""stimulus"":""img/3to1/4.png"",""time"":397},{""stimulus"":""img/3to1/5.png"",""time"":497},{""stimulus"":""img/3to1/6.png"",""time"":607},{""stimulus"":""img/3to1/7.png"",""time"":701},{""stimulus"":""img/3to1/8.png"",""time"":796},{""stimulus"":""img/3to1/9.png"",""time"":892},{""stimulus"":""img/3to1/10.png"",""time"":993},{""stimulus"":""img/3to1/11.png"",""time"":1090},{""stimulus"":""img/3to1/12.png"",""time"":1198}]","[]",""
"image-keyboard-response","18","41487","0.0-5.0-1.7","63bef4ddef5b4d7295effbbd","bdp_cybrbll","Tue Mar 28 2023 14:05:50 GMT-0500 (Central Daylight Time)","450690","3","1","","null","","","","observe","","img/1to3/1.png","null","218","290","0.5","0.5","1","3","","",""
"animation","19","42787","0.0-5.0-2.7","63bef4ddef5b4d7295effbbd","bdp_cybrbll","Tue Mar 28 2023 14:05:50 GMT-0500 (Central Daylight Time)","450690","3","1","","","","","","","","","","218","","","","1","3","[{""stimulus"":""img/1to3/1.png"",""time"":108},{""stimulus"":""img/1to3/2.png"",""time"":200},{""stimulus"":""img/1to3/3.png"",""time"":298},{""stimulus"":""img/1to3/4.png"",""time"":398},{""stimulus"":""img/1to3/5.png"",""time"":496},{""stimulus"":""img/1to3/6.png"",""time"":601},{""stimulus"":""img/1to3/7.png"",""time"":709},{""stimulus"":""img/1to3/8.png"",""time"":793},{""stimulus"":""img/1to3/9.png"",""time"":897},{""stimulus"":""img/1to3/10.png"",""time"":1005},{""stimulus"":""img/1to3/11.png"",""time"":1098},{""stimulus"":""img/1to3/12.png"",""time"":1192}]","[]",""
"image-keyboard-response","20","43246","0.0-5.0-1.8","63bef4ddef5b4d7295effbbd","bdp_cybrbll","Tue Mar 28 2023 14:05:50 GMT-0500 (Central Daylight Time)","450690","3","1","","null","","","","observe","","img/3to2/1.png","null","217","458","0.5","0.5","3","1","","",""
"animation","21","44534","0.0-5.0-2.8","63bef4ddef5b4d7295effbbd","bdp_cybrbll","Tue Mar 28 2023 14:05:50 GMT-0500 (Central Daylight Time)","450690","3","1","","","","","","","","","","217","","","","3","1","[{""stimulus"":""img/3to1/1.png"",""time"":101},{""stimulus"":""img/3to1/2.png"",""time"":209},{""stimulus"":""img/3to1/3.png"",""time"":303},{""stimulus"":""img/3to1/4.png"",""time"":397},{""stimulus"":""img/3to1/5.png"",""time"":496},{""stimulus"":""img/3to1/6.png"",""time"":598},{""stimulus"":""img/3to1/7.png"",""time"":708},{""stimulus"":""img/3to1/8.png"",""time"":801},{""stimulus"":""img/3to1/9.png"",""time"":895},{""stimulus"":""img/3to1/10.png"",""time"":992},{""stimulus"":""img/3to1/11.png"",""time"":1099},{""stimulus"":""img/3to1/12.png"",""time"":1190}]","[]",""
"image-keyboard-response","22","44984","0.0-5.0-1.9","63bef4ddef5b4d7295effbbd","bdp_cybrbll","Tue Mar 28 2023 14:05:50 GMT-0500 (Central Daylight Time)","450690","3","1","","null","","","","observe","","img/1to3/1.png","null","216","435","0.5","0.5","1","3","","",""
"animation","23","46272","0.0-5.0-2.9","63bef4ddef5b4d7295effbbd","bdp_cybrbll","Tue Mar 28 2023 14:05:50 GMT-0500 (Central Daylight Time)","450690","3","1","","","","","","","","","","216","","","","1","3","[{""stimulus"":""img/1to3/1.png"",""time"":106},{""stimulus"":""img/1to3/2.png"",""time"":199},{""stimulus"":""img/1to3/3.png"",""time"":306},{""stimulus"":""img/1to3/4.png"",""time"":398},{""stimulus"":""img/1to3/5.png"",""time"":496},{""stimulus"":""img/1to3/6.png"",""time"":595},{""stimulus"":""img/1to3/7.png"",""time"":698},{""stimulus"":""img/1to3/8.png"",""time"":806},{""stimulus"":""img/1to3/9.png"",""time"":892},{""stimulus"":""img/1to3/10.png"",""time"":993},{""stimulus"":""img/1to3/11.png"",""time"":1091},{""stimulus"":""img/1to3/12.png"",""time"":1195}]","[]",""
"image-keyboard-response","24","46555","0.0-5.0-1.10","63bef4ddef5b4d7295effbbd","bdp_cybrbll","Tue Mar 28 2023 14:05:50 GMT-0500 (Central Daylight Time)","450690","3","1","","null","","","","observe","","img/3to2/1.png","null","215","274","0.5","0.5","3","1","","",""
"animation","25","47843","0.0-5.0-2.10","63bef4ddef5b4d7295effbbd","bdp_cybrbll","Tue Mar 28 2023 14:05:50 GMT-0500 (Central Daylight Time)","450690","3","1","","","","","","","","","","215","","","","3","1","[{""stimulus"":""img/3to1/1.png"",""time"":109},{""stimulus"":""img/3to1/2.png"",""time"":199},{""stimulus"":""img/3to1/3.png"",""time"":298},{""stimulus"":""img/3to1/4.png"",""time"":397},{""stimulus"":""img/3to1/5.png"",""time"":511},{""stimulus"":""img/3to1/6.png"",""time"":605},{""stimulus"":""img/3to1/7.png"",""time"":699},{""stimulus"":""img/3to1/8.png"",""time"":807},{""stimulus"":""img/3to1/9.png"",""time"":892},{""stimulus"":""img/3to1/10.png"",""time"":991},{""stimulus"":""img/3to1/11.png"",""time"":1103},{""stimulus"":""img/3to1/12.png"",""time"":1194}]","[]",""
"image-keyboard-response","26","48584","0.0-5.0-1.11","63bef4ddef5b4d7295effbbd","bdp_cybrbll","Tue Mar 28 2023 14:05:50 GMT-0500 (Central Daylight Time)","450690","3","1","","null","","","","observe","","img/1to3/1.png","null","214","739","0.5","0.5","1","3","","",""
"animation","27","49871","0.0-5.0-2.11","63bef4ddef5b4d7295effbbd","bdp_cybrbll","Tue Mar 28 2023 14:05:50 GMT-0500 (Central Daylight Time)","450690","3","1","","","","","","","","","","214","","","","1","3","[{""stimulus"":""img/1to3/1.png"",""time"":112},{""stimulus"":""img/1to3/2.png"",""time"":199},{""stimulus"":""img/1to3/3.png"",""time"":299},{""stimulus"":""img/1to3/4.png"",""time"":412},{""stimulus"":""img/1to3/5.png"",""time"":504},{""stimulus"":""img/1to3/6.png"",""time"":595},{""stimulus"":""img/1to3/7.png"",""time"":694},{""stimulus"":""img/1to3/8.png"",""time"":794},{""stimulus"":""img/1to3/9.png"",""time"":892},{""stimulus"":""img/1to3/10.png"",""time"":991},{""stimulus"":""img/1to3/11.png"",""time"":1093},{""stimulus"":""img/1to3/12.png"",""time"":1202}]","[]",""
"image-keyboard-response","28","50432","0.0-5.0-1.12","63bef4ddef5b4d7295effbbd","bdp_cybrbll","Tue Mar 28 2023 14:05:50 GMT-0500 (Central Daylight Time)","450690","3","1","","null","","","","observe","","img/3to2/1.png","null","213","559","0.5","0.5","3","1","","",""
"animation","29","51725","0.0-5.0-2.12","63bef4ddef5b4d7295effbbd","bdp_cybrbll","Tue Mar 28 2023 14:05:50 GMT-0500 (Central Daylight Time)","450690","3","1","","","","","","","","","","213","","","","3","1","[{""stimulus"":""img/3to1/1.png"",""time"":109},{""stimulus"":""img/3to1/2.png"",""time"":203},{""stimulus"":""img/3to1/3.png"",""time"":311},{""stimulus"":""img/3to1/4.png"",""time"":405},{""stimulus"":""img/3to1/5.png"",""time"":496},{""stimulus"":""img/3to1/6.png"",""time"":609},{""stimulus"":""img/3to1/7.png"",""time"":702},{""stimulus"":""img/3to1/8.png"",""time"":793},{""stimulus"":""img/3to1/9.png"",""time"":903},{""stimulus"":""img/3to1/10.png"",""time"":991},{""stimulus"":""img/3to1/11.png"",""time"":1090},{""stimulus"":""img/3to1/12.png"",""time"":1200}]","[]",""
"image-keyboard-response","30","52050","0.0-5.0-1.13","63bef4ddef5b4d7295effbbd","bdp_cybrbll","Tue Mar 28 2023 14:05:50 GMT-0500 (Central Daylight Time)","450690","3","1","","null","","","","observe","","img/1to3/1.png","null","212","322","0.5","0.5","1","3","","",""
"animation","31","53337","0.0-5.0-2.13","63bef4ddef5b4d7295effbbd","bdp_cybrbll","Tue Mar 28 2023 14:05:50 GMT-0500 (Central Daylight Time)","450690","3","1","","","","","","","","","","212","","","","1","3","[{""stimulus"":""img/1to3/1.png"",""time"":110},{""stimulus"":""img/1to3/2.png"",""time"":200},{""stimulus"":""img/1to3/3.png"",""time"":298},{""stimulus"":""img/1to3/4.png"",""time"":397},{""stimulus"":""img/1to3/5.png"",""time"":497},{""stimulus"":""img/1to3/6.png"",""time"":595},{""stimulus"":""img/1to3/7.png"",""time"":700},{""stimulus"":""img/1to3/8.png"",""time"":794},{""stimulus"":""img/1to3/9.png"",""time"":892},{""stimulus"":""img/1to3/10.png"",""time"":991},{""stimulus"":""img/1to3/11.png"",""time"":1104},{""stimulus"":""img/1to3/12.png"",""time"":1200}]","[]",""
"image-keyboard-response","32","53888","0.0-5.0-1.14","63bef4ddef5b4d7295effbbd","bdp_cybrbll","Tue Mar 28 2023 14:05:50 GMT-0500 (Central Daylight Time)","450690","3","1","","null","","","","observe","","img/3to2/1.png","null","211","547","0.5","0.5","3","2","","",""
"animation","33","55189","0.0-5.0-2.14","63bef4ddef5b4d7295effbbd","bdp_cybrbll","Tue Mar 28 2023 14:05:50 GMT-0500 (Central Daylight Time)","450690","3","1","","","","","","","","","","211","","","","3","2","[{""stimulus"":""img/3to2/1.png"",""time"":108},{""stimulus"":""img/3to2/2.png"",""time"":199},{""stimulus"":""img/3to2/3.png"",""time"":311},{""stimulus"":""img/3to2/4.png"",""time"":396},{""stimulus"":""img/3to2/5.png"",""time"":496},{""stimulus"":""img/3to2/6.png"",""time"":605},{""stimulus"":""img/3to2/7.png"",""time"":694},{""stimulus"":""img/3to2/8.png"",""time"":806},{""stimulus"":""img/3to2/9.png"",""time"":897},{""stimulus"":""img/3to2/10.png"",""time"":991},{""stimulus"":""img/3to2/11.png"",""time"":1089},{""stimulus"":""img/3to2/12.png"",""time"":1192}]","[]",""
"image-keyboard-response","34","55664","0.0-5.0-1.15","63bef4ddef5b4d7295effbbd","bdp_cybrbll","Tue Mar 28 2023 14:05:50 GMT-0500 (Central Daylight Time)","450690","3","1","","474","","","","choice","","img/2to1/1.png","1","210","175","0.5","0.5","2","1","","",""
"animation","35","56953","0.0-5.0-2.15","63bef4ddef5b4d7295effbbd","bdp_cybrbll","Tue Mar 28 2023 14:05:50 GMT-0500 (Central Daylight Time)","450690","3","1","","","","","","","","","","210","","","","2","1","[{""stimulus"":""img/2to1/1.png"",""time"":100},{""stimulus"":""img/2to1/2.png"",""time"":208},{""stimulus"":""img/2to1/3.png"",""time"":301},{""stimulus"":""img/2to1/4.png"",""time"":396},{""stimulus"":""img/2to1/5.png"",""time"":497},{""stimulus"":""img/2to1/6.png"",""time"":595},{""stimulus"":""img/2to1/7.png"",""time"":708},{""stimulus"":""img/2to1/8.png"",""time"":802},{""stimulus"":""img/2to1/9.png"",""time"":893},{""stimulus"":""img/2to1/10.png"",""time"":991},{""stimulus"":""img/2to1/11.png"",""time"":1101},{""stimulus"":""img/2to1/12.png"",""time"":1194}]","[]",""
"image-keyboard-response","36","57248","0.0-5.0-1.16","63bef4ddef5b4d7295effbbd","bdp_cybrbll","Tue Mar 28 2023 14:05:50 GMT-0500 (Central Daylight Time)","450690","3","1","","null","","","","observe","","img/1to3/1.png","null","209","291","0.5","0.5","1","2","","",""
"animation","37","58543","0.0-5.0-2.16","63bef4ddef5b4d7295effbbd","bdp_cybrbll","Tue Mar 28 2023 14:05:50 GMT-0500 (Central Daylight Time)","450690","3","1","","","","","","","","","","209","","","","1","2","[{""stimulus"":""img/1to2/1.png"",""time"":108},{""stimulus"":""img/1to2/2.png"",""time"":204},{""stimulus"":""img/1to2/3.png"",""time"":312},{""stimulus"":""img/1to2/4.png"",""time"":397},{""stimulus"":""img/1to2/5.png"",""time"":498},{""stimulus"":""img/1to2/6.png"",""time"":606},{""stimulus"":""img/1to2/7.png"",""time"":701},{""stimulus"":""img/1to2/8.png"",""time"":793},{""stimulus"":""img/1to2/9.png"",""time"":904},{""stimulus"":""img/1to2/10.png"",""time"":997},{""stimulus"":""img/1to2/11.png"",""time"":1091},{""stimulus"":""img/1to2/12.png"",""time"":1201}]","[]",""
"image-keyboard-response","38","59193","0.0-5.0-1.17","63bef4ddef5b4d7295effbbd","bdp_cybrbll","Tue Mar 28 2023 14:05:50 GMT-0500 (Central Daylight Time)","450690","3","1","","648","","","","choice","","img/2to1/1.png","1","208","319","0.5","0.5","2","1","","",""
"animation","39","60483","0.0-5.0-2.17","63bef4ddef5b4d7295effbbd","bdp_cybrbll","Tue Mar 28 2023 14:05:50 GMT-0500 (Central Daylight Time)","450690","3","1","","","","","","","","","","208","","","","2","1","[{""stimulus"":""img/2to1/1.png"",""time"":101},{""stimulus"":""img/2to1/2.png"",""time"":201},{""stimulus"":""img/2to1/3.png"",""time"":311},{""stimulus"":""img/2to1/4.png"",""time"":405},{""stimulus"":""img/2to1/5.png"",""time"":496},{""stimulus"":""img/2to1/6.png"",""time"":607},{""stimulus"":""img/2to1/7.png"",""time"":701},{""stimulus"":""img/2to1/8.png"",""time"":794},{""stimulus"":""img/2to1/9.png"",""time"":902},{""stimulus"":""img/2to1/10.png"",""time"":990},{""stimulus"":""img/2to1/11.png"",""time"":1091},{""stimulus"":""img/2to1/12.png"",""time"":1198}]","[]",""
"image-keyboard-response","40","61012","0.0-5.0-1.18","63bef4ddef5b4d7295effbbd","bdp_cybrbll","Tue Mar 28 2023 14:05:50 GMT-0500 (Central Daylight Time)","450690","3","1","","null","","","","observe","","img/1to3/1.png","null","207","527","0.5","0.5","1","2","","",""
"animation","41","62299","0.0-5.0-2.18","63bef4ddef5b4d7295effbbd","bdp_cybrbll","Tue Mar 28 2023 14:05:50 GMT-0500 (Central Daylight Time)","450690","3","1","","","","","","","","","","207","","","","1","2","[{""stimulus"":""img/1to2/1.png"",""time"":108},{""stimulus"":""img/1to2/2.png"",""time"":202},{""stimulus"":""img/1to2/3.png"",""time"":310},{""stimulus"":""img/1to2/4.png"",""time"":397},{""stimulus"":""img/1to2/5.png"",""time"":512},{""stimulus"":""img/1to2/6.png"",""time"":605},{""stimulus"":""img/1to2/7.png"",""time"":694},{""stimulus"":""img/1to2/8.png"",""time"":793},{""stimulus"":""img/1to2/9.png"",""time"":903},{""stimulus"":""img/1to2/10.png"",""time"":992},{""stimulus"":""img/1to2/11.png"",""time"":1090},{""stimulus"":""img/1to2/12.png"",""time"":1199}]","[]",""
"image-keyboard-response","42","62568","0.0-5.0-1.19","63bef4ddef5b4d7295effbbd","bdp_cybrbll","Tue Mar 28 2023 14:05:50 GMT-0500 (Central Daylight Time)","450690","3","1","","268","","","","choice","","img/2to1/1.png","1","206","250","0.5","0.5","2","1","","",""
"animation","43","63858","0.0-5.0-2.19","63bef4ddef5b4d7295effbbd","bdp_cybrbll","Tue Mar 28 2023 14:05:50 GMT-0500 (Central Daylight Time)","450690","3","1","","","","","","","","","","206","","","","2","1","[{""stimulus"":""img/2to1/1.png"",""time"":108},{""stimulus"":""img/2to1/2.png"",""time"":201},{""stimulus"":""img/2to1/3.png"",""time"":309},{""stimulus"":""img/2to1/4.png"",""time"":402},{""stimulus"":""img/2to1/5.png"",""time"":496},{""stimulus"":""img/2to1/6.png"",""time"":603},{""stimulus"":""img/2to1/7.png"",""time"":697},{""stimulus"":""img/2to1/8.png"",""time"":792},{""stimulus"":""img/2to1/9.png"",""time"":900},{""stimulus"":""img/2to1/10.png"",""time"":992},{""stimulus"":""img/2to1/11.png"",""time"":1102},{""stimulus"":""img/2to1/12.png"",""time"":1189}]","[]",""
"image-keyboard-response","44","64771","0.0-5.0-1.20","63bef4ddef5b4d7295effbbd","bdp_cybrbll","Tue Mar 28 2023 14:05:50 GMT-0500 (Central Daylight Time)","450690","3","1","","null","","","","observe","","img/1to3/1.png","null","205","911","0.5","0.5","1","3","","",""
"animation","45","66058","0.0-5.0-2.20","63bef4ddef5b4d7295effbbd","bdp_cybrbll","Tue Mar 28 2023 14:05:50 GMT-0500 (Central Daylight Time)","450690","3","1","","","","","","","","","","205","","","","1","3","[{""stimulus"":""img/1to3/1.png"",""time"":100},{""stimulus"":""img/1to3/2.png"",""time"":210},{""stimulus"":""img/1to3/3.png"",""time"":298},{""stimulus"":""img/1to3/4.png"",""time"":410},{""stimulus"":""img/1to3/5.png"",""time"":496},{""stimulus"":""img/1to3/6.png"",""time"":600},{""stimulus"":""img/1to3/7.png"",""time"":694},{""stimulus"":""img/1to3/8.png"",""time"":793},{""stimulus"":""img/1to3/9.png"",""time"":893},{""stimulus"":""img/1to3/10.png"",""time"":991},{""stimulus"":""img/1to3/11.png"",""time"":1090},{""stimulus"":""img/1to3/12.png"",""time"":1189}]","[]",""
"image-keyboard-response","46","66461","0.0-5.0-1.21","63bef4ddef5b4d7295effbbd","bdp_cybrbll","Tue Mar 28 2023 14:05:50 GMT-0500 (Central Daylight Time)","450690","3","1","","null","","","","observe","","img/3to2/1.png","null","204","388","0.5","0.5","3","2","","",""
"animation","47","67763","0.0-5.0-2.21","63bef4ddef5b4d7295effbbd","bdp_cybrbll","Tue Mar 28 2023 14:05:50 GMT-0500 (Central Daylight Time)","450690","3","1","","","","","","","","","","204","","","","3","2","[{""stimulus"":""img/3to2/1.png"",""time"":109},{""stimulus"":""img/3to2/2.png"",""time"":201},{""stimulus"":""img/3to2/3.png"",""time"":299},{""stimulus"":""img/3to2/4.png"",""time"":397},{""stimulus"":""img/3to2/5.png"",""time"":512},{""stimulus"":""img/3to2/6.png"",""time"":604},{""stimulus"":""img/3to2/7.png"",""time"":699},{""stimulus"":""img/3to2/8.png"",""time"":807},{""stimulus"":""img/3to2/9.png"",""time"":893},{""stimulus"":""img/3to2/10.png"",""time"":993},{""stimulus"":""img/3to2/11.png"",""time"":1090},{""stimulus"":""img/3to2/12.png"",""time"":1196}]","[]",""
"image-keyboard-response","48","67922","0.0-5.0-1.22","63bef4ddef5b4d7295effbbd","bdp_cybrbll","Tue Mar 28 2023 14:05:50 GMT-0500 (Central Daylight Time)","450690","3","1","","157","","","","choice","","img/2to1/1.png","2","203","348","0.5","0.5","2","3","","",""
"animation","49","69209","0.0-5.0-2.22","63bef4ddef5b4d7295effbbd","bdp_cybrbll","Tue Mar 28 2023 14:05:50 GMT-0500 (Central Daylight Time)","450690","3","1","","","","","","","","","","203","","","","2","3","[{""stimulus"":""img/2to3/1.png"",""time"":100},{""stimulus"":""img/2to3/2.png"",""time"":213},{""stimulus"":""img/2to3/3.png"",""time"":306},{""stimulus"":""img/2to3/4.png"",""time"":397},{""stimulus"":""img/2to3/5.png"",""time"":497},{""stimulus"":""img/2to3/6.png"",""time"":603},{""stimulus"":""img/2to3/7.png"",""time"":696},{""stimulus"":""img/2to3/8.png"",""time"":804},{""stimulus"":""img/2to3/9.png"",""time"":897},{""stimulus"":""img/2to3/10.png"",""time"":1005},{""stimulus"":""img/2to3/11.png"",""time"":1090},{""stimulus"":""img/2to3/12.png"",""time"":1189}]","[]",""
"image-keyboard-response","50","70212","0.0-5.0-1.23","63bef4ddef5b4d7295effbbd","bdp_cybrbll","Tue Mar 28 2023 14:05:50 GMT-0500 (Central Daylight Time)","450690","3","1","","null","","","","observe","","img/3to2/1.png","null","202","987","0.5","0.5","3","2","","",""
"animation","51","71501","0.0-5.0-2.23","63bef4ddef5b4d7295effbbd","bdp_cybrbll","Tue Mar 28 2023 14:05:50 GMT-0500 (Central Daylight Time)","450690","3","1","","","","","","","","","","202","","","","3","2","[{""stimulus"":""img/3to2/1.png"",""time"":109},{""stimulus"":""img/3to2/2.png"",""time"":200},{""stimulus"":""img/3to2/3.png"",""time"":300},{""stimulus"":""img/3to2/4.png"",""time"":405},{""stimulus"":""img/3to2/5.png"",""time"":497},{""stimulus"":""img/3to2/6.png"",""time"":606},{""stimulus"":""img/3to2/7.png"",""time"":700},{""stimulus"":""img/3to2/8.png"",""time"":793},{""stimulus"":""img/3to2/9.png"",""time"":902},{""stimulus"":""img/3to2/10.png"",""time"":993},{""stimulus"":""img/3to2/11.png"",""time"":1090},{""stimulus"":""img/3to2/12.png"",""time"":1189}]","[]",""
"image-keyboard-response","52","71809","0.0-5.0-1.24","63bef4ddef5b4d7295effbbd","bdp_cybrbll","Tue Mar 28 2023 14:05:50 GMT-0500 (Central Daylight Time)","450690","3","1","","307","","","","choice","","img/2to1/1.png","2","201","487","0.5","0.5","2","3","","",""
"animation","53","73098","0.0-5.0-2.24","63bef4ddef5b4d7295effbbd","bdp_cybrbll","Tue Mar 28 2023 14:05:50 GMT-0500 (Central Daylight Time)","450690","3","1","","","","","","","","","","201","","","","2","3","[{""stimulus"":""img/2to3/1.png"",""time"":100},{""stimulus"":""img/2to3/2.png"",""time"":207},{""stimulus"":""img/2to3/3.png"",""time"":300},{""stimulus"":""img/2to3/4.png"",""time"":408},{""stimulus"":""img/2to3/5.png"",""time"":496},{""stimulus"":""img/2to3/6.png"",""time"":595},{""stimulus"":""img/2to3/7.png"",""time"":695},{""stimulus"":""img/2to3/8.png"",""time"":795},{""stimulus"":""img/2to3/9.png"",""time"":904},{""stimulus"":""img/2to3/10.png"",""time"":997},{""stimulus"":""img/2to3/11.png"",""time"":1090},{""stimulus"":""img/2to3/12.png"",""time"":1189}]","[]",""
"image-keyboard-response","54","73441","0.0-5.0-1.25","63bef4ddef5b4d7295effbbd","bdp_cybrbll","Tue Mar 28 2023 14:05:50 GMT-0500 (Central Daylight Time)","450690","3","1","","null","","","","observe","","img/3to2/1.png","null","200","334","0.5","0.5","3","1","","",""
"animation","55","74731","0.0-5.0-2.25","63bef4ddef5b4d7295effbbd","bdp_cybrbll","Tue Mar 28 2023 14:05:50 GMT-0500 (Central Daylight Time)","450690","3","1","","","","","","","","","","200","","","","3","1","[{""stimulus"":""img/3to1/1.png"",""time"":107},{""stimulus"":""img/3to1/2.png"",""time"":201},{""stimulus"":""img/3to1/3.png"",""time"":311},{""stimulus"":""img/3to1/4.png"",""time"":404},{""stimulus"":""img/3to1/5.png"",""time"":495},{""stimulus"":""img/3to1/6.png"",""time"":594},{""stimulus"":""img/3to1/7.png"",""time"":699},{""stimulus"":""img/3to1/8.png"",""time"":793},{""stimulus"":""img/3to1/9.png"",""time"":903},{""stimulus"":""img/3to1/10.png"",""time"":996},{""stimulus"":""img/3to1/11.png"",""time"":1104},{""stimulus"":""img/3to1/12.png"",""time"":1189}]","[]",""
"image-keyboard-response","56","75383","0.0-5.0-1.26","63bef4ddef5b4d7295effbbd","bdp_cybrbll","Tue Mar 28 2023 14:05:50 GMT-0500 (Central Daylight Time)","450690","3","1","","null","","","","observe","","img/1to3/1.png","null","199","638","0.5","0.5","1","3","","",""
"animation","57","76677","0.0-5.0-2.26","63bef4ddef5b4d7295effbbd","bdp_cybrbll","Tue Mar 28 2023 14:05:50 GMT-0500 (Central Daylight Time)","450690","3","1","","","","","","","","","","199","","","","1","3","[{""stimulus"":""img/1to3/1.png"",""time"":109},{""stimulus"":""img/1to3/2.png"",""time"":202},{""stimulus"":""img/1to3/3.png"",""time"":310},{""stimulus"":""img/1to3/4.png"",""time"":397},{""stimulus"":""img/1to3/5.png"",""time"":497},{""stimulus"":""img/1to3/6.png"",""time"":607},{""stimulus"":""img/1to3/7.png"",""time"":701},{""stimulus"":""img/1to3/8.png"",""time"":793},{""stimulus"":""img/1to3/9.png"",""time"":906},{""stimulus"":""img/1to3/10.png"",""time"":992},{""stimulus"":""img/1to3/11.png"",""time"":1091},{""stimulus"":""img/1to3/12.png"",""time"":1190}]","[]",""
"image-keyboard-response","58","76864","0.0-5.0-1.27","63bef4ddef5b4d7295effbbd","bdp_cybrbll","Tue Mar 28 2023 14:05:50 GMT-0500 (Central Daylight Time)","450690","3","1","","null","","","","observe","","img/3to2/1.png","null","198","181","0.5","0.5","3","1","","",""
"animation","59","78159","0.0-5.0-2.27","63bef4ddef5b4d7295effbbd","bdp_cybrbll","Tue Mar 28 2023 14:05:50 GMT-0500 (Central Daylight Time)","450690","3","1","","","","","","","","","","198","","","","3","1","[{""stimulus"":""img/3to1/1.png"",""time"":110},{""stimulus"":""img/3to1/2.png"",""time"":203},{""stimulus"":""img/3to1/3.png"",""time"":299},{""stimulus"":""img/3to1/4.png"",""time"":397},{""stimulus"":""img/3to1/5.png"",""time"":497},{""stimulus"":""img/3to1/6.png"",""time"":607},{""stimulus"":""img/3to1/7.png"",""time"":701},{""stimulus"":""img/3to1/8.png"",""time"":794},{""stimulus"":""img/3to1/9.png"",""time"":905},{""stimulus"":""img/3to1/10.png"",""time"":1000},{""stimulus"":""img/3to1/11.png"",""time"":1090},{""stimulus"":""img/3to1/12.png"",""time"":1203}]","[]",""
"image-keyboard-response","60","79258","0.0-5.0-1.28","63bef4ddef5b4d7295effbbd","bdp_cybrbll","Tue Mar 28 2023 14:05:50 GMT-0500 (Central Daylight Time)","450690","3","1","","null","","","","observe","","img/1to3/1.png","null","197","1087","0.5","0.5","1","2","","",""
"animation","61","80560","0.0-5.0-2.28","63bef4ddef5b4d7295effbbd","bdp_cybrbll","Tue Mar 28 2023 14:05:50 GMT-0500 (Central Daylight Time)","450690","3","1","","","","","","","","","","197","","","","1","2","[{""stimulus"":""img/1to2/1.png"",""time"":108},{""stimulus"":""img/1to2/2.png"",""time"":199},{""stimulus"":""img/1to2/3.png"",""time"":309},{""stimulus"":""img/1to2/4.png"",""time"":402},{""stimulus"":""img/1to2/5.png"",""time"":496},{""stimulus"":""img/1to2/6.png"",""time"":603},{""stimulus"":""img/1to2/7.png"",""time"":693},{""stimulus"":""img/1to2/8.png"",""time"":792},{""stimulus"":""img/1to2/9.png"",""time"":891},{""stimulus"":""img/1to2/10.png"",""time"":990},{""stimulus"":""img/1to2/11.png"",""time"":1089},{""stimulus"":""img/1to2/12.png"",""time"":1188}]","[]",""
"image-keyboard-response","62","80850","0.0-5.0-1.29","63bef4ddef5b4d7295effbbd","bdp_cybrbll","Tue Mar 28 2023 14:05:50 GMT-0500 (Central Daylight Time)","450690","3","1","","289","","","","choice","","img/2to1/1.png","2","196","499","0.5","0.5","2","3","","",""
"animation","63","82145","0.0-5.0-2.29","63bef4ddef5b4d7295effbbd","bdp_cybrbll","Tue Mar 28 2023 14:05:50 GMT-0500 (Central Daylight Time)","450690","3","1","","","","","","","","","","196","","","","2","3","[{""stimulus"":""img/2to3/1.png"",""time"":101},{""stimulus"":""img/2to3/2.png"",""time"":208},{""stimulus"":""img/2to3/3.png"",""time"":300},{""stimulus"":""img/2to3/4.png"",""time"":410},{""stimulus"":""img/2to3/5.png"",""time"":503},{""stimulus"":""img/2to3/6.png"",""time"":597},{""stimulus"":""img/2to3/7.png"",""time"":695},{""stimulus"":""img/2to3/8.png"",""time"":794},{""stimulus"":""img/2to3/9.png"",""time"":893},{""stimulus"":""img/2to3/10.png"",""time"":991},{""stimulus"":""img/2to3/11.png"",""time"":1094},{""stimulus"":""img/2to3/12.png"",""time"":1190}]","[]",""
"image-keyboard-response","64","82590","0.0-5.0-1.30","63bef4ddef5b4d7295effbbd","bdp_cybrbll","Tue Mar 28 2023 14:05:50 GMT-0500 (Central Daylight Time)","450690","3","1","","null","","","","observe","","img/3to2/1.png","null","195","444","0.5","0.5","3","1","","",""
"animation","65","83892","0.0-5.0-2.30","63bef4ddef5b4d7295effbbd","bdp_cybrbll","Tue Mar 28 2023 14:05:50 GMT-0500 (Central Daylight Time)","450690","3","1","","","","","","","","","","195","","","","3","1","[{""stimulus"":""img/3to1/1.png"",""time"":102},{""stimulus"":""img/3to1/2.png"",""time"":211},{""stimulus"":""img/3to1/3.png"",""time"":306},{""stimulus"":""img/3to1/4.png"",""time"":399},{""stimulus"":""img/3to1/5.png"",""time"":508},{""stimulus"":""img/3to1/6.png"",""time"":595},{""stimulus"":""img/3to1/7.png"",""time"":695},{""stimulus"":""img/3to1/8.png"",""time"":806},{""stimulus"":""img/3to1/9.png"",""time"":900},{""stimulus"":""img/3to1/10.png"",""time"":991},{""stimulus"":""img/3to1/11.png"",""time"":1100},{""stimulus"":""img/3to1/12.png"",""time"":1190}]","[]",""
"image-keyboard-response","66","84266","0.0-5.0-1.31","63bef4ddef5b4d7295effbbd","bdp_cybrbll","Tue Mar 28 2023 14:05:50 GMT-0500 (Central Daylight Time)","450690","3","1","","null","","","","observe","","img/1to3/1.png","null","194","372","0.5","0.5","1","3","","",""
"animation","67","85567","0.0-5.0-2.31","63bef4ddef5b4d7295effbbd","bdp_cybrbll","Tue Mar 28 2023 14:05:50 GMT-0500 (Central Daylight Time)","450690","3","1","","","","","","","","","","194","","","","1","3","[{""stimulus"":""img/1to3/1.png"",""time"":111},{""stimulus"":""img/1to3/2.png"",""time"":199},{""stimulus"":""img/1to3/3.png"",""time"":312},{""stimulus"":""img/1to3/4.png"",""time"":398},{""stimulus"":""img/1to3/5.png"",""time"":511},{""stimulus"":""img/1to3/6.png"",""time"":606},{""stimulus"":""img/1to3/7.png"",""time"":698},{""stimulus"":""img/1to3/8.png"",""time"":806},{""stimulus"":""img/1to3/9.png"",""time"":893},{""stimulus"":""img/1to3/10.png"",""time"":992},{""stimulus"":""img/1to3/11.png"",""time"":1100},{""stimulus"":""img/1to3/12.png"",""time"":1190}]","[]",""
"image-keyboard-response","68","86221","0.0-5.0-1.32","63bef4ddef5b4d7295effbbd","bdp_cybrbll","Tue Mar 28 2023 14:05:50 GMT-0500 (Central Daylight Time)","450690","3","1","","null","","","","observe","","img/3to2/1.png","null","193","644","0.5","0.5","3","1","","",""
"animation","69","87510","0.0-5.0-2.32","63bef4ddef5b4d7295effbbd","bdp_cybrbll","Tue Mar 28 2023 14:05:50 GMT-0500 (Central Daylight Time)","450690","3","1","","","","","","","","","","193","","","","3","1","[{""stimulus"":""img/3to1/1.png"",""time"":108},{""stimulus"":""img/3to1/2.png"",""time"":200},{""stimulus"":""img/3to1/3.png"",""time"":298},{""stimulus"":""img/3to1/4.png"",""time"":397},{""stimulus"":""img/3to1/5.png"",""time"":498},{""stimulus"":""img/3to1/6.png"",""time"":607},{""stimulus"":""img/3to1/7.png"",""time"":701},{""stimulus"":""img/3to1/8.png"",""time"":794},{""stimulus"":""img/3to1/9.png"",""time"":903},{""stimulus"":""img/3to1/10.png"",""time"":995},{""stimulus"":""img/3to1/11.png"",""time"":1101},{""stimulus"":""img/3to1/12.png"",""time"":1196}]","[]",""
"image-keyboard-response","70","87851","0.0-5.0-1.33","63bef4ddef5b4d7295effbbd","bdp_cybrbll","Tue Mar 28 2023 14:05:50 GMT-0500 (Central Daylight Time)","450690","3","1","","null","","","","observe","","img/1to3/1.png","null","192","329","0.5","0.5","1","3","","",""
"animation","71","89140","0.0-5.0-2.33","63bef4ddef5b4d7295effbbd","bdp_cybrbll","Tue Mar 28 2023 14:05:50 GMT-0500 (Central Daylight Time)","450690","3","1","","","","","","","","","","192","","","","1","3","[{""stimulus"":""img/1to3/1.png"",""time"":110},{""stimulus"":""img/1to3/2.png"",""time"":202},{""stimulus"":""img/1to3/3.png"",""time"":310},{""stimulus"":""img/1to3/4.png"",""time"":403},{""stimulus"":""img/1to3/5.png"",""time"":511},{""stimulus"":""img/1to3/6.png"",""time"":595},{""stimulus"":""img/1to3/7.png"",""time"":694},{""stimulus"":""img/1to3/8.png"",""time"":793},{""stimulus"":""img/1to3/9.png"",""time"":893},{""stimulus"":""img/1to3/10.png"",""time"":1001},{""stimulus"":""img/1to3/11.png"",""time"":1092},{""stimulus"":""img/1to3/12.png"",""time"":1200}]","[]",""
"image-keyboard-response","72","89330","0.0-5.0-1.34","63bef4ddef5b4d7295effbbd","bdp_cybrbll","Tue Mar 28 2023 14:05:50 GMT-0500 (Central Daylight Time)","450690","3","1","","null","","","","observe","","img/3to2/1.png","null","191","178","0.5","0.5","3","1","","",""
"animation","73","90630","0.0-5.0-2.34","63bef4ddef5b4d7295effbbd","bdp_cybrbll","Tue Mar 28 2023 14:05:50 GMT-0500 (Central Daylight Time)","450690","3","1","","","","","","","","","","191","","","","3","1","[{""stimulus"":""img/3to1/1.png"",""time"":108},{""stimulus"":""img/3to1/2.png"",""time"":200},{""stimulus"":""img/3to1/3.png"",""time"":311},{""stimulus"":""img/3to1/4.png"",""time"":403},{""stimulus"":""img/3to1/5.png"",""time"":510},{""stimulus"":""img/3to1/6.png"",""time"":604},{""stimulus"":""img/3to1/7.png"",""time"":695},{""stimulus"":""img/3to1/8.png"",""time"":805},{""stimulus"":""img/3to1/9.png"",""time"":898},{""stimulus"":""img/3to1/10.png"",""time"":1006},{""stimulus"":""img/3to1/11.png"",""time"":1091},{""stimulus"":""img/3to1/12.png"",""time"":1192}]","[]",""
"image-keyboard-response","74","91036","0.0-5.0-1.35","63bef4ddef5b4d7295effbbd","bdp_cybrbll","Tue Mar 28 2023 14:05:50 GMT-0500 (Central Daylight Time)","450690","3","1","","null","","","","observe","","img/1to3/1.png","null","190","394","0.5","0.5","1","3","","",""
"animation","75","92330","0.0-5.0-2.35","63bef4ddef5b4d7295effbbd","bdp_cybrbll","Tue Mar 28 2023 14:05:50 GMT-0500 (Central Daylight Time)","450690","3","1","","","","","","","","","","190","","","","1","3","[{""stimulus"":""img/1to3/1.png"",""time"":107},{""stimulus"":""img/1to3/2.png"",""time"":198},{""stimulus"":""img/1to3/3.png"",""time"":311},{""stimulus"":""img/1to3/4.png"",""time"":397},{""stimulus"":""img/1to3/5.png"",""time"":499},{""stimulus"":""img/1to3/6.png"",""time"":595},{""stimulus"":""img/1to3/7.png"",""time"":693},{""stimulus"":""img/1to3/8.png"",""time"":793},{""stimulus"":""img/1to3/9.png"",""time"":905},{""stimulus"":""img/1to3/10.png"",""time"":1000},{""stimulus"":""img/1to3/11.png"",""time"":1093},{""stimulus"":""img/1to3/12.png"",""time"":1188}]","[]",""
"image-keyboard-response","76","92834","0.0-5.0-1.36","63bef4ddef5b4d7295effbbd","bdp_cybrbll","Tue Mar 28 2023 14:05:50 GMT-0500 (Central Daylight Time)","450690","3","1","","null","","","","observe","","img/3to2/1.png","null","189","503","0.5","0.5","3","1","","",""
"animation","77","94122","0.0-5.0-2.36","63bef4ddef5b4d7295effbbd","bdp_cybrbll","Tue Mar 28 2023 14:05:50 GMT-0500 (Central Daylight Time)","450690","3","1","","","","","","","","","","189","","","","3","1","[{""stimulus"":""img/3to1/1.png"",""time"":103},{""stimulus"":""img/3to1/2.png"",""time"":212},{""stimulus"":""img/3to1/3.png"",""time"":298},{""stimulus"":""img/3to1/4.png"",""time"":398},{""stimulus"":""img/3to1/5.png"",""time"":509},{""stimulus"":""img/3to1/6.png"",""time"":596},{""stimulus"":""img/3to1/7.png"",""time"":695},{""stimulus"":""img/3to1/8.png"",""time"":804},{""stimulus"":""img/3to1/9.png"",""time"":893},{""stimulus"":""img/3to1/10.png"",""time"":1005},{""stimulus"":""img/3to1/11.png"",""time"":1099},{""stimulus"":""img/3to1/12.png"",""time"":1193}]","[]",""
"image-keyboard-response","78","94991","0.0-5.0-1.37","63bef4ddef5b4d7295effbbd","bdp_cybrbll","Tue Mar 28 2023 14:05:50 GMT-0500 (Central Daylight Time)","450690","3","1","","null","","","","observe","","img/1to3/1.png","null","188","862","0.5","0.5","1","2","","",""
"animation","79","96279","0.0-5.0-2.37","63bef4ddef5b4d7295effbbd","bdp_cybrbll","Tue Mar 28 2023 14:05:50 GMT-0500 (Central Daylight Time)","450690","3","1","","","","","","","","","","188","","","","1","2","[{""stimulus"":""img/1to2/1.png"",""time"":109},{""stimulus"":""img/1to2/2.png"",""time"":199},{""stimulus"":""img/1to2/3.png"",""time"":297},{""stimulus"":""img/1to2/4.png"",""time"":397},{""stimulus"":""img/1to2/5.png"",""time"":496},{""stimulus"":""img/1to2/6.png"",""time"":606},{""stimulus"":""img/1to2/7.png"",""time"":694},{""stimulus"":""img/1to2/8.png"",""time"":794},{""stimulus"":""img/1to2/9.png"",""time"":892},{""stimulus"":""img/1to2/10.png"",""time"":997},{""stimulus"":""img/1to2/11.png"",""time"":1105},{""stimulus"":""img/1to2/12.png"",""time"":1189}]","[]",""
"image-keyboard-response","80","96769","0.0-5.0-1.38","63bef4ddef5b4d7295effbbd","bdp_cybrbll","Tue Mar 28 2023 14:05:50 GMT-0500 (Central Daylight Time)","450690","3","1","","490","","","","choice","","img/2to1/1.png","2","187","332","0.5","0.5","2","3","","",""
"animation","81","98070","0.0-5.0-2.38","63bef4ddef5b4d7295effbbd","bdp_cybrbll","Tue Mar 28 2023 14:05:50 GMT-0500 (Central Daylight Time)","450690","3","1","","","","","","","","","","187","","","","2","3","[{""stimulus"":""img/2to3/1.png"",""time"":100},{""stimulus"":""img/2to3/2.png"",""time"":199},{""stimulus"":""img/2to3/3.png"",""time"":308},{""stimulus"":""img/2to3/4.png"",""time"":397},{""stimulus"":""img/2to3/5.png"",""time"":496},{""stimulus"":""img/2to3/6.png"",""time"":596},{""stimulus"":""img/2to3/7.png"",""time"":695},{""stimulus"":""img/2to3/8.png"",""time"":793},{""stimulus"":""img/2to3/9.png"",""time"":895},{""stimulus"":""img/2to3/10.png"",""time"":1005},{""stimulus"":""img/2to3/11.png"",""time"":1098},{""stimulus"":""img/2to3/12.png"",""time"":1192}]","[]",""
"image-keyboard-response","82","98665","0.0-5.0-1.39","63bef4ddef5b4d7295effbbd","bdp_cybrbll","Tue Mar 28 2023 14:05:50 GMT-0500 (Central Daylight Time)","450690","3","1","","null","","","","observe","","img/3to2/1.png","null","186","585","0.5","0.5","3","1","","",""
"animation","83","99962","0.0-5.0-2.39","63bef4ddef5b4d7295effbbd","bdp_cybrbll","Tue Mar 28 2023 14:05:50 GMT-0500 (Central Daylight Time)","450690","3","1","","","","","","","","","","186","","","","3","1","[{""stimulus"":""img/3to1/1.png"",""time"":107},{""stimulus"":""img/3to1/2.png"",""time"":200},{""stimulus"":""img/3to1/3.png"",""time"":307},{""stimulus"":""img/3to1/4.png"",""time"":400},{""stimulus"":""img/3to1/5.png"",""time"":495},{""stimulus"":""img/3to1/6.png"",""time"":595},{""stimulus"":""img/3to1/7.png"",""time"":695},{""stimulus"":""img/3to1/8.png"",""time"":792},{""stimulus"":""img/3to1/9.png"",""time"":897},{""stimulus"":""img/3to1/10.png"",""time"":991},{""stimulus"":""img/3to1/11.png"",""time"":1097},{""stimulus"":""img/3to1/12.png"",""time"":1190}]","[]",""
"image-keyboard-response","84","100486","0.0-5.0-1.40","63bef4ddef5b4d7295effbbd","bdp_cybrbll","Tue Mar 28 2023 14:05:50 GMT-0500 (Central Daylight Time)","450690","3","1","","null","","","","observe","","img/1to3/1.png","null","185","523","0.5","0.5","1","2","","",""
"animation","85","101782","0.0-5.0-2.40","63bef4ddef5b4d7295effbbd","bdp_cybrbll","Tue Mar 28 2023 14:05:50 GMT-0500 (Central Daylight Time)","450690","3","1","","","","","","","","","","185","","","","1","2","[{""stimulus"":""img/1to2/1.png"",""time"":113},{""stimulus"":""img/1to2/2.png"",""time"":200},{""stimulus"":""img/1to2/3.png"",""time"":298},{""stimulus"":""img/1to2/4.png"",""time"":410},{""stimulus"":""img/1to2/5.png"",""time"":505},{""stimulus"":""img/1to2/6.png"",""time"":597},{""stimulus"":""img/1to2/7.png"",""time"":694},{""stimulus"":""img/1to2/8.png"",""time"":800},{""stimulus"":""img/1to2/9.png"",""time"":893},{""stimulus"":""img/1to2/10.png"",""time"":1001},{""stimulus"":""img/1to2/11.png"",""time"":1094},{""stimulus"":""img/1to2/12.png"",""time"":1203}]","[]",""
"image-keyboard-response","86","102537","0.0-5.0-1.41","63bef4ddef5b4d7295effbbd","bdp_cybrbll","Tue Mar 28 2023 14:05:50 GMT-0500 (Central Daylight Time)","450690","3","1","","755","","","","choice","","img/2to1/1.png","2","184","535","0.5","0.5","2","3","","",""
"animation","87","103825","0.0-5.0-2.41","63bef4ddef5b4d7295effbbd","bdp_cybrbll","Tue Mar 28 2023 14:05:50 GMT-0500 (Central Daylight Time)","450690","3","1","","","","","","","","","","184","","","","2","3","[{""stimulus"":""img/2to3/1.png"",""time"":100},{""stimulus"":""img/2to3/2.png"",""time"":208},{""stimulus"":""img/2to3/3.png"",""time"":301},{""stimulus"":""img/2to3/4.png"",""time"":398},{""stimulus"":""img/2to3/5.png"",""time"":503},{""stimulus"":""img/2to3/6.png"",""time"":595},{""stimulus"":""img/2to3/7.png"",""time"":694},{""stimulus"":""img/2to3/8.png"",""time"":794},{""stimulus"":""img/2to3/9.png"",""time"":892},{""stimulus"":""img/2to3/10.png"",""time"":991},{""stimulus"":""img/2to3/11.png"",""time"":1091},{""stimulus"":""img/2to3/12.png"",""time"":1203}]","[]",""
"image-keyboard-response","88","104580","0.0-5.0-1.42","63bef4ddef5b4d7295effbbd","bdp_cybrbll","Tue Mar 28 2023 14:05:50 GMT-0500 (Central Daylight Time)","450690","3","1","","null","","","","observe","","img/3to2/1.png","null","183","744","0.5","0.5","3","1","","",""
"animation","89","105868","0.0-5.0-2.42","63bef4ddef5b4d7295effbbd","bdp_cybrbll","Tue Mar 28 2023 14:05:50 GMT-0500 (Central Daylight Time)","450690","3","1","","","","","","","","","","183","","","","3","1","[{""stimulus"":""img/3to1/1.png"",""time"":109},{""stimulus"":""img/3to1/2.png"",""time"":202},{""stimulus"":""img/3to1/3.png"",""time"":299},{""stimulus"":""img/3to1/4.png"",""time"":403},{""stimulus"":""img/3to1/5.png"",""time"":511},{""stimulus"":""img/3to1/6.png"",""time"":604},{""stimulus"":""img/3to1/7.png"",""time"":698},{""stimulus"":""img/3to1/8.png"",""time"":794},{""stimulus"":""img/3to1/9.png"",""time"":900},{""stimulus"":""img/3to1/10.png"",""time"":991},{""stimulus"":""img/3to1/11.png"",""time"":1100},{""stimulus"":""img/3to1/12.png"",""time"":1190}]","[]",""
"image-keyboard-response","90","106518","0.0-5.0-1.43","63bef4ddef5b4d7295effbbd","bdp_cybrbll","Tue Mar 28 2023 14:05:50 GMT-0500 (Central Daylight Time)","450690","3","1","","null","","","","observe","","img/1to3/1.png","null","182","636","0.5","0.5","1","2","","",""
"animation","91","107806","0.0-5.0-2.43","63bef4ddef5b4d7295effbbd","bdp_cybrbll","Tue Mar 28 2023 14:05:50 GMT-0500 (Central Daylight Time)","450690","3","1","","","","","","","","","","182","","","","1","2","[{""stimulus"":""img/1to2/1.png"",""time"":107},{""stimulus"":""img/1to2/2.png"",""time"":199},{""stimulus"":""img/1to2/3.png"",""time"":298},{""stimulus"":""img/1to2/4.png"",""time"":397},{""stimulus"":""img/1to2/5.png"",""time"":511},{""stimulus"":""img/1to2/6.png"",""time"":603},{""stimulus"":""img/1to2/7.png"",""time"":695},{""stimulus"":""img/1to2/8.png"",""time"":793},{""stimulus"":""img/1to2/9.png"",""time"":892},{""stimulus"":""img/1to2/10.png"",""time"":991},{""stimulus"":""img/1to2/11.png"",""time"":1090},{""stimulus"":""img/1to2/12.png"",""time"":1201}]","[]",""
"image-keyboard-response","92","108113","0.0-5.0-1.44","63bef4ddef5b4d7295effbbd","bdp_cybrbll","Tue Mar 28 2023 14:05:50 GMT-0500 (Central Daylight Time)","450690","3","1","","305","","","","choice","","img/2to1/1.png","2","181","236","0.5","0.5","2","3","","",""
"animation","93","109411","0.0-5.0-2.44","63bef4ddef5b4d7295effbbd","bdp_cybrbll","Tue Mar 28 2023 14:05:50 GMT-0500 (Central Daylight Time)","450690","3","1","","","","","","","","","","181","","","","2","3","[{""stimulus"":""img/2to3/1.png"",""time"":104},{""stimulus"":""img/2to3/2.png"",""time"":200},{""stimulus"":""img/2to3/3.png"",""time"":298},{""stimulus"":""img/2to3/4.png"",""time"":398},{""stimulus"":""img/2to3/5.png"",""time"":508},{""stimulus"":""img/2to3/6.png"",""time"":602},{""stimulus"":""img/2to3/7.png"",""time"":694},{""stimulus"":""img/2to3/8.png"",""time"":804},{""stimulus"":""img/2to3/9.png"",""time"":898},{""stimulus"":""img/2to3/10.png"",""time"":992},{""stimulus"":""img/2to3/11.png"",""time"":1098},{""stimulus"":""img/2to3/12.png"",""time"":1191}]","[]",""
"image-keyboard-response","94","110583","0.0-5.0-1.45","63bef4ddef5b4d7295effbbd","bdp_cybrbll","Tue Mar 28 2023 14:05:50 GMT-0500 (Central Daylight Time)","450690","3","1","","null","","","","observe","","img/3to2/1.png","null","180","1163","0.5","0.5","3","2","","",""
"animation","95","111871","0.0-5.0-2.45","63bef4ddef5b4d7295effbbd","bdp_cybrbll","Tue Mar 28 2023 14:05:50 GMT-0500 (Central Daylight Time)","450690","3","1","","","","","","","","","","180","","","","3","2","[{""stimulus"":""img/3to2/1.png"",""time"":109},{""stimulus"":""img/3to2/2.png"",""time"":201},{""stimulus"":""img/3to2/3.png"",""time"":298},{""stimulus"":""img/3to2/4.png"",""time"":397},{""stimulus"":""img/3to2/5.png"",""time"":498},{""stimulus"":""img/3to2/6.png"",""time"":607},{""stimulus"":""img/3to2/7.png"",""time"":698},{""stimulus"":""img/3to2/8.png"",""time"":794},{""stimulus"":""img/3to2/9.png"",""time"":902},{""stimulus"":""img/3to2/10.png"",""time"":991},{""stimulus"":""img/3to2/11.png"",""time"":1090},{""stimulus"":""img/3to2/12.png"",""time"":1188}]","[]",""
"image-keyboard-response","96","112568","0.0-5.0-1.46","63bef4ddef5b4d7295effbbd","bdp_cybrbll","Tue Mar 28 2023 14:05:50 GMT-0500 (Central Daylight Time)","450690","3","1","","696","","","","choice","","img/2to1/1.png","1","179","522","0.5","0.5","2","1","","",""
"animation","97","113862","0.0-5.0-2.46","63bef4ddef5b4d7295effbbd","bdp_cybrbll","Tue Mar 28 2023 14:05:50 GMT-0500 (Central Daylight Time)","450690","3","1","","","","","","","","","","179","","","","2","1","[{""stimulus"":""img/2to1/1.png"",""time"":100},{""stimulus"":""img/2to1/2.png"",""time"":209},{""stimulus"":""img/2to1/3.png"",""time"":302},{""stimulus"":""img/2to1/4.png"",""time"":410},{""stimulus"":""img/2to1/5.png"",""time"":502},{""stimulus"":""img/2to1/6.png"",""time"":595},{""stimulus"":""img/2to1/7.png"",""time"":703},{""stimulus"":""img/2to1/8.png"",""time"":792},{""stimulus"":""img/2to1/9.png"",""time"":892},{""stimulus"":""img/2to1/10.png"",""time"":997},{""stimulus"":""img/2to1/11.png"",""time"":1093},{""stimulus"":""img/2to1/12.png"",""time"":1200}]","[]",""
"image-keyboard-response","98","114252","0.0-5.0-1.47","63bef4ddef5b4d7295effbbd","bdp_cybrbll","Tue Mar 28 2023 14:05:50 GMT-0500 (Central Daylight Time)","450690","3","1","","null","","","","observe","","img/1to3/1.png","null","178","388","0.5","0.5","1","3","","",""
"animation","99","115539","0.0-5.0-2.47","63bef4ddef5b4d7295effbbd","bdp_cybrbll","Tue Mar 28 2023 14:05:50 GMT-0500 (Central Daylight Time)","450690","3","1","","","","","","","","","","178","","","","1","3","[{""stimulus"":""img/1to3/1.png"",""time"":108},{""stimulus"":""img/1to3/2.png"",""time"":199},{""stimulus"":""img/1to3/3.png"",""time"":299},{""stimulus"":""img/1to3/4.png"",""time"":405},{""stimulus"":""img/1to3/5.png"",""time"":499},{""stimulus"":""img/1to3/6.png"",""time"":595},{""stimulus"":""img/1to3/7.png"",""time"":693},{""stimulus"":""img/1to3/8.png"",""time"":794},{""stimulus"":""img/1to3/9.png"",""time"":902},{""stimulus"":""img/1to3/10.png"",""time"":992},{""stimulus"":""img/1to3/11.png"",""time"":1091},{""stimulus"":""img/1to3/12.png"",""time"":1190}]","[]",""
"image-keyboard-response","100","116312","0.0-5.0-1.48","63bef4ddef5b4d7295effbbd","bdp_cybrbll","Tue Mar 28 2023 14:05:50 GMT-0500 (Central Daylight Time)","450690","3","1","","null","","","","observe","","img/3to2/1.png","null","177","761","0.5","0.5","3","2","","",""
"animation","101","117601","0.0-5.0-2.48","63bef4ddef5b4d7295effbbd","bdp_cybrbll","Tue Mar 28 2023 14:05:50 GMT-0500 (Central Daylight Time)","450690","3","1","","","","","","","","","","177","","","","3","2","[{""stimulus"":""img/3to2/1.png"",""time"":111},{""stimulus"":""img/3to2/2.png"",""time"":205},{""stimulus"":""img/3to2/3.png"",""time"":298},{""stimulus"":""img/3to2/4.png"",""time"":406},{""stimulus"":""img/3to2/5.png"",""time"":496},{""stimulus"":""img/3to2/6.png"",""time"":608},{""stimulus"":""img/3to2/7.png"",""time"":701},{""stimulus"":""img/3to2/8.png"",""time"":793},{""stimulus"":""img/3to2/9.png"",""time"":904},{""stimulus"":""img/3to2/10.png"",""time"":997},{""stimulus"":""img/3to2/11.png"",""time"":1090},{""stimulus"":""img/3to2/12.png"",""time"":1189}]","[]",""
"image-keyboard-response","102","117849","0.0-5.0-1.49","63bef4ddef5b4d7295effbbd","bdp_cybrbll","Tue Mar 28 2023 14:05:50 GMT-0500 (Central Daylight Time)","450690","3","1","","247","","","","choice","","img/2to1/1.png","1","176","579","0.5","0.5","2","1","","",""
"animation","103","119141","0.0-5.0-2.49","63bef4ddef5b4d7295effbbd","bdp_cybrbll","Tue Mar 28 2023 14:05:50 GMT-0500 (Central Daylight Time)","450690","3","1","","","","","","","","","","176","","","","2","1","[{""stimulus"":""img/2to1/1.png"",""time"":100},{""stimulus"":""img/2to1/2.png"",""time"":202},{""stimulus"":""img/2to1/3.png"",""time"":298},{""stimulus"":""img/2to1/4.png"",""time"":396},{""stimulus"":""img/2to1/5.png"",""time"":496},{""stimulus"":""img/2to1/6.png"",""time"":595},{""stimulus"":""img/2to1/7.png"",""time"":693},{""stimulus"":""img/2to1/8.png"",""time"":808},{""stimulus"":""img/2to1/9.png"",""time"":902},{""stimulus"":""img/2to1/10.png"",""time"":991},{""stimulus"":""img/2to1/11.png"",""time"":1105},{""stimulus"":""img/2to1/12.png"",""time"":1199}]","[]",""
"image-keyboard-response","104","119710","0.0-5.0-1.50","63bef4ddef5b4d7295effbbd","bdp_cybrbll","Tue Mar 28 2023 14:05:50 GMT-0500 (Central Daylight Time)","450690","3","1","","null","","","","observe","","img/1to3/1.png","null","175","568","0.5","0.5","1","2","","",""
"animation","105","120999","0.0-5.0-2.50","63bef4ddef5b4d7295effbbd","bdp_cybrbll","Tue Mar 28 2023 14:05:50 GMT-0500 (Central Daylight Time)","450690","3","1","","","","","","","","","","175","","","","1","2","[{""stimulus"":""img/1to2/1.png"",""time"":105},{""stimulus"":""img/1to2/2.png"",""time"":200},{""stimulus"":""img/1to2/3.png"",""time"":308},{""stimulus"":""img/1to2/4.png"",""time"":401},{""stimulus"":""img/1to2/5.png"",""time"":496},{""stimulus"":""img/1to2/6.png"",""time"":596},{""stimulus"":""img/1to2/7.png"",""time"":695},{""stimulus"":""img/1to2/8.png"",""time"":794},{""stimulus"":""img/1to2/9.png"",""time"":893},{""stimulus"":""img/1to2/10.png"",""time"":991},{""stimulus"":""img/1to2/11.png"",""time"":1102},{""stimulus"":""img/1to2/12.png"",""time"":1189}]","[]",""
"image-keyboard-response","106","121298","0.0-5.0-1.51","63bef4ddef5b4d7295effbbd","bdp_cybrbll","Tue Mar 28 2023 14:05:50 GMT-0500 (Central Daylight Time)","450690","3","1","","299","","","","choice","","img/2to1/1.png","2","174","242","0.5","0.5","2","3","","",""
"animation","107","122599","0.0-5.0-2.51","63bef4ddef5b4d7295effbbd","bdp_cybrbll","Tue Mar 28 2023 14:05:50 GMT-0500 (Central Daylight Time)","450690","3","1","","","","","","","","","","174","","","","2","3","[{""stimulus"":""img/2to3/1.png"",""time"":100},{""stimulus"":""img/2to3/2.png"",""time"":213},{""stimulus"":""img/2to3/3.png"",""time"":305},{""stimulus"":""img/2to3/4.png"",""time"":398},{""stimulus"":""img/2to3/5.png"",""time"":506},{""stimulus"":""img/2to3/6.png"",""time"":596},{""stimulus"":""img/2to3/7.png"",""time"":707},{""stimulus"":""img/2to3/8.png"",""time"":801},{""stimulus"":""img/2to3/9.png"",""time"":896},{""stimulus"":""img/2to3/10.png"",""time"":1005},{""stimulus"":""img/2to3/11.png"",""time"":1090},{""stimulus"":""img/2to3/12.png"",""time"":1193}]","[]",""
"image-keyboard-response","108","123079","0.0-5.0-1.52","63bef4ddef5b4d7295effbbd","bdp_cybrbll","Tue Mar 28 2023 14:05:50 GMT-0500 (Central Daylight Time)","450690","3","1","","null","","","","observe","","img/3to2/1.png","null","173","474","0.5","0.5","3","2","","",""
"animation","109","124369","0.0-5.0-2.52","63bef4ddef5b4d7295effbbd","bdp_cybrbll","Tue Mar 28 2023 14:05:50 GMT-0500 (Central Daylight Time)","450690","3","1","","","","","","","","","","173","","","","3","2","[{""stimulus"":""img/3to2/1.png"",""time"":110},{""stimulus"":""img/3to2/2.png"",""time"":204},{""stimulus"":""img/3to2/3.png"",""time"":299},{""stimulus"":""img/3to2/4.png"",""time"":398},{""stimulus"":""img/3to2/5.png"",""time"":498},{""stimulus"":""img/3to2/6.png"",""time"":595},{""stimulus"":""img/3to2/7.png"",""time"":701},{""stimulus"":""img/3to2/8.png"",""time"":795},{""stimulus"":""img/3to2/9.png"",""time"":904},{""stimulus"":""img/3to2/10.png"",""time"":998},{""stimulus"":""img/3to2/11.png"",""time"":1091},{""stimulus"":""img/3to2/12.png"",""time"":1198}]","[]",""
"image-keyboard-response","110","124585","0.0-5.0-1.53","63bef4ddef5b4d7295effbbd","bdp_cybrbll","Tue Mar 28 2023 14:05:50 GMT-0500 (Central Daylight Time)","450690","3","1","","215","","","","choice","","img/2to1/1.png","1","172","878","0.5","0.5","2","1","","",""
"animation","111","125884","0.0-5.0-2.53","63bef4ddef5b4d7295effbbd","bdp_cybrbll","Tue Mar 28 2023 14:05:50 GMT-0500 (Central Daylight Time)","450690","3","1","","","","","","","","","","172","","","","2","1","[{""stimulus"":""img/2to1/1.png"",""time"":112},{""stimulus"":""img/2to1/2.png"",""time"":205},{""stimulus"":""img/2to1/3.png"",""time"":297},{""stimulus"":""img/2to1/4.png"",""time"":397},{""stimulus"":""img/2to1/5.png"",""time"":503},{""stimulus"":""img/2to1/6.png"",""time"":595},{""stimulus"":""img/2to1/7.png"",""time"":706},{""stimulus"":""img/2to1/8.png"",""time"":798},{""stimulus"":""img/2to1/9.png"",""time"":892},{""stimulus"":""img/2to1/10.png"",""time"":1000},{""stimulus"":""img/2to1/11.png"",""time"":1095},{""stimulus"":""img/2to1/12.png"",""time"":1190}]","[]",""
"image-keyboard-response","112","126831","0.0-5.0-1.54","63bef4ddef5b4d7295effbbd","bdp_cybrbll","Tue Mar 28 2023 14:05:50 GMT-0500 (Central Daylight Time)","450690","3","1","","null","","","","observe","","img/1to3/1.png","null","171","935","0.5","0.5","1","2","","",""
"animation","113","128121","0.0-5.0-2.54","63bef4ddef5b4d7295effbbd","bdp_cybrbll","Tue Mar 28 2023 14:05:50 GMT-0500 (Central Daylight Time)","450690","3","1","","","","","","","","","","171","","","","1","2","[{""stimulus"":""img/1to2/1.png"",""time"":110},{""stimulus"":""img/1to2/2.png"",""time"":204},{""stimulus"":""img/1to2/3.png"",""time"":313},{""stimulus"":""img/1to2/4.png"",""time"":397},{""stimulus"":""img/1to2/5.png"",""time"":500},{""stimulus"":""img/1to2/6.png"",""time"":596},{""stimulus"":""img/1to2/7.png"",""time"":703},{""stimulus"":""img/1to2/8.png"",""time"":793},{""stimulus"":""img/1to2/9.png"",""time"":904},{""stimulus"":""img/1to2/10.png"",""time"":997},{""stimulus"":""img/1to2/11.png"",""time"":1105},{""stimulus"":""img/1to2/12.png"",""time"":1189}]","[]",""
"image-keyboard-response","114","128419","0.0-5.0-1.55","63bef4ddef5b4d7295effbbd","bdp_cybrbll","Tue Mar 28 2023 14:05:50 GMT-0500 (Central Daylight Time)","450690","3","1","","297","","","","choice","","img/2to1/1.png","2","170","454","0.5","0.5","2","3","","",""
"animation","115","129708","0.0-5.0-2.55","63bef4ddef5b4d7295effbbd","bdp_cybrbll","Tue Mar 28 2023 14:05:50 GMT-0500 (Central Daylight Time)","450690","3","1","","","","","","","","","","170","","","","2","3","[{""stimulus"":""img/2to3/1.png"",""time"":99},{""stimulus"":""img/2to3/2.png"",""time"":199},{""stimulus"":""img/2to3/3.png"",""time"":298},{""stimulus"":""img/2to3/4.png"",""time"":399},{""stimulus"":""img/2to3/5.png"",""time"":496},{""stimulus"":""img/2to3/6.png"",""time"":605},{""stimulus"":""img/2to3/7.png"",""time"":698},{""stimulus"":""img/2to3/8.png"",""time"":807},{""stimulus"":""img/2to3/9.png"",""time"":892},{""stimulus"":""img/2to3/10.png"",""time"":993},{""stimulus"":""img/2to3/11.png"",""time"":1102},{""stimulus"":""img/2to3/12.png"",""time"":1195}]","[]",""
"image-keyboard-response","116","130020","0.0-5.0-1.56","63bef4ddef5b4d7295effbbd","bdp_cybrbll","Tue Mar 28 2023 14:05:50 GMT-0500 (Central Daylight Time)","450690","3","1","","null","","","","observe","","img/3to2/1.png","null","169","310","0.5","0.5","3","1","","",""
"animation","117","131310","0.0-5.0-2.56","63bef4ddef5b4d7295effbbd","bdp_cybrbll","Tue Mar 28 2023 14:05:50 GMT-0500 (Central Daylight Time)","450690","3","1","","","","","","","","","","169","","","","3","1","[{""stimulus"":""img/3to1/1.png"",""time"":109},{""stimulus"":""img/3to1/2.png"",""time"":200},{""stimulus"":""img/3to1/3.png"",""time"":312},{""stimulus"":""img/3to1/4.png"",""time"":398},{""stimulus"":""img/3to1/5.png"",""time"":499},{""stimulus"":""img/3to1/6.png"",""time"":596},{""stimulus"":""img/3to1/7.png"",""time"":694},{""stimulus"":""img/3to1/8.png"",""time"":794},{""stimulus"":""img/3to1/9.png"",""time"":892},{""stimulus"":""img/3to1/10.png"",""time"":996},{""stimulus"":""img/3to1/11.png"",""time"":1104},{""stimulus"":""img/3to1/12.png"",""time"":1196}]","[]",""
"image-keyboard-response","118","132086","0.0-5.0-1.57","63bef4ddef5b4d7295effbbd","bdp_cybrbll","Tue Mar 28 2023 14:05:50 GMT-0500 (Central Daylight Time)","450690","3","1","","null","","","","observe","","img/1to3/1.png","null","168","776","0.5","0.5","1","3","","",""
"animation","119","133375","0.0-5.0-2.57","63bef4ddef5b4d7295effbbd","bdp_cybrbll","Tue Mar 28 2023 14:05:50 GMT-0500 (Central Daylight Time)","450690","3","1","","","","","","","","","","168","","","","1","3","[{""stimulus"":""img/1to3/1.png"",""time"":107},{""stimulus"":""img/1to3/2.png"",""time"":198},{""stimulus"":""img/1to3/3.png"",""time"":298},{""stimulus"":""img/1to3/4.png"",""time"":397},{""stimulus"":""img/1to3/5.png"",""time"":495},{""stimulus"":""img/1to3/6.png"",""time"":605},{""stimulus"":""img/1to3/7.png"",""time"":698},{""stimulus"":""img/1to3/8.png"",""time"":792},{""stimulus"":""img/1to3/9.png"",""time"":898},{""stimulus"":""img/1to3/10.png"",""time"":992},{""stimulus"":""img/1to3/11.png"",""time"":1100},{""stimulus"":""img/1to3/12.png"",""time"":1193}]","[]",""
"image-keyboard-response","120","133711","0.0-5.0-1.58","63bef4ddef5b4d7295effbbd","bdp_cybrbll","Tue Mar 28 2023 14:05:50 GMT-0500 (Central Daylight Time)","450690","3","1","","null","","","","observe","","img/3to2/1.png","null","167","334","0.5","0.5","3","2","","",""
"animation","121","134999","0.0-5.0-2.58","63bef4ddef5b4d7295effbbd","bdp_cybrbll","Tue Mar 28 2023 14:05:50 GMT-0500 (Central Daylight Time)","450690","3","1","","","","","","","","","","167","","","","3","2","[{""stimulus"":""img/3to2/1.png"",""time"":115},{""stimulus"":""img/3to2/2.png"",""time"":199},{""stimulus"":""img/3to2/3.png"",""time"":298},{""stimulus"":""img/3to2/4.png"",""time"":410},{""stimulus"":""img/3to2/5.png"",""time"":496},{""stimulus"":""img/3to2/6.png"",""time"":596},{""stimulus"":""img/3to2/7.png"",""time"":705},{""stimulus"":""img/3to2/8.png"",""time"":794},{""stimulus"":""img/3to2/9.png"",""time"":907},{""stimulus"":""img/3to2/10.png"",""time"":992},{""stimulus"":""img/3to2/11.png"",""time"":1090},{""stimulus"":""img/3to2/12.png"",""time"":1190}]","[]",""
"image-keyboard-response","122","135378","0.0-5.0-1.59","63bef4ddef5b4d7295effbbd","bdp_cybrbll","Tue Mar 28 2023 14:05:50 GMT-0500 (Central Daylight Time)","450690","3","1","","378","","","","choice","","img/2to1/1.png","2","166","511","0.5","0.5","2","3","","",""
"animation","123","136673","0.0-5.0-2.59","63bef4ddef5b4d7295effbbd","bdp_cybrbll","Tue Mar 28 2023 14:05:50 GMT-0500 (Central Daylight Time)","450690","3","1","","","","","","","","","","166","","","","2","3","[{""stimulus"":""img/2to3/1.png"",""time"":112},{""stimulus"":""img/2to3/2.png"",""time"":204},{""stimulus"":""img/2to3/3.png"",""time"":298},{""stimulus"":""img/2to3/4.png"",""time"":408},{""stimulus"":""img/2to3/5.png"",""time"":500},{""stimulus"":""img/2to3/6.png"",""time"":595},{""stimulus"":""img/2to3/7.png"",""time"":702},{""stimulus"":""img/2to3/8.png"",""time"":795},{""stimulus"":""img/2to3/9.png"",""time"":906},{""stimulus"":""img/2to3/10.png"",""time"":999},{""stimulus"":""img/2to3/11.png"",""time"":1090},{""stimulus"":""img/2to3/12.png"",""time"":1189}]","[]",""
"image-keyboard-response","124","137513","0.0-5.0-1.60","63bef4ddef5b4d7295effbbd","bdp_cybrbll","Tue Mar 28 2023 14:05:50 GMT-0500 (Central Daylight Time)","450690","3","1","","null","","","","observe","","img/3to2/1.png","null","165","837","0.5","0.5","3","2","","",""
"animation","125","138801","0.0-5.0-2.60","63bef4ddef5b4d7295effbbd","bdp_cybrbll","Tue Mar 28 2023 14:05:50 GMT-0500 (Central Daylight Time)","450690","3","1","","","","","","","","","","165","","","","3","2","[{""stimulus"":""img/3to2/1.png"",""time"":109},{""stimulus"":""img/3to2/2.png"",""time"":200},{""stimulus"":""img/3to2/3.png"",""time"":312},{""stimulus"":""img/3to2/4.png"",""time"":404},{""stimulus"":""img/3to2/5.png"",""time"":495},{""stimulus"":""img/3to2/6.png"",""time"":607},{""stimulus"":""img/3to2/7.png"",""time"":700},{""stimulus"":""img/3to2/8.png"",""time"":793},{""stimulus"":""img/3to2/9.png"",""time"":903},{""stimulus"":""img/3to2/10.png"",""time"":992},{""stimulus"":""img/3to2/11.png"",""time"":1091},{""stimulus"":""img/3to2/12.png"",""time"":1191}]","[]",""
"image-keyboard-response","126","139042","0.0-5.0-1.61","63bef4ddef5b4d7295effbbd","bdp_cybrbll","Tue Mar 28 2023 14:05:50 GMT-0500 (Central Daylight Time)","450690","3","1","","240","","","","choice","","img/2to1/1.png","1","164","286","0.5","0.5","2","1","","",""
"animation","127","140332","0.0-5.0-2.61","63bef4ddef5b4d7295effbbd","bdp_cybrbll","Tue Mar 28 2023 14:05:50 GMT-0500 (Central Daylight Time)","450690","3","1","","","","","","","","","","164","","","","2","1","[{""stimulus"":""img/2to1/1.png"",""time"":102},{""stimulus"":""img/2to1/2.png"",""time"":203},{""stimulus"":""img/2to1/3.png"",""time"":311},{""stimulus"":""img/2to1/4.png"",""time"":404},{""stimulus"":""img/2to1/5.png"",""time"":497},{""stimulus"":""img/2to1/6.png"",""time"":595},{""stimulus"":""img/2to1/7.png"",""time"":694},{""stimulus"":""img/2to1/8.png"",""time"":794},{""stimulus"":""img/2to1/9.png"",""time"":893},{""stimulus"":""img/2to1/10.png"",""time"":993},{""stimulus"":""img/2to1/11.png"",""time"":1091},{""stimulus"":""img/2to1/12.png"",""time"":1198}]","[]",""
"image-keyboard-response","128","141500","0.0-5.0-1.62","63bef4ddef5b4d7295effbbd","bdp_cybrbll","Tue Mar 28 2023 14:05:50 GMT-0500 (Central Daylight Time)","450690","3","1","","null","","","","observe","","img/1to3/1.png","null","163","1163","0.5","0.5","1","2","","",""
"animation","129","142795","0.0-5.0-2.62","63bef4ddef5b4d7295effbbd","bdp_cybrbll","Tue Mar 28 2023 14:05:50 GMT-0500 (Central Daylight Time)","450690","3","1","","","","","","","","","","163","","","","1","2","[{""stimulus"":""img/1to2/1.png"",""time"":111},{""stimulus"":""img/1to2/2.png"",""time"":202},{""stimulus"":""img/1to2/3.png"",""time"":299},{""stimulus"":""img/1to2/4.png"",""time"":397},{""stimulus"":""img/1to2/5.png"",""time"":500},{""stimulus"":""img/1to2/6.png"",""time"":609},{""stimulus"":""img/1to2/7.png"",""time"":701},{""stimulus"":""img/1to2/8.png"",""time"":794},{""stimulus"":""img/1to2/9.png"",""time"":893},{""stimulus"":""img/1to2/10.png"",""time"":991},{""stimulus"":""img/1to2/11.png"",""time"":1090},{""stimulus"":""img/1to2/12.png"",""time"":1203}]","[]",""
"image-keyboard-response","130","143137","0.0-5.0-1.63","63bef4ddef5b4d7295effbbd","bdp_cybrbll","Tue Mar 28 2023 14:05:50 GMT-0500 (Central Daylight Time)","450690","3","1","","340","","","","choice","","img/2to1/1.png","2","162","214","0.5","0.5","2","3","","",""
"animation","131","144425","0.0-5.0-2.63","63bef4ddef5b4d7295effbbd","bdp_cybrbll","Tue Mar 28 2023 14:05:50 GMT-0500 (Central Daylight Time)","450690","3","1","","","","","","","","","","162","","","","2","3","[{""stimulus"":""img/2to3/1.png"",""time"":110},{""stimulus"":""img/2to3/2.png"",""time"":199},{""stimulus"":""img/2to3/3.png"",""time"":312},{""stimulus"":""img/2to3/4.png"",""time"":408},{""stimulus"":""img/2to3/5.png"",""time"":495},{""stimulus"":""img/2to3/6.png"",""time"":609},{""stimulus"":""img/2to3/7.png"",""time"":694},{""stimulus"":""img/2to3/8.png"",""time"":792},{""stimulus"":""img/2to3/9.png"",""time"":892},{""stimulus"":""img/2to3/10.png"",""time"":991},{""stimulus"":""img/2to3/11.png"",""time"":1090},{""stimulus"":""img/2to3/12.png"",""time"":1199}]","[]",""
"image-keyboard-response","132","145219","0.0-5.0-1.64","63bef4ddef5b4d7295effbbd","bdp_cybrbll","Tue Mar 28 2023 14:05:50 GMT-0500 (Central Daylight Time)","450690","3","1","","null","","","","observe","","img/3to2/1.png","null","161","791","0.5","0.5","3","2","","",""
"animation","133","146508","0.0-5.0-2.64","63bef4ddef5b4d7295effbbd","bdp_cybrbll","Tue Mar 28 2023 14:05:50 GMT-0500 (Central Daylight Time)","450690","3","1","","","","","","","","","","161","","","","3","2","[{""stimulus"":""img/3to2/1.png"",""time"":110},{""stimulus"":""img/3to2/2.png"",""time"":199},{""stimulus"":""img/3to2/3.png"",""time"":312},{""stimulus"":""img/3to2/4.png"",""time"":406},{""stimulus"":""img/3to2/5.png"",""time"":498},{""stimulus"":""img/3to2/6.png"",""time"":607},{""stimulus"":""img/3to2/7.png"",""time"":700},{""stimulus"":""img/3to2/8.png"",""time"":793},{""stimulus"":""img/3to2/9.png"",""time"":892},{""stimulus"":""img/3to2/10.png"",""time"":998},{""stimulus"":""img/3to2/11.png"",""time"":1090},{""stimulus"":""img/3to2/12.png"",""time"":1190}]","[]",""
"image-keyboard-response","134","147827","0.0-5.0-1.65","63bef4ddef5b4d7295effbbd","bdp_cybrbll","Tue Mar 28 2023 14:05:50 GMT-0500 (Central Daylight Time)","450690","3","1","","1319","","","","choice","","img/2to1/1.png","1","160","247","0.5","0.5","2","1","","",""
"animation","135","149116","0.0-5.0-2.65","63bef4ddef5b4d7295effbbd","bdp_cybrbll","Tue Mar 28 2023 14:05:50 GMT-0500 (Central Daylight Time)","450690","3","1","","","","","","","","","","160","","","","2","1","[{""stimulus"":""img/2to1/1.png"",""time"":101},{""stimulus"":""img/2to1/2.png"",""time"":210},{""stimulus"":""img/2to1/3.png"",""time"":303},{""stimulus"":""img/2to1/4.png"",""time"":397},{""stimulus"":""img/2to1/5.png"",""time"":506},{""stimulus"":""img/2to1/6.png"",""time"":599},{""stimulus"":""img/2to1/7.png"",""time"":705},{""stimulus"":""img/2to1/8.png"",""time"":797},{""stimulus"":""img/2to1/9.png"",""time"":893},{""stimulus"":""img/2to1/10.png"",""time"":1000},{""stimulus"":""img/2to1/11.png"",""time"":1090},{""stimulus"":""img/2to1/12.png"",""time"":1189}]","[]",""
"image-keyboard-response","136","149323","0.0-5.0-1.66","63bef4ddef5b4d7295effbbd","bdp_cybrbll","Tue Mar 28 2023 14:05:50 GMT-0500 (Central Daylight Time)","450690","3","1","","null","","","","observe","","img/1to3/1.png","null","159","196","0.5","0.5","1","3","","",""
"animation","137","150611","0.0-5.0-2.66","63bef4ddef5b4d7295effbbd","bdp_cybrbll","Tue Mar 28 2023 14:05:50 GMT-0500 (Central Daylight Time)","450690","3","1","","","","","","","","","","159","","","","1","3","[{""stimulus"":""img/1to3/1.png"",""time"":109},{""stimulus"":""img/1to3/2.png"",""time"":199},{""stimulus"":""img/1to3/3.png"",""time"":312},{""stimulus"":""img/1to3/4.png"",""time"":403},{""stimulus"":""img/1to3/5.png"",""time"":495},{""stimulus"":""img/1to3/6.png"",""time"":595},{""stimulus"":""img/1to3/7.png"",""time"":699},{""stimulus"":""img/1to3/8.png"",""time"":808},{""stimulus"":""img/1to3/9.png"",""time"":892},{""stimulus"":""img/1to3/10.png"",""time"":993},{""stimulus"":""img/1to3/11.png"",""time"":1102},{""stimulus"":""img/1to3/12.png"",""time"":1195}]","[]",""
"image-keyboard-response","138","150878","0.0-5.0-1.67","63bef4ddef5b4d7295effbbd","bdp_cybrbll","Tue Mar 28 2023 14:05:50 GMT-0500 (Central Daylight Time)","450690","3","1","","null","","","","observe","","img/3to2/1.png","null","158","266","0.5","0.5","3","2","","",""
"animation","139","152166","0.0-5.0-2.67","63bef4ddef5b4d7295effbbd","bdp_cybrbll","Tue Mar 28 2023 14:05:50 GMT-0500 (Central Daylight Time)","450690","3","1","","","","","","","","","","158","","","","3","2","[{""stimulus"":""img/3to2/1.png"",""time"":108},{""stimulus"":""img/3to2/2.png"",""time"":199},{""stimulus"":""img/3to2/3.png"",""time"":298},{""stimulus"":""img/3to2/4.png"",""time"":402},{""stimulus"":""img/3to2/5.png"",""time"":511},{""stimulus"":""img/3to2/6.png"",""time"":606},{""stimulus"":""img/3to2/7.png"",""time"":694},{""stimulus"":""img/3to2/8.png"",""time"":793},{""stimulus"":""img/3to2/9.png"",""time"":893},{""stimulus"":""img/3to2/10.png"",""time"":991},{""stimulus"":""img/3to2/11.png"",""time"":1090},{""stimulus"":""img/3to2/12.png"",""time"":1190}]","[]",""
"image-keyboard-response","140","152217","0.0-5.0-1.68","63bef4ddef5b4d7295effbbd","bdp_cybrbll","Tue Mar 28 2023 14:05:50 GMT-0500 (Central Daylight Time)","450690","3","1","","51","","","","choice","","img/2to1/1.png","1","157","468","0.5","0.5","2","1","","",""
"animation","141","153519","0.0-5.0-2.68","63bef4ddef5b4d7295effbbd","bdp_cybrbll","Tue Mar 28 2023 14:05:50 GMT-0500 (Central Daylight Time)","450690","3","1","","","","","","","","","","157","","","","2","1","[{""stimulus"":""img/2to1/1.png"",""time"":110},{""stimulus"":""img/2to1/2.png"",""time"":200},{""stimulus"":""img/2to1/3.png"",""time"":313},{""stimulus"":""img/2to1/4.png"",""time"":397},{""stimulus"":""img/2to1/5.png"",""time"":496},{""stimulus"":""img/2to1/6.png"",""time"":595},{""stimulus"":""img/2to1/7.png"",""time"":708},{""stimulus"":""img/2to1/8.png"",""time"":793},{""stimulus"":""img/2to1/9.png"",""time"":892},{""stimulus"":""img/2to1/10.png"",""time"":991},{""stimulus"":""img/2to1/11.png"",""time"":1099},{""stimulus"":""img/2to1/12.png"",""time"":1190}]","[]",""
"image-keyboard-response","142","154110","0.0-5.0-1.69","63bef4ddef5b4d7295effbbd","bdp_cybrbll","Tue Mar 28 2023 14:05:50 GMT-0500 (Central Daylight Time)","450690","3","1","","null","","","","observe","","img/1to3/1.png","null","156","575","0.5","0.5","1","2","","",""
"animation","143","155401","0.0-5.0-2.69","63bef4ddef5b4d7295effbbd","bdp_cybrbll","Tue Mar 28 2023 14:05:50 GMT-0500 (Central Daylight Time)","450690","3","1","","","","","","","","","","156","","","","1","2","[{""stimulus"":""img/1to2/1.png"",""time"":109},{""stimulus"":""img/1to2/2.png"",""time"":201},{""stimulus"":""img/1to2/3.png"",""time"":299},{""stimulus"":""img/1to2/4.png"",""time"":404},{""stimulus"":""img/1to2/5.png"",""time"":510},{""stimulus"":""img/1to2/6.png"",""time"":596},{""stimulus"":""img/1to2/7.png"",""time"":697},{""stimulus"":""img/1to2/8.png"",""time"":808},{""stimulus"":""img/1to2/9.png"",""time"":892},{""stimulus"":""img/1to2/10.png"",""time"":990},{""stimulus"":""img/1to2/11.png"",""time"":1090},{""stimulus"":""img/1to2/12.png"",""time"":1197}]","[]",""
"image-keyboard-response","144","155737","0.0-5.0-1.70","63bef4ddef5b4d7295effbbd","bdp_cybrbll","Tue Mar 28 2023 14:05:50 GMT-0500 (Central Daylight Time)","450690","3","1","","336","","","","choice","","img/2to1/1.png","1","155","864","0.5","0.5","2","1","","",""
"animation","145","157032","0.0-5.0-2.70","63bef4ddef5b4d7295effbbd","bdp_cybrbll","Tue Mar 28 2023 14:05:50 GMT-0500 (Central Daylight Time)","450690","3","1","","","","","","","","","","155","","","","2","1","[{""stimulus"":""img/2to1/1.png"",""time"":114},{""stimulus"":""img/2to1/2.png"",""time"":199},{""stimulus"":""img/2to1/3.png"",""time"":299},{""stimulus"":""img/2to1/4.png"",""time"":397},{""stimulus"":""img/2to1/5.png"",""time"":496},{""stimulus"":""img/2to1/6.png"",""time"":608},{""stimulus"":""img/2to1/7.png"",""time"":695},{""stimulus"":""img/2to1/8.png"",""time"":793},{""stimulus"":""img/2to1/9.png"",""time"":892},{""stimulus"":""img/2to1/10.png"",""time"":991},{""stimulus"":""img/2to1/11.png"",""time"":1090},{""stimulus"":""img/2to1/12.png"",""time"":1202}]","[]",""
"image-keyboard-response","146","157779","0.0-5.0-1.71","63bef4ddef5b4d7295effbbd","bdp_cybrbll","Tue Mar 28 2023 14:05:50 GMT-0500 (Central Daylight Time)","450690","3","1","","null","","","","observe","","img/1to3/1.png","null","154","734","0.5","0.5","1","3","","",""
"animation","147","159068","0.0-5.0-2.71","63bef4ddef5b4d7295effbbd","bdp_cybrbll","Tue Mar 28 2023 14:05:50 GMT-0500 (Central Daylight Time)","450690","3","1","","","","","","","","","","154","","","","1","3","[{""stimulus"":""img/1to3/1.png"",""time"":107},{""stimulus"":""img/1to3/2.png"",""time"":200},{""stimulus"":""img/1to3/3.png"",""time"":307},{""stimulus"":""img/1to3/4.png"",""time"":396},{""stimulus"":""img/1to3/5.png"",""time"":510},{""stimulus"":""img/1to3/6.png"",""time"":604},{""stimulus"":""img/1to3/7.png"",""time"":694},{""stimulus"":""img/1to3/8.png"",""time"":805},{""stimulus"":""img/1to3/9.png"",""time"":897},{""stimulus"":""img/1to3/10.png"",""time"":990},{""stimulus"":""img/1to3/11.png"",""time"":1101},{""stimulus"":""img/1to3/12.png"",""time"":1188}]","[]",""
"image-keyboard-response","148","159519","0.0-5.0-1.72","63bef4ddef5b4d7295effbbd","bdp_cybrbll","Tue Mar 28 2023 14:05:50 GMT-0500 (Central Daylight Time)","450690","3","1","","null","","","","observe","","img/3to2/1.png","null","153","442","0.5","0.5","3","1","","",""
"animation","149","160807","0.0-5.0-2.72","63bef4ddef5b4d7295effbbd","bdp_cybrbll","Tue Mar 28 2023 14:05:50 GMT-0500 (Central Daylight Time)","450690","3","1","","","","","","","","","","153","","","","3","1","[{""stimulus"":""img/3to1/1.png"",""time"":109},{""stimulus"":""img/3to1/2.png"",""time"":199},{""stimulus"":""img/3to1/3.png"",""time"":298},{""stimulus"":""img/3to1/4.png"",""time"":398},{""stimulus"":""img/3to1/5.png"",""time"":497},{""stimulus"":""img/3to1/6.png"",""time"":595},{""stimulus"":""img/3to1/7.png"",""time"":694},{""stimulus"":""img/3to1/8.png"",""time"":793},{""stimulus"":""img/3to1/9.png"",""time"":893},{""stimulus"":""img/3to1/10.png"",""time"":992},{""stimulus"":""img/3to1/11.png"",""time"":1103},{""stimulus"":""img/3to1/12.png"",""time"":1197}]","[]",""
"image-keyboard-response","150","161510","0.0-5.0-1.73","63bef4ddef5b4d7295effbbd","bdp_cybrbll","Tue Mar 28 2023 14:05:50 GMT-0500 (Central Daylight Time)","450690","3","1","","null","","","","observe","","img/1to3/1.png","null","152","687","0.5","0.5","1","2","","",""
"animation","151","162802","0.0-5.0-2.73","63bef4ddef5b4d7295effbbd","bdp_cybrbll","Tue Mar 28 2023 14:05:50 GMT-0500 (Central Daylight Time)","450690","3","1","","","","","","","","","","152","","","","1","2","[{""stimulus"":""img/1to2/1.png"",""time"":111},{""stimulus"":""img/1to2/2.png"",""time"":198},{""stimulus"":""img/1to2/3.png"",""time"":298},{""stimulus"":""img/1to2/4.png"",""time"":407},{""stimulus"":""img/1to2/5.png"",""time"":496},{""stimulus"":""img/1to2/6.png"",""time"":608},{""stimulus"":""img/1to2/7.png"",""time"":695},{""stimulus"":""img/1to2/8.png"",""time"":793},{""stimulus"":""img/1to2/9.png"",""time"":903},{""stimulus"":""img/1to2/10.png"",""time"":997},{""stimulus"":""img/1to2/11.png"",""time"":1090},{""stimulus"":""img/1to2/12.png"",""time"":1199}]","[]",""
"image-keyboard-response","152","162920","0.0-5.0-1.74","63bef4ddef5b4d7295effbbd","bdp_cybrbll","Tue Mar 28 2023 14:05:50 GMT-0500 (Central Daylight Time)","450690","3","1","","118","","","","choice","","img/2to1/1.png","2","151","234","0.5","0.5","2","3","","",""
"animation","153","164208","0.0-5.0-2.74","63bef4ddef5b4d7295effbbd","bdp_cybrbll","Tue Mar 28 2023 14:05:50 GMT-0500 (Central Daylight Time)","450690","3","1","","","","","","","","","","151","","","","2","3","[{""stimulus"":""img/2to3/1.png"",""time"":103},{""stimulus"":""img/2to3/2.png"",""time"":211},{""stimulus"":""img/2to3/3.png"",""time"":299},{""stimulus"":""img/2to3/4.png"",""time"":398},{""stimulus"":""img/2to3/5.png"",""time"":497},{""stimulus"":""img/2to3/6.png"",""time"":595},{""stimulus"":""img/2to3/7.png"",""time"":709},{""stimulus"":""img/2to3/8.png"",""time"":793},{""stimulus"":""img/2to3/9.png"",""time"":893},{""stimulus"":""img/2to3/10.png"",""time"":991},{""stimulus"":""img/2to3/11.png"",""time"":1091},{""stimulus"":""img/2to3/12.png"",""time"":1189}]","[]",""
"image-keyboard-response","154","164626","0.0-5.0-1.75","63bef4ddef5b4d7295effbbd","bdp_cybrbll","Tue Mar 28 2023 14:05:50 GMT-0500 (Central Daylight Time)","450690","3","1","","null","","","","observe","","img/3to2/1.png","null","150","411","0.5","0.5","3","1","","",""
"animation","155","165914","0.0-5.0-2.75","63bef4ddef5b4d7295effbbd","bdp_cybrbll","Tue Mar 28 2023 14:05:50 GMT-0500 (Central Daylight Time)","450690","3","1","","","","","","","","","","150","","","","3","1","[{""stimulus"":""img/3to1/1.png"",""time"":109},{""stimulus"":""img/3to1/2.png"",""time"":202},{""stimulus"":""img/3to1/3.png"",""time"":298},{""stimulus"":""img/3to1/4.png"",""time"":398},{""stimulus"":""img/3to1/5.png"",""time"":500},{""stimulus"":""img/3to1/6.png"",""time"":596},{""stimulus"":""img/3to1/7.png"",""time"":703},{""stimulus"":""img/3to1/8.png"",""time"":793},{""stimulus"":""img/3to1/9.png"",""time"":905},{""stimulus"":""img/3to1/10.png"",""time"":991},{""stimulus"":""img/3to1/11.png"",""time"":1092},{""stimulus"":""img/3to1/12.png"",""time"":1201}]","[]",""
"image-keyboard-response","156","167178","0.0-5.0-1.76","63bef4ddef5b4d7295effbbd","bdp_cybrbll","Tue Mar 28 2023 14:05:50 GMT-0500 (Central Daylight Time)","450690","3","1","","null","","","","observe","","img/1to3/1.png","null","149","1257","0.5","0.1","1","3","","",""
"animation","157","168475","0.0-5.0-2.76","63bef4ddef5b4d7295effbbd","bdp_cybrbll","Tue Mar 28 2023 14:05:50 GMT-0500 (Central Daylight Time)","450690","3","1","","","","","","","","","","149","","","","1","3","[{""stimulus"":""img/1to3/1.png"",""time"":110},{""stimulus"":""img/1to3/2.png"",""time"":203},{""stimulus"":""img/1to3/3.png"",""time"":313},{""stimulus"":""img/1to3/4.png"",""time"":407},{""stimulus"":""img/1to3/5.png"",""time"":496},{""stimulus"":""img/1to3/6.png"",""time"":609},{""stimulus"":""img/1to3/7.png"",""time"":694},{""stimulus"":""img/1to3/8.png"",""time"":796},{""stimulus"":""img/1to3/9.png"",""time"":891},{""stimulus"":""img/1to3/10.png"",""time"":1000},{""stimulus"":""img/1to3/11.png"",""time"":1091},{""stimulus"":""img/1to3/12.png"",""time"":1189}]","[]",""
"image-keyboard-response","158","168831","0.0-5.0-1.77","63bef4ddef5b4d7295effbbd","bdp_cybrbll","Tue Mar 28 2023 14:05:50 GMT-0500 (Central Daylight Time)","450690","3","1","","null","","","","observe","","img/3to2/1.png","null","148","345","0.5","0.1","3","1","","",""
"animation","159","170119","0.0-5.0-2.77","63bef4ddef5b4d7295effbbd","bdp_cybrbll","Tue Mar 28 2023 14:05:50 GMT-0500 (Central Daylight Time)","450690","3","1","","","","","","","","","","148","","","","3","1","[{""stimulus"":""img/3to1/1.png"",""time"":112},{""stimulus"":""img/3to1/2.png"",""time"":199},{""stimulus"":""img/3to1/3.png"",""time"":298},{""stimulus"":""img/3to1/4.png"",""time"":409},{""stimulus"":""img/3to1/5.png"",""time"":502},{""stimulus"":""img/3to1/6.png"",""time"":597},{""stimulus"":""img/3to1/7.png"",""time"":705},{""stimulus"":""img/3to1/8.png"",""time"":793},{""stimulus"":""img/3to1/9.png"",""time"":892},{""stimulus"":""img/3to1/10.png"",""time"":999},{""stimulus"":""img/3to1/11.png"",""time"":1092},{""stimulus"":""img/3to1/12.png"",""time"":1202}]","[]",""
"image-keyboard-response","160","170860","0.0-5.0-1.78","63bef4ddef5b4d7295effbbd","bdp_cybrbll","Tue Mar 28 2023 14:05:50 GMT-0500 (Central Daylight Time)","450690","3","1","","null","","","","observe","","img/1to3/1.png","null","147","736","0.5","0.1","1","3","","",""
"animation","161","172148","0.0-5.0-2.78","63bef4ddef5b4d7295effbbd","bdp_cybrbll","Tue Mar 28 2023 14:05:50 GMT-0500 (Central Daylight Time)","450690","3","1","","","","","","","","","","147","","","","1","3","[{""stimulus"":""img/1to3/1.png"",""time"":107},{""stimulus"":""img/1to3/2.png"",""time"":199},{""stimulus"":""img/1to3/3.png"",""time"":298},{""stimulus"":""img/1to3/4.png"",""time"":397},{""stimulus"":""img/1to3/5.png"",""time"":508},{""stimulus"":""img/1to3/6.png"",""time"":595},{""stimulus"":""img/1to3/7.png"",""time"":695},{""stimulus"":""img/1to3/8.png"",""time"":793},{""stimulus"":""img/1to3/9.png"",""time"":897},{""stimulus"":""img/1to3/10.png"",""time"":992},{""stimulus"":""img/1to3/11.png"",""time"":1099},{""stimulus"":""img/1to3/12.png"",""time"":1189}]","[]",""
"image-keyboard-response","162","172501","0.0-5.0-1.79","63bef4ddef5b4d7295effbbd","bdp_cybrbll","Tue Mar 28 2023 14:05:50 GMT-0500 (Central Daylight Time)","450690","3","1","","null","","","","observe","","img/3to2/1.png","null","146","350","0.5","0.1","3","1","","",""
"animation","163","173802","0.0-5.0-2.79","63bef4ddef5b4d7295effbbd","bdp_cybrbll","Tue Mar 28 2023 14:05:50 GMT-0500 (Central Daylight Time)","450690","3","1","","","","","","","","","","146","","","","3","1","[{""stimulus"":""img/3to1/1.png"",""time"":108},{""stimulus"":""img/3to1/2.png"",""time"":202},{""stimulus"":""img/3to1/3.png"",""time"":308},{""stimulus"":""img/3to1/4.png"",""time"":397},{""stimulus"":""img/3to1/5.png"",""time"":496},{""stimulus"":""img/3to1/6.png"",""time"":604},{""stimulus"":""img/3to1/7.png"",""time"":697},{""stimulus"":""img/3to1/8.png"",""time"":806},{""stimulus"":""img/3to1/9.png"",""time"":892},{""stimulus"":""img/3to1/10.png"",""time"":1006},{""stimulus"":""img/3to1/11.png"",""time"":1091},{""stimulus"":""img/3to1/12.png"",""time"":1192}]","[]",""
"image-keyboard-response","164","174177","0.0-5.0-1.80","63bef4ddef5b4d7295effbbd","bdp_cybrbll","Tue Mar 28 2023 14:05:50 GMT-0500 (Central Daylight Time)","450690","3","1","","null","","","","observe","","img/1to3/1.png","null","145","368","0.5","0.1","1","3","","",""
"animation","165","175473","0.0-5.0-2.80","63bef4ddef5b4d7295effbbd","bdp_cybrbll","Tue Mar 28 2023 14:05:50 GMT-0500 (Central Daylight Time)","450690","3","1","","","","","","","","","","145","","","","1","3","[{""stimulus"":""img/1to3/1.png"",""time"":108},{""stimulus"":""img/1to3/2.png"",""time"":200},{""stimulus"":""img/1to3/3.png"",""time"":299},{""stimulus"":""img/1to3/4.png"",""time"":405},{""stimulus"":""img/1to3/5.png"",""time"":496},{""stimulus"":""img/1to3/6.png"",""time"":608},{""stimulus"":""img/1to3/7.png"",""time"":701},{""stimulus"":""img/1to3/8.png"",""time"":794},{""stimulus"":""img/1to3/9.png"",""time"":906},{""stimulus"":""img/1to3/10.png"",""time"":990},{""stimulus"":""img/1to3/11.png"",""time"":1092},{""stimulus"":""img/1to3/12.png"",""time"":1201}]","[]",""
"image-keyboard-response","166","175831","0.0-5.0-1.81","63bef4ddef5b4d7295effbbd","bdp_cybrbll","Tue Mar 28 2023 14:05:50 GMT-0500 (Central Daylight Time)","450690","3","1","","null","","","","observe","","img/3to2/1.png","null","144","355","0.5","0.1","3","1","","",""
"animation","167","177121","0.0-5.0-2.81","63bef4ddef5b4d7295effbbd","bdp_cybrbll","Tue Mar 28 2023 14:05:50 GMT-0500 (Central Daylight Time)","450690","3","1","","","","","","","","","","144","","","","3","1","[{""stimulus"":""img/3to1/1.png"",""time"":107},{""stimulus"":""img/3to1/2.png"",""time"":202},{""stimulus"":""img/3to1/3.png"",""time"":298},{""stimulus"":""img/3to1/4.png"",""time"":397},{""stimulus"":""img/3to1/5.png"",""time"":496},{""stimulus"":""img/3to1/6.png"",""time"":605},{""stimulus"":""img/3to1/7.png"",""time"":694},{""stimulus"":""img/3to1/8.png"",""time"":793},{""stimulus"":""img/3to1/9.png"",""time"":901},{""stimulus"":""img/3to1/10.png"",""time"":992},{""stimulus"":""img/3to1/11.png"",""time"":1103},{""stimulus"":""img/3to1/12.png"",""time"":1190}]","[]",""
"image-keyboard-response","168","177383","0.0-5.0-1.82","63bef4ddef5b4d7295effbbd","bdp_cybrbll","Tue Mar 28 2023 14:05:50 GMT-0500 (Central Daylight Time)","450690","3","1","","null","","","","observe","","img/1to3/1.png","null","143","251","0.5","0.1","1","2","","",""
"animation","169","178671","0.0-5.0-2.82","63bef4ddef5b4d7295effbbd","bdp_cybrbll","Tue Mar 28 2023 14:05:50 GMT-0500 (Central Daylight Time)","450690","3","1","","","","","","","","","","143","","","","1","2","[{""stimulus"":""img/1to2/1.png"",""time"":109},{""stimulus"":""img/1to2/2.png"",""time"":199},{""stimulus"":""img/1to2/3.png"",""time"":298},{""stimulus"":""img/1to2/4.png"",""time"":396},{""stimulus"":""img/1to2/5.png"",""time"":496},{""stimulus"":""img/1to2/6.png"",""time"":596},{""stimulus"":""img/1to2/7.png"",""time"":695},{""stimulus"":""img/1to2/8.png"",""time"":793},{""stimulus"":""img/1to2/9.png"",""time"":900},{""stimulus"":""img/1to2/10.png"",""time"":993},{""stimulus"":""img/1to2/11.png"",""time"":1101},{""stimulus"":""img/1to2/12.png"",""time"":1194}]","[]",""
"image-keyboard-response","170","179690","0.0-5.0-1.83","63bef4ddef5b4d7295effbbd","bdp_cybrbll","Tue Mar 28 2023 14:05:50 GMT-0500 (Central Daylight Time)","450690","3","1","","1019","","","","choice","","img/2to1/1.png","2","142","144","0.5","0.1","2","3","","",""
"animation","171","180979","0.0-5.0-2.83","63bef4ddef5b4d7295effbbd","bdp_cybrbll","Tue Mar 28 2023 14:05:50 GMT-0500 (Central Daylight Time)","450690","3","1","","","","","","","","","","142","","","","2","3","[{""stimulus"":""img/2to3/1.png"",""time"":100},{""stimulus"":""img/2to3/2.png"",""time"":199},{""stimulus"":""img/2to3/3.png"",""time"":299},{""stimulus"":""img/2to3/4.png"",""time"":408},{""stimulus"":""img/2to3/5.png"",""time"":503},{""stimulus"":""img/2to3/6.png"",""time"":594},{""stimulus"":""img/2to3/7.png"",""time"":705},{""stimulus"":""img/2to3/8.png"",""time"":798},{""stimulus"":""img/2to3/9.png"",""time"":892},{""stimulus"":""img/2to3/10.png"",""time"":998},{""stimulus"":""img/2to3/11.png"",""time"":1090},{""stimulus"":""img/2to3/12.png"",""time"":1189}]","[]",""
"image-keyboard-response","172","181264","0.0-5.0-1.84","63bef4ddef5b4d7295effbbd","bdp_cybrbll","Tue Mar 28 2023 14:05:50 GMT-0500 (Central Daylight Time)","450690","3","1","","null","","","","observe","","img/3to2/1.png","null","141","283","0.5","0.1","3","1","","",""
"animation","173","182564","0.0-5.0-2.84","63bef4ddef5b4d7295effbbd","bdp_cybrbll","Tue Mar 28 2023 14:05:50 GMT-0500 (Central Daylight Time)","450690","3","1","","","","","","","","","","141","","","","3","1","[{""stimulus"":""img/3to1/1.png"",""time"":111},{""stimulus"":""img/3to1/2.png"",""time"":206},{""stimulus"":""img/3to1/3.png"",""time"":300},{""stimulus"":""img/3to1/4.png"",""time"":410},{""stimulus"":""img/3to1/5.png"",""time"":502},{""stimulus"":""img/3to1/6.png"",""time"":596},{""stimulus"":""img/3to1/7.png"",""time"":693},{""stimulus"":""img/3to1/8.png"",""time"":797},{""stimulus"":""img/3to1/9.png"",""time"":906},{""stimulus"":""img/3to1/10.png"",""time"":991},{""stimulus"":""img/3to1/11.png"",""time"":1090},{""stimulus"":""img/3to1/12.png"",""time"":1189}]","[]",""
"image-keyboard-response","174","182810","0.0-5.0-1.85","63bef4ddef5b4d7295effbbd","bdp_cybrbll","Tue Mar 28 2023 14:05:50 GMT-0500 (Central Daylight Time)","450690","3","1","","null","","","","observe","","img/1to3/1.png","null","140","245","0.5","0.1","1","3","","",""
"animation","175","184108","0.0-5.0-2.85","63bef4ddef5b4d7295effbbd","bdp_cybrbll","Tue Mar 28 2023 14:05:50 GMT-0500 (Central Daylight Time)","450690","3","1","","","","","","","","","","140","","","","1","3","[{""stimulus"":""img/1to3/1.png"",""time"":113},{""stimulus"":""img/1to3/2.png"",""time"":208},{""stimulus"":""img/1to3/3.png"",""time"":301},{""stimulus"":""img/1to3/4.png"",""time"":397},{""stimulus"":""img/1to3/5.png"",""time"":502},{""stimulus"":""img/1to3/6.png"",""time"":594},{""stimulus"":""img/1to3/7.png"",""time"":703},{""stimulus"":""img/1to3/8.png"",""time"":793},{""stimulus"":""img/1to3/9.png"",""time"":891},{""stimulus"":""img/1to3/10.png"",""time"":990},{""stimulus"":""img/1to3/11.png"",""time"":1094},{""stimulus"":""img/1to3/12.png"",""time"":1189}]","[]",""
"image-keyboard-response","176","184359","0.0-5.0-1.86","63bef4ddef5b4d7295effbbd","bdp_cybrbll","Tue Mar 28 2023 14:05:50 GMT-0500 (Central Daylight Time)","450690","3","1","","null","","","","observe","","img/3to2/1.png","null","139","250","0.5","0.1","3","2","","",""
"animation","177","185647","0.0-5.0-2.86","63bef4ddef5b4d7295effbbd","bdp_cybrbll","Tue Mar 28 2023 14:05:50 GMT-0500 (Central Daylight Time)","450690","3","1","","","","","","","","","","139","","","","3","2","[{""stimulus"":""img/3to2/1.png"",""time"":111},{""stimulus"":""img/3to2/2.png"",""time"":199},{""stimulus"":""img/3to2/3.png"",""time"":313},{""stimulus"":""img/3to2/4.png"",""time"":397},{""stimulus"":""img/3to2/5.png"",""time"":497},{""stimulus"":""img/3to2/6.png"",""time"":595},{""stimulus"":""img/3to2/7.png"",""time"":700},{""stimulus"":""img/3to2/8.png"",""time"":793},{""stimulus"":""img/3to2/9.png"",""time"":902},{""stimulus"":""img/3to2/10.png"",""time"":993},{""stimulus"":""img/3to2/11.png"",""time"":1103},{""stimulus"":""img/3to2/12.png"",""time"":1196}]","[]",""
"image-keyboard-response","178","185929","0.0-5.0-1.87","63bef4ddef5b4d7295effbbd","bdp_cybrbll","Tue Mar 28 2023 14:05:50 GMT-0500 (Central Daylight Time)","450690","3","1","","280","","","","choice","","img/2to1/1.png","1","138","1474","0.5","0.1","2","1","","",""
"animation","179","187216","0.0-5.0-2.87","63bef4ddef5b4d7295effbbd","bdp_cybrbll","Tue Mar 28 2023 14:05:50 GMT-0500 (Central Daylight Time)","450690","3","1","","","","","","","","","","138","","","","2","1","[{""stimulus"":""img/2to1/1.png"",""time"":100},{""stimulus"":""img/2to1/2.png"",""time"":199},{""stimulus"":""img/2to1/3.png"",""time"":299},{""stimulus"":""img/2to1/4.png"",""time"":397},{""stimulus"":""img/2to1/5.png"",""time"":502},{""stimulus"":""img/2to1/6.png"",""time"":596},{""stimulus"":""img/2to1/7.png"",""time"":694},{""stimulus"":""img/2to1/8.png"",""time"":798},{""stimulus"":""img/2to1/9.png"",""time"":892},{""stimulus"":""img/2to1/10.png"",""time"":992},{""stimulus"":""img/2to1/11.png"",""time"":1096},{""stimulus"":""img/2to1/12.png"",""time"":1189}]","[]",""
"image-keyboard-response","180","187698","0.0-5.0-1.88","63bef4ddef5b4d7295effbbd","bdp_cybrbll","Tue Mar 28 2023 14:05:50 GMT-0500 (Central Daylight Time)","450690","3","1","","null","","","","observe","","img/1to3/1.png","null","137","480","0.5","0.1","1","3","","",""
"animation","181","188986","0.0-5.0-2.88","63bef4ddef5b4d7295effbbd","bdp_cybrbll","Tue Mar 28 2023 14:05:50 GMT-0500 (Central Daylight Time)","450690","3","1","","","","","","","","","","137","","","","1","3","[{""stimulus"":""img/1to3/1.png"",""time"":108},{""stimulus"":""img/1to3/2.png"",""time"":199},{""stimulus"":""img/1to3/3.png"",""time"":297},{""stimulus"":""img/1to3/4.png"",""time"":403},{""stimulus"":""img/1to3/5.png"",""time"":495},{""stimulus"":""img/1to3/6.png"",""time"":595},{""stimulus"":""img/1to3/7.png"",""time"":693},{""stimulus"":""img/1to3/8.png"",""time"":794},{""stimulus"":""img/1to3/9.png"",""time"":892},{""stimulus"":""img/1to3/10.png"",""time"":995},{""stimulus"":""img/1to3/11.png"",""time"":1089},{""stimulus"":""img/1to3/12.png"",""time"":1189}]","[]",""
"image-keyboard-response","182","189193","0.0-5.0-1.89","63bef4ddef5b4d7295effbbd","bdp_cybrbll","Tue Mar 28 2023 14:05:50 GMT-0500 (Central Daylight Time)","450690","3","1","","null","","","","observe","","img/3to2/1.png","null","136","206","0.5","0.1","3","1","","",""
"animation","183","190483","0.0-5.0-2.89","63bef4ddef5b4d7295effbbd","bdp_cybrbll","Tue Mar 28 2023 14:05:50 GMT-0500 (Central Daylight Time)","450690","3","1","","","","","","","","","","136","","","","3","1","[{""stimulus"":""img/3to1/1.png"",""time"":106},{""stimulus"":""img/3to1/2.png"",""time"":199},{""stimulus"":""img/3to1/3.png"",""time"":308},{""stimulus"":""img/3to1/4.png"",""time"":396},{""stimulus"":""img/3to1/5.png"",""time"":499},{""stimulus"":""img/3to1/6.png"",""time"":604},{""stimulus"":""img/3to1/7.png"",""time"":699},{""stimulus"":""img/3to1/8.png"",""time"":793},{""stimulus"":""img/3to1/9.png"",""time"":892},{""stimulus"":""img/3to1/10.png"",""time"":995},{""stimulus"":""img/3to1/11.png"",""time"":1103},{""stimulus"":""img/3to1/12.png"",""time"":1197}]","[]",""
"image-keyboard-response","184","190749","0.0-5.0-1.90","63bef4ddef5b4d7295effbbd","bdp_cybrbll","Tue Mar 28 2023 14:05:50 GMT-0500 (Central Daylight Time)","450690","3","1","","null","","","","observe","","img/1to3/1.png","null","135","264","0.5","0.1","1","3","","",""
"animation","185","192036","0.0-5.0-2.90","63bef4ddef5b4d7295effbbd","bdp_cybrbll","Tue Mar 28 2023 14:05:50 GMT-0500 (Central Daylight Time)","450690","3","1","","","","","","","","","","135","","","","1","3","[{""stimulus"":""img/1to3/1.png"",""time"":103},{""stimulus"":""img/1to3/2.png"",""time"":213},{""stimulus"":""img/1to3/3.png"",""time"":298},{""stimulus"":""img/1to3/4.png"",""time"":397},{""stimulus"":""img/1to3/5.png"",""time"":496},{""stimulus"":""img/1to3/6.png"",""time"":604},{""stimulus"":""img/1to3/7.png"",""time"":694},{""stimulus"":""img/1to3/8.png"",""time"":804},{""stimulus"":""img/1to3/9.png"",""time"":892},{""stimulus"":""img/1to3/10.png"",""time"":991},{""stimulus"":""img/1to3/11.png"",""time"":1100},{""stimulus"":""img/1to3/12.png"",""time"":1195}]","[]",""
"image-keyboard-response","186","192374","0.0-5.0-1.91","63bef4ddef5b4d7295effbbd","bdp_cybrbll","Tue Mar 28 2023 14:05:50 GMT-0500 (Central Daylight Time)","450690","3","1","","null","","","","observe","","img/3to2/1.png","null","134","337","0.5","0.1","3","1","","",""
"animation","187","193662","0.0-5.0-2.91","63bef4ddef5b4d7295effbbd","bdp_cybrbll","Tue Mar 28 2023 14:05:50 GMT-0500 (Central Daylight Time)","450690","3","1","","","","","","","","","","134","","","","3","1","[{""stimulus"":""img/3to1/1.png"",""time"":102},{""stimulus"":""img/3to1/2.png"",""time"":210},{""stimulus"":""img/3to1/3.png"",""time"":304},{""stimulus"":""img/3to1/4.png"",""time"":397},{""stimulus"":""img/3to1/5.png"",""time"":497},{""stimulus"":""img/3to1/6.png"",""time"":598},{""stimulus"":""img/3to1/7.png"",""time"":708},{""stimulus"":""img/3to1/8.png"",""time"":802},{""stimulus"":""img/3to1/9.png"",""time"":893},{""stimulus"":""img/3to1/10.png"",""time"":1005},{""stimulus"":""img/3to1/11.png"",""time"":1099},{""stimulus"":""img/3to1/12.png"",""time"":1192}]","[]",""
"image-keyboard-response","188","194502","0.0-5.0-1.92","63bef4ddef5b4d7295effbbd","bdp_cybrbll","Tue Mar 28 2023 14:05:50 GMT-0500 (Central Daylight Time)","450690","3","1","","null","","","","observe","","img/1to3/1.png","null","133","839","0.5","0.1","1","3","","",""
"animation","189","195797","0.0-5.0-2.92","63bef4ddef5b4d7295effbbd","bdp_cybrbll","Tue Mar 28 2023 14:05:50 GMT-0500 (Central Daylight Time)","450690","3","1","","","","","","","","","","133","","","","1","3","[{""stimulus"":""img/1to3/1.png"",""time"":111},{""stimulus"":""img/1to3/2.png"",""time"":199},{""stimulus"":""img/1to3/3.png"",""time"":298},{""stimulus"":""img/1to3/4.png"",""time"":397},{""stimulus"":""img/1to3/5.png"",""time"":497},{""stimulus"":""img/1to3/6.png"",""time"":595},{""stimulus"":""img/1to3/7.png"",""time"":694},{""stimulus"":""img/1to3/8.png"",""time"":793},{""stimulus"":""img/1to3/9.png"",""time"":892},{""stimulus"":""img/1to3/10.png"",""time"":999},{""stimulus"":""img/1to3/11.png"",""time"":1093},{""stimulus"":""img/1to3/12.png"",""time"":1189}]","[]",""
