"trial_type","trial_index","time_elapsed","internal_node_id","subject_id","task","startTime","totalTime","fairPartner","unfairPartner","view_history","rt","event","trial","time","trialtype","success","stimulus","key_press","throwsLeft","rtDur","pFair","pUnfair","holder","receiver","animation_sequence","responses"
"pavlovia","0","2","0.0-0.0","631381096e95278a3f97fed4","bdp_cybrbll","Sun Mar 26 2023 05:00:08 GMT-0500 (Central Daylight Time)","540217","3","1","","","","","","","","","","","","","","","","",""
"instructions","1","7704","0.0-1.0","631381096e95278a3f97fed4","bdp_cybrbll","Sun Mar 26 2023 05:00:08 GMT-0500 (Central Daylight Time)","540217","3","1","[{""page_index"":0,""viewing_time"":7701}]","7702","","","","","","","","","","","","","","",""
"","","","","631381096e95278a3f97fed4","bdp_cybrbll","Sun Mar 26 2023 05:00:08 GMT-0500 (Central Daylight Time)","540217","3","1","","","fullscreenenter","2","12029","fullscreenenter","","","","","","","","","","",""
"fullscreen","2","13007","0.0-2.0","631381096e95278a3f97fed4","bdp_cybrbll","Sun Mar 26 2023 05:00:08 GMT-0500 (Central Daylight Time)","540217","3","1","","","","","","","true","","","","","","","","","",""
"instructions","3","136954","0.0-4.0","631381096e95278a3f97fed4","bdp_cybrbll","Sun Mar 26 2023 05:00:08 GMT-0500 (Central Daylight Time)","540217","3","1","[{""page_index"":0,""viewing_time"":123946}]","123946","","","","","","","","","","","","","","",""
"image-keyboard-response","4","139392","0.0-5.0-1.0","631381096e95278a3f97fed4","bdp_cybrbll","Sun Mar 26 2023 05:00:08 GMT-0500 (Central Daylight Time)","540217","3","1","","2437","","","","choice","","img/2to1/1.png","1","225","366","0.5","0.5","2","1","",""
"animation","5","140680","0.0-5.0-2.0","631381096e95278a3f97fed4","bdp_cybrbll","Sun Mar 26 2023 05:00:08 GMT-0500 (Central Daylight Time)","540217","3","1","","","","","","","","","","225","","","","2","1","[{""stimulus"":""img/2to1/1.png"",""time"":100},{""stimulus"":""img/2to1/2.png"",""time"":198},{""stimulus"":""img/2to1/3.png"",""time"":297},{""stimulus"":""img/2to1/4.png"",""time"":396},{""stimulus"":""img/2to1/5.png"",""time"":495},{""stimulus"":""img/2to1/6.png"",""time"":594},{""stimulus"":""img/2to1/7.png"",""time"":694},{""stimulus"":""img/2to1/8.png"",""time"":792},{""stimulus"":""img/2to1/9.png"",""time"":892},{""stimulus"":""img/2to1/10.png"",""time"":991},{""stimulus"":""img/2to1/11.png"",""time"":1090},{""stimulus"":""img/2to1/12.png"",""time"":1189}]","[]"
"image-keyboard-response","6","140842","0.0-5.0-1.1","631381096e95278a3f97fed4","bdp_cybrbll","Sun Mar 26 2023 05:00:08 GMT-0500 (Central Daylight Time)","540217","3","1","","null","","","","observe","","img/1to3/1.png","null","224","160","0.5","0.5","1","3","",""
"animation","7","142129","0.0-5.0-2.1","631381096e95278a3f97fed4","bdp_cybrbll","Sun Mar 26 2023 05:00:08 GMT-0500 (Central Daylight Time)","540217","3","1","","","","","","","","","","224","","","","1","3","[{""stimulus"":""img/1to3/1.png"",""time"":101},{""stimulus"":""img/1to3/2.png"",""time"":200},{""stimulus"":""img/1to3/3.png"",""time"":298},{""stimulus"":""img/1to3/4.png"",""time"":397},{""stimulus"":""img/1to3/5.png"",""time"":496},{""stimulus"":""img/1to3/6.png"",""time"":596},{""stimulus"":""img/1to3/7.png"",""time"":695},{""stimulus"":""img/1to3/8.png"",""time"":793},{""stimulus"":""img/1to3/9.png"",""time"":893},{""stimulus"":""img/1to3/10.png"",""time"":991},{""stimulus"":""img/1to3/11.png"",""time"":1090},{""stimulus"":""img/1to3/12.png"",""time"":1189}]","[]"
"image-keyboard-response","8","142292","0.0-5.0-1.2","631381096e95278a3f97fed4","bdp_cybrbll","Sun Mar 26 2023 05:00:08 GMT-0500 (Central Daylight Time)","540217","3","1","","null","","","","observe","","img/3to2/1.png","null","223","162","0.5","0.5","3","2","",""
"animation","9","143581","0.0-5.0-2.2","631381096e95278a3f97fed4","bdp_cybrbll","Sun Mar 26 2023 05:00:08 GMT-0500 (Central Daylight Time)","540217","3","1","","","","","","","","","","223","","","","3","2","[{""stimulus"":""img/3to2/1.png"",""time"":100},{""stimulus"":""img/3to2/2.png"",""time"":199},{""stimulus"":""img/3to2/3.png"",""time"":298},{""stimulus"":""img/3to2/4.png"",""time"":397},{""stimulus"":""img/3to2/5.png"",""time"":497},{""stimulus"":""img/3to2/6.png"",""time"":594},{""stimulus"":""img/3to2/7.png"",""time"":694},{""stimulus"":""img/3to2/8.png"",""time"":792},{""stimulus"":""img/3to2/9.png"",""time"":892},{""stimulus"":""img/3to2/10.png"",""time"":992},{""stimulus"":""img/3to2/11.png"",""time"":1090},{""stimulus"":""img/3to2/12.png"",""time"":1188}]","[]"
"image-keyboard-response","10","144122","0.0-5.0-1.3","631381096e95278a3f97fed4","bdp_cybrbll","Sun Mar 26 2023 05:00:08 GMT-0500 (Central Daylight Time)","540217","3","1","","540","","","","choice","","img/2to1/1.png","2","222","289","0.5","0.5","2","3","",""
"animation","11","145411","0.0-5.0-2.3","631381096e95278a3f97fed4","bdp_cybrbll","Sun Mar 26 2023 05:00:08 GMT-0500 (Central Daylight Time)","540217","3","1","","","","","","","","","","222","","","","2","3","[{""stimulus"":""img/2to3/1.png"",""time"":101},{""stimulus"":""img/2to3/2.png"",""time"":199},{""stimulus"":""img/2to3/3.png"",""time"":299},{""stimulus"":""img/2to3/4.png"",""time"":397},{""stimulus"":""img/2to3/5.png"",""time"":496},{""stimulus"":""img/2to3/6.png"",""time"":596},{""stimulus"":""img/2to3/7.png"",""time"":694},{""stimulus"":""img/2to3/8.png"",""time"":794},{""stimulus"":""img/2to3/9.png"",""time"":893},{""stimulus"":""img/2to3/10.png"",""time"":991},{""stimulus"":""img/2to3/11.png"",""time"":1090},{""stimulus"":""img/2to3/12.png"",""time"":1189}]","[]"
"image-keyboard-response","12","147281","0.0-5.0-1.4","631381096e95278a3f97fed4","bdp_cybrbll","Sun Mar 26 2023 05:00:08 GMT-0500 (Central Daylight Time)","540217","3","1","","null","","","","observe","","img/3to2/1.png","null","221","1869","0.5","0.5","3","2","",""
"animation","13","148569","0.0-5.0-2.4","631381096e95278a3f97fed4","bdp_cybrbll","Sun Mar 26 2023 05:00:08 GMT-0500 (Central Daylight Time)","540217","3","1","","","","","","","","","","221","","","","3","2","[{""stimulus"":""img/3to2/1.png"",""time"":100},{""stimulus"":""img/3to2/2.png"",""time"":199},{""stimulus"":""img/3to2/3.png"",""time"":298},{""stimulus"":""img/3to2/4.png"",""time"":397},{""stimulus"":""img/3to2/5.png"",""time"":496},{""stimulus"":""img/3to2/6.png"",""time"":595},{""stimulus"":""img/3to2/7.png"",""time"":694},{""stimulus"":""img/3to2/8.png"",""time"":794},{""stimulus"":""img/3to2/9.png"",""time"":892},{""stimulus"":""img/3to2/10.png"",""time"":991},{""stimulus"":""img/3to2/11.png"",""time"":1089},{""stimulus"":""img/3to2/12.png"",""time"":1189}]","[]"
"image-keyboard-response","14","149504","0.0-5.0-1.5","631381096e95278a3f97fed4","bdp_cybrbll","Sun Mar 26 2023 05:00:08 GMT-0500 (Central Daylight Time)","540217","3","1","","934","","","","choice","","img/2to1/1.png","1","220","384","0.5","0.5","2","1","",""
"animation","15","150792","0.0-5.0-2.5","631381096e95278a3f97fed4","bdp_cybrbll","Sun Mar 26 2023 05:00:08 GMT-0500 (Central Daylight Time)","540217","3","1","","","","","","","","","","220","","","","2","1","[{""stimulus"":""img/2to1/1.png"",""time"":100},{""stimulus"":""img/2to1/2.png"",""time"":199},{""stimulus"":""img/2to1/3.png"",""time"":298},{""stimulus"":""img/2to1/4.png"",""time"":397},{""stimulus"":""img/2to1/5.png"",""time"":497},{""stimulus"":""img/2to1/6.png"",""time"":595},{""stimulus"":""img/2to1/7.png"",""time"":694},{""stimulus"":""img/2to1/8.png"",""time"":794},{""stimulus"":""img/2to1/9.png"",""time"":893},{""stimulus"":""img/2to1/10.png"",""time"":991},{""stimulus"":""img/2to1/11.png"",""time"":1091},{""stimulus"":""img/2to1/12.png"",""time"":1189}]","[]"
"image-keyboard-response","16","151734","0.0-5.0-1.6","631381096e95278a3f97fed4","bdp_cybrbll","Sun Mar 26 2023 05:00:08 GMT-0500 (Central Daylight Time)","540217","3","1","","null","","","","observe","","img/1to3/1.png","null","219","940","0.5","0.5","1","3","",""
"animation","17","153021","0.0-5.0-2.6","631381096e95278a3f97fed4","bdp_cybrbll","Sun Mar 26 2023 05:00:08 GMT-0500 (Central Daylight Time)","540217","3","1","","","","","","","","","","219","","","","1","3","[{""stimulus"":""img/1to3/1.png"",""time"":99},{""stimulus"":""img/1to3/2.png"",""time"":198},{""stimulus"":""img/1to3/3.png"",""time"":298},{""stimulus"":""img/1to3/4.png"",""time"":396},{""stimulus"":""img/1to3/5.png"",""time"":495},{""stimulus"":""img/1to3/6.png"",""time"":594},{""stimulus"":""img/1to3/7.png"",""time"":693},{""stimulus"":""img/1to3/8.png"",""time"":792},{""stimulus"":""img/1to3/9.png"",""time"":892},{""stimulus"":""img/1to3/10.png"",""time"":991},{""stimulus"":""img/1to3/11.png"",""time"":1089},{""stimulus"":""img/1to3/12.png"",""time"":1189}]","[]"
"image-keyboard-response","18","153925","0.0-5.0-1.7","631381096e95278a3f97fed4","bdp_cybrbll","Sun Mar 26 2023 05:00:08 GMT-0500 (Central Daylight Time)","540217","3","1","","null","","","","observe","","img/3to2/1.png","null","218","902","0.5","0.5","3","1","",""
"animation","19","155213","0.0-5.0-2.7","631381096e95278a3f97fed4","bdp_cybrbll","Sun Mar 26 2023 05:00:08 GMT-0500 (Central Daylight Time)","540217","3","1","","","","","","","","","","218","","","","3","1","[{""stimulus"":""img/3to1/1.png"",""time"":100},{""stimulus"":""img/3to1/2.png"",""time"":200},{""stimulus"":""img/3to1/3.png"",""time"":299},{""stimulus"":""img/3to1/4.png"",""time"":397},{""stimulus"":""img/3to1/5.png"",""time"":496},{""stimulus"":""img/3to1/6.png"",""time"":595},{""stimulus"":""img/3to1/7.png"",""time"":695},{""stimulus"":""img/3to1/8.png"",""time"":793},{""stimulus"":""img/3to1/9.png"",""time"":892},{""stimulus"":""img/3to1/10.png"",""time"":991},{""stimulus"":""img/3to1/11.png"",""time"":1090},{""stimulus"":""img/3to1/12.png"",""time"":1189}]","[]"
"image-keyboard-response","20","155710","0.0-5.0-1.8","631381096e95278a3f97fed4","bdp_cybrbll","Sun Mar 26 2023 05:00:08 GMT-0500 (Central Daylight Time)","540217","3","1","","null","","","","observe","","img/1to3/1.png","null","217","496","0.5","0.5","1","2","",""
"animation","21","156999","0.0-5.0-2.8","631381096e95278a3f97fed4","bdp_cybrbll","Sun Mar 26 2023 05:00:08 GMT-0500 (Central Daylight Time)","540217","3","1","","","","","","","","","","217","","","","1","2","[{""stimulus"":""img/1to2/1.png"",""time"":100},{""stimulus"":""img/1to2/2.png"",""time"":199},{""stimulus"":""img/1to2/3.png"",""time"":299},{""stimulus"":""img/1to2/4.png"",""time"":396},{""stimulus"":""img/1to2/5.png"",""time"":496},{""stimulus"":""img/1to2/6.png"",""time"":595},{""stimulus"":""img/1to2/7.png"",""time"":693},{""stimulus"":""img/1to2/8.png"",""time"":792},{""stimulus"":""img/1to2/9.png"",""time"":891},{""stimulus"":""img/1to2/10.png"",""time"":991},{""stimulus"":""img/1to2/11.png"",""time"":1089},{""stimulus"":""img/1to2/12.png"",""time"":1189}]","[]"
"image-keyboard-response","22","157642","0.0-5.0-1.9","631381096e95278a3f97fed4","bdp_cybrbll","Sun Mar 26 2023 05:00:08 GMT-0500 (Central Daylight Time)","540217","3","1","","641","","","","choice","","img/2to1/1.png","2","216","736","0.5","0.5","2","3","",""
"animation","23","158929","0.0-5.0-2.9","631381096e95278a3f97fed4","bdp_cybrbll","Sun Mar 26 2023 05:00:08 GMT-0500 (Central Daylight Time)","540217","3","1","","","","","","","","","","216","","","","2","3","[{""stimulus"":""img/2to3/1.png"",""time"":99},{""stimulus"":""img/2to3/2.png"",""time"":199},{""stimulus"":""img/2to3/3.png"",""time"":308},{""stimulus"":""img/2to3/4.png"",""time"":397},{""stimulus"":""img/2to3/5.png"",""time"":496},{""stimulus"":""img/2to3/6.png"",""time"":595},{""stimulus"":""img/2to3/7.png"",""time"":693},{""stimulus"":""img/2to3/8.png"",""time"":794},{""stimulus"":""img/2to3/9.png"",""time"":891},{""stimulus"":""img/2to3/10.png"",""time"":990},{""stimulus"":""img/2to3/11.png"",""time"":1090},{""stimulus"":""img/2to3/12.png"",""time"":1189}]","[]"
"image-keyboard-response","24","159645","0.0-5.0-1.10","631381096e95278a3f97fed4","bdp_cybrbll","Sun Mar 26 2023 05:00:08 GMT-0500 (Central Daylight Time)","540217","3","1","","null","","","","observe","","img/3to2/1.png","null","215","714","0.5","0.5","3","1","",""
"animation","25","160934","0.0-5.0-2.10","631381096e95278a3f97fed4","bdp_cybrbll","Sun Mar 26 2023 05:00:08 GMT-0500 (Central Daylight Time)","540217","3","1","","","","","","","","","","215","","","","3","1","[{""stimulus"":""img/3to1/1.png"",""time"":100},{""stimulus"":""img/3to1/2.png"",""time"":200},{""stimulus"":""img/3to1/3.png"",""time"":298},{""stimulus"":""img/3to1/4.png"",""time"":397},{""stimulus"":""img/3to1/5.png"",""time"":496},{""stimulus"":""img/3to1/6.png"",""time"":595},{""stimulus"":""img/3to1/7.png"",""time"":694},{""stimulus"":""img/3to1/8.png"",""time"":793},{""stimulus"":""img/3to1/9.png"",""time"":891},{""stimulus"":""img/3to1/10.png"",""time"":991},{""stimulus"":""img/3to1/11.png"",""time"":1090},{""stimulus"":""img/3to1/12.png"",""time"":1189}]","[]"
"image-keyboard-response","26","161936","0.0-5.0-1.11","631381096e95278a3f97fed4","bdp_cybrbll","Sun Mar 26 2023 05:00:08 GMT-0500 (Central Daylight Time)","540217","3","1","","null","","","","observe","","img/1to3/1.png","null","214","1001","0.5","0.5","1","3","",""
"animation","27","163225","0.0-5.0-2.11","631381096e95278a3f97fed4","bdp_cybrbll","Sun Mar 26 2023 05:00:08 GMT-0500 (Central Daylight Time)","540217","3","1","","","","","","","","","","214","","","","1","3","[{""stimulus"":""img/1to3/1.png"",""time"":101},{""stimulus"":""img/1to3/2.png"",""time"":199},{""stimulus"":""img/1to3/3.png"",""time"":299},{""stimulus"":""img/1to3/4.png"",""time"":398},{""stimulus"":""img/1to3/5.png"",""time"":497},{""stimulus"":""img/1to3/6.png"",""time"":596},{""stimulus"":""img/1to3/7.png"",""time"":694},{""stimulus"":""img/1to3/8.png"",""time"":794},{""stimulus"":""img/1to3/9.png"",""time"":893},{""stimulus"":""img/1to3/10.png"",""time"":991},{""stimulus"":""img/1to3/11.png"",""time"":1090},{""stimulus"":""img/1to3/12.png"",""time"":1189}]","[]"
"image-keyboard-response","28","163556","0.0-5.0-1.12","631381096e95278a3f97fed4","bdp_cybrbll","Sun Mar 26 2023 05:00:08 GMT-0500 (Central Daylight Time)","540217","3","1","","null","","","","observe","","img/3to2/1.png","null","213","331","0.5","0.5","3","1","",""
"animation","29","164845","0.0-5.0-2.12","631381096e95278a3f97fed4","bdp_cybrbll","Sun Mar 26 2023 05:00:08 GMT-0500 (Central Daylight Time)","540217","3","1","","","","","","","","","","213","","","","3","1","[{""stimulus"":""img/3to1/1.png"",""time"":100},{""stimulus"":""img/3to1/2.png"",""time"":199},{""stimulus"":""img/3to1/3.png"",""time"":298},{""stimulus"":""img/3to1/4.png"",""time"":398},{""stimulus"":""img/3to1/5.png"",""time"":496},{""stimulus"":""img/3to1/6.png"",""time"":594},{""stimulus"":""img/3to1/7.png"",""time"":694},{""stimulus"":""img/3to1/8.png"",""time"":793},{""stimulus"":""img/3to1/9.png"",""time"":891},{""stimulus"":""img/3to1/10.png"",""time"":990},{""stimulus"":""img/3to1/11.png"",""time"":1090},{""stimulus"":""img/3to1/12.png"",""time"":1189}]","[]"
"image-keyboard-response","30","165183","0.0-5.0-1.13","631381096e95278a3f97fed4","bdp_cybrbll","Sun Mar 26 2023 05:00:08 GMT-0500 (Central Daylight Time)","540217","3","1","","null","","","","observe","","img/1to3/1.png","null","212","337","0.5","0.5","1","2","",""
"animation","31","166472","0.0-5.0-2.13","631381096e95278a3f97fed4","bdp_cybrbll","Sun Mar 26 2023 05:00:08 GMT-0500 (Central Daylight Time)","540217","3","1","","","","","","","","","","212","","","","1","2","[{""stimulus"":""img/1to2/1.png"",""time"":101},{""stimulus"":""img/1to2/2.png"",""time"":199},{""stimulus"":""img/1to2/3.png"",""time"":300},{""stimulus"":""img/1to2/4.png"",""time"":397},{""stimulus"":""img/1to2/5.png"",""time"":497},{""stimulus"":""img/1to2/6.png"",""time"":596},{""stimulus"":""img/1to2/7.png"",""time"":694},{""stimulus"":""img/1to2/8.png"",""time"":794},{""stimulus"":""img/1to2/9.png"",""time"":892},{""stimulus"":""img/1to2/10.png"",""time"":992},{""stimulus"":""img/1to2/11.png"",""time"":1090},{""stimulus"":""img/1to2/12.png"",""time"":1189}]","[]"
"image-keyboard-response","32","166904","0.0-5.0-1.14","631381096e95278a3f97fed4","bdp_cybrbll","Sun Mar 26 2023 05:00:08 GMT-0500 (Central Daylight Time)","540217","3","1","","432","","","","choice","","img/2to1/1.png","1","211","283","0.5","0.5","2","1","",""
"animation","33","168192","0.0-5.0-2.14","631381096e95278a3f97fed4","bdp_cybrbll","Sun Mar 26 2023 05:00:08 GMT-0500 (Central Daylight Time)","540217","3","1","","","","","","","","","","211","","","","2","1","[{""stimulus"":""img/2to1/1.png"",""time"":101},{""stimulus"":""img/2to1/2.png"",""time"":199},{""stimulus"":""img/2to1/3.png"",""time"":298},{""stimulus"":""img/2to1/4.png"",""time"":397},{""stimulus"":""img/2to1/5.png"",""time"":496},{""stimulus"":""img/2to1/6.png"",""time"":595},{""stimulus"":""img/2to1/7.png"",""time"":694},{""stimulus"":""img/2to1/8.png"",""time"":793},{""stimulus"":""img/2to1/9.png"",""time"":893},{""stimulus"":""img/2to1/10.png"",""time"":992},{""stimulus"":""img/2to1/11.png"",""time"":1091},{""stimulus"":""img/2to1/12.png"",""time"":1190}]","[]"
"image-keyboard-response","34","168609","0.0-5.0-1.15","631381096e95278a3f97fed4","bdp_cybrbll","Sun Mar 26 2023 05:00:08 GMT-0500 (Central Daylight Time)","540217","3","1","","null","","","","observe","","img/1to3/1.png","null","210","416","0.5","0.5","1","2","",""
"animation","35","169897","0.0-5.0-2.15","631381096e95278a3f97fed4","bdp_cybrbll","Sun Mar 26 2023 05:00:08 GMT-0500 (Central Daylight Time)","540217","3","1","","","","","","","","","","210","","","","1","2","[{""stimulus"":""img/1to2/1.png"",""time"":100},{""stimulus"":""img/1to2/2.png"",""time"":199},{""stimulus"":""img/1to2/3.png"",""time"":298},{""stimulus"":""img/1to2/4.png"",""time"":397},{""stimulus"":""img/1to2/5.png"",""time"":496},{""stimulus"":""img/1to2/6.png"",""time"":596},{""stimulus"":""img/1to2/7.png"",""time"":694},{""stimulus"":""img/1to2/8.png"",""time"":793},{""stimulus"":""img/1to2/9.png"",""time"":892},{""stimulus"":""img/1to2/10.png"",""time"":991},{""stimulus"":""img/1to2/11.png"",""time"":1090},{""stimulus"":""img/1to2/12.png"",""time"":1190}]","[]"
"image-keyboard-response","36","170192","0.0-5.0-1.16","631381096e95278a3f97fed4","bdp_cybrbll","Sun Mar 26 2023 05:00:08 GMT-0500 (Central Daylight Time)","540217","3","1","","295","","","","choice","","img/2to1/1.png","2","209","409","0.5","0.5","2","3","",""
"animation","37","171479","0.0-5.0-2.16","631381096e95278a3f97fed4","bdp_cybrbll","Sun Mar 26 2023 05:00:08 GMT-0500 (Central Daylight Time)","540217","3","1","","","","","","","","","","209","","","","2","3","[{""stimulus"":""img/2to3/1.png"",""time"":100},{""stimulus"":""img/2to3/2.png"",""time"":199},{""stimulus"":""img/2to3/3.png"",""time"":298},{""stimulus"":""img/2to3/4.png"",""time"":396},{""stimulus"":""img/2to3/5.png"",""time"":497},{""stimulus"":""img/2to3/6.png"",""time"":595},{""stimulus"":""img/2to3/7.png"",""time"":693},{""stimulus"":""img/2to3/8.png"",""time"":794},{""stimulus"":""img/2to3/9.png"",""time"":892},{""stimulus"":""img/2to3/10.png"",""time"":990},{""stimulus"":""img/2to3/11.png"",""time"":1090},{""stimulus"":""img/2to3/12.png"",""time"":1188}]","[]"
"image-keyboard-response","38","172055","0.0-5.0-1.17","631381096e95278a3f97fed4","bdp_cybrbll","Sun Mar 26 2023 05:00:08 GMT-0500 (Central Daylight Time)","540217","3","1","","null","","","","observe","","img/3to2/1.png","null","208","575","0.5","0.5","3","1","",""
"animation","39","173343","0.0-5.0-2.17","631381096e95278a3f97fed4","bdp_cybrbll","Sun Mar 26 2023 05:00:08 GMT-0500 (Central Daylight Time)","540217","3","1","","","","","","","","","","208","","","","3","1","[{""stimulus"":""img/3to1/1.png"",""time"":99},{""stimulus"":""img/3to1/2.png"",""time"":199},{""stimulus"":""img/3to1/3.png"",""time"":297},{""stimulus"":""img/3to1/4.png"",""time"":397},{""stimulus"":""img/3to1/5.png"",""time"":496},{""stimulus"":""img/3to1/6.png"",""time"":594},{""stimulus"":""img/3to1/7.png"",""time"":693},{""stimulus"":""img/3to1/8.png"",""time"":793},{""stimulus"":""img/3to1/9.png"",""time"":891},{""stimulus"":""img/3to1/10.png"",""time"":991},{""stimulus"":""img/3to1/11.png"",""time"":1090},{""stimulus"":""img/3to1/12.png"",""time"":1189}]","[]"
"image-keyboard-response","40","174004","0.0-5.0-1.18","631381096e95278a3f97fed4","bdp_cybrbll","Sun Mar 26 2023 05:00:08 GMT-0500 (Central Daylight Time)","540217","3","1","","null","","","","observe","","img/1to3/1.png","null","207","660","0.5","0.5","1","2","",""
"animation","41","175293","0.0-5.0-2.18","631381096e95278a3f97fed4","bdp_cybrbll","Sun Mar 26 2023 05:00:08 GMT-0500 (Central Daylight Time)","540217","3","1","","","","","","","","","","207","","","","1","2","[{""stimulus"":""img/1to2/1.png"",""time"":100},{""stimulus"":""img/1to2/2.png"",""time"":199},{""stimulus"":""img/1to2/3.png"",""time"":298},{""stimulus"":""img/1to2/4.png"",""time"":397},{""stimulus"":""img/1to2/5.png"",""time"":496},{""stimulus"":""img/1to2/6.png"",""time"":595},{""stimulus"":""img/1to2/7.png"",""time"":693},{""stimulus"":""img/1to2/8.png"",""time"":792},{""stimulus"":""img/1to2/9.png"",""time"":892},{""stimulus"":""img/1to2/10.png"",""time"":991},{""stimulus"":""img/1to2/11.png"",""time"":1089},{""stimulus"":""img/1to2/12.png"",""time"":1188}]","[]"
"image-keyboard-response","42","175599","0.0-5.0-1.19","631381096e95278a3f97fed4","bdp_cybrbll","Sun Mar 26 2023 05:00:08 GMT-0500 (Central Daylight Time)","540217","3","1","","305","","","","choice","","img/2to1/1.png","1","206","380","0.5","0.5","2","1","",""
"animation","43","176886","0.0-5.0-2.19","631381096e95278a3f97fed4","bdp_cybrbll","Sun Mar 26 2023 05:00:08 GMT-0500 (Central Daylight Time)","540217","3","1","","","","","","","","","","206","","","","2","1","[{""stimulus"":""img/2to1/1.png"",""time"":99},{""stimulus"":""img/2to1/2.png"",""time"":199},{""stimulus"":""img/2to1/3.png"",""time"":298},{""stimulus"":""img/2to1/4.png"",""time"":396},{""stimulus"":""img/2to1/5.png"",""time"":496},{""stimulus"":""img/2to1/6.png"",""time"":595},{""stimulus"":""img/2to1/7.png"",""time"":693},{""stimulus"":""img/2to1/8.png"",""time"":793},{""stimulus"":""img/2to1/9.png"",""time"":892},{""stimulus"":""img/2to1/10.png"",""time"":991},{""stimulus"":""img/2to1/11.png"",""time"":1089},{""stimulus"":""img/2to1/12.png"",""time"":1189}]","[]"
"image-keyboard-response","44","177208","0.0-5.0-1.20","631381096e95278a3f97fed4","bdp_cybrbll","Sun Mar 26 2023 05:00:08 GMT-0500 (Central Daylight Time)","540217","3","1","","null","","","","observe","","img/1to3/1.png","null","205","321","0.5","0.5","1","3","",""
"animation","45","178496","0.0-5.0-2.20","631381096e95278a3f97fed4","bdp_cybrbll","Sun Mar 26 2023 05:00:08 GMT-0500 (Central Daylight Time)","540217","3","1","","","","","","","","","","205","","","","1","3","[{""stimulus"":""img/1to3/1.png"",""time"":100},{""stimulus"":""img/1to3/2.png"",""time"":199},{""stimulus"":""img/1to3/3.png"",""time"":297},{""stimulus"":""img/1to3/4.png"",""time"":397},{""stimulus"":""img/1to3/5.png"",""time"":496},{""stimulus"":""img/1to3/6.png"",""time"":594},{""stimulus"":""img/1to3/7.png"",""time"":694},{""stimulus"":""img/1to3/8.png"",""time"":793},{""stimulus"":""img/1to3/9.png"",""time"":891},{""stimulus"":""img/1to3/10.png"",""time"":990},{""stimulus"":""img/1to3/11.png"",""time"":1089},{""stimulus"":""img/1to3/12.png"",""time"":1188}]","[]"
"image-keyboard-response","46","179301","0.0-5.0-1.21","631381096e95278a3f97fed4","bdp_cybrbll","Sun Mar 26 2023 05:00:08 GMT-0500 (Central Daylight Time)","540217","3","1","","null","","","","observe","","img/3to2/1.png","null","204","794","0.5","0.5","3","2","",""
"animation","47","180589","0.0-5.0-2.21","631381096e95278a3f97fed4","bdp_cybrbll","Sun Mar 26 2023 05:00:08 GMT-0500 (Central Daylight Time)","540217","3","1","","","","","","","","","","204","","","","3","2","[{""stimulus"":""img/3to2/1.png"",""time"":101},{""stimulus"":""img/3to2/2.png"",""time"":199},{""stimulus"":""img/3to2/3.png"",""time"":298},{""stimulus"":""img/3to2/4.png"",""time"":397},{""stimulus"":""img/3to2/5.png"",""time"":496},{""stimulus"":""img/3to2/6.png"",""time"":596},{""stimulus"":""img/3to2/7.png"",""time"":694},{""stimulus"":""img/3to2/8.png"",""time"":794},{""stimulus"":""img/3to2/9.png"",""time"":892},{""stimulus"":""img/3to2/10.png"",""time"":991},{""stimulus"":""img/3to2/11.png"",""time"":1090},{""stimulus"":""img/3to2/12.png"",""time"":1189}]","[]"
"image-keyboard-response","48","180839","0.0-5.0-1.22","631381096e95278a3f97fed4","bdp_cybrbll","Sun Mar 26 2023 05:00:08 GMT-0500 (Central Daylight Time)","540217","3","1","","250","","","","choice","","img/2to1/1.png","2","203","356","0.5","0.5","2","3","",""
"animation","49","182127","0.0-5.0-2.22","631381096e95278a3f97fed4","bdp_cybrbll","Sun Mar 26 2023 05:00:08 GMT-0500 (Central Daylight Time)","540217","3","1","","","","","","","","","","203","","","","2","3","[{""stimulus"":""img/2to3/1.png"",""time"":101},{""stimulus"":""img/2to3/2.png"",""time"":200},{""stimulus"":""img/2to3/3.png"",""time"":298},{""stimulus"":""img/2to3/4.png"",""time"":397},{""stimulus"":""img/2to3/5.png"",""time"":496},{""stimulus"":""img/2to3/6.png"",""time"":596},{""stimulus"":""img/2to3/7.png"",""time"":694},{""stimulus"":""img/2to3/8.png"",""time"":794},{""stimulus"":""img/2to3/9.png"",""time"":892},{""stimulus"":""img/2to3/10.png"",""time"":992},{""stimulus"":""img/2to3/11.png"",""time"":1090},{""stimulus"":""img/2to3/12.png"",""time"":1189}]","[]"
"image-keyboard-response","50","182822","0.0-5.0-1.23","631381096e95278a3f97fed4","bdp_cybrbll","Sun Mar 26 2023 05:00:08 GMT-0500 (Central Daylight Time)","540217","3","1","","null","","","","observe","","img/3to2/1.png","null","202","693","0.5","0.5","3","2","",""
"animation","51","184110","0.0-5.0-2.23","631381096e95278a3f97fed4","bdp_cybrbll","Sun Mar 26 2023 05:00:08 GMT-0500 (Central Daylight Time)","540217","3","1","","","","","","","","","","202","","","","3","2","[{""stimulus"":""img/3to2/1.png"",""time"":100},{""stimulus"":""img/3to2/2.png"",""time"":199},{""stimulus"":""img/3to2/3.png"",""time"":298},{""stimulus"":""img/3to2/4.png"",""time"":397},{""stimulus"":""img/3to2/5.png"",""time"":497},{""stimulus"":""img/3to2/6.png"",""time"":596},{""stimulus"":""img/3to2/7.png"",""time"":694},{""stimulus"":""img/3to2/8.png"",""time"":793},{""stimulus"":""img/3to2/9.png"",""time"":892},{""stimulus"":""img/3to2/10.png"",""time"":991},{""stimulus"":""img/3to2/11.png"",""time"":1091},{""stimulus"":""img/3to2/12.png"",""time"":1189}]","[]"
"image-keyboard-response","52","184115","0.0-5.0-1.24","631381096e95278a3f97fed4","bdp_cybrbll","Sun Mar 26 2023 05:00:08 GMT-0500 (Central Daylight Time)","540217","3","1","","5","","","","choice","","img/2to1/1.png","2","201","225","0.5","0.5","2","3","",""
"animation","53","185402","0.0-5.0-2.24","631381096e95278a3f97fed4","bdp_cybrbll","Sun Mar 26 2023 05:00:08 GMT-0500 (Central Daylight Time)","540217","3","1","","","","","","","","","","201","","","","2","3","[{""stimulus"":""img/2to3/1.png"",""time"":100},{""stimulus"":""img/2to3/2.png"",""time"":200},{""stimulus"":""img/2to3/3.png"",""time"":298},{""stimulus"":""img/2to3/4.png"",""time"":397},{""stimulus"":""img/2to3/5.png"",""time"":496},{""stimulus"":""img/2to3/6.png"",""time"":595},{""stimulus"":""img/2to3/7.png"",""time"":693},{""stimulus"":""img/2to3/8.png"",""time"":793},{""stimulus"":""img/2to3/9.png"",""time"":891},{""stimulus"":""img/2to3/10.png"",""time"":991},{""stimulus"":""img/2to3/11.png"",""time"":1090},{""stimulus"":""img/2to3/12.png"",""time"":1189}]","[]"
"image-keyboard-response","54","185745","0.0-5.0-1.25","631381096e95278a3f97fed4","bdp_cybrbll","Sun Mar 26 2023 05:00:08 GMT-0500 (Central Daylight Time)","540217","3","1","","null","","","","observe","","img/3to2/1.png","null","200","341","0.5","0.5","3","2","",""
"animation","55","187032","0.0-5.0-2.25","631381096e95278a3f97fed4","bdp_cybrbll","Sun Mar 26 2023 05:00:08 GMT-0500 (Central Daylight Time)","540217","3","1","","","","","","","","","","200","","","","3","2","[{""stimulus"":""img/3to2/1.png"",""time"":100},{""stimulus"":""img/3to2/2.png"",""time"":200},{""stimulus"":""img/3to2/3.png"",""time"":299},{""stimulus"":""img/3to2/4.png"",""time"":397},{""stimulus"":""img/3to2/5.png"",""time"":496},{""stimulus"":""img/3to2/6.png"",""time"":595},{""stimulus"":""img/3to2/7.png"",""time"":693},{""stimulus"":""img/3to2/8.png"",""time"":793},{""stimulus"":""img/3to2/9.png"",""time"":892},{""stimulus"":""img/3to2/10.png"",""time"":991},{""stimulus"":""img/3to2/11.png"",""time"":1089},{""stimulus"":""img/3to2/12.png"",""time"":1188}]","[]"
"image-keyboard-response","56","187865","0.0-5.0-1.26","631381096e95278a3f97fed4","bdp_cybrbll","Sun Mar 26 2023 05:00:08 GMT-0500 (Central Daylight Time)","540217","3","1","","832","","","","choice","","img/2to1/1.png","1","199","313","0.5","0.5","2","1","",""
"animation","57","189152","0.0-5.0-2.26","631381096e95278a3f97fed4","bdp_cybrbll","Sun Mar 26 2023 05:00:08 GMT-0500 (Central Daylight Time)","540217","3","1","","","","","","","","","","199","","","","2","1","[{""stimulus"":""img/2to1/1.png"",""time"":100},{""stimulus"":""img/2to1/2.png"",""time"":199},{""stimulus"":""img/2to1/3.png"",""time"":298},{""stimulus"":""img/2to1/4.png"",""time"":397},{""stimulus"":""img/2to1/5.png"",""time"":496},{""stimulus"":""img/2to1/6.png"",""time"":596},{""stimulus"":""img/2to1/7.png"",""time"":694},{""stimulus"":""img/2to1/8.png"",""time"":793},{""stimulus"":""img/2to1/9.png"",""time"":892},{""stimulus"":""img/2to1/10.png"",""time"":991},{""stimulus"":""img/2to1/11.png"",""time"":1090},{""stimulus"":""img/2to1/12.png"",""time"":1189}]","[]"
"image-keyboard-response","58","189313","0.0-5.0-1.27","631381096e95278a3f97fed4","bdp_cybrbll","Sun Mar 26 2023 05:00:08 GMT-0500 (Central Daylight Time)","540217","3","1","","null","","","","observe","","img/1to3/1.png","null","198","159","0.5","0.5","1","2","",""
"animation","59","190601","0.0-5.0-2.27","631381096e95278a3f97fed4","bdp_cybrbll","Sun Mar 26 2023 05:00:08 GMT-0500 (Central Daylight Time)","540217","3","1","","","","","","","","","","198","","","","1","2","[{""stimulus"":""img/1to2/1.png"",""time"":100},{""stimulus"":""img/1to2/2.png"",""time"":199},{""stimulus"":""img/1to2/3.png"",""time"":298},{""stimulus"":""img/1to2/4.png"",""time"":397},{""stimulus"":""img/1to2/5.png"",""time"":496},{""stimulus"":""img/1to2/6.png"",""time"":594},{""stimulus"":""img/1to2/7.png"",""time"":694},{""stimulus"":""img/1to2/8.png"",""time"":793},{""stimulus"":""img/1to2/9.png"",""time"":891},{""stimulus"":""img/1to2/10.png"",""time"":990},{""stimulus"":""img/1to2/11.png"",""time"":1090},{""stimulus"":""img/1to2/12.png"",""time"":1188}]","[]"
"image-keyboard-response","60","190700","0.0-5.0-1.28","631381096e95278a3f97fed4","bdp_cybrbll","Sun Mar 26 2023 05:00:08 GMT-0500 (Central Daylight Time)","540217","3","1","","99","","","","choice","","img/2to1/1.png","2","197","177","0.5","0.5","2","3","",""
"animation","61","191988","0.0-5.0-2.28","631381096e95278a3f97fed4","bdp_cybrbll","Sun Mar 26 2023 05:00:08 GMT-0500 (Central Daylight Time)","540217","3","1","","","","","","","","","","197","","","","2","3","[{""stimulus"":""img/2to3/1.png"",""time"":100},{""stimulus"":""img/2to3/2.png"",""time"":199},{""stimulus"":""img/2to3/3.png"",""time"":298},{""stimulus"":""img/2to3/4.png"",""time"":412},{""stimulus"":""img/2to3/5.png"",""time"":496},{""stimulus"":""img/2to3/6.png"",""time"":595},{""stimulus"":""img/2to3/7.png"",""time"":695},{""stimulus"":""img/2to3/8.png"",""time"":793},{""stimulus"":""img/2to3/9.png"",""time"":892},{""stimulus"":""img/2to3/10.png"",""time"":991},{""stimulus"":""img/2to3/11.png"",""time"":1090},{""stimulus"":""img/2to3/12.png"",""time"":1188}]","[]"
"image-keyboard-response","62","192382","0.0-5.0-1.29","631381096e95278a3f97fed4","bdp_cybrbll","Sun Mar 26 2023 05:00:08 GMT-0500 (Central Daylight Time)","540217","3","1","","null","","","","observe","","img/3to2/1.png","null","196","393","0.5","0.5","3","2","",""
"animation","63","193669","0.0-5.0-2.29","631381096e95278a3f97fed4","bdp_cybrbll","Sun Mar 26 2023 05:00:08 GMT-0500 (Central Daylight Time)","540217","3","1","","","","","","","","","","196","","","","3","2","[{""stimulus"":""img/3to2/1.png"",""time"":100},{""stimulus"":""img/3to2/2.png"",""time"":199},{""stimulus"":""img/3to2/3.png"",""time"":298},{""stimulus"":""img/3to2/4.png"",""time"":397},{""stimulus"":""img/3to2/5.png"",""time"":496},{""stimulus"":""img/3to2/6.png"",""time"":595},{""stimulus"":""img/3to2/7.png"",""time"":694},{""stimulus"":""img/3to2/8.png"",""time"":794},{""stimulus"":""img/3to2/9.png"",""time"":892},{""stimulus"":""img/3to2/10.png"",""time"":991},{""stimulus"":""img/3to2/11.png"",""time"":1090},{""stimulus"":""img/3to2/12.png"",""time"":1189}]","[]"
"image-keyboard-response","64","193695","0.0-5.0-1.30","631381096e95278a3f97fed4","bdp_cybrbll","Sun Mar 26 2023 05:00:08 GMT-0500 (Central Daylight Time)","540217","3","1","","25","","","","choice","","img/2to1/1.png","1","195","540","0.5","0.5","2","1","",""
"animation","65","194983","0.0-5.0-2.30","631381096e95278a3f97fed4","bdp_cybrbll","Sun Mar 26 2023 05:00:08 GMT-0500 (Central Daylight Time)","540217","3","1","","","","","","","","","","195","","","","2","1","[{""stimulus"":""img/2to1/1.png"",""time"":100},{""stimulus"":""img/2to1/2.png"",""time"":200},{""stimulus"":""img/2to1/3.png"",""time"":298},{""stimulus"":""img/2to1/4.png"",""time"":397},{""stimulus"":""img/2to1/5.png"",""time"":496},{""stimulus"":""img/2to1/6.png"",""time"":595},{""stimulus"":""img/2to1/7.png"",""time"":694},{""stimulus"":""img/2to1/8.png"",""time"":793},{""stimulus"":""img/2to1/9.png"",""time"":892},{""stimulus"":""img/2to1/10.png"",""time"":991},{""stimulus"":""img/2to1/11.png"",""time"":1091},{""stimulus"":""img/2to1/12.png"",""time"":1190}]","[]"
"image-keyboard-response","66","195133","0.0-5.0-1.31","631381096e95278a3f97fed4","bdp_cybrbll","Sun Mar 26 2023 05:00:08 GMT-0500 (Central Daylight Time)","540217","3","1","","null","","","","observe","","img/1to3/1.png","null","194","149","0.5","0.5","1","3","",""
"animation","67","196421","0.0-5.0-2.31","631381096e95278a3f97fed4","bdp_cybrbll","Sun Mar 26 2023 05:00:08 GMT-0500 (Central Daylight Time)","540217","3","1","","","","","","","","","","194","","","","1","3","[{""stimulus"":""img/1to3/1.png"",""time"":100},{""stimulus"":""img/1to3/2.png"",""time"":200},{""stimulus"":""img/1to3/3.png"",""time"":298},{""stimulus"":""img/1to3/4.png"",""time"":398},{""stimulus"":""img/1to3/5.png"",""time"":496},{""stimulus"":""img/1to3/6.png"",""time"":595},{""stimulus"":""img/1to3/7.png"",""time"":695},{""stimulus"":""img/1to3/8.png"",""time"":793},{""stimulus"":""img/1to3/9.png"",""time"":892},{""stimulus"":""img/1to3/10.png"",""time"":991},{""stimulus"":""img/1to3/11.png"",""time"":1091},{""stimulus"":""img/1to3/12.png"",""time"":1189}]","[]"
"image-keyboard-response","68","197039","0.0-5.0-1.32","631381096e95278a3f97fed4","bdp_cybrbll","Sun Mar 26 2023 05:00:08 GMT-0500 (Central Daylight Time)","540217","3","1","","null","","","","observe","","img/3to2/1.png","null","193","616","0.5","0.5","3","1","",""
"animation","69","198327","0.0-5.0-2.32","631381096e95278a3f97fed4","bdp_cybrbll","Sun Mar 26 2023 05:00:08 GMT-0500 (Central Daylight Time)","540217","3","1","","","","","","","","","","193","","","","3","1","[{""stimulus"":""img/3to1/1.png"",""time"":99},{""stimulus"":""img/3to1/2.png"",""time"":199},{""stimulus"":""img/3to1/3.png"",""time"":298},{""stimulus"":""img/3to1/4.png"",""time"":397},{""stimulus"":""img/3to1/5.png"",""time"":496},{""stimulus"":""img/3to1/6.png"",""time"":596},{""stimulus"":""img/3to1/7.png"",""time"":694},{""stimulus"":""img/3to1/8.png"",""time"":793},{""stimulus"":""img/3to1/9.png"",""time"":892},{""stimulus"":""img/3to1/10.png"",""time"":991},{""stimulus"":""img/3to1/11.png"",""time"":1090},{""stimulus"":""img/3to1/12.png"",""time"":1188}]","[]"
"image-keyboard-response","70","199436","0.0-5.0-1.33","631381096e95278a3f97fed4","bdp_cybrbll","Sun Mar 26 2023 05:00:08 GMT-0500 (Central Daylight Time)","540217","3","1","","null","","","","observe","","img/1to3/1.png","null","192","1108","0.5","0.5","1","2","",""
"animation","71","200725","0.0-5.0-2.33","631381096e95278a3f97fed4","bdp_cybrbll","Sun Mar 26 2023 05:00:08 GMT-0500 (Central Daylight Time)","540217","3","1","","","","","","","","","","192","","","","1","2","[{""stimulus"":""img/1to2/1.png"",""time"":101},{""stimulus"":""img/1to2/2.png"",""time"":199},{""stimulus"":""img/1to2/3.png"",""time"":298},{""stimulus"":""img/1to2/4.png"",""time"":397},{""stimulus"":""img/1to2/5.png"",""time"":496},{""stimulus"":""img/1to2/6.png"",""time"":596},{""stimulus"":""img/1to2/7.png"",""time"":694},{""stimulus"":""img/1to2/8.png"",""time"":793},{""stimulus"":""img/1to2/9.png"",""time"":893},{""stimulus"":""img/1to2/10.png"",""time"":992},{""stimulus"":""img/1to2/11.png"",""time"":1090},{""stimulus"":""img/1to2/12.png"",""time"":1189}]","[]"
"image-keyboard-response","72","201122","0.0-5.0-1.34","631381096e95278a3f97fed4","bdp_cybrbll","Sun Mar 26 2023 05:00:08 GMT-0500 (Central Daylight Time)","540217","3","1","","397","","","","choice","","img/2to1/1.png","1","191","523","0.5","0.5","2","1","",""
"animation","73","202411","0.0-5.0-2.34","631381096e95278a3f97fed4","bdp_cybrbll","Sun Mar 26 2023 05:00:08 GMT-0500 (Central Daylight Time)","540217","3","1","","","","","","","","","","191","","","","2","1","[{""stimulus"":""img/2to1/1.png"",""time"":100},{""stimulus"":""img/2to1/2.png"",""time"":199},{""stimulus"":""img/2to1/3.png"",""time"":297},{""stimulus"":""img/2to1/4.png"",""time"":397},{""stimulus"":""img/2to1/5.png"",""time"":496},{""stimulus"":""img/2to1/6.png"",""time"":594},{""stimulus"":""img/2to1/7.png"",""time"":694},{""stimulus"":""img/2to1/8.png"",""time"":793},{""stimulus"":""img/2to1/9.png"",""time"":892},{""stimulus"":""img/2to1/10.png"",""time"":990},{""stimulus"":""img/2to1/11.png"",""time"":1089},{""stimulus"":""img/2to1/12.png"",""time"":1189}]","[]"
"image-keyboard-response","74","202852","0.0-5.0-1.35","631381096e95278a3f97fed4","bdp_cybrbll","Sun Mar 26 2023 05:00:08 GMT-0500 (Central Daylight Time)","540217","3","1","","null","","","","observe","","img/1to3/1.png","null","190","440","0.5","0.5","1","2","",""
"animation","75","204140","0.0-5.0-2.35","631381096e95278a3f97fed4","bdp_cybrbll","Sun Mar 26 2023 05:00:08 GMT-0500 (Central Daylight Time)","540217","3","1","","","","","","","","","","190","","","","1","2","[{""stimulus"":""img/1to2/1.png"",""time"":101},{""stimulus"":""img/1to2/2.png"",""time"":199},{""stimulus"":""img/1to2/3.png"",""time"":298},{""stimulus"":""img/1to2/4.png"",""time"":397},{""stimulus"":""img/1to2/5.png"",""time"":496},{""stimulus"":""img/1to2/6.png"",""time"":596},{""stimulus"":""img/1to2/7.png"",""time"":695},{""stimulus"":""img/1to2/8.png"",""time"":794},{""stimulus"":""img/1to2/9.png"",""time"":893},{""stimulus"":""img/1to2/10.png"",""time"":991},{""stimulus"":""img/1to2/11.png"",""time"":1090},{""stimulus"":""img/1to2/12.png"",""time"":1189}]","[]"
"image-keyboard-response","76","204409","0.0-5.0-1.36","631381096e95278a3f97fed4","bdp_cybrbll","Sun Mar 26 2023 05:00:08 GMT-0500 (Central Daylight Time)","540217","3","1","","268","","","","choice","","img/2to1/1.png","2","189","715","0.5","0.5","2","3","",""
"animation","77","205696","0.0-5.0-2.36","631381096e95278a3f97fed4","bdp_cybrbll","Sun Mar 26 2023 05:00:08 GMT-0500 (Central Daylight Time)","540217","3","1","","","","","","","","","","189","","","","2","3","[{""stimulus"":""img/2to3/1.png"",""time"":99},{""stimulus"":""img/2to3/2.png"",""time"":199},{""stimulus"":""img/2to3/3.png"",""time"":298},{""stimulus"":""img/2to3/4.png"",""time"":396},{""stimulus"":""img/2to3/5.png"",""time"":496},{""stimulus"":""img/2to3/6.png"",""time"":594},{""stimulus"":""img/2to3/7.png"",""time"":694},{""stimulus"":""img/2to3/8.png"",""time"":793},{""stimulus"":""img/2to3/9.png"",""time"":891},{""stimulus"":""img/2to3/10.png"",""time"":991},{""stimulus"":""img/2to3/11.png"",""time"":1090},{""stimulus"":""img/2to3/12.png"",""time"":1188}]","[]"
"image-keyboard-response","78","206111","0.0-5.0-1.37","631381096e95278a3f97fed4","bdp_cybrbll","Sun Mar 26 2023 05:00:08 GMT-0500 (Central Daylight Time)","540217","3","1","","null","","","","observe","","img/3to2/1.png","null","188","413","0.5","0.5","3","1","",""
"animation","79","207399","0.0-5.0-2.37","631381096e95278a3f97fed4","bdp_cybrbll","Sun Mar 26 2023 05:00:08 GMT-0500 (Central Daylight Time)","540217","3","1","","","","","","","","","","188","","","","3","1","[{""stimulus"":""img/3to1/1.png"",""time"":101},{""stimulus"":""img/3to1/2.png"",""time"":200},{""stimulus"":""img/3to1/3.png"",""time"":298},{""stimulus"":""img/3to1/4.png"",""time"":398},{""stimulus"":""img/3to1/5.png"",""time"":496},{""stimulus"":""img/3to1/6.png"",""time"":595},{""stimulus"":""img/3to1/7.png"",""time"":694},{""stimulus"":""img/3to1/8.png"",""time"":793},{""stimulus"":""img/3to1/9.png"",""time"":892},{""stimulus"":""img/3to1/10.png"",""time"":991},{""stimulus"":""img/3to1/11.png"",""time"":1090},{""stimulus"":""img/3to1/12.png"",""time"":1189}]","[]"
"image-keyboard-response","80","207842","0.0-5.0-1.38","631381096e95278a3f97fed4","bdp_cybrbll","Sun Mar 26 2023 05:00:08 GMT-0500 (Central Daylight Time)","540217","3","1","","null","","","","observe","","img/1to3/1.png","null","187","442","0.5","0.5","1","3","",""
"animation","81","209130","0.0-5.0-2.38","631381096e95278a3f97fed4","bdp_cybrbll","Sun Mar 26 2023 05:00:08 GMT-0500 (Central Daylight Time)","540217","3","1","","","","","","","","","","187","","","","1","3","[{""stimulus"":""img/1to3/1.png"",""time"":100},{""stimulus"":""img/1to3/2.png"",""time"":199},{""stimulus"":""img/1to3/3.png"",""time"":297},{""stimulus"":""img/1to3/4.png"",""time"":396},{""stimulus"":""img/1to3/5.png"",""time"":495},{""stimulus"":""img/1to3/6.png"",""time"":595},{""stimulus"":""img/1to3/7.png"",""time"":694},{""stimulus"":""img/1to3/8.png"",""time"":793},{""stimulus"":""img/1to3/9.png"",""time"":892},{""stimulus"":""img/1to3/10.png"",""time"":992},{""stimulus"":""img/1to3/11.png"",""time"":1090},{""stimulus"":""img/1to3/12.png"",""time"":1188}]","[]"
"image-keyboard-response","82","210177","0.0-5.0-1.39","631381096e95278a3f97fed4","bdp_cybrbll","Sun Mar 26 2023 05:00:08 GMT-0500 (Central Daylight Time)","540217","3","1","","null","","","","observe","","img/3to2/1.png","null","186","1046","0.5","0.5","3","2","",""
"animation","83","211465","0.0-5.0-2.39","631381096e95278a3f97fed4","bdp_cybrbll","Sun Mar 26 2023 05:00:08 GMT-0500 (Central Daylight Time)","540217","3","1","","","","","","","","","","186","","","","3","2","[{""stimulus"":""img/3to2/1.png"",""time"":101},{""stimulus"":""img/3to2/2.png"",""time"":199},{""stimulus"":""img/3to2/3.png"",""time"":299},{""stimulus"":""img/3to2/4.png"",""time"":397},{""stimulus"":""img/3to2/5.png"",""time"":496},{""stimulus"":""img/3to2/6.png"",""time"":595},{""stimulus"":""img/3to2/7.png"",""time"":694},{""stimulus"":""img/3to2/8.png"",""time"":793},{""stimulus"":""img/3to2/9.png"",""time"":892},{""stimulus"":""img/3to2/10.png"",""time"":991},{""stimulus"":""img/3to2/11.png"",""time"":1090},{""stimulus"":""img/3to2/12.png"",""time"":1189}]","[]"
"image-keyboard-response","84","211953","0.0-5.0-1.40","631381096e95278a3f97fed4","bdp_cybrbll","Sun Mar 26 2023 05:00:08 GMT-0500 (Central Daylight Time)","540217","3","1","","488","","","","choice","","img/2to1/1.png","1","185","357","0.5","0.5","2","1","",""
"animation","85","213241","0.0-5.0-2.40","631381096e95278a3f97fed4","bdp_cybrbll","Sun Mar 26 2023 05:00:08 GMT-0500 (Central Daylight Time)","540217","3","1","","","","","","","","","","185","","","","2","1","[{""stimulus"":""img/2to1/1.png"",""time"":101},{""stimulus"":""img/2to1/2.png"",""time"":199},{""stimulus"":""img/2to1/3.png"",""time"":298},{""stimulus"":""img/2to1/4.png"",""time"":397},{""stimulus"":""img/2to1/5.png"",""time"":496},{""stimulus"":""img/2to1/6.png"",""time"":595},{""stimulus"":""img/2to1/7.png"",""time"":694},{""stimulus"":""img/2to1/8.png"",""time"":793},{""stimulus"":""img/2to1/9.png"",""time"":892},{""stimulus"":""img/2to1/10.png"",""time"":992},{""stimulus"":""img/2to1/11.png"",""time"":1090},{""stimulus"":""img/2to1/12.png"",""time"":1189}]","[]"
"image-keyboard-response","86","213576","0.0-5.0-1.41","631381096e95278a3f97fed4","bdp_cybrbll","Sun Mar 26 2023 05:00:08 GMT-0500 (Central Daylight Time)","540217","3","1","","null","","","","observe","","img/1to3/1.png","null","184","334","0.5","0.5","1","3","",""
"animation","87","214863","0.0-5.0-2.41","631381096e95278a3f97fed4","bdp_cybrbll","Sun Mar 26 2023 05:00:08 GMT-0500 (Central Daylight Time)","540217","3","1","","","","","","","","","","184","","","","1","3","[{""stimulus"":""img/1to3/1.png"",""time"":100},{""stimulus"":""img/1to3/2.png"",""time"":200},{""stimulus"":""img/1to3/3.png"",""time"":298},{""stimulus"":""img/1to3/4.png"",""time"":397},{""stimulus"":""img/1to3/5.png"",""time"":496},{""stimulus"":""img/1to3/6.png"",""time"":596},{""stimulus"":""img/1to3/7.png"",""time"":694},{""stimulus"":""img/1to3/8.png"",""time"":793},{""stimulus"":""img/1to3/9.png"",""time"":892},{""stimulus"":""img/1to3/10.png"",""time"":992},{""stimulus"":""img/1to3/11.png"",""time"":1091},{""stimulus"":""img/1to3/12.png"",""time"":1189}]","[]"
"image-keyboard-response","88","215366","0.0-5.0-1.42","631381096e95278a3f97fed4","bdp_cybrbll","Sun Mar 26 2023 05:00:08 GMT-0500 (Central Daylight Time)","540217","3","1","","null","","","","observe","","img/3to2/1.png","null","183","502","0.5","0.5","3","2","",""
"animation","89","216655","0.0-5.0-2.42","631381096e95278a3f97fed4","bdp_cybrbll","Sun Mar 26 2023 05:00:08 GMT-0500 (Central Daylight Time)","540217","3","1","","","","","","","","","","183","","","","3","2","[{""stimulus"":""img/3to2/1.png"",""time"":99},{""stimulus"":""img/3to2/2.png"",""time"":199},{""stimulus"":""img/3to2/3.png"",""time"":298},{""stimulus"":""img/3to2/4.png"",""time"":396},{""stimulus"":""img/3to2/5.png"",""time"":496},{""stimulus"":""img/3to2/6.png"",""time"":595},{""stimulus"":""img/3to2/7.png"",""time"":693},{""stimulus"":""img/3to2/8.png"",""time"":793},{""stimulus"":""img/3to2/9.png"",""time"":892},{""stimulus"":""img/3to2/10.png"",""time"":991},{""stimulus"":""img/3to2/11.png"",""time"":1090},{""stimulus"":""img/3to2/12.png"",""time"":1188}]","[]"
"image-keyboard-response","90","216961","0.0-5.0-1.43","631381096e95278a3f97fed4","bdp_cybrbll","Sun Mar 26 2023 05:00:08 GMT-0500 (Central Daylight Time)","540217","3","1","","304","","","","choice","","img/2to1/1.png","1","182","321","0.5","0.5","2","1","",""
"animation","91","218248","0.0-5.0-2.43","631381096e95278a3f97fed4","bdp_cybrbll","Sun Mar 26 2023 05:00:08 GMT-0500 (Central Daylight Time)","540217","3","1","","","","","","","","","","182","","","","2","1","[{""stimulus"":""img/2to1/1.png"",""time"":100},{""stimulus"":""img/2to1/2.png"",""time"":199},{""stimulus"":""img/2to1/3.png"",""time"":298},{""stimulus"":""img/2to1/4.png"",""time"":397},{""stimulus"":""img/2to1/5.png"",""time"":497},{""stimulus"":""img/2to1/6.png"",""time"":595},{""stimulus"":""img/2to1/7.png"",""time"":695},{""stimulus"":""img/2to1/8.png"",""time"":793},{""stimulus"":""img/2to1/9.png"",""time"":892},{""stimulus"":""img/2to1/10.png"",""time"":990},{""stimulus"":""img/2to1/11.png"",""time"":1089},{""stimulus"":""img/2to1/12.png"",""time"":1188}]","[]"
"image-keyboard-response","92","218548","0.0-5.0-1.44","631381096e95278a3f97fed4","bdp_cybrbll","Sun Mar 26 2023 05:00:08 GMT-0500 (Central Daylight Time)","540217","3","1","","null","","","","observe","","img/1to3/1.png","null","181","293","0.5","0.5","1","3","",""
"animation","93","219836","0.0-5.0-2.44","631381096e95278a3f97fed4","bdp_cybrbll","Sun Mar 26 2023 05:00:08 GMT-0500 (Central Daylight Time)","540217","3","1","","","","","","","","","","181","","","","1","3","[{""stimulus"":""img/1to3/1.png"",""time"":100},{""stimulus"":""img/1to3/2.png"",""time"":198},{""stimulus"":""img/1to3/3.png"",""time"":298},{""stimulus"":""img/1to3/4.png"",""time"":397},{""stimulus"":""img/1to3/5.png"",""time"":496},{""stimulus"":""img/1to3/6.png"",""time"":594},{""stimulus"":""img/1to3/7.png"",""time"":694},{""stimulus"":""img/1to3/8.png"",""time"":793},{""stimulus"":""img/1to3/9.png"",""time"":892},{""stimulus"":""img/1to3/10.png"",""time"":991},{""stimulus"":""img/1to3/11.png"",""time"":1091},{""stimulus"":""img/1to3/12.png"",""time"":1189}]","[]"
"image-keyboard-response","94","220288","0.0-5.0-1.45","631381096e95278a3f97fed4","bdp_cybrbll","Sun Mar 26 2023 05:00:08 GMT-0500 (Central Daylight Time)","540217","3","1","","null","","","","observe","","img/3to2/1.png","null","180","451","0.5","0.5","3","2","",""
"animation","95","221575","0.0-5.0-2.45","631381096e95278a3f97fed4","bdp_cybrbll","Sun Mar 26 2023 05:00:08 GMT-0500 (Central Daylight Time)","540217","3","1","","","","","","","","","","180","","","","3","2","[{""stimulus"":""img/3to2/1.png"",""time"":101},{""stimulus"":""img/3to2/2.png"",""time"":198},{""stimulus"":""img/3to2/3.png"",""time"":298},{""stimulus"":""img/3to2/4.png"",""time"":398},{""stimulus"":""img/3to2/5.png"",""time"":496},{""stimulus"":""img/3to2/6.png"",""time"":595},{""stimulus"":""img/3to2/7.png"",""time"":694},{""stimulus"":""img/3to2/8.png"",""time"":793},{""stimulus"":""img/3to2/9.png"",""time"":892},{""stimulus"":""img/3to2/10.png"",""time"":991},{""stimulus"":""img/3to2/11.png"",""time"":1090},{""stimulus"":""img/3to2/12.png"",""time"":1188}]","[]"
"image-keyboard-response","96","221969","0.0-5.0-1.46","631381096e95278a3f97fed4","bdp_cybrbll","Sun Mar 26 2023 05:00:08 GMT-0500 (Central Daylight Time)","540217","3","1","","393","","","","choice","","img/2to1/1.png","2","179","764","0.5","0.5","2","3","",""
"animation","97","223257","0.0-5.0-2.46","631381096e95278a3f97fed4","bdp_cybrbll","Sun Mar 26 2023 05:00:08 GMT-0500 (Central Daylight Time)","540217","3","1","","","","","","","","","","179","","","","2","3","[{""stimulus"":""img/2to3/1.png"",""time"":100},{""stimulus"":""img/2to3/2.png"",""time"":199},{""stimulus"":""img/2to3/3.png"",""time"":298},{""stimulus"":""img/2to3/4.png"",""time"":397},{""stimulus"":""img/2to3/5.png"",""time"":496},{""stimulus"":""img/2to3/6.png"",""time"":596},{""stimulus"":""img/2to3/7.png"",""time"":694},{""stimulus"":""img/2to3/8.png"",""time"":794},{""stimulus"":""img/2to3/9.png"",""time"":892},{""stimulus"":""img/2to3/10.png"",""time"":991},{""stimulus"":""img/2to3/11.png"",""time"":1090},{""stimulus"":""img/2to3/12.png"",""time"":1190}]","[]"
"image-keyboard-response","98","223831","0.0-5.0-1.47","631381096e95278a3f97fed4","bdp_cybrbll","Sun Mar 26 2023 05:00:08 GMT-0500 (Central Daylight Time)","540217","3","1","","null","","","","observe","","img/3to2/1.png","null","178","573","0.5","0.5","3","1","",""
"animation","99","225119","0.0-5.0-2.47","631381096e95278a3f97fed4","bdp_cybrbll","Sun Mar 26 2023 05:00:08 GMT-0500 (Central Daylight Time)","540217","3","1","","","","","","","","","","178","","","","3","1","[{""stimulus"":""img/3to1/1.png"",""time"":101},{""stimulus"":""img/3to1/2.png"",""time"":199},{""stimulus"":""img/3to1/3.png"",""time"":298},{""stimulus"":""img/3to1/4.png"",""time"":398},{""stimulus"":""img/3to1/5.png"",""time"":496},{""stimulus"":""img/3to1/6.png"",""time"":596},{""stimulus"":""img/3to1/7.png"",""time"":694},{""stimulus"":""img/3to1/8.png"",""time"":794},{""stimulus"":""img/3to1/9.png"",""time"":892},{""stimulus"":""img/3to1/10.png"",""time"":992},{""stimulus"":""img/3to1/11.png"",""time"":1090},{""stimulus"":""img/3to1/12.png"",""time"":1189}]","[]"
"image-keyboard-response","100","226938","0.0-5.0-1.48","631381096e95278a3f97fed4","bdp_cybrbll","Sun Mar 26 2023 05:00:08 GMT-0500 (Central Daylight Time)","540217","3","1","","null","","","","observe","","img/1to3/1.png","null","177","1818","0.5","0.5","1","2","",""
"animation","101","228226","0.0-5.0-2.48","631381096e95278a3f97fed4","bdp_cybrbll","Sun Mar 26 2023 05:00:08 GMT-0500 (Central Daylight Time)","540217","3","1","","","","","","","","","","177","","","","1","2","[{""stimulus"":""img/1to2/1.png"",""time"":100},{""stimulus"":""img/1to2/2.png"",""time"":199},{""stimulus"":""img/1to2/3.png"",""time"":298},{""stimulus"":""img/1to2/4.png"",""time"":397},{""stimulus"":""img/1to2/5.png"",""time"":496},{""stimulus"":""img/1to2/6.png"",""time"":595},{""stimulus"":""img/1to2/7.png"",""time"":694},{""stimulus"":""img/1to2/8.png"",""time"":793},{""stimulus"":""img/1to2/9.png"",""time"":892},{""stimulus"":""img/1to2/10.png"",""time"":991},{""stimulus"":""img/1to2/11.png"",""time"":1090},{""stimulus"":""img/1to2/12.png"",""time"":1189}]","[]"
"image-keyboard-response","102","228531","0.0-5.0-1.49","631381096e95278a3f97fed4","bdp_cybrbll","Sun Mar 26 2023 05:00:08 GMT-0500 (Central Daylight Time)","540217","3","1","","304","","","","choice","","img/2to1/1.png","1","176","247","0.5","0.5","2","1","",""
"animation","103","229818","0.0-5.0-2.49","631381096e95278a3f97fed4","bdp_cybrbll","Sun Mar 26 2023 05:00:08 GMT-0500 (Central Daylight Time)","540217","3","1","","","","","","","","","","176","","","","2","1","[{""stimulus"":""img/2to1/1.png"",""time"":100},{""stimulus"":""img/2to1/2.png"",""time"":199},{""stimulus"":""img/2to1/3.png"",""time"":298},{""stimulus"":""img/2to1/4.png"",""time"":396},{""stimulus"":""img/2to1/5.png"",""time"":496},{""stimulus"":""img/2to1/6.png"",""time"":594},{""stimulus"":""img/2to1/7.png"",""time"":694},{""stimulus"":""img/2to1/8.png"",""time"":792},{""stimulus"":""img/2to1/9.png"",""time"":891},{""stimulus"":""img/2to1/10.png"",""time"":991},{""stimulus"":""img/2to1/11.png"",""time"":1089},{""stimulus"":""img/2to1/12.png"",""time"":1188}]","[]"
"image-keyboard-response","104","230283","0.0-5.0-1.50","631381096e95278a3f97fed4","bdp_cybrbll","Sun Mar 26 2023 05:00:08 GMT-0500 (Central Daylight Time)","540217","3","1","","null","","","","observe","","img/1to3/1.png","null","175","463","0.5","0.5","1","2","",""
"animation","105","231571","0.0-5.0-2.50","631381096e95278a3f97fed4","bdp_cybrbll","Sun Mar 26 2023 05:00:08 GMT-0500 (Central Daylight Time)","540217","3","1","","","","","","","","","","175","","","","1","2","[{""stimulus"":""img/1to2/1.png"",""time"":100},{""stimulus"":""img/1to2/2.png"",""time"":199},{""stimulus"":""img/1to2/3.png"",""time"":298},{""stimulus"":""img/1to2/4.png"",""time"":396},{""stimulus"":""img/1to2/5.png"",""time"":495},{""stimulus"":""img/1to2/6.png"",""time"":594},{""stimulus"":""img/1to2/7.png"",""time"":694},{""stimulus"":""img/1to2/8.png"",""time"":793},{""stimulus"":""img/1to2/9.png"",""time"":891},{""stimulus"":""img/1to2/10.png"",""time"":991},{""stimulus"":""img/1to2/11.png"",""time"":1091},{""stimulus"":""img/1to2/12.png"",""time"":1189}]","[]"
"image-keyboard-response","106","231643","0.0-5.0-1.51","631381096e95278a3f97fed4","bdp_cybrbll","Sun Mar 26 2023 05:00:08 GMT-0500 (Central Daylight Time)","540217","3","1","","72","","","","choice","","img/2to1/1.png","2","174","1466","0.5","0.5","2","3","",""
"animation","107","232931","0.0-5.0-2.51","631381096e95278a3f97fed4","bdp_cybrbll","Sun Mar 26 2023 05:00:08 GMT-0500 (Central Daylight Time)","540217","3","1","","","","","","","","","","174","","","","2","3","[{""stimulus"":""img/2to3/1.png"",""time"":101},{""stimulus"":""img/2to3/2.png"",""time"":199},{""stimulus"":""img/2to3/3.png"",""time"":298},{""stimulus"":""img/2to3/4.png"",""time"":397},{""stimulus"":""img/2to3/5.png"",""time"":496},{""stimulus"":""img/2to3/6.png"",""time"":595},{""stimulus"":""img/2to3/7.png"",""time"":695},{""stimulus"":""img/2to3/8.png"",""time"":793},{""stimulus"":""img/2to3/9.png"",""time"":892},{""stimulus"":""img/2to3/10.png"",""time"":991},{""stimulus"":""img/2to3/11.png"",""time"":1091},{""stimulus"":""img/2to3/12.png"",""time"":1190}]","[]"
"image-keyboard-response","108","233191","0.0-5.0-1.52","631381096e95278a3f97fed4","bdp_cybrbll","Sun Mar 26 2023 05:00:08 GMT-0500 (Central Daylight Time)","540217","3","1","","null","","","","observe","","img/3to2/1.png","null","173","258","0.5","0.5","3","2","",""
"animation","109","234479","0.0-5.0-2.52","631381096e95278a3f97fed4","bdp_cybrbll","Sun Mar 26 2023 05:00:08 GMT-0500 (Central Daylight Time)","540217","3","1","","","","","","","","","","173","","","","3","2","[{""stimulus"":""img/3to2/1.png"",""time"":101},{""stimulus"":""img/3to2/2.png"",""time"":199},{""stimulus"":""img/3to2/3.png"",""time"":298},{""stimulus"":""img/3to2/4.png"",""time"":397},{""stimulus"":""img/3to2/5.png"",""time"":496},{""stimulus"":""img/3to2/6.png"",""time"":595},{""stimulus"":""img/3to2/7.png"",""time"":694},{""stimulus"":""img/3to2/8.png"",""time"":794},{""stimulus"":""img/3to2/9.png"",""time"":892},{""stimulus"":""img/3to2/10.png"",""time"":992},{""stimulus"":""img/3to2/11.png"",""time"":1090},{""stimulus"":""img/3to2/12.png"",""time"":1190}]","[]"
"image-keyboard-response","110","235093","0.0-5.0-1.53","631381096e95278a3f97fed4","bdp_cybrbll","Sun Mar 26 2023 05:00:08 GMT-0500 (Central Daylight Time)","540217","3","1","","613","","","","choice","","img/2to1/1.png","2","172","337","0.5","0.5","2","3","",""
"animation","111","236381","0.0-5.0-2.53","631381096e95278a3f97fed4","bdp_cybrbll","Sun Mar 26 2023 05:00:08 GMT-0500 (Central Daylight Time)","540217","3","1","","","","","","","","","","172","","","","2","3","[{""stimulus"":""img/2to3/1.png"",""time"":101},{""stimulus"":""img/2to3/2.png"",""time"":200},{""stimulus"":""img/2to3/3.png"",""time"":298},{""stimulus"":""img/2to3/4.png"",""time"":397},{""stimulus"":""img/2to3/5.png"",""time"":496},{""stimulus"":""img/2to3/6.png"",""time"":595},{""stimulus"":""img/2to3/7.png"",""time"":694},{""stimulus"":""img/2to3/8.png"",""time"":793},{""stimulus"":""img/2to3/9.png"",""time"":893},{""stimulus"":""img/2to3/10.png"",""time"":992},{""stimulus"":""img/2to3/11.png"",""time"":1090},{""stimulus"":""img/2to3/12.png"",""time"":1189}]","[]"
"image-keyboard-response","112","237057","0.0-5.0-1.54","631381096e95278a3f97fed4","bdp_cybrbll","Sun Mar 26 2023 05:00:08 GMT-0500 (Central Daylight Time)","540217","3","1","","null","","","","observe","","img/3to2/1.png","null","171","675","0.5","0.5","3","1","",""
"animation","113","238346","0.0-5.0-2.54","631381096e95278a3f97fed4","bdp_cybrbll","Sun Mar 26 2023 05:00:08 GMT-0500 (Central Daylight Time)","540217","3","1","","","","","","","","","","171","","","","3","1","[{""stimulus"":""img/3to1/1.png"",""time"":100},{""stimulus"":""img/3to1/2.png"",""time"":199},{""stimulus"":""img/3to1/3.png"",""time"":297},{""stimulus"":""img/3to1/4.png"",""time"":397},{""stimulus"":""img/3to1/5.png"",""time"":496},{""stimulus"":""img/3to1/6.png"",""time"":595},{""stimulus"":""img/3to1/7.png"",""time"":694},{""stimulus"":""img/3to1/8.png"",""time"":792},{""stimulus"":""img/3to1/9.png"",""time"":891},{""stimulus"":""img/3to1/10.png"",""time"":990},{""stimulus"":""img/3to1/11.png"",""time"":1089},{""stimulus"":""img/3to1/12.png"",""time"":1188}]","[]"
"image-keyboard-response","114","239071","0.0-5.0-1.55","631381096e95278a3f97fed4","bdp_cybrbll","Sun Mar 26 2023 05:00:08 GMT-0500 (Central Daylight Time)","540217","3","1","","null","","","","observe","","img/1to3/1.png","null","170","724","0.5","0.5","1","2","",""
"animation","115","240360","0.0-5.0-2.55","631381096e95278a3f97fed4","bdp_cybrbll","Sun Mar 26 2023 05:00:08 GMT-0500 (Central Daylight Time)","540217","3","1","","","","","","","","","","170","","","","1","2","[{""stimulus"":""img/1to2/1.png"",""time"":100},{""stimulus"":""img/1to2/2.png"",""time"":200},{""stimulus"":""img/1to2/3.png"",""time"":299},{""stimulus"":""img/1to2/4.png"",""time"":397},{""stimulus"":""img/1to2/5.png"",""time"":496},{""stimulus"":""img/1to2/6.png"",""time"":595},{""stimulus"":""img/1to2/7.png"",""time"":695},{""stimulus"":""img/1to2/8.png"",""time"":793},{""stimulus"":""img/1to2/9.png"",""time"":892},{""stimulus"":""img/1to2/10.png"",""time"":992},{""stimulus"":""img/1to2/11.png"",""time"":1091},{""stimulus"":""img/1to2/12.png"",""time"":1189}]","[]"
"image-keyboard-response","116","240661","0.0-5.0-1.56","631381096e95278a3f97fed4","bdp_cybrbll","Sun Mar 26 2023 05:00:08 GMT-0500 (Central Daylight Time)","540217","3","1","","300","","","","choice","","img/2to1/1.png","1","169","1150","0.5","0.5","2","1","",""
"animation","117","241949","0.0-5.0-2.56","631381096e95278a3f97fed4","bdp_cybrbll","Sun Mar 26 2023 05:00:08 GMT-0500 (Central Daylight Time)","540217","3","1","","","","","","","","","","169","","","","2","1","[{""stimulus"":""img/2to1/1.png"",""time"":99},{""stimulus"":""img/2to1/2.png"",""time"":199},{""stimulus"":""img/2to1/3.png"",""time"":306},{""stimulus"":""img/2to1/4.png"",""time"":397},{""stimulus"":""img/2to1/5.png"",""time"":496},{""stimulus"":""img/2to1/6.png"",""time"":595},{""stimulus"":""img/2to1/7.png"",""time"":694},{""stimulus"":""img/2to1/8.png"",""time"":792},{""stimulus"":""img/2to1/9.png"",""time"":891},{""stimulus"":""img/2to1/10.png"",""time"":991},{""stimulus"":""img/2to1/11.png"",""time"":1090},{""stimulus"":""img/2to1/12.png"",""time"":1188}]","[]"
"image-keyboard-response","118","242460","0.0-5.0-1.57","631381096e95278a3f97fed4","bdp_cybrbll","Sun Mar 26 2023 05:00:08 GMT-0500 (Central Daylight Time)","540217","3","1","","null","","","","observe","","img/1to3/1.png","null","168","510","0.5","0.5","1","2","",""
"animation","119","243749","0.0-5.0-2.57","631381096e95278a3f97fed4","bdp_cybrbll","Sun Mar 26 2023 05:00:08 GMT-0500 (Central Daylight Time)","540217","3","1","","","","","","","","","","168","","","","1","2","[{""stimulus"":""img/1to2/1.png"",""time"":100},{""stimulus"":""img/1to2/2.png"",""time"":200},{""stimulus"":""img/1to2/3.png"",""time"":299},{""stimulus"":""img/1to2/4.png"",""time"":397},{""stimulus"":""img/1to2/5.png"",""time"":496},{""stimulus"":""img/1to2/6.png"",""time"":595},{""stimulus"":""img/1to2/7.png"",""time"":696},{""stimulus"":""img/1to2/8.png"",""time"":793},{""stimulus"":""img/1to2/9.png"",""time"":892},{""stimulus"":""img/1to2/10.png"",""time"":991},{""stimulus"":""img/1to2/11.png"",""time"":1090},{""stimulus"":""img/1to2/12.png"",""time"":1189}]","[]"
"image-keyboard-response","120","244061","0.0-5.0-1.58","631381096e95278a3f97fed4","bdp_cybrbll","Sun Mar 26 2023 05:00:08 GMT-0500 (Central Daylight Time)","540217","3","1","","312","","","","choice","","img/2to1/1.png","1","167","278","0.5","0.5","2","1","",""
"animation","121","245349","0.0-5.0-2.58","631381096e95278a3f97fed4","bdp_cybrbll","Sun Mar 26 2023 05:00:08 GMT-0500 (Central Daylight Time)","540217","3","1","","","","","","","","","","167","","","","2","1","[{""stimulus"":""img/2to1/1.png"",""time"":100},{""stimulus"":""img/2to1/2.png"",""time"":200},{""stimulus"":""img/2to1/3.png"",""time"":298},{""stimulus"":""img/2to1/4.png"",""time"":397},{""stimulus"":""img/2to1/5.png"",""time"":496},{""stimulus"":""img/2to1/6.png"",""time"":595},{""stimulus"":""img/2to1/7.png"",""time"":694},{""stimulus"":""img/2to1/8.png"",""time"":794},{""stimulus"":""img/2to1/9.png"",""time"":892},{""stimulus"":""img/2to1/10.png"",""time"":991},{""stimulus"":""img/2to1/11.png"",""time"":1091},{""stimulus"":""img/2to1/12.png"",""time"":1189}]","[]"
"image-keyboard-response","122","245683","0.0-5.0-1.59","631381096e95278a3f97fed4","bdp_cybrbll","Sun Mar 26 2023 05:00:08 GMT-0500 (Central Daylight Time)","540217","3","1","","null","","","","observe","","img/1to3/1.png","null","166","326","0.5","0.5","1","2","",""
"animation","123","246971","0.0-5.0-2.59","631381096e95278a3f97fed4","bdp_cybrbll","Sun Mar 26 2023 05:00:08 GMT-0500 (Central Daylight Time)","540217","3","1","","","","","","","","","","166","","","","1","2","[{""stimulus"":""img/1to2/1.png"",""time"":101},{""stimulus"":""img/1to2/2.png"",""time"":199},{""stimulus"":""img/1to2/3.png"",""time"":298},{""stimulus"":""img/1to2/4.png"",""time"":398},{""stimulus"":""img/1to2/5.png"",""time"":496},{""stimulus"":""img/1to2/6.png"",""time"":595},{""stimulus"":""img/1to2/7.png"",""time"":694},{""stimulus"":""img/1to2/8.png"",""time"":793},{""stimulus"":""img/1to2/9.png"",""time"":893},{""stimulus"":""img/1to2/10.png"",""time"":992},{""stimulus"":""img/1to2/11.png"",""time"":1090},{""stimulus"":""img/1to2/12.png"",""time"":1189}]","[]"
"image-keyboard-response","124","247279","0.0-5.0-1.60","631381096e95278a3f97fed4","bdp_cybrbll","Sun Mar 26 2023 05:00:08 GMT-0500 (Central Daylight Time)","540217","3","1","","308","","","","choice","","img/2to1/1.png","1","165","230","0.5","0.5","2","1","",""
"animation","125","248568","0.0-5.0-2.60","631381096e95278a3f97fed4","bdp_cybrbll","Sun Mar 26 2023 05:00:08 GMT-0500 (Central Daylight Time)","540217","3","1","","","","","","","","","","165","","","","2","1","[{""stimulus"":""img/2to1/1.png"",""time"":100},{""stimulus"":""img/2to1/2.png"",""time"":199},{""stimulus"":""img/2to1/3.png"",""time"":308},{""stimulus"":""img/2to1/4.png"",""time"":397},{""stimulus"":""img/2to1/5.png"",""time"":497},{""stimulus"":""img/2to1/6.png"",""time"":595},{""stimulus"":""img/2to1/7.png"",""time"":695},{""stimulus"":""img/2to1/8.png"",""time"":794},{""stimulus"":""img/2to1/9.png"",""time"":892},{""stimulus"":""img/2to1/10.png"",""time"":991},{""stimulus"":""img/2to1/11.png"",""time"":1090},{""stimulus"":""img/2to1/12.png"",""time"":1189}]","[]"
"image-keyboard-response","126","249216","0.0-5.0-1.61","631381096e95278a3f97fed4","bdp_cybrbll","Sun Mar 26 2023 05:00:08 GMT-0500 (Central Daylight Time)","540217","3","1","","null","","","","observe","","img/1to3/1.png","null","164","647","0.5","0.5","1","2","",""
"animation","127","250503","0.0-5.0-2.61","631381096e95278a3f97fed4","bdp_cybrbll","Sun Mar 26 2023 05:00:08 GMT-0500 (Central Daylight Time)","540217","3","1","","","","","","","","","","164","","","","1","2","[{""stimulus"":""img/1to2/1.png"",""time"":99},{""stimulus"":""img/1to2/2.png"",""time"":199},{""stimulus"":""img/1to2/3.png"",""time"":298},{""stimulus"":""img/1to2/4.png"",""time"":396},{""stimulus"":""img/1to2/5.png"",""time"":496},{""stimulus"":""img/1to2/6.png"",""time"":595},{""stimulus"":""img/1to2/7.png"",""time"":693},{""stimulus"":""img/1to2/8.png"",""time"":793},{""stimulus"":""img/1to2/9.png"",""time"":891},{""stimulus"":""img/1to2/10.png"",""time"":992},{""stimulus"":""img/1to2/11.png"",""time"":1090},{""stimulus"":""img/1to2/12.png"",""time"":1188}]","[]"
"image-keyboard-response","128","250734","0.0-5.0-1.62","631381096e95278a3f97fed4","bdp_cybrbll","Sun Mar 26 2023 05:00:08 GMT-0500 (Central Daylight Time)","540217","3","1","","231","","","","choice","","img/2to1/1.png","2","163","668","0.5","0.5","2","3","",""
"animation","129","252022","0.0-5.0-2.62","631381096e95278a3f97fed4","bdp_cybrbll","Sun Mar 26 2023 05:00:08 GMT-0500 (Central Daylight Time)","540217","3","1","","","","","","","","","","163","","","","2","3","[{""stimulus"":""img/2to3/1.png"",""time"":100},{""stimulus"":""img/2to3/2.png"",""time"":199},{""stimulus"":""img/2to3/3.png"",""time"":298},{""stimulus"":""img/2to3/4.png"",""time"":397},{""stimulus"":""img/2to3/5.png"",""time"":496},{""stimulus"":""img/2to3/6.png"",""time"":595},{""stimulus"":""img/2to3/7.png"",""time"":693},{""stimulus"":""img/2to3/8.png"",""time"":792},{""stimulus"":""img/2to3/9.png"",""time"":892},{""stimulus"":""img/2to3/10.png"",""time"":990},{""stimulus"":""img/2to3/11.png"",""time"":1090},{""stimulus"":""img/2to3/12.png"",""time"":1188}]","[]"
"image-keyboard-response","130","252427","0.0-5.0-1.63","631381096e95278a3f97fed4","bdp_cybrbll","Sun Mar 26 2023 05:00:08 GMT-0500 (Central Daylight Time)","540217","3","1","","null","","","","observe","","img/3to2/1.png","null","162","403","0.5","0.5","3","1","",""
"animation","131","253715","0.0-5.0-2.63","631381096e95278a3f97fed4","bdp_cybrbll","Sun Mar 26 2023 05:00:08 GMT-0500 (Central Daylight Time)","540217","3","1","","","","","","","","","","162","","","","3","1","[{""stimulus"":""img/3to1/1.png"",""time"":100},{""stimulus"":""img/3to1/2.png"",""time"":200},{""stimulus"":""img/3to1/3.png"",""time"":298},{""stimulus"":""img/3to1/4.png"",""time"":398},{""stimulus"":""img/3to1/5.png"",""time"":496},{""stimulus"":""img/3to1/6.png"",""time"":595},{""stimulus"":""img/3to1/7.png"",""time"":694},{""stimulus"":""img/3to1/8.png"",""time"":793},{""stimulus"":""img/3to1/9.png"",""time"":892},{""stimulus"":""img/3to1/10.png"",""time"":991},{""stimulus"":""img/3to1/11.png"",""time"":1090},{""stimulus"":""img/3to1/12.png"",""time"":1190}]","[]"
"image-keyboard-response","132","255349","0.0-5.0-1.64","631381096e95278a3f97fed4","bdp_cybrbll","Sun Mar 26 2023 05:00:08 GMT-0500 (Central Daylight Time)","540217","3","1","","null","","","","observe","","img/1to3/1.png","null","161","1632","0.5","0.5","1","3","",""
"animation","133","256638","0.0-5.0-2.64","631381096e95278a3f97fed4","bdp_cybrbll","Sun Mar 26 2023 05:00:08 GMT-0500 (Central Daylight Time)","540217","3","1","","","","","","","","","","161","","","","1","3","[{""stimulus"":""img/1to3/1.png"",""time"":101},{""stimulus"":""img/1to3/2.png"",""time"":199},{""stimulus"":""img/1to3/3.png"",""time"":299},{""stimulus"":""img/1to3/4.png"",""time"":397},{""stimulus"":""img/1to3/5.png"",""time"":496},{""stimulus"":""img/1to3/6.png"",""time"":596},{""stimulus"":""img/1to3/7.png"",""time"":695},{""stimulus"":""img/1to3/8.png"",""time"":793},{""stimulus"":""img/1to3/9.png"",""time"":893},{""stimulus"":""img/1to3/10.png"",""time"":992},{""stimulus"":""img/1to3/11.png"",""time"":1090},{""stimulus"":""img/1to3/12.png"",""time"":1189}]","[]"
"image-keyboard-response","134","256882","0.0-5.0-1.65","631381096e95278a3f97fed4","bdp_cybrbll","Sun Mar 26 2023 05:00:08 GMT-0500 (Central Daylight Time)","540217","3","1","","null","","","","observe","","img/3to2/1.png","null","160","243","0.5","0.5","3","2","",""
"animation","135","258170","0.0-5.0-2.65","631381096e95278a3f97fed4","bdp_cybrbll","Sun Mar 26 2023 05:00:08 GMT-0500 (Central Daylight Time)","540217","3","1","","","","","","","","","","160","","","","3","2","[{""stimulus"":""img/3to2/1.png"",""time"":101},{""stimulus"":""img/3to2/2.png"",""time"":199},{""stimulus"":""img/3to2/3.png"",""time"":299},{""stimulus"":""img/3to2/4.png"",""time"":397},{""stimulus"":""img/3to2/5.png"",""time"":496},{""stimulus"":""img/3to2/6.png"",""time"":595},{""stimulus"":""img/3to2/7.png"",""time"":694},{""stimulus"":""img/3to2/8.png"",""time"":793},{""stimulus"":""img/3to2/9.png"",""time"":892},{""stimulus"":""img/3to2/10.png"",""time"":991},{""stimulus"":""img/3to2/11.png"",""time"":1090},{""stimulus"":""img/3to2/12.png"",""time"":1189}]","[]"
"image-keyboard-response","136","258681","0.0-5.0-1.66","631381096e95278a3f97fed4","bdp_cybrbll","Sun Mar 26 2023 05:00:08 GMT-0500 (Central Daylight Time)","540217","3","1","","511","","","","choice","","img/2to1/1.png","1","159","274","0.5","0.5","2","1","",""
"animation","137","259969","0.0-5.0-2.66","631381096e95278a3f97fed4","bdp_cybrbll","Sun Mar 26 2023 05:00:08 GMT-0500 (Central Daylight Time)","540217","3","1","","","","","","","","","","159","","","","2","1","[{""stimulus"":""img/2to1/1.png"",""time"":100},{""stimulus"":""img/2to1/2.png"",""time"":199},{""stimulus"":""img/2to1/3.png"",""time"":297},{""stimulus"":""img/2to1/4.png"",""time"":397},{""stimulus"":""img/2to1/5.png"",""time"":496},{""stimulus"":""img/2to1/6.png"",""time"":595},{""stimulus"":""img/2to1/7.png"",""time"":694},{""stimulus"":""img/2to1/8.png"",""time"":794},{""stimulus"":""img/2to1/9.png"",""time"":892},{""stimulus"":""img/2to1/10.png"",""time"":991},{""stimulus"":""img/2to1/11.png"",""time"":1091},{""stimulus"":""img/2to1/12.png"",""time"":1190}]","[]"
"image-keyboard-response","138","260255","0.0-5.0-1.67","631381096e95278a3f97fed4","bdp_cybrbll","Sun Mar 26 2023 05:00:08 GMT-0500 (Central Daylight Time)","540217","3","1","","null","","","","observe","","img/1to3/1.png","null","158","284","0.5","0.5","1","2","",""
"animation","139","261542","0.0-5.0-2.67","631381096e95278a3f97fed4","bdp_cybrbll","Sun Mar 26 2023 05:00:08 GMT-0500 (Central Daylight Time)","540217","3","1","","","","","","","","","","158","","","","1","2","[{""stimulus"":""img/1to2/1.png"",""time"":101},{""stimulus"":""img/1to2/2.png"",""time"":199},{""stimulus"":""img/1to2/3.png"",""time"":297},{""stimulus"":""img/1to2/4.png"",""time"":396},{""stimulus"":""img/1to2/5.png"",""time"":495},{""stimulus"":""img/1to2/6.png"",""time"":595},{""stimulus"":""img/1to2/7.png"",""time"":694},{""stimulus"":""img/1to2/8.png"",""time"":793},{""stimulus"":""img/1to2/9.png"",""time"":891},{""stimulus"":""img/1to2/10.png"",""time"":992},{""stimulus"":""img/1to2/11.png"",""time"":1090},{""stimulus"":""img/1to2/12.png"",""time"":1189}]","[]"
"image-keyboard-response","140","261640","0.0-5.0-1.68","631381096e95278a3f97fed4","bdp_cybrbll","Sun Mar 26 2023 05:00:08 GMT-0500 (Central Daylight Time)","540217","3","1","","97","","","","choice","","img/2to1/1.png","2","157","618","0.5","0.5","2","3","",""
"animation","141","262928","0.0-5.0-2.68","631381096e95278a3f97fed4","bdp_cybrbll","Sun Mar 26 2023 05:00:08 GMT-0500 (Central Daylight Time)","540217","3","1","","","","","","","","","","157","","","","2","3","[{""stimulus"":""img/2to3/1.png"",""time"":100},{""stimulus"":""img/2to3/2.png"",""time"":200},{""stimulus"":""img/2to3/3.png"",""time"":298},{""stimulus"":""img/2to3/4.png"",""time"":397},{""stimulus"":""img/2to3/5.png"",""time"":496},{""stimulus"":""img/2to3/6.png"",""time"":596},{""stimulus"":""img/2to3/7.png"",""time"":694},{""stimulus"":""img/2to3/8.png"",""time"":793},{""stimulus"":""img/2to3/9.png"",""time"":893},{""stimulus"":""img/2to3/10.png"",""time"":991},{""stimulus"":""img/2to3/11.png"",""time"":1090},{""stimulus"":""img/2to3/12.png"",""time"":1189}]","[]"
"image-keyboard-response","142","264129","0.0-5.0-1.69","631381096e95278a3f97fed4","bdp_cybrbll","Sun Mar 26 2023 05:00:08 GMT-0500 (Central Daylight Time)","540217","3","1","","null","","","","observe","","img/3to2/1.png","null","156","1199","0.5","0.5","3","2","",""
"animation","143","265417","0.0-5.0-2.69","631381096e95278a3f97fed4","bdp_cybrbll","Sun Mar 26 2023 05:00:08 GMT-0500 (Central Daylight Time)","540217","3","1","","","","","","","","","","156","","","","3","2","[{""stimulus"":""img/3to2/1.png"",""time"":99},{""stimulus"":""img/3to2/2.png"",""time"":199},{""stimulus"":""img/3to2/3.png"",""time"":298},{""stimulus"":""img/3to2/4.png"",""time"":397},{""stimulus"":""img/3to2/5.png"",""time"":496},{""stimulus"":""img/3to2/6.png"",""time"":596},{""stimulus"":""img/3to2/7.png"",""time"":694},{""stimulus"":""img/3to2/8.png"",""time"":793},{""stimulus"":""img/3to2/9.png"",""time"":893},{""stimulus"":""img/3to2/10.png"",""time"":991},{""stimulus"":""img/3to2/11.png"",""time"":1090},{""stimulus"":""img/3to2/12.png"",""time"":1189}]","[]"
"image-keyboard-response","144","265733","0.0-5.0-1.70","631381096e95278a3f97fed4","bdp_cybrbll","Sun Mar 26 2023 05:00:08 GMT-0500 (Central Daylight Time)","540217","3","1","","315","","","","choice","","img/2to1/1.png","2","155","367","0.5","0.5","2","3","",""
"animation","145","267020","0.0-5.0-2.70","631381096e95278a3f97fed4","bdp_cybrbll","Sun Mar 26 2023 05:00:08 GMT-0500 (Central Daylight Time)","540217","3","1","","","","","","","","","","155","","","","2","3","[{""stimulus"":""img/2to3/1.png"",""time"":101},{""stimulus"":""img/2to3/2.png"",""time"":199},{""stimulus"":""img/2to3/3.png"",""time"":298},{""stimulus"":""img/2to3/4.png"",""time"":397},{""stimulus"":""img/2to3/5.png"",""time"":496},{""stimulus"":""img/2to3/6.png"",""time"":595},{""stimulus"":""img/2to3/7.png"",""time"":694},{""stimulus"":""img/2to3/8.png"",""time"":793},{""stimulus"":""img/2to3/9.png"",""time"":892},{""stimulus"":""img/2to3/10.png"",""time"":991},{""stimulus"":""img/2to3/11.png"",""time"":1090},{""stimulus"":""img/2to3/12.png"",""time"":1189}]","[]"
"image-keyboard-response","146","267646","0.0-5.0-1.71","631381096e95278a3f97fed4","bdp_cybrbll","Sun Mar 26 2023 05:00:08 GMT-0500 (Central Daylight Time)","540217","3","1","","null","","","","observe","","img/3to2/1.png","null","154","612","0.5","0.5","3","1","",""
"animation","147","268934","0.0-5.0-2.71","631381096e95278a3f97fed4","bdp_cybrbll","Sun Mar 26 2023 05:00:08 GMT-0500 (Central Daylight Time)","540217","3","1","","","","","","","","","","154","","","","3","1","[{""stimulus"":""img/3to1/1.png"",""time"":99},{""stimulus"":""img/3to1/2.png"",""time"":199},{""stimulus"":""img/3to1/3.png"",""time"":298},{""stimulus"":""img/3to1/4.png"",""time"":397},{""stimulus"":""img/3to1/5.png"",""time"":495},{""stimulus"":""img/3to1/6.png"",""time"":595},{""stimulus"":""img/3to1/7.png"",""time"":694},{""stimulus"":""img/3to1/8.png"",""time"":793},{""stimulus"":""img/3to1/9.png"",""time"":892},{""stimulus"":""img/3to1/10.png"",""time"":991},{""stimulus"":""img/3to1/11.png"",""time"":1090},{""stimulus"":""img/3to1/12.png"",""time"":1189}]","[]"
"image-keyboard-response","148","269178","0.0-5.0-1.72","631381096e95278a3f97fed4","bdp_cybrbll","Sun Mar 26 2023 05:00:08 GMT-0500 (Central Daylight Time)","540217","3","1","","null","","","","observe","","img/1to3/1.png","null","153","243","0.5","0.5","1","3","",""
"animation","149","270466","0.0-5.0-2.72","631381096e95278a3f97fed4","bdp_cybrbll","Sun Mar 26 2023 05:00:08 GMT-0500 (Central Daylight Time)","540217","3","1","","","","","","","","","","153","","","","1","3","[{""stimulus"":""img/1to3/1.png"",""time"":100},{""stimulus"":""img/1to3/2.png"",""time"":199},{""stimulus"":""img/1to3/3.png"",""time"":298},{""stimulus"":""img/1to3/4.png"",""time"":397},{""stimulus"":""img/1to3/5.png"",""time"":497},{""stimulus"":""img/1to3/6.png"",""time"":596},{""stimulus"":""img/1to3/7.png"",""time"":694},{""stimulus"":""img/1to3/8.png"",""time"":794},{""stimulus"":""img/1to3/9.png"",""time"":892},{""stimulus"":""img/1to3/10.png"",""time"":991},{""stimulus"":""img/1to3/11.png"",""time"":1090},{""stimulus"":""img/1to3/12.png"",""time"":1189}]","[]"
"image-keyboard-response","150","270970","0.0-5.0-1.73","631381096e95278a3f97fed4","bdp_cybrbll","Sun Mar 26 2023 05:00:08 GMT-0500 (Central Daylight Time)","540217","3","1","","null","","","","observe","","img/3to2/1.png","null","152","501","0.5","0.5","3","1","",""
"animation","151","272258","0.0-5.0-2.73","631381096e95278a3f97fed4","bdp_cybrbll","Sun Mar 26 2023 05:00:08 GMT-0500 (Central Daylight Time)","540217","3","1","","","","","","","","","","152","","","","3","1","[{""stimulus"":""img/3to1/1.png"",""time"":101},{""stimulus"":""img/3to1/2.png"",""time"":199},{""stimulus"":""img/3to1/3.png"",""time"":298},{""stimulus"":""img/3to1/4.png"",""time"":397},{""stimulus"":""img/3to1/5.png"",""time"":495},{""stimulus"":""img/3to1/6.png"",""time"":595},{""stimulus"":""img/3to1/7.png"",""time"":695},{""stimulus"":""img/3to1/8.png"",""time"":793},{""stimulus"":""img/3to1/9.png"",""time"":892},{""stimulus"":""img/3to1/10.png"",""time"":990},{""stimulus"":""img/3to1/11.png"",""time"":1089},{""stimulus"":""img/3to1/12.png"",""time"":1189}]","[]"
"image-keyboard-response","152","272735","0.0-5.0-1.74","631381096e95278a3f97fed4","bdp_cybrbll","Sun Mar 26 2023 05:00:08 GMT-0500 (Central Daylight Time)","540217","3","1","","null","","","","observe","","img/1to3/1.png","null","151","475","0.5","0.5","1","2","",""
"animation","153","274022","0.0-5.0-2.74","631381096e95278a3f97fed4","bdp_cybrbll","Sun Mar 26 2023 05:00:08 GMT-0500 (Central Daylight Time)","540217","3","1","","","","","","","","","","151","","","","1","2","[{""stimulus"":""img/1to2/1.png"",""time"":100},{""stimulus"":""img/1to2/2.png"",""time"":200},{""stimulus"":""img/1to2/3.png"",""time"":297},{""stimulus"":""img/1to2/4.png"",""time"":397},{""stimulus"":""img/1to2/5.png"",""time"":496},{""stimulus"":""img/1to2/6.png"",""time"":594},{""stimulus"":""img/1to2/7.png"",""time"":694},{""stimulus"":""img/1to2/8.png"",""time"":793},{""stimulus"":""img/1to2/9.png"",""time"":891},{""stimulus"":""img/1to2/10.png"",""time"":991},{""stimulus"":""img/1to2/11.png"",""time"":1090},{""stimulus"":""img/1to2/12.png"",""time"":1188}]","[]"
"image-keyboard-response","154","274532","0.0-5.0-1.75","631381096e95278a3f97fed4","bdp_cybrbll","Sun Mar 26 2023 05:00:08 GMT-0500 (Central Daylight Time)","540217","3","1","","509","","","","choice","","img/2to1/1.png","2","150","819","0.5","0.5","2","3","",""
"animation","155","275820","0.0-5.0-2.75","631381096e95278a3f97fed4","bdp_cybrbll","Sun Mar 26 2023 05:00:08 GMT-0500 (Central Daylight Time)","540217","3","1","","","","","","","","","","150","","","","2","3","[{""stimulus"":""img/2to3/1.png"",""time"":100},{""stimulus"":""img/2to3/2.png"",""time"":200},{""stimulus"":""img/2to3/3.png"",""time"":299},{""stimulus"":""img/2to3/4.png"",""time"":397},{""stimulus"":""img/2to3/5.png"",""time"":496},{""stimulus"":""img/2to3/6.png"",""time"":595},{""stimulus"":""img/2to3/7.png"",""time"":694},{""stimulus"":""img/2to3/8.png"",""time"":793},{""stimulus"":""img/2to3/9.png"",""time"":893},{""stimulus"":""img/2to3/10.png"",""time"":992},{""stimulus"":""img/2to3/11.png"",""time"":1090},{""stimulus"":""img/2to3/12.png"",""time"":1189}]","[]"
"image-keyboard-response","156","276415","0.0-5.0-1.76","631381096e95278a3f97fed4","bdp_cybrbll","Sun Mar 26 2023 05:00:08 GMT-0500 (Central Daylight Time)","540217","3","1","","null","","","","observe","","img/3to2/1.png","null","149","579","0.5","0.1","3","1","",""
"animation","157","277703","0.0-5.0-2.76","631381096e95278a3f97fed4","bdp_cybrbll","Sun Mar 26 2023 05:00:08 GMT-0500 (Central Daylight Time)","540217","3","1","","","","","","","","","","149","","","","3","1","[{""stimulus"":""img/3to1/1.png"",""time"":100},{""stimulus"":""img/3to1/2.png"",""time"":200},{""stimulus"":""img/3to1/3.png"",""time"":298},{""stimulus"":""img/3to1/4.png"",""time"":397},{""stimulus"":""img/3to1/5.png"",""time"":496},{""stimulus"":""img/3to1/6.png"",""time"":595},{""stimulus"":""img/3to1/7.png"",""time"":694},{""stimulus"":""img/3to1/8.png"",""time"":792},{""stimulus"":""img/3to1/9.png"",""time"":891},{""stimulus"":""img/3to1/10.png"",""time"":991},{""stimulus"":""img/3to1/11.png"",""time"":1090},{""stimulus"":""img/3to1/12.png"",""time"":1190}]","[]"
"image-keyboard-response","158","278367","0.0-5.0-1.77","631381096e95278a3f97fed4","bdp_cybrbll","Sun Mar 26 2023 05:00:08 GMT-0500 (Central Daylight Time)","540217","3","1","","null","","","","observe","","img/1to3/1.png","null","148","663","0.5","0.1","1","2","",""
"animation","159","279655","0.0-5.0-2.77","631381096e95278a3f97fed4","bdp_cybrbll","Sun Mar 26 2023 05:00:08 GMT-0500 (Central Daylight Time)","540217","3","1","","","","","","","","","","148","","","","1","2","[{""stimulus"":""img/1to2/1.png"",""time"":101},{""stimulus"":""img/1to2/2.png"",""time"":199},{""stimulus"":""img/1to2/3.png"",""time"":298},{""stimulus"":""img/1to2/4.png"",""time"":398},{""stimulus"":""img/1to2/5.png"",""time"":497},{""stimulus"":""img/1to2/6.png"",""time"":595},{""stimulus"":""img/1to2/7.png"",""time"":695},{""stimulus"":""img/1to2/8.png"",""time"":794},{""stimulus"":""img/1to2/9.png"",""time"":893},{""stimulus"":""img/1to2/10.png"",""time"":992},{""stimulus"":""img/1to2/11.png"",""time"":1091},{""stimulus"":""img/1to2/12.png"",""time"":1189}]","[]"
"image-keyboard-response","160","280020","0.0-5.0-1.78","631381096e95278a3f97fed4","bdp_cybrbll","Sun Mar 26 2023 05:00:08 GMT-0500 (Central Daylight Time)","540217","3","1","","364","","","","choice","","img/2to1/1.png","2","147","685","0.5","0.1","2","3","",""
"animation","161","281308","0.0-5.0-2.78","631381096e95278a3f97fed4","bdp_cybrbll","Sun Mar 26 2023 05:00:08 GMT-0500 (Central Daylight Time)","540217","3","1","","","","","","","","","","147","","","","2","3","[{""stimulus"":""img/2to3/1.png"",""time"":100},{""stimulus"":""img/2to3/2.png"",""time"":199},{""stimulus"":""img/2to3/3.png"",""time"":298},{""stimulus"":""img/2to3/4.png"",""time"":397},{""stimulus"":""img/2to3/5.png"",""time"":496},{""stimulus"":""img/2to3/6.png"",""time"":595},{""stimulus"":""img/2to3/7.png"",""time"":694},{""stimulus"":""img/2to3/8.png"",""time"":793},{""stimulus"":""img/2to3/9.png"",""time"":892},{""stimulus"":""img/2to3/10.png"",""time"":991},{""stimulus"":""img/2to3/11.png"",""time"":1090},{""stimulus"":""img/2to3/12.png"",""time"":1189}]","[]"
"image-keyboard-response","162","281986","0.0-5.0-1.79","631381096e95278a3f97fed4","bdp_cybrbll","Sun Mar 26 2023 05:00:08 GMT-0500 (Central Daylight Time)","540217","3","1","","null","","","","observe","","img/3to2/1.png","null","146","673","0.5","0.1","3","1","",""
"animation","163","283274","0.0-5.0-2.79","631381096e95278a3f97fed4","bdp_cybrbll","Sun Mar 26 2023 05:00:08 GMT-0500 (Central Daylight Time)","540217","3","1","","","","","","","","","","146","","","","3","1","[{""stimulus"":""img/3to1/1.png"",""time"":100},{""stimulus"":""img/3to1/2.png"",""time"":199},{""stimulus"":""img/3to1/3.png"",""time"":298},{""stimulus"":""img/3to1/4.png"",""time"":397},{""stimulus"":""img/3to1/5.png"",""time"":496},{""stimulus"":""img/3to1/6.png"",""time"":595},{""stimulus"":""img/3to1/7.png"",""time"":694},{""stimulus"":""img/3to1/8.png"",""time"":792},{""stimulus"":""img/3to1/9.png"",""time"":892},{""stimulus"":""img/3to1/10.png"",""time"":991},{""stimulus"":""img/3to1/11.png"",""time"":1089},{""stimulus"":""img/3to1/12.png"",""time"":1188}]","[]"
"image-keyboard-response","164","283696","0.0-5.0-1.80","631381096e95278a3f97fed4","bdp_cybrbll","Sun Mar 26 2023 05:00:08 GMT-0500 (Central Daylight Time)","540217","3","1","","null","","","","observe","","img/1to3/1.png","null","145","420","0.5","0.1","1","3","",""
"animation","165","284985","0.0-5.0-2.80","631381096e95278a3f97fed4","bdp_cybrbll","Sun Mar 26 2023 05:00:08 GMT-0500 (Central Daylight Time)","540217","3","1","","","","","","","","","","145","","","","1","3","[{""stimulus"":""img/1to3/1.png"",""time"":101},{""stimulus"":""img/1to3/2.png"",""time"":199},{""stimulus"":""img/1to3/3.png"",""time"":298},{""stimulus"":""img/1to3/4.png"",""time"":397},{""stimulus"":""img/1to3/5.png"",""time"":496},{""stimulus"":""img/1to3/6.png"",""time"":595},{""stimulus"":""img/1to3/7.png"",""time"":694},{""stimulus"":""img/1to3/8.png"",""time"":793},{""stimulus"":""img/1to3/9.png"",""time"":892},{""stimulus"":""img/1to3/10.png"",""time"":991},{""stimulus"":""img/1to3/11.png"",""time"":1091},{""stimulus"":""img/1to3/12.png"",""time"":1189}]","[]"
"image-keyboard-response","166","285466","0.0-5.0-1.81","631381096e95278a3f97fed4","bdp_cybrbll","Sun Mar 26 2023 05:00:08 GMT-0500 (Central Daylight Time)","540217","3","1","","null","","","","observe","","img/3to2/1.png","null","144","480","0.5","0.1","3","1","",""
"animation","167","286753","0.0-5.0-2.81","631381096e95278a3f97fed4","bdp_cybrbll","Sun Mar 26 2023 05:00:08 GMT-0500 (Central Daylight Time)","540217","3","1","","","","","","","","","","144","","","","3","1","[{""stimulus"":""img/3to1/1.png"",""time"":100},{""stimulus"":""img/3to1/2.png"",""time"":199},{""stimulus"":""img/3to1/3.png"",""time"":299},{""stimulus"":""img/3to1/4.png"",""time"":397},{""stimulus"":""img/3to1/5.png"",""time"":495},{""stimulus"":""img/3to1/6.png"",""time"":595},{""stimulus"":""img/3to1/7.png"",""time"":693},{""stimulus"":""img/3to1/8.png"",""time"":792},{""stimulus"":""img/3to1/9.png"",""time"":892},{""stimulus"":""img/3to1/10.png"",""time"":991},{""stimulus"":""img/3to1/11.png"",""time"":1089},{""stimulus"":""img/3to1/12.png"",""time"":1190}]","[]"
"image-keyboard-response","168","287591","0.0-5.0-1.82","631381096e95278a3f97fed4","bdp_cybrbll","Sun Mar 26 2023 05:00:08 GMT-0500 (Central Daylight Time)","540217","3","1","","null","","","","observe","","img/1to3/1.png","null","143","836","0.5","0.1","1","3","",""
"animation","169","288879","0.0-5.0-2.82","631381096e95278a3f97fed4","bdp_cybrbll","Sun Mar 26 2023 05:00:08 GMT-0500 (Central Daylight Time)","540217","3","1","","","","","","","","","","143","","","","1","3","[{""stimulus"":""img/1to3/1.png"",""time"":100},{""stimulus"":""img/1to3/2.png"",""time"":199},{""stimulus"":""img/1to3/3.png"",""time"":308},{""stimulus"":""img/1to3/4.png"",""time"":397},{""stimulus"":""img/1to3/5.png"",""time"":497},{""stimulus"":""img/1to3/6.png"",""time"":594},{""stimulus"":""img/1to3/7.png"",""time"":694},{""stimulus"":""img/1to3/8.png"",""time"":793},{""stimulus"":""img/1to3/9.png"",""time"":892},{""stimulus"":""img/1to3/10.png"",""time"":991},{""stimulus"":""img/1to3/11.png"",""time"":1090},{""stimulus"":""img/1to3/12.png"",""time"":1189}]","[]"
"image-keyboard-response","170","289943","0.0-5.0-1.83","631381096e95278a3f97fed4","bdp_cybrbll","Sun Mar 26 2023 05:00:08 GMT-0500 (Central Daylight Time)","540217","3","1","","null","","","","observe","","img/3to2/1.png","null","142","1062","0.5","0.1","3","1","",""
"animation","171","291231","0.0-5.0-2.83","631381096e95278a3f97fed4","bdp_cybrbll","Sun Mar 26 2023 05:00:08 GMT-0500 (Central Daylight Time)","540217","3","1","","","","","","","","","","142","","","","3","1","[{""stimulus"":""img/3to1/1.png"",""time"":100},{""stimulus"":""img/3to1/2.png"",""time"":199},{""stimulus"":""img/3to1/3.png"",""time"":298},{""stimulus"":""img/3to1/4.png"",""time"":397},{""stimulus"":""img/3to1/5.png"",""time"":496},{""stimulus"":""img/3to1/6.png"",""time"":595},{""stimulus"":""img/3to1/7.png"",""time"":694},{""stimulus"":""img/3to1/8.png"",""time"":793},{""stimulus"":""img/3to1/9.png"",""time"":892},{""stimulus"":""img/3to1/10.png"",""time"":992},{""stimulus"":""img/3to1/11.png"",""time"":1090},{""stimulus"":""img/3to1/12.png"",""time"":1189}]","[]"
"image-keyboard-response","172","291470","0.0-5.0-1.84","631381096e95278a3f97fed4","bdp_cybrbll","Sun Mar 26 2023 05:00:08 GMT-0500 (Central Daylight Time)","540217","3","1","","null","","","","observe","","img/1to3/1.png","null","141","238","0.5","0.1","1","3","",""
"animation","173","292758","0.0-5.0-2.84","631381096e95278a3f97fed4","bdp_cybrbll","Sun Mar 26 2023 05:00:08 GMT-0500 (Central Daylight Time)","540217","3","1","","","","","","","","","","141","","","","1","3","[{""stimulus"":""img/1to3/1.png"",""time"":101},{""stimulus"":""img/1to3/2.png"",""time"":199},{""stimulus"":""img/1to3/3.png"",""time"":298},{""stimulus"":""img/1to3/4.png"",""time"":396},{""stimulus"":""img/1to3/5.png"",""time"":496},{""stimulus"":""img/1to3/6.png"",""time"":595},{""stimulus"":""img/1to3/7.png"",""time"":694},{""stimulus"":""img/1to3/8.png"",""time"":792},{""stimulus"":""img/1to3/9.png"",""time"":892},{""stimulus"":""img/1to3/10.png"",""time"":990},{""stimulus"":""img/1to3/11.png"",""time"":1089},{""stimulus"":""img/1to3/12.png"",""time"":1188}]","[]"
"image-keyboard-response","174","292968","0.0-5.0-1.85","631381096e95278a3f97fed4","bdp_cybrbll","Sun Mar 26 2023 05:00:08 GMT-0500 (Central Daylight Time)","540217","3","1","","null","","","","observe","","img/3to2/1.png","null","140","208","0.5","0.1","3","2","",""
"animation","175","294255","0.0-5.0-2.85","631381096e95278a3f97fed4","bdp_cybrbll","Sun Mar 26 2023 05:00:08 GMT-0500 (Central Daylight Time)","540217","3","1","","","","","","","","","","140","","","","3","2","[{""stimulus"":""img/3to2/1.png"",""time"":100},{""stimulus"":""img/3to2/2.png"",""time"":199},{""stimulus"":""img/3to2/3.png"",""time"":298},{""stimulus"":""img/3to2/4.png"",""time"":398},{""stimulus"":""img/3to2/5.png"",""time"":497},{""stimulus"":""img/3to2/6.png"",""time"":595},{""stimulus"":""img/3to2/7.png"",""time"":695},{""stimulus"":""img/3to2/8.png"",""time"":793},{""stimulus"":""img/3to2/9.png"",""time"":892},{""stimulus"":""img/3to2/10.png"",""time"":991},{""stimulus"":""img/3to2/11.png"",""time"":1090},{""stimulus"":""img/3to2/12.png"",""time"":1189}]","[]"
"image-keyboard-response","176","294440","0.0-5.0-1.86","631381096e95278a3f97fed4","bdp_cybrbll","Sun Mar 26 2023 05:00:08 GMT-0500 (Central Daylight Time)","540217","3","1","","184","","","","choice","","img/2to1/1.png","1","139","191","0.5","0.1","2","1","",""
"animation","177","295728","0.0-5.0-2.86","631381096e95278a3f97fed4","bdp_cybrbll","Sun Mar 26 2023 05:00:08 GMT-0500 (Central Daylight Time)","540217","3","1","","","","","","","","","","139","","","","2","1","[{""stimulus"":""img/2to1/1.png"",""time"":100},{""stimulus"":""img/2to1/2.png"",""time"":199},{""stimulus"":""img/2to1/3.png"",""time"":298},{""stimulus"":""img/2to1/4.png"",""time"":397},{""stimulus"":""img/2to1/5.png"",""time"":496},{""stimulus"":""img/2to1/6.png"",""time"":595},{""stimulus"":""img/2to1/7.png"",""time"":705},{""stimulus"":""img/2to1/8.png"",""time"":793},{""stimulus"":""img/2to1/9.png"",""time"":892},{""stimulus"":""img/2to1/10.png"",""time"":991},{""stimulus"":""img/2to1/11.png"",""time"":1090},{""stimulus"":""img/2to1/12.png"",""time"":1189}]","[]"
"image-keyboard-response","178","296148","0.0-5.0-1.87","631381096e95278a3f97fed4","bdp_cybrbll","Sun Mar 26 2023 05:00:08 GMT-0500 (Central Daylight Time)","540217","3","1","","null","","","","observe","","img/1to3/1.png","null","138","417","0.5","0.1","1","3","",""
"animation","179","297436","0.0-5.0-2.87","631381096e95278a3f97fed4","bdp_cybrbll","Sun Mar 26 2023 05:00:08 GMT-0500 (Central Daylight Time)","540217","3","1","","","","","","","","","","138","","","","1","3","[{""stimulus"":""img/1to3/1.png"",""time"":100},{""stimulus"":""img/1to3/2.png"",""time"":199},{""stimulus"":""img/1to3/3.png"",""time"":297},{""stimulus"":""img/1to3/4.png"",""time"":397},{""stimulus"":""img/1to3/5.png"",""time"":497},{""stimulus"":""img/1to3/6.png"",""time"":595},{""stimulus"":""img/1to3/7.png"",""time"":694},{""stimulus"":""img/1to3/8.png"",""time"":792},{""stimulus"":""img/1to3/9.png"",""time"":892},{""stimulus"":""img/1to3/10.png"",""time"":991},{""stimulus"":""img/1to3/11.png"",""time"":1090},{""stimulus"":""img/1to3/12.png"",""time"":1189}]","[]"
"image-keyboard-response","180","297930","0.0-5.0-1.88","631381096e95278a3f97fed4","bdp_cybrbll","Sun Mar 26 2023 05:00:08 GMT-0500 (Central Daylight Time)","540217","3","1","","null","","","","observe","","img/3to2/1.png","null","137","493","0.5","0.1","3","2","",""
"animation","181","299218","0.0-5.0-2.88","631381096e95278a3f97fed4","bdp_cybrbll","Sun Mar 26 2023 05:00:08 GMT-0500 (Central Daylight Time)","540217","3","1","","","","","","","","","","137","","","","3","2","[{""stimulus"":""img/3to2/1.png"",""time"":101},{""stimulus"":""img/3to2/2.png"",""time"":199},{""stimulus"":""img/3to2/3.png"",""time"":311},{""stimulus"":""img/3to2/4.png"",""time"":397},{""stimulus"":""img/3to2/5.png"",""time"":496},{""stimulus"":""img/3to2/6.png"",""time"":596},{""stimulus"":""img/3to2/7.png"",""time"":694},{""stimulus"":""img/3to2/8.png"",""time"":793},{""stimulus"":""img/3to2/9.png"",""time"":893},{""stimulus"":""img/3to2/10.png"",""time"":991},{""stimulus"":""img/3to2/11.png"",""time"":1091},{""stimulus"":""img/3to2/12.png"",""time"":1189}]","[]"
"image-keyboard-response","182","299257","0.0-5.0-1.89","631381096e95278a3f97fed4","bdp_cybrbll","Sun Mar 26 2023 05:00:08 GMT-0500 (Central Daylight Time)","540217","3","1","","38","","","","choice","","img/2to1/1.png","2","136","921","0.5","0.1","2","3","",""
"animation","183","300545","0.0-5.0-2.89","631381096e95278a3f97fed4","bdp_cybrbll","Sun Mar 26 2023 05:00:08 GMT-0500 (Central Daylight Time)","540217","3","1","","","","","","","","","","136","","","","2","3","[{""stimulus"":""img/2to3/1.png"",""time"":101},{""stimulus"":""img/2to3/2.png"",""time"":199},{""stimulus"":""img/2to3/3.png"",""time"":298},{""stimulus"":""img/2to3/4.png"",""time"":398},{""stimulus"":""img/2to3/5.png"",""time"":496},{""stimulus"":""img/2to3/6.png"",""time"":595},{""stimulus"":""img/2to3/7.png"",""time"":694},{""stimulus"":""img/2to3/8.png"",""time"":793},{""stimulus"":""img/2to3/9.png"",""time"":892},{""stimulus"":""img/2to3/10.png"",""time"":991},{""stimulus"":""img/2to3/11.png"",""time"":1090},{""stimulus"":""img/2to3/12.png"",""time"":1189}]","[]"
"image-keyboard-response","184","301521","0.0-5.0-1.90","631381096e95278a3f97fed4","bdp_cybrbll","Sun Mar 26 2023 05:00:08 GMT-0500 (Central Daylight Time)","540217","3","1","","null","","","","observe","","img/3to2/1.png","null","135","974","0.5","0.1","3","1","",""
"animation","185","302809","0.0-5.0-2.90","631381096e95278a3f97fed4","bdp_cybrbll","Sun Mar 26 2023 05:00:08 GMT-0500 (Central Daylight Time)","540217","3","1","","","","","","","","","","135","","","","3","1","[{""stimulus"":""img/3to1/1.png"",""time"":100},{""stimulus"":""img/3to1/2.png"",""time"":198},{""stimulus"":""img/3to1/3.png"",""time"":297},{""stimulus"":""img/3to1/4.png"",""time"":396},{""stimulus"":""img/3to1/5.png"",""time"":496},{""stimulus"":""img/3to1/6.png"",""time"":596},{""stimulus"":""img/3to1/7.png"",""time"":694},{""stimulus"":""img/3to1/8.png"",""time"":793},{""stimulus"":""img/3to1/9.png"",""time"":892},{""stimulus"":""img/3to1/10.png"",""time"":991},{""stimulus"":""img/3to1/11.png"",""time"":1090},{""stimulus"":""img/3to1/12.png"",""time"":1189}]","[]"
"image-keyboard-response","186","303095","0.0-5.0-1.91","631381096e95278a3f97fed4","bdp_cybrbll","Sun Mar 26 2023 05:00:08 GMT-0500 (Central Daylight Time)","540217","3","1","","null","","","","observe","","img/1to3/1.png","null","134","284","0.5","0.1","1","3","",""
"animation","187","304383","0.0-5.0-2.91","631381096e95278a3f97fed4","bdp_cybrbll","Sun Mar 26 2023 05:00:08 GMT-0500 (Central Daylight Time)","540217","3","1","","","","","","","","","","134","","","","1","3","[{""stimulus"":""img/1to3/1.png"",""time"":100},{""stimulus"":""img/1to3/2.png"",""time"":199},{""stimulus"":""img/1to3/3.png"",""time"":298},{""stimulus"":""img/1to3/4.png"",""time"":397},{""stimulus"":""img/1to3/5.png"",""time"":496},{""stimulus"":""img/1to3/6.png"",""time"":595},{""stimulus"":""img/1to3/7.png"",""time"":694},{""stimulus"":""img/1to3/8.png"",""time"":793},{""stimulus"":""img/1to3/9.png"",""time"":892},{""stimulus"":""img/1to3/10.png"",""time"":991},{""stimulus"":""img/1to3/11.png"",""time"":1090},{""stimulus"":""img/1to3/12.png"",""time"":1190}]","[]"
"image-keyboard-response","188","304606","0.0-5.0-1.92","631381096e95278a3f97fed4","bdp_cybrbll","Sun Mar 26 2023 05:00:08 GMT-0500 (Central Daylight Time)","540217","3","1","","null","","","","observe","","img/3to2/1.png","null","133","222","0.5","0.1","3","2","",""
"animation","189","305895","0.0-5.0-2.92","631381096e95278a3f97fed4","bdp_cybrbll","Sun Mar 26 2023 05:00:08 GMT-0500 (Central Daylight Time)","540217","3","1","","","","","","","","","","133","","","","3","2","[{""stimulus"":""img/3to2/1.png"",""time"":101},{""stimulus"":""img/3to2/2.png"",""time"":199},{""stimulus"":""img/3to2/3.png"",""time"":299},{""stimulus"":""img/3to2/4.png"",""time"":397},{""stimulus"":""img/3to2/5.png"",""time"":496},{""stimulus"":""img/3to2/6.png"",""time"":595},{""stimulus"":""img/3to2/7.png"",""time"":695},{""stimulus"":""img/3to2/8.png"",""time"":793},{""stimulus"":""img/3to2/9.png"",""time"":892},{""stimulus"":""img/3to2/10.png"",""time"":991},{""stimulus"":""img/3to2/11.png"",""time"":1090},{""stimulus"":""img/3to2/12.png"",""time"":1189}]","[]"
"image-keyboard-response","190","306145","0.0-5.0-1.93","631381096e95278a3f97fed4","bdp_cybrbll","Sun Mar 26 2023 05:00:08 GMT-0500 (Central Daylight Time)","540217","3","1","","250","","","","choice","","img/2to1/1.png","1","132","680","0.5","0.1","2","1","",""
