"event","trial","time","trialtype","subject_id","task","startTime","totalTime","fairPartner","unfairPartner","trial_type","trial_index","time_elapsed","internal_node_id","view_history","rt","success","stimulus","key_press","throwsLeft","rtDur","pFair","pUnfair","holder","receiver","animation_sequence","responses"
"focus","0","0","focusevent","63e5b3e89a3823139cb9d35e","bdp_cybrbll","Mon Mar 27 2023 09:12:35 GMT-0600 (Central Standard Time)","468792","1","3","","","","","","","","","","","","","","","","",""
"focus","0","0","focusevent","63e5b3e89a3823139cb9d35e","bdp_cybrbll","Mon Mar 27 2023 09:12:35 GMT-0600 (Central Standard Time)","468792","1","3","","","","","","","","","","","","","","","","",""
"","","","","63e5b3e89a3823139cb9d35e","bdp_cybrbll","Mon Mar 27 2023 09:12:35 GMT-0600 (Central Standard Time)","468792","1","3","pavlovia","0","6","0.0-0.0","","","","","","","","","","","","",""
"","","","","63e5b3e89a3823139cb9d35e","bdp_cybrbll","Mon Mar 27 2023 09:12:35 GMT-0600 (Central Standard Time)","468792","1","3","instructions","1","21521","0.0-1.0","[{""page_index"":0,""viewing_time"":21513}]","21513","","","","","","","","","","",""
"fullscreenenter","2","25373","fullscreenenter","63e5b3e89a3823139cb9d35e","bdp_cybrbll","Mon Mar 27 2023 09:12:35 GMT-0600 (Central Standard Time)","468792","1","3","","","","","","","","","","","","","","","","",""
"","","","","63e5b3e89a3823139cb9d35e","bdp_cybrbll","Mon Mar 27 2023 09:12:35 GMT-0600 (Central Standard Time)","468792","1","3","fullscreen","2","26354","0.0-2.0","","","true","","","","","","","","","",""
"","","","","63e5b3e89a3823139cb9d35e","bdp_cybrbll","Mon Mar 27 2023 09:12:35 GMT-0600 (Central Standard Time)","468792","1","3","instructions","3","50561","0.0-4.0","[{""page_index"":0,""viewing_time"":24205}]","24206","","","","","","","","","","",""
"","","","choice","63e5b3e89a3823139cb9d35e","bdp_cybrbll","Mon Mar 27 2023 09:12:35 GMT-0600 (Central Standard Time)","468792","1","3","image-keyboard-response","4","52567","0.0-5.0-1.0","","2004","","img/2to1/1.png","1","225","1042","0.5","0.5","2","1","",""
"","","","","63e5b3e89a3823139cb9d35e","bdp_cybrbll","Mon Mar 27 2023 09:12:35 GMT-0600 (Central Standard Time)","468792","1","3","animation","5","53858","0.0-5.0-2.0","","","","","","225","","","","2","1","[{""stimulus"":""img/2to1/1.png"",""time"":103},{""stimulus"":""img/2to1/2.png"",""time"":211},{""stimulus"":""img/2to1/3.png"",""time"":298},{""stimulus"":""img/2to1/4.png"",""time"":397},{""stimulus"":""img/2to1/5.png"",""time"":508},{""stimulus"":""img/2to1/6.png"",""time"":602},{""stimulus"":""img/2to1/7.png"",""time"":695},{""stimulus"":""img/2to1/8.png"",""time"":792},{""stimulus"":""img/2to1/9.png"",""time"":893},{""stimulus"":""img/2to1/10.png"",""time"":994},{""stimulus"":""img/2to1/11.png"",""time"":1103},{""stimulus"":""img/2to1/12.png"",""time"":1189}]","[]"
"","","","observe","63e5b3e89a3823139cb9d35e","bdp_cybrbll","Mon Mar 27 2023 09:12:35 GMT-0600 (Central Standard Time)","468792","1","3","image-keyboard-response","6","54534","0.0-5.0-1.1","","null","","img/1to3/1.png","null","224","673","0.5","0.5","1","2","",""
"","","","","63e5b3e89a3823139cb9d35e","bdp_cybrbll","Mon Mar 27 2023 09:12:35 GMT-0600 (Central Standard Time)","468792","1","3","animation","7","55822","0.0-5.0-2.1","","","","","","224","","","","1","2","[{""stimulus"":""img/1to2/1.png"",""time"":108},{""stimulus"":""img/1to2/2.png"",""time"":200},{""stimulus"":""img/1to2/3.png"",""time"":311},{""stimulus"":""img/1to2/4.png"",""time"":404},{""stimulus"":""img/1to2/5.png"",""time"":499},{""stimulus"":""img/1to2/6.png"",""time"":608},{""stimulus"":""img/1to2/7.png"",""time"":703},{""stimulus"":""img/1to2/8.png"",""time"":796},{""stimulus"":""img/1to2/9.png"",""time"":905},{""stimulus"":""img/1to2/10.png"",""time"":999},{""stimulus"":""img/1to2/11.png"",""time"":1092},{""stimulus"":""img/1to2/12.png"",""time"":1201}]","[]"
"","","","choice","63e5b3e89a3823139cb9d35e","bdp_cybrbll","Mon Mar 27 2023 09:12:35 GMT-0600 (Central Standard Time)","468792","1","3","image-keyboard-response","8","56128","0.0-5.0-1.2","","306","","img/2to1/1.png","2","223","839","0.5","0.5","2","3","",""
"","","","","63e5b3e89a3823139cb9d35e","bdp_cybrbll","Mon Mar 27 2023 09:12:35 GMT-0600 (Central Standard Time)","468792","1","3","animation","9","57416","0.0-5.0-2.2","","","","","","223","","","","2","3","[{""stimulus"":""img/2to3/1.png"",""time"":100},{""stimulus"":""img/2to3/2.png"",""time"":200},{""stimulus"":""img/2to3/3.png"",""time"":308},{""stimulus"":""img/2to3/4.png"",""time"":403},{""stimulus"":""img/2to3/5.png"",""time"":497},{""stimulus"":""img/2to3/6.png"",""time"":606},{""stimulus"":""img/2to3/7.png"",""time"":694},{""stimulus"":""img/2to3/8.png"",""time"":793},{""stimulus"":""img/2to3/9.png"",""time"":904},{""stimulus"":""img/2to3/10.png"",""time"":992},{""stimulus"":""img/2to3/11.png"",""time"":1090},{""stimulus"":""img/2to3/12.png"",""time"":1188}]","[]"
"","","","observe","63e5b3e89a3823139cb9d35e","bdp_cybrbll","Mon Mar 27 2023 09:12:35 GMT-0600 (Central Standard Time)","468792","1","3","image-keyboard-response","10","57703","0.0-5.0-1.3","","null","","img/3to2/1.png","null","222","285","0.5","0.5","3","1","",""
"","","","","63e5b3e89a3823139cb9d35e","bdp_cybrbll","Mon Mar 27 2023 09:12:35 GMT-0600 (Central Standard Time)","468792","1","3","animation","11","59004","0.0-5.0-2.3","","","","","","222","","","","3","1","[{""stimulus"":""img/3to1/1.png"",""time"":110},{""stimulus"":""img/3to1/2.png"",""time"":199},{""stimulus"":""img/3to1/3.png"",""time"":299},{""stimulus"":""img/3to1/4.png"",""time"":410},{""stimulus"":""img/3to1/5.png"",""time"":496},{""stimulus"":""img/3to1/6.png"",""time"":597},{""stimulus"":""img/3to1/7.png"",""time"":708},{""stimulus"":""img/3to1/8.png"",""time"":802},{""stimulus"":""img/3to1/9.png"",""time"":895},{""stimulus"":""img/3to1/10.png"",""time"":1005},{""stimulus"":""img/3to1/11.png"",""time"":1099},{""stimulus"":""img/3to1/12.png"",""time"":1192}]","[]"
"","","","observe","63e5b3e89a3823139cb9d35e","bdp_cybrbll","Mon Mar 27 2023 09:12:35 GMT-0600 (Central Standard Time)","468792","1","3","image-keyboard-response","12","59505","0.0-5.0-1.4","","null","","img/1to3/1.png","null","221","500","0.5","0.5","1","3","",""
"","","","","63e5b3e89a3823139cb9d35e","bdp_cybrbll","Mon Mar 27 2023 09:12:35 GMT-0600 (Central Standard Time)","468792","1","3","animation","13","60798","0.0-5.0-2.4","","","","","","221","","","","1","3","[{""stimulus"":""img/1to3/1.png"",""time"":105},{""stimulus"":""img/1to3/2.png"",""time"":215},{""stimulus"":""img/1to3/3.png"",""time"":298},{""stimulus"":""img/1to3/4.png"",""time"":402},{""stimulus"":""img/1to3/5.png"",""time"":496},{""stimulus"":""img/1to3/6.png"",""time"":605},{""stimulus"":""img/1to3/7.png"",""time"":695},{""stimulus"":""img/1to3/8.png"",""time"":793},{""stimulus"":""img/1to3/9.png"",""time"":904},{""stimulus"":""img/1to3/10.png"",""time"":999},{""stimulus"":""img/1to3/11.png"",""time"":1091},{""stimulus"":""img/1to3/12.png"",""time"":1200}]","[]"
"","","","observe","63e5b3e89a3823139cb9d35e","bdp_cybrbll","Mon Mar 27 2023 09:12:35 GMT-0600 (Central Standard Time)","468792","1","3","image-keyboard-response","14","60999","0.0-5.0-1.5","","null","","img/3to2/1.png","null","220","199","0.5","0.5","3","2","",""
"","","","","63e5b3e89a3823139cb9d35e","bdp_cybrbll","Mon Mar 27 2023 09:12:35 GMT-0600 (Central Standard Time)","468792","1","3","animation","15","62288","0.0-5.0-2.5","","","","","","220","","","","3","2","[{""stimulus"":""img/3to2/1.png"",""time"":112},{""stimulus"":""img/3to2/2.png"",""time"":199},{""stimulus"":""img/3to2/3.png"",""time"":298},{""stimulus"":""img/3to2/4.png"",""time"":406},{""stimulus"":""img/3to2/5.png"",""time"":496},{""stimulus"":""img/3to2/6.png"",""time"":594},{""stimulus"":""img/3to2/7.png"",""time"":707},{""stimulus"":""img/3to2/8.png"",""time"":801},{""stimulus"":""img/3to2/9.png"",""time"":893},{""stimulus"":""img/3to2/10.png"",""time"":1003},{""stimulus"":""img/3to2/11.png"",""time"":1090},{""stimulus"":""img/3to2/12.png"",""time"":1190}]","[]"
"","","","choice","63e5b3e89a3823139cb9d35e","bdp_cybrbll","Mon Mar 27 2023 09:12:35 GMT-0600 (Central Standard Time)","468792","1","3","image-keyboard-response","16","62455","0.0-5.0-1.6","","166","","img/2to1/1.png","1","219","568","0.5","0.5","2","1","",""
"","","","","63e5b3e89a3823139cb9d35e","bdp_cybrbll","Mon Mar 27 2023 09:12:35 GMT-0600 (Central Standard Time)","468792","1","3","animation","17","63757","0.0-5.0-2.6","","","","","","219","","","","2","1","[{""stimulus"":""img/2to1/1.png"",""time"":110},{""stimulus"":""img/2to1/2.png"",""time"":200},{""stimulus"":""img/2to1/3.png"",""time"":313},{""stimulus"":""img/2to1/4.png"",""time"":397},{""stimulus"":""img/2to1/5.png"",""time"":496},{""stimulus"":""img/2to1/6.png"",""time"":610},{""stimulus"":""img/2to1/7.png"",""time"":694},{""stimulus"":""img/2to1/8.png"",""time"":793},{""stimulus"":""img/2to1/9.png"",""time"":892},{""stimulus"":""img/2to1/10.png"",""time"":999},{""stimulus"":""img/2to1/11.png"",""time"":1090},{""stimulus"":""img/2to1/12.png"",""time"":1189}]","[]"
"","","","observe","63e5b3e89a3823139cb9d35e","bdp_cybrbll","Mon Mar 27 2023 09:12:35 GMT-0600 (Central Standard Time)","468792","1","3","image-keyboard-response","18","64438","0.0-5.0-1.7","","null","","img/1to3/1.png","null","218","680","0.5","0.5","1","3","",""
"","","","","63e5b3e89a3823139cb9d35e","bdp_cybrbll","Mon Mar 27 2023 09:12:35 GMT-0600 (Central Standard Time)","468792","1","3","animation","19","65731","0.0-5.0-2.7","","","","","","218","","","","1","3","[{""stimulus"":""img/1to3/1.png"",""time"":108},{""stimulus"":""img/1to3/2.png"",""time"":199},{""stimulus"":""img/1to3/3.png"",""time"":310},{""stimulus"":""img/1to3/4.png"",""time"":404},{""stimulus"":""img/1to3/5.png"",""time"":498},{""stimulus"":""img/1to3/6.png"",""time"":595},{""stimulus"":""img/1to3/7.png"",""time"":694},{""stimulus"":""img/1to3/8.png"",""time"":795},{""stimulus"":""img/1to3/9.png"",""time"":893},{""stimulus"":""img/1to3/10.png"",""time"":992},{""stimulus"":""img/1to3/11.png"",""time"":1091},{""stimulus"":""img/1to3/12.png"",""time"":1200}]","[]"
"","","","observe","63e5b3e89a3823139cb9d35e","bdp_cybrbll","Mon Mar 27 2023 09:12:35 GMT-0600 (Central Standard Time)","468792","1","3","image-keyboard-response","20","66166","0.0-5.0-1.8","","null","","img/3to2/1.png","null","217","421","0.5","0.5","3","2","",""
"","","","","63e5b3e89a3823139cb9d35e","bdp_cybrbll","Mon Mar 27 2023 09:12:35 GMT-0600 (Central Standard Time)","468792","1","3","animation","21","67454","0.0-5.0-2.8","","","","","","217","","","","3","2","[{""stimulus"":""img/3to2/1.png"",""time"":110},{""stimulus"":""img/3to2/2.png"",""time"":199},{""stimulus"":""img/3to2/3.png"",""time"":314},{""stimulus"":""img/3to2/4.png"",""time"":407},{""stimulus"":""img/3to2/5.png"",""time"":500},{""stimulus"":""img/3to2/6.png"",""time"":609},{""stimulus"":""img/3to2/7.png"",""time"":702},{""stimulus"":""img/3to2/8.png"",""time"":797},{""stimulus"":""img/3to2/9.png"",""time"":907},{""stimulus"":""img/3to2/10.png"",""time"":999},{""stimulus"":""img/3to2/11.png"",""time"":1091},{""stimulus"":""img/3to2/12.png"",""time"":1189}]","[]"
"","","","choice","63e5b3e89a3823139cb9d35e","bdp_cybrbll","Mon Mar 27 2023 09:12:35 GMT-0600 (Central Standard Time)","468792","1","3","image-keyboard-response","22","67736","0.0-5.0-1.9","","280","","img/2to1/1.png","1","216","483","0.5","0.5","2","1","",""
"","","","","63e5b3e89a3823139cb9d35e","bdp_cybrbll","Mon Mar 27 2023 09:12:35 GMT-0600 (Central Standard Time)","468792","1","3","animation","23","69024","0.0-5.0-2.9","","","","","","216","","","","2","1","[{""stimulus"":""img/2to1/1.png"",""time"":100},{""stimulus"":""img/2to1/2.png"",""time"":199},{""stimulus"":""img/2to1/3.png"",""time"":308},{""stimulus"":""img/2to1/4.png"",""time"":397},{""stimulus"":""img/2to1/5.png"",""time"":497},{""stimulus"":""img/2to1/6.png"",""time"":596},{""stimulus"":""img/2to1/7.png"",""time"":695},{""stimulus"":""img/2to1/8.png"",""time"":795},{""stimulus"":""img/2to1/9.png"",""time"":902},{""stimulus"":""img/2to1/10.png"",""time"":991},{""stimulus"":""img/2to1/11.png"",""time"":1090},{""stimulus"":""img/2to1/12.png"",""time"":1199}]","[]"
"","","","observe","63e5b3e89a3823139cb9d35e","bdp_cybrbll","Mon Mar 27 2023 09:12:35 GMT-0600 (Central Standard Time)","468792","1","3","image-keyboard-response","24","69569","0.0-5.0-1.10","","null","","img/1to3/1.png","null","215","544","0.5","0.5","1","2","",""
"","","","","63e5b3e89a3823139cb9d35e","bdp_cybrbll","Mon Mar 27 2023 09:12:35 GMT-0600 (Central Standard Time)","468792","1","3","animation","25","70858","0.0-5.0-2.10","","","","","","215","","","","1","2","[{""stimulus"":""img/1to2/1.png"",""time"":110},{""stimulus"":""img/1to2/2.png"",""time"":200},{""stimulus"":""img/1to2/3.png"",""time"":311},{""stimulus"":""img/1to2/4.png"",""time"":405},{""stimulus"":""img/1to2/5.png"",""time"":499},{""stimulus"":""img/1to2/6.png"",""time"":606},{""stimulus"":""img/1to2/7.png"",""time"":701},{""stimulus"":""img/1to2/8.png"",""time"":793},{""stimulus"":""img/1to2/9.png"",""time"":892},{""stimulus"":""img/1to2/10.png"",""time"":992},{""stimulus"":""img/1to2/11.png"",""time"":1091},{""stimulus"":""img/1to2/12.png"",""time"":1199}]","[]"
"","","","choice","63e5b3e89a3823139cb9d35e","bdp_cybrbll","Mon Mar 27 2023 09:12:35 GMT-0600 (Central Standard Time)","468792","1","3","image-keyboard-response","26","71048","0.0-5.0-1.11","","189","","img/2to1/1.png","2","214","480","0.5","0.5","2","3","",""
"","","","","63e5b3e89a3823139cb9d35e","bdp_cybrbll","Mon Mar 27 2023 09:12:35 GMT-0600 (Central Standard Time)","468792","1","3","animation","27","72336","0.0-5.0-2.11","","","","","","214","","","","2","3","[{""stimulus"":""img/2to3/1.png"",""time"":100},{""stimulus"":""img/2to3/2.png"",""time"":208},{""stimulus"":""img/2to3/3.png"",""time"":301},{""stimulus"":""img/2to3/4.png"",""time"":397},{""stimulus"":""img/2to3/5.png"",""time"":496},{""stimulus"":""img/2to3/6.png"",""time"":598},{""stimulus"":""img/2to3/7.png"",""time"":706},{""stimulus"":""img/2to3/8.png"",""time"":793},{""stimulus"":""img/2to3/9.png"",""time"":893},{""stimulus"":""img/2to3/10.png"",""time"":1000},{""stimulus"":""img/2to3/11.png"",""time"":1090},{""stimulus"":""img/2to3/12.png"",""time"":1202}]","[]"
"","","","observe","63e5b3e89a3823139cb9d35e","bdp_cybrbll","Mon Mar 27 2023 09:12:35 GMT-0600 (Central Standard Time)","468792","1","3","image-keyboard-response","28","72955","0.0-5.0-1.12","","null","","img/3to2/1.png","null","213","616","0.5","0.5","3","2","",""
"","","","","63e5b3e89a3823139cb9d35e","bdp_cybrbll","Mon Mar 27 2023 09:12:35 GMT-0600 (Central Standard Time)","468792","1","3","animation","29","74244","0.0-5.0-2.12","","","","","","213","","","","3","2","[{""stimulus"":""img/3to2/1.png"",""time"":109},{""stimulus"":""img/3to2/2.png"",""time"":198},{""stimulus"":""img/3to2/3.png"",""time"":298},{""stimulus"":""img/3to2/4.png"",""time"":397},{""stimulus"":""img/3to2/5.png"",""time"":496},{""stimulus"":""img/3to2/6.png"",""time"":608},{""stimulus"":""img/3to2/7.png"",""time"":702},{""stimulus"":""img/3to2/8.png"",""time"":798},{""stimulus"":""img/3to2/9.png"",""time"":892},{""stimulus"":""img/3to2/10.png"",""time"":991},{""stimulus"":""img/3to2/11.png"",""time"":1095},{""stimulus"":""img/3to2/12.png"",""time"":1189}]","[]"
"","","","choice","63e5b3e89a3823139cb9d35e","bdp_cybrbll","Mon Mar 27 2023 09:12:35 GMT-0600 (Central Standard Time)","468792","1","3","image-keyboard-response","30","74296","0.0-5.0-1.13","","51","","img/2to1/1.png","2","212","365","0.5","0.5","2","3","",""
"","","","","63e5b3e89a3823139cb9d35e","bdp_cybrbll","Mon Mar 27 2023 09:12:35 GMT-0600 (Central Standard Time)","468792","1","3","animation","31","75597","0.0-5.0-2.13","","","","","","212","","","","2","3","[{""stimulus"":""img/2to3/1.png"",""time"":100},{""stimulus"":""img/2to3/2.png"",""time"":209},{""stimulus"":""img/2to3/3.png"",""time"":303},{""stimulus"":""img/2to3/4.png"",""time"":398},{""stimulus"":""img/2to3/5.png"",""time"":507},{""stimulus"":""img/2to3/6.png"",""time"":600},{""stimulus"":""img/2to3/7.png"",""time"":694},{""stimulus"":""img/2to3/8.png"",""time"":804},{""stimulus"":""img/2to3/9.png"",""time"":897},{""stimulus"":""img/2to3/10.png"",""time"":1006},{""stimulus"":""img/2to3/11.png"",""time"":1091},{""stimulus"":""img/2to3/12.png"",""time"":1192}]","[]"
"","","","observe","63e5b3e89a3823139cb9d35e","bdp_cybrbll","Mon Mar 27 2023 09:12:35 GMT-0600 (Central Standard Time)","468792","1","3","image-keyboard-response","32","75876","0.0-5.0-1.14","","null","","img/3to2/1.png","null","211","277","0.5","0.5","3","2","",""
"","","","","63e5b3e89a3823139cb9d35e","bdp_cybrbll","Mon Mar 27 2023 09:12:35 GMT-0600 (Central Standard Time)","468792","1","3","animation","33","77174","0.0-5.0-2.14","","","","","","211","","","","3","2","[{""stimulus"":""img/3to2/1.png"",""time"":109},{""stimulus"":""img/3to2/2.png"",""time"":199},{""stimulus"":""img/3to2/3.png"",""time"":298},{""stimulus"":""img/3to2/4.png"",""time"":406},{""stimulus"":""img/3to2/5.png"",""time"":499},{""stimulus"":""img/3to2/6.png"",""time"":610},{""stimulus"":""img/3to2/7.png"",""time"":705},{""stimulus"":""img/3to2/8.png"",""time"":798},{""stimulus"":""img/3to2/9.png"",""time"":892},{""stimulus"":""img/3to2/10.png"",""time"":992},{""stimulus"":""img/3to2/11.png"",""time"":1095},{""stimulus"":""img/3to2/12.png"",""time"":1190}]","[]"
"","","","choice","63e5b3e89a3823139cb9d35e","bdp_cybrbll","Mon Mar 27 2023 09:12:35 GMT-0600 (Central Standard Time)","468792","1","3","image-keyboard-response","34","77591","0.0-5.0-1.15","","415","","img/2to1/1.png","2","210","312","0.5","0.5","2","3","",""
"","","","","63e5b3e89a3823139cb9d35e","bdp_cybrbll","Mon Mar 27 2023 09:12:35 GMT-0600 (Central Standard Time)","468792","1","3","animation","35","78894","0.0-5.0-2.15","","","","","","210","","","","2","3","[{""stimulus"":""img/2to3/1.png"",""time"":100},{""stimulus"":""img/2to3/2.png"",""time"":214},{""stimulus"":""img/2to3/3.png"",""time"":307},{""stimulus"":""img/2to3/4.png"",""time"":397},{""stimulus"":""img/2to3/5.png"",""time"":509},{""stimulus"":""img/2to3/6.png"",""time"":595},{""stimulus"":""img/2to3/7.png"",""time"":694},{""stimulus"":""img/2to3/8.png"",""time"":806},{""stimulus"":""img/2to3/9.png"",""time"":899},{""stimulus"":""img/2to3/10.png"",""time"":993},{""stimulus"":""img/2to3/11.png"",""time"":1102},{""stimulus"":""img/2to3/12.png"",""time"":1195}]","[]"
"","","","observe","63e5b3e89a3823139cb9d35e","bdp_cybrbll","Mon Mar 27 2023 09:12:35 GMT-0600 (Central Standard Time)","468792","1","3","image-keyboard-response","36","79275","0.0-5.0-1.16","","null","","img/3to2/1.png","null","209","380","0.5","0.5","3","1","",""
"","","","","63e5b3e89a3823139cb9d35e","bdp_cybrbll","Mon Mar 27 2023 09:12:35 GMT-0600 (Central Standard Time)","468792","1","3","animation","37","80564","0.0-5.0-2.16","","","","","","209","","","","3","1","[{""stimulus"":""img/3to1/1.png"",""time"":100},{""stimulus"":""img/3to1/2.png"",""time"":198},{""stimulus"":""img/3to1/3.png"",""time"":297},{""stimulus"":""img/3to1/4.png"",""time"":412},{""stimulus"":""img/3to1/5.png"",""time"":505},{""stimulus"":""img/3to1/6.png"",""time"":598},{""stimulus"":""img/3to1/7.png"",""time"":707},{""stimulus"":""img/3to1/8.png"",""time"":793},{""stimulus"":""img/3to1/9.png"",""time"":891},{""stimulus"":""img/3to1/10.png"",""time"":991},{""stimulus"":""img/3to1/11.png"",""time"":1097},{""stimulus"":""img/3to1/12.png"",""time"":1188}]","[]"
"","","","observe","63e5b3e89a3823139cb9d35e","bdp_cybrbll","Mon Mar 27 2023 09:12:35 GMT-0600 (Central Standard Time)","468792","1","3","image-keyboard-response","38","80950","0.0-5.0-1.17","","null","","img/1to3/1.png","null","208","377","0.5","0.5","1","2","",""
"","","","","63e5b3e89a3823139cb9d35e","bdp_cybrbll","Mon Mar 27 2023 09:12:35 GMT-0600 (Central Standard Time)","468792","1","3","animation","39","82245","0.0-5.0-2.17","","","","","","208","","","","1","2","[{""stimulus"":""img/1to2/1.png"",""time"":108},{""stimulus"":""img/1to2/2.png"",""time"":199},{""stimulus"":""img/1to2/3.png"",""time"":309},{""stimulus"":""img/1to2/4.png"",""time"":402},{""stimulus"":""img/1to2/5.png"",""time"":496},{""stimulus"":""img/1to2/6.png"",""time"":606},{""stimulus"":""img/1to2/7.png"",""time"":694},{""stimulus"":""img/1to2/8.png"",""time"":793},{""stimulus"":""img/1to2/9.png"",""time"":892},{""stimulus"":""img/1to2/10.png"",""time"":996},{""stimulus"":""img/1to2/11.png"",""time"":1090},{""stimulus"":""img/1to2/12.png"",""time"":1200}]","[]"
"","","","choice","63e5b3e89a3823139cb9d35e","bdp_cybrbll","Mon Mar 27 2023 09:12:35 GMT-0600 (Central Standard Time)","468792","1","3","image-keyboard-response","40","82496","0.0-5.0-1.18","","249","","img/2to1/1.png","2","207","350","0.5","0.5","2","3","",""
"","","","","63e5b3e89a3823139cb9d35e","bdp_cybrbll","Mon Mar 27 2023 09:12:35 GMT-0600 (Central Standard Time)","468792","1","3","animation","41","83784","0.0-5.0-2.18","","","","","","207","","","","2","3","[{""stimulus"":""img/2to3/1.png"",""time"":100},{""stimulus"":""img/2to3/2.png"",""time"":215},{""stimulus"":""img/2to3/3.png"",""time"":306},{""stimulus"":""img/2to3/4.png"",""time"":397},{""stimulus"":""img/2to3/5.png"",""time"":509},{""stimulus"":""img/2to3/6.png"",""time"":602},{""stimulus"":""img/2to3/7.png"",""time"":697},{""stimulus"":""img/2to3/8.png"",""time"":793},{""stimulus"":""img/2to3/9.png"",""time"":900},{""stimulus"":""img/2to3/10.png"",""time"":991},{""stimulus"":""img/2to3/11.png"",""time"":1090},{""stimulus"":""img/2to3/12.png"",""time"":1189}]","[]"
"","","","observe","63e5b3e89a3823139cb9d35e","bdp_cybrbll","Mon Mar 27 2023 09:12:35 GMT-0600 (Central Standard Time)","468792","1","3","image-keyboard-response","42","84084","0.0-5.0-1.19","","null","","img/3to2/1.png","null","206","298","0.5","0.5","3","1","",""
"","","","","63e5b3e89a3823139cb9d35e","bdp_cybrbll","Mon Mar 27 2023 09:12:35 GMT-0600 (Central Standard Time)","468792","1","3","animation","43","85372","0.0-5.0-2.19","","","","","","206","","","","3","1","[{""stimulus"":""img/3to1/1.png"",""time"":107},{""stimulus"":""img/3to1/2.png"",""time"":199},{""stimulus"":""img/3to1/3.png"",""time"":298},{""stimulus"":""img/3to1/4.png"",""time"":397},{""stimulus"":""img/3to1/5.png"",""time"":496},{""stimulus"":""img/3to1/6.png"",""time"":604},{""stimulus"":""img/3to1/7.png"",""time"":694},{""stimulus"":""img/3to1/8.png"",""time"":794},{""stimulus"":""img/3to1/9.png"",""time"":903},{""stimulus"":""img/3to1/10.png"",""time"":991},{""stimulus"":""img/3to1/11.png"",""time"":1090},{""stimulus"":""img/3to1/12.png"",""time"":1189}]","[]"
"","","","observe","63e5b3e89a3823139cb9d35e","bdp_cybrbll","Mon Mar 27 2023 09:12:35 GMT-0600 (Central Standard Time)","468792","1","3","image-keyboard-response","44","85619","0.0-5.0-1.20","","null","","img/1to3/1.png","null","205","246","0.5","0.5","1","3","",""
"","","","","63e5b3e89a3823139cb9d35e","bdp_cybrbll","Mon Mar 27 2023 09:12:35 GMT-0600 (Central Standard Time)","468792","1","3","animation","45","86922","0.0-5.0-2.20","","","","","","205","","","","1","3","[{""stimulus"":""img/1to3/1.png"",""time"":115},{""stimulus"":""img/1to3/2.png"",""time"":209},{""stimulus"":""img/1to3/3.png"",""time"":303},{""stimulus"":""img/1to3/4.png"",""time"":412},{""stimulus"":""img/1to3/5.png"",""time"":505},{""stimulus"":""img/1to3/6.png"",""time"":599},{""stimulus"":""img/1to3/7.png"",""time"":695},{""stimulus"":""img/1to3/8.png"",""time"":803},{""stimulus"":""img/1to3/9.png"",""time"":893},{""stimulus"":""img/1to3/10.png"",""time"":991},{""stimulus"":""img/1to3/11.png"",""time"":1101},{""stimulus"":""img/1to3/12.png"",""time"":1194}]","[]"
"","","","observe","63e5b3e89a3823139cb9d35e","bdp_cybrbll","Mon Mar 27 2023 09:12:35 GMT-0600 (Central Standard Time)","468792","1","3","image-keyboard-response","46","87264","0.0-5.0-1.21","","null","","img/3to2/1.png","null","204","340","0.5","0.5","3","1","",""
"","","","","63e5b3e89a3823139cb9d35e","bdp_cybrbll","Mon Mar 27 2023 09:12:35 GMT-0600 (Central Standard Time)","468792","1","3","animation","47","88560","0.0-5.0-2.21","","","","","","204","","","","3","1","[{""stimulus"":""img/3to1/1.png"",""time"":113},{""stimulus"":""img/3to1/2.png"",""time"":200},{""stimulus"":""img/3to1/3.png"",""time"":299},{""stimulus"":""img/3to1/4.png"",""time"":409},{""stimulus"":""img/3to1/5.png"",""time"":503},{""stimulus"":""img/3to1/6.png"",""time"":596},{""stimulus"":""img/3to1/7.png"",""time"":705},{""stimulus"":""img/3to1/8.png"",""time"":799},{""stimulus"":""img/3to1/9.png"",""time"":892},{""stimulus"":""img/3to1/10.png"",""time"":1000},{""stimulus"":""img/3to1/11.png"",""time"":1094},{""stimulus"":""img/3to1/12.png"",""time"":1203}]","[]"
"","","","observe","63e5b3e89a3823139cb9d35e","bdp_cybrbll","Mon Mar 27 2023 09:12:35 GMT-0600 (Central Standard Time)","468792","1","3","image-keyboard-response","48","88731","0.0-5.0-1.22","","null","","img/1to3/1.png","null","203","163","0.5","0.5","1","3","",""
"","","","","63e5b3e89a3823139cb9d35e","bdp_cybrbll","Mon Mar 27 2023 09:12:35 GMT-0600 (Central Standard Time)","468792","1","3","animation","49","90023","0.0-5.0-2.22","","","","","","203","","","","1","3","[{""stimulus"":""img/1to3/1.png"",""time"":111},{""stimulus"":""img/1to3/2.png"",""time"":200},{""stimulus"":""img/1to3/3.png"",""time"":301},{""stimulus"":""img/1to3/4.png"",""time"":412},{""stimulus"":""img/1to3/5.png"",""time"":506},{""stimulus"":""img/1to3/6.png"",""time"":601},{""stimulus"":""img/1to3/7.png"",""time"":695},{""stimulus"":""img/1to3/8.png"",""time"":805},{""stimulus"":""img/1to3/9.png"",""time"":901},{""stimulus"":""img/1to3/10.png"",""time"":996},{""stimulus"":""img/1to3/11.png"",""time"":1090},{""stimulus"":""img/1to3/12.png"",""time"":1189}]","[]"
"","","","observe","63e5b3e89a3823139cb9d35e","bdp_cybrbll","Mon Mar 27 2023 09:12:35 GMT-0600 (Central Standard Time)","468792","1","3","image-keyboard-response","50","90304","0.0-5.0-1.23","","null","","img/3to2/1.png","null","202","268","0.5","0.5","3","2","",""
"","","","","63e5b3e89a3823139cb9d35e","bdp_cybrbll","Mon Mar 27 2023 09:12:35 GMT-0600 (Central Standard Time)","468792","1","3","animation","51","91607","0.0-5.0-2.23","","","","","","202","","","","3","2","[{""stimulus"":""img/3to2/1.png"",""time"":109},{""stimulus"":""img/3to2/2.png"",""time"":200},{""stimulus"":""img/3to2/3.png"",""time"":298},{""stimulus"":""img/3to2/4.png"",""time"":405},{""stimulus"":""img/3to2/5.png"",""time"":498},{""stimulus"":""img/3to2/6.png"",""time"":609},{""stimulus"":""img/3to2/7.png"",""time"":694},{""stimulus"":""img/3to2/8.png"",""time"":793},{""stimulus"":""img/3to2/9.png"",""time"":892},{""stimulus"":""img/3to2/10.png"",""time"":991},{""stimulus"":""img/3to2/11.png"",""time"":1090},{""stimulus"":""img/3to2/12.png"",""time"":1189}]","[]"
"","","","choice","63e5b3e89a3823139cb9d35e","bdp_cybrbll","Mon Mar 27 2023 09:12:35 GMT-0600 (Central Standard Time)","468792","1","3","image-keyboard-response","52","91703","0.0-5.0-1.24","","96","","img/2to1/1.png","1","201","350","0.5","0.5","2","1","",""
"","","","","63e5b3e89a3823139cb9d35e","bdp_cybrbll","Mon Mar 27 2023 09:12:35 GMT-0600 (Central Standard Time)","468792","1","3","animation","53","93002","0.0-5.0-2.24","","","","","","201","","","","2","1","[{""stimulus"":""img/2to1/1.png"",""time"":99},{""stimulus"":""img/2to1/2.png"",""time"":198},{""stimulus"":""img/2to1/3.png"",""time"":310},{""stimulus"":""img/2to1/4.png"",""time"":405},{""stimulus"":""img/2to1/5.png"",""time"":500},{""stimulus"":""img/2to1/6.png"",""time"":595},{""stimulus"":""img/2to1/7.png"",""time"":694},{""stimulus"":""img/2to1/8.png"",""time"":797},{""stimulus"":""img/2to1/9.png"",""time"":892},{""stimulus"":""img/2to1/10.png"",""time"":1000},{""stimulus"":""img/2to1/11.png"",""time"":1091},{""stimulus"":""img/2to1/12.png"",""time"":1204}]","[]"
"","","","observe","63e5b3e89a3823139cb9d35e","bdp_cybrbll","Mon Mar 27 2023 09:12:35 GMT-0600 (Central Standard Time)","468792","1","3","image-keyboard-response","54","93492","0.0-5.0-1.25","","null","","img/1to3/1.png","null","200","489","0.5","0.5","1","2","",""
"","","","","63e5b3e89a3823139cb9d35e","bdp_cybrbll","Mon Mar 27 2023 09:12:35 GMT-0600 (Central Standard Time)","468792","1","3","animation","55","94794","0.0-5.0-2.25","","","","","","200","","","","1","2","[{""stimulus"":""img/1to2/1.png"",""time"":107},{""stimulus"":""img/1to2/2.png"",""time"":199},{""stimulus"":""img/1to2/3.png"",""time"":298},{""stimulus"":""img/1to2/4.png"",""time"":407},{""stimulus"":""img/1to2/5.png"",""time"":502},{""stimulus"":""img/1to2/6.png"",""time"":595},{""stimulus"":""img/1to2/7.png"",""time"":706},{""stimulus"":""img/1to2/8.png"",""time"":794},{""stimulus"":""img/1to2/9.png"",""time"":894},{""stimulus"":""img/1to2/10.png"",""time"":992},{""stimulus"":""img/1to2/11.png"",""time"":1090},{""stimulus"":""img/1to2/12.png"",""time"":1192}]","[]"
"","","","choice","63e5b3e89a3823139cb9d35e","bdp_cybrbll","Mon Mar 27 2023 09:12:35 GMT-0600 (Central Standard Time)","468792","1","3","image-keyboard-response","56","95032","0.0-5.0-1.26","","236","","img/2to1/1.png","1","199","727","0.5","0.5","2","1","",""
"","","","","63e5b3e89a3823139cb9d35e","bdp_cybrbll","Mon Mar 27 2023 09:12:35 GMT-0600 (Central Standard Time)","468792","1","3","animation","57","96319","0.0-5.0-2.26","","","","","","199","","","","2","1","[{""stimulus"":""img/2to1/1.png"",""time"":108},{""stimulus"":""img/2to1/2.png"",""time"":203},{""stimulus"":""img/2to1/3.png"",""time"":311},{""stimulus"":""img/2to1/4.png"",""time"":404},{""stimulus"":""img/2to1/5.png"",""time"":497},{""stimulus"":""img/2to1/6.png"",""time"":606},{""stimulus"":""img/2to1/7.png"",""time"":694},{""stimulus"":""img/2to1/8.png"",""time"":794},{""stimulus"":""img/2to1/9.png"",""time"":900},{""stimulus"":""img/2to1/10.png"",""time"":993},{""stimulus"":""img/2to1/11.png"",""time"":1090},{""stimulus"":""img/2to1/12.png"",""time"":1189}]","[]"
"","","","observe","63e5b3e89a3823139cb9d35e","bdp_cybrbll","Mon Mar 27 2023 09:12:35 GMT-0600 (Central Standard Time)","468792","1","3","image-keyboard-response","58","96564","0.0-5.0-1.27","","null","","img/1to3/1.png","null","198","243","0.5","0.5","1","2","",""
"","","","","63e5b3e89a3823139cb9d35e","bdp_cybrbll","Mon Mar 27 2023 09:12:35 GMT-0600 (Central Standard Time)","468792","1","3","animation","59","97858","0.0-5.0-2.27","","","","","","198","","","","1","2","[{""stimulus"":""img/1to2/1.png"",""time"":104},{""stimulus"":""img/1to2/2.png"",""time"":199},{""stimulus"":""img/1to2/3.png"",""time"":306},{""stimulus"":""img/1to2/4.png"",""time"":401},{""stimulus"":""img/1to2/5.png"",""time"":511},{""stimulus"":""img/1to2/6.png"",""time"":605},{""stimulus"":""img/1to2/7.png"",""time"":695},{""stimulus"":""img/1to2/8.png"",""time"":793},{""stimulus"":""img/1to2/9.png"",""time"":893},{""stimulus"":""img/1to2/10.png"",""time"":992},{""stimulus"":""img/1to2/11.png"",""time"":1090},{""stimulus"":""img/1to2/12.png"",""time"":1201}]","[]"
"","","","choice","63e5b3e89a3823139cb9d35e","bdp_cybrbll","Mon Mar 27 2023 09:12:35 GMT-0600 (Central Standard Time)","468792","1","3","image-keyboard-response","60","97991","0.0-5.0-1.28","","133","","img/2to1/1.png","1","197","1188","0.5","0.5","2","1","",""
"","","","","63e5b3e89a3823139cb9d35e","bdp_cybrbll","Mon Mar 27 2023 09:12:35 GMT-0600 (Central Standard Time)","468792","1","3","animation","61","99279","0.0-5.0-2.28","","","","","","197","","","","2","1","[{""stimulus"":""img/2to1/1.png"",""time"":113},{""stimulus"":""img/2to1/2.png"",""time"":199},{""stimulus"":""img/2to1/3.png"",""time"":305},{""stimulus"":""img/2to1/4.png"",""time"":398},{""stimulus"":""img/2to1/5.png"",""time"":496},{""stimulus"":""img/2to1/6.png"",""time"":595},{""stimulus"":""img/2to1/7.png"",""time"":695},{""stimulus"":""img/2to1/8.png"",""time"":805},{""stimulus"":""img/2to1/9.png"",""time"":897},{""stimulus"":""img/2to1/10.png"",""time"":993},{""stimulus"":""img/2to1/11.png"",""time"":1104},{""stimulus"":""img/2to1/12.png"",""time"":1188}]","[]"
"","","","observe","63e5b3e89a3823139cb9d35e","bdp_cybrbll","Mon Mar 27 2023 09:12:35 GMT-0600 (Central Standard Time)","468792","1","3","image-keyboard-response","62","99594","0.0-5.0-1.29","","null","","img/1to3/1.png","null","196","314","0.5","0.5","1","2","",""
"","","","","63e5b3e89a3823139cb9d35e","bdp_cybrbll","Mon Mar 27 2023 09:12:35 GMT-0600 (Central Standard Time)","468792","1","3","animation","63","100891","0.0-5.0-2.29","","","","","","196","","","","1","2","[{""stimulus"":""img/1to2/1.png"",""time"":109},{""stimulus"":""img/1to2/2.png"",""time"":199},{""stimulus"":""img/1to2/3.png"",""time"":299},{""stimulus"":""img/1to2/4.png"",""time"":397},{""stimulus"":""img/1to2/5.png"",""time"":496},{""stimulus"":""img/1to2/6.png"",""time"":595},{""stimulus"":""img/1to2/7.png"",""time"":694},{""stimulus"":""img/1to2/8.png"",""time"":796},{""stimulus"":""img/1to2/9.png"",""time"":904},{""stimulus"":""img/1to2/10.png"",""time"":998},{""stimulus"":""img/1to2/11.png"",""time"":1092},{""stimulus"":""img/1to2/12.png"",""time"":1203}]","[]"
"","","","choice","63e5b3e89a3823139cb9d35e","bdp_cybrbll","Mon Mar 27 2023 09:12:35 GMT-0600 (Central Standard Time)","468792","1","3","image-keyboard-response","64","101015","0.0-5.0-1.30","","123","","img/2to1/1.png","1","195","293","0.5","0.5","2","1","",""
"","","","","63e5b3e89a3823139cb9d35e","bdp_cybrbll","Mon Mar 27 2023 09:12:35 GMT-0600 (Central Standard Time)","468792","1","3","animation","65","102304","0.0-5.0-2.30","","","","","","195","","","","2","1","[{""stimulus"":""img/2to1/1.png"",""time"":110},{""stimulus"":""img/2to1/2.png"",""time"":199},{""stimulus"":""img/2to1/3.png"",""time"":299},{""stimulus"":""img/2to1/4.png"",""time"":405},{""stimulus"":""img/2to1/5.png"",""time"":496},{""stimulus"":""img/2to1/6.png"",""time"":608},{""stimulus"":""img/2to1/7.png"",""time"":702},{""stimulus"":""img/2to1/8.png"",""time"":793},{""stimulus"":""img/2to1/9.png"",""time"":903},{""stimulus"":""img/2to1/10.png"",""time"":992},{""stimulus"":""img/2to1/11.png"",""time"":1091},{""stimulus"":""img/2to1/12.png"",""time"":1200}]","[]"
"","","","observe","63e5b3e89a3823139cb9d35e","bdp_cybrbll","Mon Mar 27 2023 09:12:35 GMT-0600 (Central Standard Time)","468792","1","3","image-keyboard-response","66","103356","0.0-5.0-1.31","","null","","img/1to3/1.png","null","194","1036","0.5","0.5","1","3","",""
"","","","","63e5b3e89a3823139cb9d35e","bdp_cybrbll","Mon Mar 27 2023 09:12:35 GMT-0600 (Central Standard Time)","468792","1","3","animation","67","104643","0.0-5.0-2.31","","","","","","194","","","","1","3","[{""stimulus"":""img/1to3/1.png"",""time"":108},{""stimulus"":""img/1to3/2.png"",""time"":200},{""stimulus"":""img/1to3/3.png"",""time"":298},{""stimulus"":""img/1to3/4.png"",""time"":404},{""stimulus"":""img/1to3/5.png"",""time"":497},{""stimulus"":""img/1to3/6.png"",""time"":606},{""stimulus"":""img/1to3/7.png"",""time"":697},{""stimulus"":""img/1to3/8.png"",""time"":806},{""stimulus"":""img/1to3/9.png"",""time"":892},{""stimulus"":""img/1to3/10.png"",""time"":991},{""stimulus"":""img/1to3/11.png"",""time"":1101},{""stimulus"":""img/1to3/12.png"",""time"":1194}]","[]"
"","","","observe","63e5b3e89a3823139cb9d35e","bdp_cybrbll","Mon Mar 27 2023 09:12:35 GMT-0600 (Central Standard Time)","468792","1","3","image-keyboard-response","68","105171","0.0-5.0-1.32","","null","","img/3to2/1.png","null","193","512","0.5","0.5","3","2","",""
"","","","","63e5b3e89a3823139cb9d35e","bdp_cybrbll","Mon Mar 27 2023 09:12:35 GMT-0600 (Central Standard Time)","468792","1","3","animation","69","106466","0.0-5.0-2.32","","","","","","193","","","","3","2","[{""stimulus"":""img/3to2/1.png"",""time"":109},{""stimulus"":""img/3to2/2.png"",""time"":203},{""stimulus"":""img/3to2/3.png"",""time"":298},{""stimulus"":""img/3to2/4.png"",""time"":397},{""stimulus"":""img/3to2/5.png"",""time"":500},{""stimulus"":""img/3to2/6.png"",""time"":600},{""stimulus"":""img/3to2/7.png"",""time"":694},{""stimulus"":""img/3to2/8.png"",""time"":798},{""stimulus"":""img/3to2/9.png"",""time"":892},{""stimulus"":""img/3to2/10.png"",""time"":999},{""stimulus"":""img/3to2/11.png"",""time"":1091},{""stimulus"":""img/3to2/12.png"",""time"":1199}]","[]"
"","","","choice","63e5b3e89a3823139cb9d35e","bdp_cybrbll","Mon Mar 27 2023 09:12:35 GMT-0600 (Central Standard Time)","468792","1","3","image-keyboard-response","70","106767","0.0-5.0-1.33","","301","","img/2to1/1.png","2","192","347","0.5","0.5","2","3","",""
"","","","","63e5b3e89a3823139cb9d35e","bdp_cybrbll","Mon Mar 27 2023 09:12:35 GMT-0600 (Central Standard Time)","468792","1","3","animation","71","108057","0.0-5.0-2.33","","","","","","192","","","","2","3","[{""stimulus"":""img/2to3/1.png"",""time"":100},{""stimulus"":""img/2to3/2.png"",""time"":199},{""stimulus"":""img/2to3/3.png"",""time"":309},{""stimulus"":""img/2to3/4.png"",""time"":402},{""stimulus"":""img/2to3/5.png"",""time"":512},{""stimulus"":""img/2to3/6.png"",""time"":605},{""stimulus"":""img/2to3/7.png"",""time"":694},{""stimulus"":""img/2to3/8.png"",""time"":794},{""stimulus"":""img/2to3/9.png"",""time"":900},{""stimulus"":""img/2to3/10.png"",""time"":991},{""stimulus"":""img/2to3/11.png"",""time"":1104},{""stimulus"":""img/2to3/12.png"",""time"":1197}]","[]"
"","","","observe","63e5b3e89a3823139cb9d35e","bdp_cybrbll","Mon Mar 27 2023 09:12:35 GMT-0600 (Central Standard Time)","468792","1","3","image-keyboard-response","72","108386","0.0-5.0-1.34","","null","","img/3to2/1.png","null","191","322","0.5","0.5","3","2","",""
"","","","","63e5b3e89a3823139cb9d35e","bdp_cybrbll","Mon Mar 27 2023 09:12:35 GMT-0600 (Central Standard Time)","468792","1","3","animation","73","109674","0.0-5.0-2.34","","","","","","191","","","","3","2","[{""stimulus"":""img/3to2/1.png"",""time"":108},{""stimulus"":""img/3to2/2.png"",""time"":199},{""stimulus"":""img/3to2/3.png"",""time"":298},{""stimulus"":""img/3to2/4.png"",""time"":397},{""stimulus"":""img/3to2/5.png"",""time"":510},{""stimulus"":""img/3to2/6.png"",""time"":603},{""stimulus"":""img/3to2/7.png"",""time"":696},{""stimulus"":""img/3to2/8.png"",""time"":806},{""stimulus"":""img/3to2/9.png"",""time"":898},{""stimulus"":""img/3to2/10.png"",""time"":991},{""stimulus"":""img/3to2/11.png"",""time"":1101},{""stimulus"":""img/3to2/12.png"",""time"":1195}]","[]"
"","","","choice","63e5b3e89a3823139cb9d35e","bdp_cybrbll","Mon Mar 27 2023 09:12:35 GMT-0600 (Central Standard Time)","468792","1","3","image-keyboard-response","74","109696","0.0-5.0-1.35","","21","","img/2to1/1.png","1","190","413","0.5","0.5","2","1","",""
"","","","","63e5b3e89a3823139cb9d35e","bdp_cybrbll","Mon Mar 27 2023 09:12:35 GMT-0600 (Central Standard Time)","468792","1","3","animation","75","110986","0.0-5.0-2.35","","","","","","190","","","","2","1","[{""stimulus"":""img/2to1/1.png"",""time"":105},{""stimulus"":""img/2to1/2.png"",""time"":218},{""stimulus"":""img/2to1/3.png"",""time"":298},{""stimulus"":""img/2to1/4.png"",""time"":400},{""stimulus"":""img/2to1/5.png"",""time"":509},{""stimulus"":""img/2to1/6.png"",""time"":601},{""stimulus"":""img/2to1/7.png"",""time"":695},{""stimulus"":""img/2to1/8.png"",""time"":804},{""stimulus"":""img/2to1/9.png"",""time"":894},{""stimulus"":""img/2to1/10.png"",""time"":993},{""stimulus"":""img/2to1/11.png"",""time"":1102},{""stimulus"":""img/2to1/12.png"",""time"":1197}]","[]"
"","","","observe","63e5b3e89a3823139cb9d35e","bdp_cybrbll","Mon Mar 27 2023 09:12:35 GMT-0600 (Central Standard Time)","468792","1","3","image-keyboard-response","76","111869","0.0-5.0-1.36","","null","","img/1to3/1.png","null","189","881","0.5","0.5","1","2","",""
"","","","","63e5b3e89a3823139cb9d35e","bdp_cybrbll","Mon Mar 27 2023 09:12:35 GMT-0600 (Central Standard Time)","468792","1","3","animation","77","113161","0.0-5.0-2.36","","","","","","189","","","","1","2","[{""stimulus"":""img/1to2/1.png"",""time"":101},{""stimulus"":""img/1to2/2.png"",""time"":199},{""stimulus"":""img/1to2/3.png"",""time"":303},{""stimulus"":""img/1to2/4.png"",""time"":412},{""stimulus"":""img/1to2/5.png"",""time"":508},{""stimulus"":""img/1to2/6.png"",""time"":603},{""stimulus"":""img/1to2/7.png"",""time"":695},{""stimulus"":""img/1to2/8.png"",""time"":809},{""stimulus"":""img/1to2/9.png"",""time"":903},{""stimulus"":""img/1to2/10.png"",""time"":995},{""stimulus"":""img/1to2/11.png"",""time"":1105},{""stimulus"":""img/1to2/12.png"",""time"":1200}]","[]"
"","","","choice","63e5b3e89a3823139cb9d35e","bdp_cybrbll","Mon Mar 27 2023 09:12:35 GMT-0600 (Central Standard Time)","468792","1","3","image-keyboard-response","78","113632","0.0-5.0-1.37","","469","","img/2to1/1.png","2","188","266","0.5","0.5","2","3","",""
"","","","","63e5b3e89a3823139cb9d35e","bdp_cybrbll","Mon Mar 27 2023 09:12:35 GMT-0600 (Central Standard Time)","468792","1","3","animation","79","114920","0.0-5.0-2.37","","","","","","188","","","","2","3","[{""stimulus"":""img/2to3/1.png"",""time"":100},{""stimulus"":""img/2to3/2.png"",""time"":199},{""stimulus"":""img/2to3/3.png"",""time"":308},{""stimulus"":""img/2to3/4.png"",""time"":402},{""stimulus"":""img/2to3/5.png"",""time"":497},{""stimulus"":""img/2to3/6.png"",""time"":595},{""stimulus"":""img/2to3/7.png"",""time"":694},{""stimulus"":""img/2to3/8.png"",""time"":794},{""stimulus"":""img/2to3/9.png"",""time"":893},{""stimulus"":""img/2to3/10.png"",""time"":991},{""stimulus"":""img/2to3/11.png"",""time"":1105},{""stimulus"":""img/2to3/12.png"",""time"":1198}]","[]"
"","","","observe","63e5b3e89a3823139cb9d35e","bdp_cybrbll","Mon Mar 27 2023 09:12:35 GMT-0600 (Central Standard Time)","468792","1","3","image-keyboard-response","80","115496","0.0-5.0-1.38","","null","","img/3to2/1.png","null","187","573","0.5","0.5","3","2","",""
"","","","","63e5b3e89a3823139cb9d35e","bdp_cybrbll","Mon Mar 27 2023 09:12:35 GMT-0600 (Central Standard Time)","468792","1","3","animation","81","116784","0.0-5.0-2.38","","","","","","187","","","","3","2","[{""stimulus"":""img/3to2/1.png"",""time"":113},{""stimulus"":""img/3to2/2.png"",""time"":206},{""stimulus"":""img/3to2/3.png"",""time"":301},{""stimulus"":""img/3to2/4.png"",""time"":397},{""stimulus"":""img/3to2/5.png"",""time"":503},{""stimulus"":""img/3to2/6.png"",""time"":597},{""stimulus"":""img/3to2/7.png"",""time"":704},{""stimulus"":""img/3to2/8.png"",""time"":793},{""stimulus"":""img/3to2/9.png"",""time"":892},{""stimulus"":""img/3to2/10.png"",""time"":991},{""stimulus"":""img/3to2/11.png"",""time"":1089},{""stimulus"":""img/3to2/12.png"",""time"":1189}]","[]"
"","","","choice","63e5b3e89a3823139cb9d35e","bdp_cybrbll","Mon Mar 27 2023 09:12:35 GMT-0600 (Central Standard Time)","468792","1","3","image-keyboard-response","82","116943","0.0-5.0-1.39","","158","","img/2to1/1.png","1","186","630","0.5","0.5","2","1","",""
"","","","","63e5b3e89a3823139cb9d35e","bdp_cybrbll","Mon Mar 27 2023 09:12:35 GMT-0600 (Central Standard Time)","468792","1","3","animation","83","118242","0.0-5.0-2.39","","","","","","186","","","","2","1","[{""stimulus"":""img/2to1/1.png"",""time"":104},{""stimulus"":""img/2to1/2.png"",""time"":208},{""stimulus"":""img/2to1/3.png"",""time"":297},{""stimulus"":""img/2to1/4.png"",""time"":410},{""stimulus"":""img/2to1/5.png"",""time"":502},{""stimulus"":""img/2to1/6.png"",""time"":595},{""stimulus"":""img/2to1/7.png"",""time"":694},{""stimulus"":""img/2to1/8.png"",""time"":797},{""stimulus"":""img/2to1/9.png"",""time"":892},{""stimulus"":""img/2to1/10.png"",""time"":1001},{""stimulus"":""img/2to1/11.png"",""time"":1096},{""stimulus"":""img/2to1/12.png"",""time"":1190}]","[]"
"","","","observe","63e5b3e89a3823139cb9d35e","bdp_cybrbll","Mon Mar 27 2023 09:12:35 GMT-0600 (Central Standard Time)","468792","1","3","image-keyboard-response","84","119001","0.0-5.0-1.40","","null","","img/1to3/1.png","null","185","747","0.5","0.5","1","2","",""
"","","","","63e5b3e89a3823139cb9d35e","bdp_cybrbll","Mon Mar 27 2023 09:12:35 GMT-0600 (Central Standard Time)","468792","1","3","animation","85","120296","0.0-5.0-2.40","","","","","","185","","","","1","2","[{""stimulus"":""img/1to2/1.png"",""time"":109},{""stimulus"":""img/1to2/2.png"",""time"":204},{""stimulus"":""img/1to2/3.png"",""time"":312},{""stimulus"":""img/1to2/4.png"",""time"":407},{""stimulus"":""img/1to2/5.png"",""time"":500},{""stimulus"":""img/1to2/6.png"",""time"":609},{""stimulus"":""img/1to2/7.png"",""time"":703},{""stimulus"":""img/1to2/8.png"",""time"":794},{""stimulus"":""img/1to2/9.png"",""time"":893},{""stimulus"":""img/1to2/10.png"",""time"":999},{""stimulus"":""img/1to2/11.png"",""time"":1090},{""stimulus"":""img/1to2/12.png"",""time"":1201}]","[]"
"","","","choice","63e5b3e89a3823139cb9d35e","bdp_cybrbll","Mon Mar 27 2023 09:12:35 GMT-0600 (Central Standard Time)","468792","1","3","image-keyboard-response","86","120353","0.0-5.0-1.41","","57","","img/2to1/1.png","2","184","281","0.5","0.5","2","3","",""
"","","","","63e5b3e89a3823139cb9d35e","bdp_cybrbll","Mon Mar 27 2023 09:12:35 GMT-0600 (Central Standard Time)","468792","1","3","animation","87","121642","0.0-5.0-2.41","","","","","","184","","","","2","3","[{""stimulus"":""img/2to3/1.png"",""time"":100},{""stimulus"":""img/2to3/2.png"",""time"":199},{""stimulus"":""img/2to3/3.png"",""time"":303},{""stimulus"":""img/2to3/4.png"",""time"":397},{""stimulus"":""img/2to3/5.png"",""time"":507},{""stimulus"":""img/2to3/6.png"",""time"":601},{""stimulus"":""img/2to3/7.png"",""time"":710},{""stimulus"":""img/2to3/8.png"",""time"":803},{""stimulus"":""img/2to3/9.png"",""time"":891},{""stimulus"":""img/2to3/10.png"",""time"":992},{""stimulus"":""img/2to3/11.png"",""time"":1090},{""stimulus"":""img/2to3/12.png"",""time"":1195}]","[]"
"","","","observe","63e5b3e89a3823139cb9d35e","bdp_cybrbll","Mon Mar 27 2023 09:12:35 GMT-0600 (Central Standard Time)","468792","1","3","image-keyboard-response","88","122270","0.0-5.0-1.42","","null","","img/3to2/1.png","null","183","614","0.5","0.5","3","1","",""
"","","","","63e5b3e89a3823139cb9d35e","bdp_cybrbll","Mon Mar 27 2023 09:12:35 GMT-0600 (Central Standard Time)","468792","1","3","animation","89","123557","0.0-5.0-2.42","","","","","","183","","","","3","1","[{""stimulus"":""img/3to1/1.png"",""time"":110},{""stimulus"":""img/3to1/2.png"",""time"":202},{""stimulus"":""img/3to1/3.png"",""time"":298},{""stimulus"":""img/3to1/4.png"",""time"":404},{""stimulus"":""img/3to1/5.png"",""time"":498},{""stimulus"":""img/3to1/6.png"",""time"":607},{""stimulus"":""img/3to1/7.png"",""time"":701},{""stimulus"":""img/3to1/8.png"",""time"":793},{""stimulus"":""img/3to1/9.png"",""time"":902},{""stimulus"":""img/3to1/10.png"",""time"":995},{""stimulus"":""img/3to1/11.png"",""time"":1090},{""stimulus"":""img/3to1/12.png"",""time"":1198}]","[]"
"","","","observe","63e5b3e89a3823139cb9d35e","bdp_cybrbll","Mon Mar 27 2023 09:12:35 GMT-0600 (Central Standard Time)","468792","1","3","image-keyboard-response","90","123780","0.0-5.0-1.43","","null","","img/1to3/1.png","null","182","222","0.5","0.5","1","2","",""
"","","","","63e5b3e89a3823139cb9d35e","bdp_cybrbll","Mon Mar 27 2023 09:12:35 GMT-0600 (Central Standard Time)","468792","1","3","animation","91","125080","0.0-5.0-2.43","","","","","","182","","","","1","2","[{""stimulus"":""img/1to2/1.png"",""time"":113},{""stimulus"":""img/1to2/2.png"",""time"":206},{""stimulus"":""img/1to2/3.png"",""time"":299},{""stimulus"":""img/1to2/4.png"",""time"":408},{""stimulus"":""img/1to2/5.png"",""time"":501},{""stimulus"":""img/1to2/6.png"",""time"":595},{""stimulus"":""img/1to2/7.png"",""time"":694},{""stimulus"":""img/1to2/8.png"",""time"":799},{""stimulus"":""img/1to2/9.png"",""time"":892},{""stimulus"":""img/1to2/10.png"",""time"":1001},{""stimulus"":""img/1to2/11.png"",""time"":1090},{""stimulus"":""img/1to2/12.png"",""time"":1189}]","[]"
"","","","choice","63e5b3e89a3823139cb9d35e","bdp_cybrbll","Mon Mar 27 2023 09:12:35 GMT-0600 (Central Standard Time)","468792","1","3","image-keyboard-response","92","125119","0.0-5.0-1.44","","39","","img/2to1/1.png","2","181","734","0.5","0.5","2","3","",""
"","","","","63e5b3e89a3823139cb9d35e","bdp_cybrbll","Mon Mar 27 2023 09:12:35 GMT-0600 (Central Standard Time)","468792","1","3","animation","93","126408","0.0-5.0-2.44","","","","","","181","","","","2","3","[{""stimulus"":""img/2to3/1.png"",""time"":101},{""stimulus"":""img/2to3/2.png"",""time"":201},{""stimulus"":""img/2to3/3.png"",""time"":304},{""stimulus"":""img/2to3/4.png"",""time"":412},{""stimulus"":""img/2to3/5.png"",""time"":506},{""stimulus"":""img/2to3/6.png"",""time"":600},{""stimulus"":""img/2to3/7.png"",""time"":708},{""stimulus"":""img/2to3/8.png"",""time"":801},{""stimulus"":""img/2to3/9.png"",""time"":892},{""stimulus"":""img/2to3/10.png"",""time"":1003},{""stimulus"":""img/2to3/11.png"",""time"":1091},{""stimulus"":""img/2to3/12.png"",""time"":1194}]","[]"
"","","","observe","63e5b3e89a3823139cb9d35e","bdp_cybrbll","Mon Mar 27 2023 09:12:35 GMT-0600 (Central Standard Time)","468792","1","3","image-keyboard-response","94","126656","0.0-5.0-1.45","","null","","img/3to2/1.png","null","180","247","0.5","0.5","3","1","",""
"","","","","63e5b3e89a3823139cb9d35e","bdp_cybrbll","Mon Mar 27 2023 09:12:35 GMT-0600 (Central Standard Time)","468792","1","3","animation","95","127944","0.0-5.0-2.45","","","","","","180","","","","3","1","[{""stimulus"":""img/3to1/1.png"",""time"":107},{""stimulus"":""img/3to1/2.png"",""time"":200},{""stimulus"":""img/3to1/3.png"",""time"":310},{""stimulus"":""img/3to1/4.png"",""time"":406},{""stimulus"":""img/3to1/5.png"",""time"":500},{""stimulus"":""img/3to1/6.png"",""time"":609},{""stimulus"":""img/3to1/7.png"",""time"":701},{""stimulus"":""img/3to1/8.png"",""time"":795},{""stimulus"":""img/3to1/9.png"",""time"":904},{""stimulus"":""img/3to1/10.png"",""time"":997},{""stimulus"":""img/3to1/11.png"",""time"":1091},{""stimulus"":""img/3to1/12.png"",""time"":1197}]","[]"
"","","","observe","63e5b3e89a3823139cb9d35e","bdp_cybrbll","Mon Mar 27 2023 09:12:35 GMT-0600 (Central Standard Time)","468792","1","3","image-keyboard-response","96","129830","0.0-5.0-1.46","","null","","img/1to3/1.png","null","179","1869","0.5","0.5","1","3","",""
"","","","","63e5b3e89a3823139cb9d35e","bdp_cybrbll","Mon Mar 27 2023 09:12:35 GMT-0600 (Central Standard Time)","468792","1","3","animation","97","131118","0.0-5.0-2.46","","","","","","179","","","","1","3","[{""stimulus"":""img/1to3/1.png"",""time"":109},{""stimulus"":""img/1to3/2.png"",""time"":199},{""stimulus"":""img/1to3/3.png"",""time"":298},{""stimulus"":""img/1to3/4.png"",""time"":397},{""stimulus"":""img/1to3/5.png"",""time"":500},{""stimulus"":""img/1to3/6.png"",""time"":609},{""stimulus"":""img/1to3/7.png"",""time"":702},{""stimulus"":""img/1to3/8.png"",""time"":793},{""stimulus"":""img/1to3/9.png"",""time"":907},{""stimulus"":""img/1to3/10.png"",""time"":1001},{""stimulus"":""img/1to3/11.png"",""time"":1090},{""stimulus"":""img/1to3/12.png"",""time"":1189}]","[]"
"","","","observe","63e5b3e89a3823139cb9d35e","bdp_cybrbll","Mon Mar 27 2023 09:12:35 GMT-0600 (Central Standard Time)","468792","1","3","image-keyboard-response","98","131561","0.0-5.0-1.47","","null","","img/3to2/1.png","null","178","432","0.5","0.5","3","2","",""
"","","","","63e5b3e89a3823139cb9d35e","bdp_cybrbll","Mon Mar 27 2023 09:12:35 GMT-0600 (Central Standard Time)","468792","1","3","animation","99","132856","0.0-5.0-2.47","","","","","","178","","","","3","2","[{""stimulus"":""img/3to2/1.png"",""time"":108},{""stimulus"":""img/3to2/2.png"",""time"":201},{""stimulus"":""img/3to2/3.png"",""time"":310},{""stimulus"":""img/3to2/4.png"",""time"":405},{""stimulus"":""img/3to2/5.png"",""time"":497},{""stimulus"":""img/3to2/6.png"",""time"":595},{""stimulus"":""img/3to2/7.png"",""time"":694},{""stimulus"":""img/3to2/8.png"",""time"":809},{""stimulus"":""img/3to2/9.png"",""time"":903},{""stimulus"":""img/3to2/10.png"",""time"":998},{""stimulus"":""img/3to2/11.png"",""time"":1090},{""stimulus"":""img/3to2/12.png"",""time"":1199}]","[]"
"","","","choice","63e5b3e89a3823139cb9d35e","bdp_cybrbll","Mon Mar 27 2023 09:12:35 GMT-0600 (Central Standard Time)","468792","1","3","image-keyboard-response","100","132999","0.0-5.0-1.48","","143","","img/2to1/1.png","1","177","911","0.5","0.5","2","1","",""
"","","","","63e5b3e89a3823139cb9d35e","bdp_cybrbll","Mon Mar 27 2023 09:12:35 GMT-0600 (Central Standard Time)","468792","1","3","animation","101","134291","0.0-5.0-2.48","","","","","","177","","","","2","1","[{""stimulus"":""img/2to1/1.png"",""time"":106},{""stimulus"":""img/2to1/2.png"",""time"":201},{""stimulus"":""img/2to1/3.png"",""time"":299},{""stimulus"":""img/2to1/4.png"",""time"":397},{""stimulus"":""img/2to1/5.png"",""time"":497},{""stimulus"":""img/2to1/6.png"",""time"":595},{""stimulus"":""img/2to1/7.png"",""time"":699},{""stimulus"":""img/2to1/8.png"",""time"":793},{""stimulus"":""img/2to1/9.png"",""time"":902},{""stimulus"":""img/2to1/10.png"",""time"":997},{""stimulus"":""img/2to1/11.png"",""time"":1091},{""stimulus"":""img/2to1/12.png"",""time"":1190}]","[]"
"","","","observe","63e5b3e89a3823139cb9d35e","bdp_cybrbll","Mon Mar 27 2023 09:12:35 GMT-0600 (Central Standard Time)","468792","1","3","image-keyboard-response","102","134586","0.0-5.0-1.49","","null","","img/1to3/1.png","null","176","279","0.5","0.5","1","3","",""
"","","","","63e5b3e89a3823139cb9d35e","bdp_cybrbll","Mon Mar 27 2023 09:12:35 GMT-0600 (Central Standard Time)","468792","1","3","animation","103","135880","0.0-5.0-2.49","","","","","","176","","","","1","3","[{""stimulus"":""img/1to3/1.png"",""time"":111},{""stimulus"":""img/1to3/2.png"",""time"":203},{""stimulus"":""img/1to3/3.png"",""time"":312},{""stimulus"":""img/1to3/4.png"",""time"":406},{""stimulus"":""img/1to3/5.png"",""time"":496},{""stimulus"":""img/1to3/6.png"",""time"":596},{""stimulus"":""img/1to3/7.png"",""time"":695},{""stimulus"":""img/1to3/8.png"",""time"":795},{""stimulus"":""img/1to3/9.png"",""time"":904},{""stimulus"":""img/1to3/10.png"",""time"":997},{""stimulus"":""img/1to3/11.png"",""time"":1091},{""stimulus"":""img/1to3/12.png"",""time"":1200}]","[]"
"","","","observe","63e5b3e89a3823139cb9d35e","bdp_cybrbll","Mon Mar 27 2023 09:12:35 GMT-0600 (Central Standard Time)","468792","1","3","image-keyboard-response","104","136364","0.0-5.0-1.50","","null","","img/3to2/1.png","null","175","472","0.5","0.5","3","1","",""
"","","","","63e5b3e89a3823139cb9d35e","bdp_cybrbll","Mon Mar 27 2023 09:12:35 GMT-0600 (Central Standard Time)","468792","1","3","animation","105","137663","0.0-5.0-2.50","","","","","","175","","","","3","1","[{""stimulus"":""img/3to1/1.png"",""time"":109},{""stimulus"":""img/3to1/2.png"",""time"":204},{""stimulus"":""img/3to1/3.png"",""time"":298},{""stimulus"":""img/3to1/4.png"",""time"":399},{""stimulus"":""img/3to1/5.png"",""time"":497},{""stimulus"":""img/3to1/6.png"",""time"":611},{""stimulus"":""img/3to1/7.png"",""time"":706},{""stimulus"":""img/3to1/8.png"",""time"":800},{""stimulus"":""img/3to1/9.png"",""time"":892},{""stimulus"":""img/3to1/10.png"",""time"":992},{""stimulus"":""img/3to1/11.png"",""time"":1091},{""stimulus"":""img/3to1/12.png"",""time"":1189}]","[]"
"","","","observe","63e5b3e89a3823139cb9d35e","bdp_cybrbll","Mon Mar 27 2023 09:12:35 GMT-0600 (Central Standard Time)","468792","1","3","image-keyboard-response","106","137808","0.0-5.0-1.51","","null","","img/1to3/1.png","null","174","144","0.5","0.5","1","3","",""
"","","","","63e5b3e89a3823139cb9d35e","bdp_cybrbll","Mon Mar 27 2023 09:12:35 GMT-0600 (Central Standard Time)","468792","1","3","animation","107","139097","0.0-5.0-2.51","","","","","","174","","","","1","3","[{""stimulus"":""img/1to3/1.png"",""time"":108},{""stimulus"":""img/1to3/2.png"",""time"":200},{""stimulus"":""img/1to3/3.png"",""time"":309},{""stimulus"":""img/1to3/4.png"",""time"":402},{""stimulus"":""img/1to3/5.png"",""time"":496},{""stimulus"":""img/1to3/6.png"",""time"":595},{""stimulus"":""img/1to3/7.png"",""time"":695},{""stimulus"":""img/1to3/8.png"",""time"":794},{""stimulus"":""img/1to3/9.png"",""time"":903},{""stimulus"":""img/1to3/10.png"",""time"":996},{""stimulus"":""img/1to3/11.png"",""time"":1091},{""stimulus"":""img/1to3/12.png"",""time"":1198}]","[]"
"","","","observe","63e5b3e89a3823139cb9d35e","bdp_cybrbll","Mon Mar 27 2023 09:12:35 GMT-0600 (Central Standard Time)","468792","1","3","image-keyboard-response","108","140067","0.0-5.0-1.52","","null","","img/3to2/1.png","null","173","957","0.5","0.5","3","2","",""
"","","","","63e5b3e89a3823139cb9d35e","bdp_cybrbll","Mon Mar 27 2023 09:12:35 GMT-0600 (Central Standard Time)","468792","1","3","animation","109","141359","0.0-5.0-2.52","","","","","","173","","","","3","2","[{""stimulus"":""img/3to2/1.png"",""time"":114},{""stimulus"":""img/3to2/2.png"",""time"":199},{""stimulus"":""img/3to2/3.png"",""time"":299},{""stimulus"":""img/3to2/4.png"",""time"":408},{""stimulus"":""img/3to2/5.png"",""time"":501},{""stimulus"":""img/3to2/6.png"",""time"":609},{""stimulus"":""img/3to2/7.png"",""time"":694},{""stimulus"":""img/3to2/8.png"",""time"":796},{""stimulus"":""img/3to2/9.png"",""time"":904},{""stimulus"":""img/3to2/10.png"",""time"":997},{""stimulus"":""img/3to2/11.png"",""time"":1091},{""stimulus"":""img/3to2/12.png"",""time"":1199}]","[]"
"","","","choice","63e5b3e89a3823139cb9d35e","bdp_cybrbll","Mon Mar 27 2023 09:12:35 GMT-0600 (Central Standard Time)","468792","1","3","image-keyboard-response","110","141495","0.0-5.0-1.53","","134","","img/2to1/1.png","1","172","469","0.5","0.5","2","1","",""
"","","","","63e5b3e89a3823139cb9d35e","bdp_cybrbll","Mon Mar 27 2023 09:12:35 GMT-0600 (Central Standard Time)","468792","1","3","animation","111","142795","0.0-5.0-2.53","","","","","","172","","","","2","1","[{""stimulus"":""img/2to1/1.png"",""time"":101},{""stimulus"":""img/2to1/2.png"",""time"":210},{""stimulus"":""img/2to1/3.png"",""time"":298},{""stimulus"":""img/2to1/4.png"",""time"":412},{""stimulus"":""img/2to1/5.png"",""time"":505},{""stimulus"":""img/2to1/6.png"",""time"":598},{""stimulus"":""img/2to1/7.png"",""time"":694},{""stimulus"":""img/2to1/8.png"",""time"":799},{""stimulus"":""img/2to1/9.png"",""time"":894},{""stimulus"":""img/2to1/10.png"",""time"":1005},{""stimulus"":""img/2to1/11.png"",""time"":1098},{""stimulus"":""img/2to1/12.png"",""time"":1191}]","[]"
"","","","observe","63e5b3e89a3823139cb9d35e","bdp_cybrbll","Mon Mar 27 2023 09:12:35 GMT-0600 (Central Standard Time)","468792","1","3","image-keyboard-response","112","142998","0.0-5.0-1.54","","null","","img/1to3/1.png","null","171","196","0.5","0.5","1","2","",""
"","","","","63e5b3e89a3823139cb9d35e","bdp_cybrbll","Mon Mar 27 2023 09:12:35 GMT-0600 (Central Standard Time)","468792","1","3","animation","113","144285","0.0-5.0-2.54","","","","","","171","","","","1","2","[{""stimulus"":""img/1to2/1.png"",""time"":106},{""stimulus"":""img/1to2/2.png"",""time"":199},{""stimulus"":""img/1to2/3.png"",""time"":311},{""stimulus"":""img/1to2/4.png"",""time"":406},{""stimulus"":""img/1to2/5.png"",""time"":500},{""stimulus"":""img/1to2/6.png"",""time"":595},{""stimulus"":""img/1to2/7.png"",""time"":694},{""stimulus"":""img/1to2/8.png"",""time"":796},{""stimulus"":""img/1to2/9.png"",""time"":905},{""stimulus"":""img/1to2/10.png"",""time"":998},{""stimulus"":""img/1to2/11.png"",""time"":1090},{""stimulus"":""img/1to2/12.png"",""time"":1189}]","[]"
"","","","choice","63e5b3e89a3823139cb9d35e","bdp_cybrbll","Mon Mar 27 2023 09:12:35 GMT-0600 (Central Standard Time)","468792","1","3","image-keyboard-response","114","146311","0.0-5.0-1.55","","2025","","img/2to1/1.png","2","170","261","0.5","0.5","2","3","",""
"","","","","63e5b3e89a3823139cb9d35e","bdp_cybrbll","Mon Mar 27 2023 09:12:35 GMT-0600 (Central Standard Time)","468792","1","3","animation","115","147600","0.0-5.0-2.55","","","","","","170","","","","2","3","[{""stimulus"":""img/2to3/1.png"",""time"":113},{""stimulus"":""img/2to3/2.png"",""time"":199},{""stimulus"":""img/2to3/3.png"",""time"":299},{""stimulus"":""img/2to3/4.png"",""time"":411},{""stimulus"":""img/2to3/5.png"",""time"":504},{""stimulus"":""img/2to3/6.png"",""time"":599},{""stimulus"":""img/2to3/7.png"",""time"":707},{""stimulus"":""img/2to3/8.png"",""time"":802},{""stimulus"":""img/2to3/9.png"",""time"":893},{""stimulus"":""img/2to3/10.png"",""time"":1003},{""stimulus"":""img/2to3/11.png"",""time"":1090},{""stimulus"":""img/2to3/12.png"",""time"":1189}]","[]"
"","","","observe","63e5b3e89a3823139cb9d35e","bdp_cybrbll","Mon Mar 27 2023 09:12:35 GMT-0600 (Central Standard Time)","468792","1","3","image-keyboard-response","116","148046","0.0-5.0-1.56","","null","","img/3to2/1.png","null","169","442","0.5","0.5","3","1","",""
"","","","","63e5b3e89a3823139cb9d35e","bdp_cybrbll","Mon Mar 27 2023 09:12:35 GMT-0600 (Central Standard Time)","468792","1","3","animation","117","149334","0.0-5.0-2.56","","","","","","169","","","","3","1","[{""stimulus"":""img/3to1/1.png"",""time"":110},{""stimulus"":""img/3to1/2.png"",""time"":200},{""stimulus"":""img/3to1/3.png"",""time"":313},{""stimulus"":""img/3to1/4.png"",""time"":408},{""stimulus"":""img/3to1/5.png"",""time"":501},{""stimulus"":""img/3to1/6.png"",""time"":595},{""stimulus"":""img/3to1/7.png"",""time"":703},{""stimulus"":""img/3to1/8.png"",""time"":797},{""stimulus"":""img/3to1/9.png"",""time"":906},{""stimulus"":""img/3to1/10.png"",""time"":991},{""stimulus"":""img/3to1/11.png"",""time"":1094},{""stimulus"":""img/3to1/12.png"",""time"":1201}]","[]"
"","","","observe","63e5b3e89a3823139cb9d35e","bdp_cybrbll","Mon Mar 27 2023 09:12:35 GMT-0600 (Central Standard Time)","468792","1","3","image-keyboard-response","118","149735","0.0-5.0-1.57","","null","","img/1to3/1.png","null","168","399","0.5","0.5","1","2","",""
"","","","","63e5b3e89a3823139cb9d35e","bdp_cybrbll","Mon Mar 27 2023 09:12:35 GMT-0600 (Central Standard Time)","468792","1","3","animation","119","151023","0.0-5.0-2.57","","","","","","168","","","","1","2","[{""stimulus"":""img/1to2/1.png"",""time"":110},{""stimulus"":""img/1to2/2.png"",""time"":200},{""stimulus"":""img/1to2/3.png"",""time"":298},{""stimulus"":""img/1to2/4.png"",""time"":403},{""stimulus"":""img/1to2/5.png"",""time"":496},{""stimulus"":""img/1to2/6.png"",""time"":605},{""stimulus"":""img/1to2/7.png"",""time"":698},{""stimulus"":""img/1to2/8.png"",""time"":807},{""stimulus"":""img/1to2/9.png"",""time"":900},{""stimulus"":""img/1to2/10.png"",""time"":995},{""stimulus"":""img/1to2/11.png"",""time"":1104},{""stimulus"":""img/1to2/12.png"",""time"":1198}]","[]"
"","","","choice","63e5b3e89a3823139cb9d35e","bdp_cybrbll","Mon Mar 27 2023 09:12:35 GMT-0600 (Central Standard Time)","468792","1","3","image-keyboard-response","120","152319","0.0-5.0-1.58","","1295","","img/2to1/1.png","2","167","1066","0.5","0.5","2","3","",""
"","","","","63e5b3e89a3823139cb9d35e","bdp_cybrbll","Mon Mar 27 2023 09:12:35 GMT-0600 (Central Standard Time)","468792","1","3","animation","121","153611","0.0-5.0-2.58","","","","","","167","","","","2","3","[{""stimulus"":""img/2to3/1.png"",""time"":99},{""stimulus"":""img/2to3/2.png"",""time"":200},{""stimulus"":""img/2to3/3.png"",""time"":310},{""stimulus"":""img/2to3/4.png"",""time"":402},{""stimulus"":""img/2to3/5.png"",""time"":511},{""stimulus"":""img/2to3/6.png"",""time"":604},{""stimulus"":""img/2to3/7.png"",""time"":697},{""stimulus"":""img/2to3/8.png"",""time"":808},{""stimulus"":""img/2to3/9.png"",""time"":891},{""stimulus"":""img/2to3/10.png"",""time"":994},{""stimulus"":""img/2to3/11.png"",""time"":1090},{""stimulus"":""img/2to3/12.png"",""time"":1197}]","[]"
"","","","observe","63e5b3e89a3823139cb9d35e","bdp_cybrbll","Mon Mar 27 2023 09:12:35 GMT-0600 (Central Standard Time)","468792","1","3","image-keyboard-response","122","154889","0.0-5.0-1.59","","null","","img/3to2/1.png","null","166","1271","0.5","0.5","3","2","",""
"","","","","63e5b3e89a3823139cb9d35e","bdp_cybrbll","Mon Mar 27 2023 09:12:35 GMT-0600 (Central Standard Time)","468792","1","3","animation","123","156185","0.0-5.0-2.59","","","","","","166","","","","3","2","[{""stimulus"":""img/3to2/1.png"",""time"":109},{""stimulus"":""img/3to2/2.png"",""time"":200},{""stimulus"":""img/3to2/3.png"",""time"":299},{""stimulus"":""img/3to2/4.png"",""time"":397},{""stimulus"":""img/3to2/5.png"",""time"":496},{""stimulus"":""img/3to2/6.png"",""time"":597},{""stimulus"":""img/3to2/7.png"",""time"":695},{""stimulus"":""img/3to2/8.png"",""time"":793},{""stimulus"":""img/3to2/9.png"",""time"":892},{""stimulus"":""img/3to2/10.png"",""time"":991},{""stimulus"":""img/3to2/11.png"",""time"":1090},{""stimulus"":""img/3to2/12.png"",""time"":1189}]","[]"
"","","","choice","63e5b3e89a3823139cb9d35e","bdp_cybrbll","Mon Mar 27 2023 09:12:35 GMT-0600 (Central Standard Time)","468792","1","3","image-keyboard-response","124","156343","0.0-5.0-1.60","","158","","img/2to1/1.png","1","165","1088","0.5","0.5","2","1","",""
"","","","","63e5b3e89a3823139cb9d35e","bdp_cybrbll","Mon Mar 27 2023 09:12:35 GMT-0600 (Central Standard Time)","468792","1","3","animation","125","157632","0.0-5.0-2.60","","","","","","165","","","","2","1","[{""stimulus"":""img/2to1/1.png"",""time"":109},{""stimulus"":""img/2to1/2.png"",""time"":200},{""stimulus"":""img/2to1/3.png"",""time"":311},{""stimulus"":""img/2to1/4.png"",""time"":406},{""stimulus"":""img/2to1/5.png"",""time"":500},{""stimulus"":""img/2to1/6.png"",""time"":609},{""stimulus"":""img/2to1/7.png"",""time"":703},{""stimulus"":""img/2to1/8.png"",""time"":797},{""stimulus"":""img/2to1/9.png"",""time"":892},{""stimulus"":""img/2to1/10.png"",""time"":992},{""stimulus"":""img/2to1/11.png"",""time"":1090},{""stimulus"":""img/2to1/12.png"",""time"":1201}]","[]"
"","","","observe","63e5b3e89a3823139cb9d35e","bdp_cybrbll","Mon Mar 27 2023 09:12:35 GMT-0600 (Central Standard Time)","468792","1","3","image-keyboard-response","126","157936","0.0-5.0-1.61","","null","","img/1to3/1.png","null","164","291","0.5","0.5","1","3","",""
"","","","","63e5b3e89a3823139cb9d35e","bdp_cybrbll","Mon Mar 27 2023 09:12:35 GMT-0600 (Central Standard Time)","468792","1","3","animation","127","159224","0.0-5.0-2.61","","","","","","164","","","","1","3","[{""stimulus"":""img/1to3/1.png"",""time"":109},{""stimulus"":""img/1to3/2.png"",""time"":200},{""stimulus"":""img/1to3/3.png"",""time"":314},{""stimulus"":""img/1to3/4.png"",""time"":407},{""stimulus"":""img/1to3/5.png"",""time"":496},{""stimulus"":""img/1to3/6.png"",""time"":610},{""stimulus"":""img/1to3/7.png"",""time"":695},{""stimulus"":""img/1to3/8.png"",""time"":797},{""stimulus"":""img/1to3/9.png"",""time"":907},{""stimulus"":""img/1to3/10.png"",""time"":1002},{""stimulus"":""img/1to3/11.png"",""time"":1095},{""stimulus"":""img/1to3/12.png"",""time"":1190}]","[]"
"","","","observe","63e5b3e89a3823139cb9d35e","bdp_cybrbll","Mon Mar 27 2023 09:12:35 GMT-0600 (Central Standard Time)","468792","1","3","image-keyboard-response","128","159499","0.0-5.0-1.62","","null","","img/3to2/1.png","null","163","273","0.5","0.5","3","2","",""
"","","","","63e5b3e89a3823139cb9d35e","bdp_cybrbll","Mon Mar 27 2023 09:12:35 GMT-0600 (Central Standard Time)","468792","1","3","animation","129","160794","0.0-5.0-2.62","","","","","","163","","","","3","2","[{""stimulus"":""img/3to2/1.png"",""time"":109},{""stimulus"":""img/3to2/2.png"",""time"":204},{""stimulus"":""img/3to2/3.png"",""time"":313},{""stimulus"":""img/3to2/4.png"",""time"":408},{""stimulus"":""img/3to2/5.png"",""time"":496},{""stimulus"":""img/3to2/6.png"",""time"":595},{""stimulus"":""img/3to2/7.png"",""time"":705},{""stimulus"":""img/3to2/8.png"",""time"":799},{""stimulus"":""img/3to2/9.png"",""time"":907},{""stimulus"":""img/3to2/10.png"",""time"":1000},{""stimulus"":""img/3to2/11.png"",""time"":1093},{""stimulus"":""img/3to2/12.png"",""time"":1201}]","[]"
"","","","choice","63e5b3e89a3823139cb9d35e","bdp_cybrbll","Mon Mar 27 2023 09:12:35 GMT-0600 (Central Standard Time)","468792","1","3","image-keyboard-response","130","160855","0.0-5.0-1.63","","60","","img/2to1/1.png","1","162","423","0.5","0.5","2","1","",""
"","","","","63e5b3e89a3823139cb9d35e","bdp_cybrbll","Mon Mar 27 2023 09:12:35 GMT-0600 (Central Standard Time)","468792","1","3","animation","131","162142","0.0-5.0-2.63","","","","","","162","","","","2","1","[{""stimulus"":""img/2to1/1.png"",""time"":112},{""stimulus"":""img/2to1/2.png"",""time"":208},{""stimulus"":""img/2to1/3.png"",""time"":298},{""stimulus"":""img/2to1/4.png"",""time"":411},{""stimulus"":""img/2to1/5.png"",""time"":503},{""stimulus"":""img/2to1/6.png"",""time"":610},{""stimulus"":""img/2to1/7.png"",""time"":704},{""stimulus"":""img/2to1/8.png"",""time"":793},{""stimulus"":""img/2to1/9.png"",""time"":893},{""stimulus"":""img/2to1/10.png"",""time"":1001},{""stimulus"":""img/2to1/11.png"",""time"":1094},{""stimulus"":""img/2to1/12.png"",""time"":1190}]","[]"
"","","","observe","63e5b3e89a3823139cb9d35e","bdp_cybrbll","Mon Mar 27 2023 09:12:35 GMT-0600 (Central Standard Time)","468792","1","3","image-keyboard-response","132","162494","0.0-5.0-1.64","","null","","img/1to3/1.png","null","161","348","0.5","0.5","1","2","",""
"","","","","63e5b3e89a3823139cb9d35e","bdp_cybrbll","Mon Mar 27 2023 09:12:35 GMT-0600 (Central Standard Time)","468792","1","3","animation","133","163781","0.0-5.0-2.64","","","","","","161","","","","1","2","[{""stimulus"":""img/1to2/1.png"",""time"":109},{""stimulus"":""img/1to2/2.png"",""time"":203},{""stimulus"":""img/1to2/3.png"",""time"":298},{""stimulus"":""img/1to2/4.png"",""time"":407},{""stimulus"":""img/1to2/5.png"",""time"":496},{""stimulus"":""img/1to2/6.png"",""time"":595},{""stimulus"":""img/1to2/7.png"",""time"":705},{""stimulus"":""img/1to2/8.png"",""time"":798},{""stimulus"":""img/1to2/9.png"",""time"":892},{""stimulus"":""img/1to2/10.png"",""time"":1000},{""stimulus"":""img/1to2/11.png"",""time"":1093},{""stimulus"":""img/1to2/12.png"",""time"":1202}]","[]"
"","","","choice","63e5b3e89a3823139cb9d35e","bdp_cybrbll","Mon Mar 27 2023 09:12:35 GMT-0600 (Central Standard Time)","468792","1","3","image-keyboard-response","134","163871","0.0-5.0-1.65","","89","","img/2to1/1.png","2","160","352","0.5","0.5","2","3","",""
"","","","","63e5b3e89a3823139cb9d35e","bdp_cybrbll","Mon Mar 27 2023 09:12:35 GMT-0600 (Central Standard Time)","468792","1","3","animation","135","165161","0.0-5.0-2.65","","","","","","160","","","","2","3","[{""stimulus"":""img/2to3/1.png"",""time"":105},{""stimulus"":""img/2to3/2.png"",""time"":199},{""stimulus"":""img/2to3/3.png"",""time"":310},{""stimulus"":""img/2to3/4.png"",""time"":402},{""stimulus"":""img/2to3/5.png"",""time"":512},{""stimulus"":""img/2to3/6.png"",""time"":606},{""stimulus"":""img/2to3/7.png"",""time"":700},{""stimulus"":""img/2to3/8.png"",""time"":808},{""stimulus"":""img/2to3/9.png"",""time"":893},{""stimulus"":""img/2to3/10.png"",""time"":994},{""stimulus"":""img/2to3/11.png"",""time"":1090},{""stimulus"":""img/2to3/12.png"",""time"":1197}]","[]"
"","","","observe","63e5b3e89a3823139cb9d35e","bdp_cybrbll","Mon Mar 27 2023 09:12:35 GMT-0600 (Central Standard Time)","468792","1","3","image-keyboard-response","136","165426","0.0-5.0-1.66","","null","","img/3to2/1.png","null","159","254","0.5","0.5","3","2","",""
"","","","","63e5b3e89a3823139cb9d35e","bdp_cybrbll","Mon Mar 27 2023 09:12:35 GMT-0600 (Central Standard Time)","468792","1","3","animation","137","166723","0.0-5.0-2.66","","","","","","159","","","","3","2","[{""stimulus"":""img/3to2/1.png"",""time"":102},{""stimulus"":""img/3to2/2.png"",""time"":200},{""stimulus"":""img/3to2/3.png"",""time"":300},{""stimulus"":""img/3to2/4.png"",""time"":408},{""stimulus"":""img/3to2/5.png"",""time"":502},{""stimulus"":""img/3to2/6.png"",""time"":595},{""stimulus"":""img/3to2/7.png"",""time"":694},{""stimulus"":""img/3to2/8.png"",""time"":793},{""stimulus"":""img/3to2/9.png"",""time"":893},{""stimulus"":""img/3to2/10.png"",""time"":991},{""stimulus"":""img/3to2/11.png"",""time"":1091},{""stimulus"":""img/3to2/12.png"",""time"":1206}]","[]"
"","","","choice","63e5b3e89a3823139cb9d35e","bdp_cybrbll","Mon Mar 27 2023 09:12:35 GMT-0600 (Central Standard Time)","468792","1","3","image-keyboard-response","138","166855","0.0-5.0-1.67","","132","","img/2to1/1.png","1","158","238","0.5","0.5","2","1","",""
"","","","","63e5b3e89a3823139cb9d35e","bdp_cybrbll","Mon Mar 27 2023 09:12:35 GMT-0600 (Central Standard Time)","468792","1","3","animation","139","168159","0.0-5.0-2.67","","","","","","158","","","","2","1","[{""stimulus"":""img/2to1/1.png"",""time"":103},{""stimulus"":""img/2to1/2.png"",""time"":211},{""stimulus"":""img/2to1/3.png"",""time"":303},{""stimulus"":""img/2to1/4.png"",""time"":411},{""stimulus"":""img/2to1/5.png"",""time"":506},{""stimulus"":""img/2to1/6.png"",""time"":600},{""stimulus"":""img/2to1/7.png"",""time"":693},{""stimulus"":""img/2to1/8.png"",""time"":793},{""stimulus"":""img/2to1/9.png"",""time"":892},{""stimulus"":""img/2to1/10.png"",""time"":1006},{""stimulus"":""img/2to1/11.png"",""time"":1099},{""stimulus"":""img/2to1/12.png"",""time"":1192}]","[]"
"","","","observe","63e5b3e89a3823139cb9d35e","bdp_cybrbll","Mon Mar 27 2023 09:12:35 GMT-0600 (Central Standard Time)","468792","1","3","image-keyboard-response","140","168718","0.0-5.0-1.68","","null","","img/1to3/1.png","null","157","549","0.5","0.5","1","3","",""
"","","","","63e5b3e89a3823139cb9d35e","bdp_cybrbll","Mon Mar 27 2023 09:12:35 GMT-0600 (Central Standard Time)","468792","1","3","animation","141","170005","0.0-5.0-2.68","","","","","","157","","","","1","3","[{""stimulus"":""img/1to3/1.png"",""time"":109},{""stimulus"":""img/1to3/2.png"",""time"":203},{""stimulus"":""img/1to3/3.png"",""time"":298},{""stimulus"":""img/1to3/4.png"",""time"":408},{""stimulus"":""img/1to3/5.png"",""time"":499},{""stimulus"":""img/1to3/6.png"",""time"":608},{""stimulus"":""img/1to3/7.png"",""time"":703},{""stimulus"":""img/1to3/8.png"",""time"":796},{""stimulus"":""img/1to3/9.png"",""time"":906},{""stimulus"":""img/1to3/10.png"",""time"":1000},{""stimulus"":""img/1to3/11.png"",""time"":1094},{""stimulus"":""img/1to3/12.png"",""time"":1189}]","[]"
"","","","observe","63e5b3e89a3823139cb9d35e","bdp_cybrbll","Mon Mar 27 2023 09:12:35 GMT-0600 (Central Standard Time)","468792","1","3","image-keyboard-response","142","170361","0.0-5.0-1.69","","null","","img/3to2/1.png","null","156","354","0.5","0.5","3","1","",""
"","","","","63e5b3e89a3823139cb9d35e","bdp_cybrbll","Mon Mar 27 2023 09:12:35 GMT-0600 (Central Standard Time)","468792","1","3","animation","143","171654","0.0-5.0-2.69","","","","","","156","","","","3","1","[{""stimulus"":""img/3to1/1.png"",""time"":107},{""stimulus"":""img/3to1/2.png"",""time"":202},{""stimulus"":""img/3to1/3.png"",""time"":310},{""stimulus"":""img/3to1/4.png"",""time"":405},{""stimulus"":""img/3to1/5.png"",""time"":497},{""stimulus"":""img/3to1/6.png"",""time"":607},{""stimulus"":""img/3to1/7.png"",""time"":701},{""stimulus"":""img/3to1/8.png"",""time"":794},{""stimulus"":""img/3to1/9.png"",""time"":893},{""stimulus"":""img/3to1/10.png"",""time"":991},{""stimulus"":""img/3to1/11.png"",""time"":1090},{""stimulus"":""img/3to1/12.png"",""time"":1199}]","[]"
"","","","observe","63e5b3e89a3823139cb9d35e","bdp_cybrbll","Mon Mar 27 2023 09:12:35 GMT-0600 (Central Standard Time)","468792","1","3","image-keyboard-response","144","172319","0.0-5.0-1.70","","null","","img/1to3/1.png","null","155","663","0.5","0.5","1","3","",""
"","","","","63e5b3e89a3823139cb9d35e","bdp_cybrbll","Mon Mar 27 2023 09:12:35 GMT-0600 (Central Standard Time)","468792","1","3","animation","145","173611","0.0-5.0-2.70","","","","","","155","","","","1","3","[{""stimulus"":""img/1to3/1.png"",""time"":109},{""stimulus"":""img/1to3/2.png"",""time"":200},{""stimulus"":""img/1to3/3.png"",""time"":311},{""stimulus"":""img/1to3/4.png"",""time"":403},{""stimulus"":""img/1to3/5.png"",""time"":495},{""stimulus"":""img/1to3/6.png"",""time"":606},{""stimulus"":""img/1to3/7.png"",""time"":700},{""stimulus"":""img/1to3/8.png"",""time"":793},{""stimulus"":""img/1to3/9.png"",""time"":892},{""stimulus"":""img/1to3/10.png"",""time"":990},{""stimulus"":""img/1to3/11.png"",""time"":1105},{""stimulus"":""img/1to3/12.png"",""time"":1198}]","[]"
"","","","observe","63e5b3e89a3823139cb9d35e","bdp_cybrbll","Mon Mar 27 2023 09:12:35 GMT-0600 (Central Standard Time)","468792","1","3","image-keyboard-response","146","173945","0.0-5.0-1.71","","null","","img/3to2/1.png","null","154","331","0.5","0.5","3","1","",""
"","","","","63e5b3e89a3823139cb9d35e","bdp_cybrbll","Mon Mar 27 2023 09:12:35 GMT-0600 (Central Standard Time)","468792","1","3","animation","147","175233","0.0-5.0-2.71","","","","","","154","","","","3","1","[{""stimulus"":""img/3to1/1.png"",""time"":103},{""stimulus"":""img/3to1/2.png"",""time"":199},{""stimulus"":""img/3to1/3.png"",""time"":299},{""stimulus"":""img/3to1/4.png"",""time"":399},{""stimulus"":""img/3to1/5.png"",""time"":508},{""stimulus"":""img/3to1/6.png"",""time"":603},{""stimulus"":""img/3to1/7.png"",""time"":698},{""stimulus"":""img/3to1/8.png"",""time"":808},{""stimulus"":""img/3to1/9.png"",""time"":903},{""stimulus"":""img/3to1/10.png"",""time"":999},{""stimulus"":""img/3to1/11.png"",""time"":1094},{""stimulus"":""img/3to1/12.png"",""time"":1190}]","[]"
"","","","observe","63e5b3e89a3823139cb9d35e","bdp_cybrbll","Mon Mar 27 2023 09:12:35 GMT-0600 (Central Standard Time)","468792","1","3","image-keyboard-response","148","175961","0.0-5.0-1.72","","null","","img/1to3/1.png","null","153","718","0.5","0.5","1","3","",""
"","","","","63e5b3e89a3823139cb9d35e","bdp_cybrbll","Mon Mar 27 2023 09:12:35 GMT-0600 (Central Standard Time)","468792","1","3","animation","149","177261","0.0-5.0-2.72","","","","","","153","","","","1","3","[{""stimulus"":""img/1to3/1.png"",""time"":112},{""stimulus"":""img/1to3/2.png"",""time"":199},{""stimulus"":""img/1to3/3.png"",""time"":303},{""stimulus"":""img/1to3/4.png"",""time"":397},{""stimulus"":""img/1to3/5.png"",""time"":496},{""stimulus"":""img/1to3/6.png"",""time"":595},{""stimulus"":""img/1to3/7.png"",""time"":709},{""stimulus"":""img/1to3/8.png"",""time"":793},{""stimulus"":""img/1to3/9.png"",""time"":896},{""stimulus"":""img/1to3/10.png"",""time"":1005},{""stimulus"":""img/1to3/11.png"",""time"":1097},{""stimulus"":""img/1to3/12.png"",""time"":1191}]","[]"
"","","","observe","63e5b3e89a3823139cb9d35e","bdp_cybrbll","Mon Mar 27 2023 09:12:35 GMT-0600 (Central Standard Time)","468792","1","3","image-keyboard-response","150","177428","0.0-5.0-1.73","","null","","img/3to2/1.png","null","152","165","0.5","0.5","3","1","",""
"","","","","63e5b3e89a3823139cb9d35e","bdp_cybrbll","Mon Mar 27 2023 09:12:35 GMT-0600 (Central Standard Time)","468792","1","3","animation","151","178716","0.0-5.0-2.73","","","","","","152","","","","3","1","[{""stimulus"":""img/3to1/1.png"",""time"":100},{""stimulus"":""img/3to1/2.png"",""time"":199},{""stimulus"":""img/3to1/3.png"",""time"":304},{""stimulus"":""img/3to1/4.png"",""time"":398},{""stimulus"":""img/3to1/5.png"",""time"":507},{""stimulus"":""img/3to1/6.png"",""time"":594},{""stimulus"":""img/3to1/7.png"",""time"":694},{""stimulus"":""img/3to1/8.png"",""time"":793},{""stimulus"":""img/3to1/9.png"",""time"":895},{""stimulus"":""img/3to1/10.png"",""time"":1005},{""stimulus"":""img/3to1/11.png"",""time"":1098},{""stimulus"":""img/3to1/12.png"",""time"":1194}]","[]"
"","","","observe","63e5b3e89a3823139cb9d35e","bdp_cybrbll","Mon Mar 27 2023 09:12:35 GMT-0600 (Central Standard Time)","468792","1","3","image-keyboard-response","152","179105","0.0-5.0-1.74","","null","","img/1to3/1.png","null","151","379","0.5","0.5","1","3","",""
"","","","","63e5b3e89a3823139cb9d35e","bdp_cybrbll","Mon Mar 27 2023 09:12:35 GMT-0600 (Central Standard Time)","468792","1","3","animation","153","180393","0.0-5.0-2.74","","","","","","151","","","","1","3","[{""stimulus"":""img/1to3/1.png"",""time"":110},{""stimulus"":""img/1to3/2.png"",""time"":199},{""stimulus"":""img/1to3/3.png"",""time"":310},{""stimulus"":""img/1to3/4.png"",""time"":397},{""stimulus"":""img/1to3/5.png"",""time"":496},{""stimulus"":""img/1to3/6.png"",""time"":595},{""stimulus"":""img/1to3/7.png"",""time"":694},{""stimulus"":""img/1to3/8.png"",""time"":793},{""stimulus"":""img/1to3/9.png"",""time"":893},{""stimulus"":""img/1to3/10.png"",""time"":992},{""stimulus"":""img/1to3/11.png"",""time"":1091},{""stimulus"":""img/1to3/12.png"",""time"":1195}]","[]"
"","","","observe","63e5b3e89a3823139cb9d35e","bdp_cybrbll","Mon Mar 27 2023 09:12:35 GMT-0600 (Central Standard Time)","468792","1","3","image-keyboard-response","154","180721","0.0-5.0-1.75","","null","","img/3to2/1.png","null","150","319","0.5","0.5","3","1","",""
"","","","","63e5b3e89a3823139cb9d35e","bdp_cybrbll","Mon Mar 27 2023 09:12:35 GMT-0600 (Central Standard Time)","468792","1","3","animation","155","182008","0.0-5.0-2.75","","","","","","150","","","","3","1","[{""stimulus"":""img/3to1/1.png"",""time"":110},{""stimulus"":""img/3to1/2.png"",""time"":199},{""stimulus"":""img/3to1/3.png"",""time"":310},{""stimulus"":""img/3to1/4.png"",""time"":403},{""stimulus"":""img/3to1/5.png"",""time"":497},{""stimulus"":""img/3to1/6.png"",""time"":595},{""stimulus"":""img/3to1/7.png"",""time"":694},{""stimulus"":""img/3to1/8.png"",""time"":808},{""stimulus"":""img/3to1/9.png"",""time"":902},{""stimulus"":""img/3to1/10.png"",""time"":995},{""stimulus"":""img/3to1/11.png"",""time"":1102},{""stimulus"":""img/3to1/12.png"",""time"":1189}]","[]"
"","","","observe","63e5b3e89a3823139cb9d35e","bdp_cybrbll","Mon Mar 27 2023 09:12:35 GMT-0600 (Central Standard Time)","468792","1","3","image-keyboard-response","156","182502","0.0-5.0-1.76","","null","","img/1to3/1.png","null","149","492","0.5","0.1","1","2","",""
"","","","","63e5b3e89a3823139cb9d35e","bdp_cybrbll","Mon Mar 27 2023 09:12:35 GMT-0600 (Central Standard Time)","468792","1","3","animation","157","183798","0.0-5.0-2.76","","","","","","149","","","","1","2","[{""stimulus"":""img/1to2/1.png"",""time"":106},{""stimulus"":""img/1to2/2.png"",""time"":198},{""stimulus"":""img/1to2/3.png"",""time"":308},{""stimulus"":""img/1to2/4.png"",""time"":401},{""stimulus"":""img/1to2/5.png"",""time"":511},{""stimulus"":""img/1to2/6.png"",""time"":595},{""stimulus"":""img/1to2/7.png"",""time"":694},{""stimulus"":""img/1to2/8.png"",""time"":792},{""stimulus"":""img/1to2/9.png"",""time"":891},{""stimulus"":""img/1to2/10.png"",""time"":999},{""stimulus"":""img/1to2/11.png"",""time"":1094},{""stimulus"":""img/1to2/12.png"",""time"":1202}]","[]"
"","","","choice","63e5b3e89a3823139cb9d35e","bdp_cybrbll","Mon Mar 27 2023 09:12:35 GMT-0600 (Central Standard Time)","468792","1","3","image-keyboard-response","158","184224","0.0-5.0-1.77","","424","","img/2to1/1.png","2","148","546","0.5","0.1","2","3","",""
"","","","","63e5b3e89a3823139cb9d35e","bdp_cybrbll","Mon Mar 27 2023 09:12:35 GMT-0600 (Central Standard Time)","468792","1","3","animation","159","185511","0.0-5.0-2.77","","","","","","148","","","","2","3","[{""stimulus"":""img/2to3/1.png"",""time"":100},{""stimulus"":""img/2to3/2.png"",""time"":199},{""stimulus"":""img/2to3/3.png"",""time"":298},{""stimulus"":""img/2to3/4.png"",""time"":397},{""stimulus"":""img/2to3/5.png"",""time"":508},{""stimulus"":""img/2to3/6.png"",""time"":602},{""stimulus"":""img/2to3/7.png"",""time"":696},{""stimulus"":""img/2to3/8.png"",""time"":806},{""stimulus"":""img/2to3/9.png"",""time"":898},{""stimulus"":""img/2to3/10.png"",""time"":992},{""stimulus"":""img/2to3/11.png"",""time"":1098},{""stimulus"":""img/2to3/12.png"",""time"":1189}]","[]"
"","","","observe","63e5b3e89a3823139cb9d35e","bdp_cybrbll","Mon Mar 27 2023 09:12:35 GMT-0600 (Central Standard Time)","468792","1","3","image-keyboard-response","160","185859","0.0-5.0-1.78","","null","","img/3to2/1.png","null","147","345","0.5","0.1","3","1","",""
"","","","","63e5b3e89a3823139cb9d35e","bdp_cybrbll","Mon Mar 27 2023 09:12:35 GMT-0600 (Central Standard Time)","468792","1","3","animation","161","187147","0.0-5.0-2.78","","","","","","147","","","","3","1","[{""stimulus"":""img/3to1/1.png"",""time"":108},{""stimulus"":""img/3to1/2.png"",""time"":200},{""stimulus"":""img/3to1/3.png"",""time"":309},{""stimulus"":""img/3to1/4.png"",""time"":397},{""stimulus"":""img/3to1/5.png"",""time"":496},{""stimulus"":""img/3to1/6.png"",""time"":595},{""stimulus"":""img/3to1/7.png"",""time"":695},{""stimulus"":""img/3to1/8.png"",""time"":800},{""stimulus"":""img/3to1/9.png"",""time"":893},{""stimulus"":""img/3to1/10.png"",""time"":992},{""stimulus"":""img/3to1/11.png"",""time"":1102},{""stimulus"":""img/3to1/12.png"",""time"":1189}]","[]"
"","","","observe","63e5b3e89a3823139cb9d35e","bdp_cybrbll","Mon Mar 27 2023 09:12:35 GMT-0600 (Central Standard Time)","468792","1","3","image-keyboard-response","162","188146","0.0-5.0-1.79","","null","","img/1to3/1.png","null","146","986","0.5","0.1","1","3","",""
"","","","","63e5b3e89a3823139cb9d35e","bdp_cybrbll","Mon Mar 27 2023 09:12:35 GMT-0600 (Central Standard Time)","468792","1","3","animation","163","189434","0.0-5.0-2.79","","","","","","146","","","","1","3","[{""stimulus"":""img/1to3/1.png"",""time"":108},{""stimulus"":""img/1to3/2.png"",""time"":199},{""stimulus"":""img/1to3/3.png"",""time"":298},{""stimulus"":""img/1to3/4.png"",""time"":406},{""stimulus"":""img/1to3/5.png"",""time"":499},{""stimulus"":""img/1to3/6.png"",""time"":608},{""stimulus"":""img/1to3/7.png"",""time"":694},{""stimulus"":""img/1to3/8.png"",""time"":796},{""stimulus"":""img/1to3/9.png"",""time"":905},{""stimulus"":""img/1to3/10.png"",""time"":991},{""stimulus"":""img/1to3/11.png"",""time"":1090},{""stimulus"":""img/1to3/12.png"",""time"":1202}]","[]"
"","","","observe","63e5b3e89a3823139cb9d35e","bdp_cybrbll","Mon Mar 27 2023 09:12:35 GMT-0600 (Central Standard Time)","468792","1","3","image-keyboard-response","164","189939","0.0-5.0-1.80","","null","","img/3to2/1.png","null","145","499","0.5","0.1","3","1","",""
"","","","","63e5b3e89a3823139cb9d35e","bdp_cybrbll","Mon Mar 27 2023 09:12:35 GMT-0600 (Central Standard Time)","468792","1","3","animation","165","191227","0.0-5.0-2.80","","","","","","145","","","","3","1","[{""stimulus"":""img/3to1/1.png"",""time"":109},{""stimulus"":""img/3to1/2.png"",""time"":200},{""stimulus"":""img/3to1/3.png"",""time"":299},{""stimulus"":""img/3to1/4.png"",""time"":397},{""stimulus"":""img/3to1/5.png"",""time"":497},{""stimulus"":""img/3to1/6.png"",""time"":597},{""stimulus"":""img/3to1/7.png"",""time"":707},{""stimulus"":""img/3to1/8.png"",""time"":802},{""stimulus"":""img/3to1/9.png"",""time"":892},{""stimulus"":""img/3to1/10.png"",""time"":992},{""stimulus"":""img/3to1/11.png"",""time"":1090},{""stimulus"":""img/3to1/12.png"",""time"":1190}]","[]"
"","","","observe","63e5b3e89a3823139cb9d35e","bdp_cybrbll","Mon Mar 27 2023 09:12:35 GMT-0600 (Central Standard Time)","468792","1","3","image-keyboard-response","166","191385","0.0-5.0-1.81","","null","","img/1to3/1.png","null","144","157","0.5","0.1","1","3","",""
"","","","","63e5b3e89a3823139cb9d35e","bdp_cybrbll","Mon Mar 27 2023 09:12:35 GMT-0600 (Central Standard Time)","468792","1","3","animation","167","192676","0.0-5.0-2.81","","","","","","144","","","","1","3","[{""stimulus"":""img/1to3/1.png"",""time"":103},{""stimulus"":""img/1to3/2.png"",""time"":199},{""stimulus"":""img/1to3/3.png"",""time"":307},{""stimulus"":""img/1to3/4.png"",""time"":400},{""stimulus"":""img/1to3/5.png"",""time"":510},{""stimulus"":""img/1to3/6.png"",""time"":604},{""stimulus"":""img/1to3/7.png"",""time"":697},{""stimulus"":""img/1to3/8.png"",""time"":806},{""stimulus"":""img/1to3/9.png"",""time"":899},{""stimulus"":""img/1to3/10.png"",""time"":993},{""stimulus"":""img/1to3/11.png"",""time"":1104},{""stimulus"":""img/1to3/12.png"",""time"":1190}]","[]"
"","","","observe","63e5b3e89a3823139cb9d35e","bdp_cybrbll","Mon Mar 27 2023 09:12:35 GMT-0600 (Central Standard Time)","468792","1","3","image-keyboard-response","168","193219","0.0-5.0-1.82","","null","","img/3to2/1.png","null","143","539","0.5","0.1","3","1","",""
"","","","","63e5b3e89a3823139cb9d35e","bdp_cybrbll","Mon Mar 27 2023 09:12:35 GMT-0600 (Central Standard Time)","468792","1","3","animation","169","194510","0.0-5.0-2.82","","","","","","143","","","","3","1","[{""stimulus"":""img/3to1/1.png"",""time"":108},{""stimulus"":""img/3to1/2.png"",""time"":200},{""stimulus"":""img/3to1/3.png"",""time"":299},{""stimulus"":""img/3to1/4.png"",""time"":397},{""stimulus"":""img/3to1/5.png"",""time"":498},{""stimulus"":""img/3to1/6.png"",""time"":595},{""stimulus"":""img/3to1/7.png"",""time"":701},{""stimulus"":""img/3to1/8.png"",""time"":792},{""stimulus"":""img/3to1/9.png"",""time"":891},{""stimulus"":""img/3to1/10.png"",""time"":995},{""stimulus"":""img/3to1/11.png"",""time"":1090},{""stimulus"":""img/3to1/12.png"",""time"":1196}]","[]"
"","","","observe","63e5b3e89a3823139cb9d35e","bdp_cybrbll","Mon Mar 27 2023 09:12:35 GMT-0600 (Central Standard Time)","468792","1","3","image-keyboard-response","170","195212","0.0-5.0-1.83","","null","","img/1to3/1.png","null","142","691","0.5","0.1","1","3","",""
"","","","","63e5b3e89a3823139cb9d35e","bdp_cybrbll","Mon Mar 27 2023 09:12:35 GMT-0600 (Central Standard Time)","468792","1","3","animation","171","196499","0.0-5.0-2.83","","","","","","142","","","","1","3","[{""stimulus"":""img/1to3/1.png"",""time"":109},{""stimulus"":""img/1to3/2.png"",""time"":199},{""stimulus"":""img/1to3/3.png"",""time"":298},{""stimulus"":""img/1to3/4.png"",""time"":398},{""stimulus"":""img/1to3/5.png"",""time"":500},{""stimulus"":""img/1to3/6.png"",""time"":595},{""stimulus"":""img/1to3/7.png"",""time"":705},{""stimulus"":""img/1to3/8.png"",""time"":798},{""stimulus"":""img/1to3/9.png"",""time"":892},{""stimulus"":""img/1to3/10.png"",""time"":991},{""stimulus"":""img/1to3/11.png"",""time"":1090},{""stimulus"":""img/1to3/12.png"",""time"":1189}]","[]"
"","","","observe","63e5b3e89a3823139cb9d35e","bdp_cybrbll","Mon Mar 27 2023 09:12:35 GMT-0600 (Central Standard Time)","468792","1","3","image-keyboard-response","172","197403","0.0-5.0-1.84","","null","","img/3to2/1.png","null","141","896","0.5","0.1","3","1","",""
"","","","","63e5b3e89a3823139cb9d35e","bdp_cybrbll","Mon Mar 27 2023 09:12:35 GMT-0600 (Central Standard Time)","468792","1","3","animation","173","198693","0.0-5.0-2.84","","","","","","141","","","","3","1","[{""stimulus"":""img/3to1/1.png"",""time"":108},{""stimulus"":""img/3to1/2.png"",""time"":202},{""stimulus"":""img/3to1/3.png"",""time"":311},{""stimulus"":""img/3to1/4.png"",""time"":404},{""stimulus"":""img/3to1/5.png"",""time"":512},{""stimulus"":""img/3to1/6.png"",""time"":605},{""stimulus"":""img/3to1/7.png"",""time"":695},{""stimulus"":""img/3to1/8.png"",""time"":794},{""stimulus"":""img/3to1/9.png"",""time"":892},{""stimulus"":""img/3to1/10.png"",""time"":993},{""stimulus"":""img/3to1/11.png"",""time"":1092},{""stimulus"":""img/3to1/12.png"",""time"":1196}]","[]"
"","","","observe","63e5b3e89a3823139cb9d35e","bdp_cybrbll","Mon Mar 27 2023 09:12:35 GMT-0600 (Central Standard Time)","468792","1","3","image-keyboard-response","174","199225","0.0-5.0-1.85","","null","","img/1to3/1.png","null","140","523","0.5","0.1","1","2","",""
"","","","","63e5b3e89a3823139cb9d35e","bdp_cybrbll","Mon Mar 27 2023 09:12:35 GMT-0600 (Central Standard Time)","468792","1","3","animation","175","200522","0.0-5.0-2.85","","","","","","140","","","","1","2","[{""stimulus"":""img/1to2/1.png"",""time"":111},{""stimulus"":""img/1to2/2.png"",""time"":199},{""stimulus"":""img/1to2/3.png"",""time"":299},{""stimulus"":""img/1to2/4.png"",""time"":397},{""stimulus"":""img/1to2/5.png"",""time"":499},{""stimulus"":""img/1to2/6.png"",""time"":609},{""stimulus"":""img/1to2/7.png"",""time"":702},{""stimulus"":""img/1to2/8.png"",""time"":795},{""stimulus"":""img/1to2/9.png"",""time"":892},{""stimulus"":""img/1to2/10.png"",""time"":991},{""stimulus"":""img/1to2/11.png"",""time"":1090},{""stimulus"":""img/1to2/12.png"",""time"":1189}]","[]"
"","","","choice","63e5b3e89a3823139cb9d35e","bdp_cybrbll","Mon Mar 27 2023 09:12:35 GMT-0600 (Central Standard Time)","468792","1","3","image-keyboard-response","176","201311","0.0-5.0-1.86","","788","","img/2to1/1.png","1","139","267","0.5","0.1","2","1","",""
"","","","","63e5b3e89a3823139cb9d35e","bdp_cybrbll","Mon Mar 27 2023 09:12:35 GMT-0600 (Central Standard Time)","468792","1","3","animation","177","202615","0.0-5.0-2.86","","","","","","139","","","","2","1","[{""stimulus"":""img/2to1/1.png"",""time"":111},{""stimulus"":""img/2to1/2.png"",""time"":199},{""stimulus"":""img/2to1/3.png"",""time"":298},{""stimulus"":""img/2to1/4.png"",""time"":397},{""stimulus"":""img/2to1/5.png"",""time"":502},{""stimulus"":""img/2to1/6.png"",""time"":596},{""stimulus"":""img/2to1/7.png"",""time"":705},{""stimulus"":""img/2to1/8.png"",""time"":801},{""stimulus"":""img/2to1/9.png"",""time"":895},{""stimulus"":""img/2to1/10.png"",""time"":1005},{""stimulus"":""img/2to1/11.png"",""time"":1091},{""stimulus"":""img/2to1/12.png"",""time"":1189}]","[]"
"","","","observe","63e5b3e89a3823139cb9d35e","bdp_cybrbll","Mon Mar 27 2023 09:12:35 GMT-0600 (Central Standard Time)","468792","1","3","image-keyboard-response","178","203084","0.0-5.0-1.87","","null","","img/1to3/1.png","null","138","463","0.5","0.1","1","3","",""
"","","","","63e5b3e89a3823139cb9d35e","bdp_cybrbll","Mon Mar 27 2023 09:12:35 GMT-0600 (Central Standard Time)","468792","1","3","animation","179","204372","0.0-5.0-2.87","","","","","","138","","","","1","3","[{""stimulus"":""img/1to3/1.png"",""time"":112},{""stimulus"":""img/1to3/2.png"",""time"":206},{""stimulus"":""img/1to3/3.png"",""time"":298},{""stimulus"":""img/1to3/4.png"",""time"":398},{""stimulus"":""img/1to3/5.png"",""time"":500},{""stimulus"":""img/1to3/6.png"",""time"":609},{""stimulus"":""img/1to3/7.png"",""time"":704},{""stimulus"":""img/1to3/8.png"",""time"":797},{""stimulus"":""img/1to3/9.png"",""time"":892},{""stimulus"":""img/1to3/10.png"",""time"":1000},{""stimulus"":""img/1to3/11.png"",""time"":1096},{""stimulus"":""img/1to3/12.png"",""time"":1189}]","[]"
"","","","observe","63e5b3e89a3823139cb9d35e","bdp_cybrbll","Mon Mar 27 2023 09:12:35 GMT-0600 (Central Standard Time)","468792","1","3","image-keyboard-response","180","204730","0.0-5.0-1.88","","null","","img/3to2/1.png","null","137","350","0.5","0.1","3","1","",""
"","","","","63e5b3e89a3823139cb9d35e","bdp_cybrbll","Mon Mar 27 2023 09:12:35 GMT-0600 (Central Standard Time)","468792","1","3","animation","181","206018","0.0-5.0-2.88","","","","","","137","","","","3","1","[{""stimulus"":""img/3to1/1.png"",""time"":110},{""stimulus"":""img/3to1/2.png"",""time"":199},{""stimulus"":""img/3to1/3.png"",""time"":312},{""stimulus"":""img/3to1/4.png"",""time"":407},{""stimulus"":""img/3to1/5.png"",""time"":497},{""stimulus"":""img/3to1/6.png"",""time"":598},{""stimulus"":""img/3to1/7.png"",""time"":709},{""stimulus"":""img/3to1/8.png"",""time"":794},{""stimulus"":""img/3to1/9.png"",""time"":893},{""stimulus"":""img/3to1/10.png"",""time"":1006},{""stimulus"":""img/3to1/11.png"",""time"":1090},{""stimulus"":""img/3to1/12.png"",""time"":1189}]","[]"
"","","","observe","63e5b3e89a3823139cb9d35e","bdp_cybrbll","Mon Mar 27 2023 09:12:35 GMT-0600 (Central Standard Time)","468792","1","3","image-keyboard-response","182","206349","0.0-5.0-1.89","","null","","img/1to3/1.png","null","136","329","0.5","0.1","1","2","",""
"","","","","63e5b3e89a3823139cb9d35e","bdp_cybrbll","Mon Mar 27 2023 09:12:35 GMT-0600 (Central Standard Time)","468792","1","3","animation","183","207637","0.0-5.0-2.89","","","","","","136","","","","1","2","[{""stimulus"":""img/1to2/1.png"",""time"":105},{""stimulus"":""img/1to2/2.png"",""time"":200},{""stimulus"":""img/1to2/3.png"",""time"":307},{""stimulus"":""img/1to2/4.png"",""time"":401},{""stimulus"":""img/1to2/5.png"",""time"":497},{""stimulus"":""img/1to2/6.png"",""time"":603},{""stimulus"":""img/1to2/7.png"",""time"":695},{""stimulus"":""img/1to2/8.png"",""time"":806},{""stimulus"":""img/1to2/9.png"",""time"":901},{""stimulus"":""img/1to2/10.png"",""time"":994},{""stimulus"":""img/1to2/11.png"",""time"":1103},{""stimulus"":""img/1to2/12.png"",""time"":1190}]","[]"
"","","","choice","63e5b3e89a3823139cb9d35e","bdp_cybrbll","Mon Mar 27 2023 09:12:35 GMT-0600 (Central Standard Time)","468792","1","3","image-keyboard-response","184","210208","0.0-5.0-1.90","","2569","","img/2to1/1.png","2","135","289","0.5","0.1","2","3","",""
"","","","","63e5b3e89a3823139cb9d35e","bdp_cybrbll","Mon Mar 27 2023 09:12:35 GMT-0600 (Central Standard Time)","468792","1","3","animation","185","211497","0.0-5.0-2.90","","","","","","135","","","","2","3","[{""stimulus"":""img/2to3/1.png"",""time"":112},{""stimulus"":""img/2to3/2.png"",""time"":199},{""stimulus"":""img/2to3/3.png"",""time"":298},{""stimulus"":""img/2to3/4.png"",""time"":398},{""stimulus"":""img/2to3/5.png"",""time"":502},{""stimulus"":""img/2to3/6.png"",""time"":597},{""stimulus"":""img/2to3/7.png"",""time"":705},{""stimulus"":""img/2to3/8.png"",""time"":799},{""stimulus"":""img/2to3/9.png"",""time"":894},{""stimulus"":""img/2to3/10.png"",""time"":1004},{""stimulus"":""img/2to3/11.png"",""time"":1098},{""stimulus"":""img/2to3/12.png"",""time"":1193}]","[]"
"","","","observe","63e5b3e89a3823139cb9d35e","bdp_cybrbll","Mon Mar 27 2023 09:12:35 GMT-0600 (Central Standard Time)","468792","1","3","image-keyboard-response","186","212660","0.0-5.0-1.91","","null","","img/3to2/1.png","null","134","1150","0.5","0.1","3","1","",""
"","","","","63e5b3e89a3823139cb9d35e","bdp_cybrbll","Mon Mar 27 2023 09:12:35 GMT-0600 (Central Standard Time)","468792","1","3","animation","187","213957","0.0-5.0-2.91","","","","","","134","","","","3","1","[{""stimulus"":""img/3to1/1.png"",""time"":109},{""stimulus"":""img/3to1/2.png"",""time"":200},{""stimulus"":""img/3to1/3.png"",""time"":298},{""stimulus"":""img/3to1/4.png"",""time"":397},{""stimulus"":""img/3to1/5.png"",""time"":500},{""stimulus"":""img/3to1/6.png"",""time"":595},{""stimulus"":""img/3to1/7.png"",""time"":704},{""stimulus"":""img/3to1/8.png"",""time"":793},{""stimulus"":""img/3to1/9.png"",""time"":893},{""stimulus"":""img/3to1/10.png"",""time"":992},{""stimulus"":""img/3to1/11.png"",""time"":1093},{""stimulus"":""img/3to1/12.png"",""time"":1204}]","[]"
"","","","observe","63e5b3e89a3823139cb9d35e","bdp_cybrbll","Mon Mar 27 2023 09:12:35 GMT-0600 (Central Standard Time)","468792","1","3","image-keyboard-response","188","214220","0.0-5.0-1.92","","null","","img/1to3/1.png","null","133","262","0.5","0.1","1","3","",""
"","","","","63e5b3e89a3823139cb9d35e","bdp_cybrbll","Mon Mar 27 2023 09:12:35 GMT-0600 (Central Standard Time)","468792","1","3","animation","189","215520","0.0-5.0-2.92","","","","","","133","","","","1","3","[{""stimulus"":""img/1to3/1.png"",""time"":110},{""stimulus"":""img/1to3/2.png"",""time"":205},{""stimulus"":""img/1to3/3.png"",""time"":299},{""stimulus"":""img/1to3/4.png"",""time"":408},{""stimulus"":""img/1to3/5.png"",""time"":502},{""stimulus"":""img/1to3/6.png"",""time"":611},{""stimulus"":""img/1to3/7.png"",""time"":695},{""stimulus"":""img/1to3/8.png"",""time"":798},{""stimulus"":""img/1to3/9.png"",""time"":894},{""stimulus"":""img/1to3/10.png"",""time"":992},{""stimulus"":""img/1to3/11.png"",""time"":1090},{""stimulus"":""img/1to3/12.png"",""time"":1190}]","[]"
