"trial_type","trial_index","time_elapsed","internal_node_id","subject_id","task","startTime","totalTime","fairPartner","unfairPartner","view_history","rt","event","trial","time","trialtype","success","stimulus","key_press","throwsLeft","rtDur","pFair","pUnfair","holder","receiver","animation_sequence","responses"
"pavlovia","0","12","0.0-0.0","63ead665638c8546d8c3a962","bdp_cybrbll","Sat Mar 25 2023 20:36:14 GMT-0400 (Eastern Daylight Time)","452445","1","3","","","","","","","","","","","","","","","","",""
"instructions","1","9025","0.0-1.0","63ead665638c8546d8c3a962","bdp_cybrbll","Sat Mar 25 2023 20:36:14 GMT-0400 (Eastern Daylight Time)","452445","1","3","[{""page_index"":0,""viewing_time"":9011}]","9011","","","","","","","","","","","","","","",""
"","","","","63ead665638c8546d8c3a962","bdp_cybrbll","Sat Mar 25 2023 20:36:14 GMT-0400 (Eastern Daylight Time)","452445","1","3","","","fullscreenenter","2","10648","fullscreenenter","","","","","","","","","","",""
"fullscreen","2","11635","0.0-2.0","63ead665638c8546d8c3a962","bdp_cybrbll","Sat Mar 25 2023 20:36:14 GMT-0400 (Eastern Daylight Time)","452445","1","3","","","","","","","true","","","","","","","","","",""
"instructions","3","49500","0.0-4.0","63ead665638c8546d8c3a962","bdp_cybrbll","Sat Mar 25 2023 20:36:14 GMT-0400 (Eastern Daylight Time)","452445","1","3","[{""page_index"":0,""viewing_time"":37863}]","37863","","","","","","","","","","","","","","",""
"image-keyboard-response","4","50240","0.0-5.0-1.0","63ead665638c8546d8c3a962","bdp_cybrbll","Sat Mar 25 2023 20:36:14 GMT-0400 (Eastern Daylight Time)","452445","1","3","","737","","","","choice","","img/2to1/1.png","1","225","1390","0.5","0.5","2","1","",""
"animation","5","51537","0.0-5.0-2.0","63ead665638c8546d8c3a962","bdp_cybrbll","Sat Mar 25 2023 20:36:14 GMT-0400 (Eastern Daylight Time)","452445","1","3","","","","","","","","","","225","","","","2","1","[{""stimulus"":""img/2to1/1.png"",""time"":106},{""stimulus"":""img/2to1/2.png"",""time"":204},{""stimulus"":""img/2to1/3.png"",""time"":304},{""stimulus"":""img/2to1/4.png"",""time"":401},{""stimulus"":""img/2to1/5.png"",""time"":507},{""stimulus"":""img/2to1/6.png"",""time"":596},{""stimulus"":""img/2to1/7.png"",""time"":698},{""stimulus"":""img/2to1/8.png"",""time"":799},{""stimulus"":""img/2to1/9.png"",""time"":900},{""stimulus"":""img/2to1/10.png"",""time"":998},{""stimulus"":""img/2to1/11.png"",""time"":1098},{""stimulus"":""img/2to1/12.png"",""time"":1190}]","[]"
"image-keyboard-response","6","52046","0.0-5.0-1.1","63ead665638c8546d8c3a962","bdp_cybrbll","Sat Mar 25 2023 20:36:14 GMT-0400 (Eastern Daylight Time)","452445","1","3","","null","","","","observe","","img/1to3/1.png","null","224","501","0.5","0.5","1","2","",""
"animation","7","53345","0.0-5.0-2.1","63ead665638c8546d8c3a962","bdp_cybrbll","Sat Mar 25 2023 20:36:14 GMT-0400 (Eastern Daylight Time)","452445","1","3","","","","","","","","","","224","","","","1","2","[{""stimulus"":""img/1to2/1.png"",""time"":100},{""stimulus"":""img/1to2/2.png"",""time"":206},{""stimulus"":""img/1to2/3.png"",""time"":304},{""stimulus"":""img/1to2/4.png"",""time"":402},{""stimulus"":""img/1to2/5.png"",""time"":499},{""stimulus"":""img/1to2/6.png"",""time"":598},{""stimulus"":""img/1to2/7.png"",""time"":700},{""stimulus"":""img/1to2/8.png"",""time"":798},{""stimulus"":""img/1to2/9.png"",""time"":897},{""stimulus"":""img/1to2/10.png"",""time"":995},{""stimulus"":""img/1to2/11.png"",""time"":1095},{""stimulus"":""img/1to2/12.png"",""time"":1193}]","[]"
"image-keyboard-response","8","54161","0.0-5.0-1.2","63ead665638c8546d8c3a962","bdp_cybrbll","Sat Mar 25 2023 20:36:14 GMT-0400 (Eastern Daylight Time)","452445","1","3","","814","","","","choice","","img/2to1/1.png","1","223","216","0.5","0.5","2","1","",""
"animation","9","55455","0.0-5.0-2.2","63ead665638c8546d8c3a962","bdp_cybrbll","Sat Mar 25 2023 20:36:14 GMT-0400 (Eastern Daylight Time)","452445","1","3","","","","","","","","","","223","","","","2","1","[{""stimulus"":""img/2to1/1.png"",""time"":104},{""stimulus"":""img/2to1/2.png"",""time"":204},{""stimulus"":""img/2to1/3.png"",""time"":299},{""stimulus"":""img/2to1/4.png"",""time"":406},{""stimulus"":""img/2to1/5.png"",""time"":496},{""stimulus"":""img/2to1/6.png"",""time"":595},{""stimulus"":""img/2to1/7.png"",""time"":695},{""stimulus"":""img/2to1/8.png"",""time"":796},{""stimulus"":""img/2to1/9.png"",""time"":897},{""stimulus"":""img/2to1/10.png"",""time"":998},{""stimulus"":""img/2to1/11.png"",""time"":1096},{""stimulus"":""img/2to1/12.png"",""time"":1192}]","[]"
"image-keyboard-response","10","55840","0.0-5.0-1.3","63ead665638c8546d8c3a962","bdp_cybrbll","Sat Mar 25 2023 20:36:14 GMT-0400 (Eastern Daylight Time)","452445","1","3","","null","","","","observe","","img/1to3/1.png","null","222","379","0.5","0.5","1","2","",""
"animation","11","57130","0.0-5.0-2.3","63ead665638c8546d8c3a962","bdp_cybrbll","Sat Mar 25 2023 20:36:14 GMT-0400 (Eastern Daylight Time)","452445","1","3","","","","","","","","","","222","","","","1","2","[{""stimulus"":""img/1to2/1.png"",""time"":101},{""stimulus"":""img/1to2/2.png"",""time"":200},{""stimulus"":""img/1to2/3.png"",""time"":300},{""stimulus"":""img/1to2/4.png"",""time"":400},{""stimulus"":""img/1to2/5.png"",""time"":498},{""stimulus"":""img/1to2/6.png"",""time"":599},{""stimulus"":""img/1to2/7.png"",""time"":698},{""stimulus"":""img/1to2/8.png"",""time"":797},{""stimulus"":""img/1to2/9.png"",""time"":898},{""stimulus"":""img/1to2/10.png"",""time"":997},{""stimulus"":""img/1to2/11.png"",""time"":1090},{""stimulus"":""img/1to2/12.png"",""time"":1196}]","[]"
"image-keyboard-response","12","57820","0.0-5.0-1.4","63ead665638c8546d8c3a962","bdp_cybrbll","Sat Mar 25 2023 20:36:14 GMT-0400 (Eastern Daylight Time)","452445","1","3","","688","","","","choice","","img/2to1/1.png","2","221","337","0.5","0.5","2","3","",""
"animation","13","59108","0.0-5.0-2.4","63ead665638c8546d8c3a962","bdp_cybrbll","Sat Mar 25 2023 20:36:14 GMT-0400 (Eastern Daylight Time)","452445","1","3","","","","","","","","","","221","","","","2","3","[{""stimulus"":""img/2to3/1.png"",""time"":100},{""stimulus"":""img/2to3/2.png"",""time"":202},{""stimulus"":""img/2to3/3.png"",""time"":301},{""stimulus"":""img/2to3/4.png"",""time"":399},{""stimulus"":""img/2to3/5.png"",""time"":497},{""stimulus"":""img/2to3/6.png"",""time"":596},{""stimulus"":""img/2to3/7.png"",""time"":702},{""stimulus"":""img/2to3/8.png"",""time"":793},{""stimulus"":""img/2to3/9.png"",""time"":900},{""stimulus"":""img/2to3/10.png"",""time"":993},{""stimulus"":""img/2to3/11.png"",""time"":1091},{""stimulus"":""img/2to3/12.png"",""time"":1189}]","[]"
"image-keyboard-response","14","59704","0.0-5.0-1.5","63ead665638c8546d8c3a962","bdp_cybrbll","Sat Mar 25 2023 20:36:14 GMT-0400 (Eastern Daylight Time)","452445","1","3","","null","","","","observe","","img/3to2/1.png","null","220","589","0.5","0.5","3","2","",""
"animation","15","60997","0.0-5.0-2.5","63ead665638c8546d8c3a962","bdp_cybrbll","Sat Mar 25 2023 20:36:14 GMT-0400 (Eastern Daylight Time)","452445","1","3","","","","","","","","","","220","","","","3","2","[{""stimulus"":""img/3to2/1.png"",""time"":101},{""stimulus"":""img/3to2/2.png"",""time"":200},{""stimulus"":""img/3to2/3.png"",""time"":300},{""stimulus"":""img/3to2/4.png"",""time"":400},{""stimulus"":""img/3to2/5.png"",""time"":499},{""stimulus"":""img/3to2/6.png"",""time"":597},{""stimulus"":""img/3to2/7.png"",""time"":702},{""stimulus"":""img/3to2/8.png"",""time"":801},{""stimulus"":""img/3to2/9.png"",""time"":900},{""stimulus"":""img/3to2/10.png"",""time"":999},{""stimulus"":""img/3to2/11.png"",""time"":1106},{""stimulus"":""img/3to2/12.png"",""time"":1195}]","[]"
"image-keyboard-response","16","61360","0.0-5.0-1.6","63ead665638c8546d8c3a962","bdp_cybrbll","Sat Mar 25 2023 20:36:14 GMT-0400 (Eastern Daylight Time)","452445","1","3","","362","","","","choice","","img/2to1/1.png","2","219","744","0.5","0.5","2","3","",""
"animation","17","62650","0.0-5.0-2.6","63ead665638c8546d8c3a962","bdp_cybrbll","Sat Mar 25 2023 20:36:14 GMT-0400 (Eastern Daylight Time)","452445","1","3","","","","","","","","","","219","","","","2","3","[{""stimulus"":""img/2to3/1.png"",""time"":102},{""stimulus"":""img/2to3/2.png"",""time"":200},{""stimulus"":""img/2to3/3.png"",""time"":307},{""stimulus"":""img/2to3/4.png"",""time"":402},{""stimulus"":""img/2to3/5.png"",""time"":501},{""stimulus"":""img/2to3/6.png"",""time"":600},{""stimulus"":""img/2to3/7.png"",""time"":700},{""stimulus"":""img/2to3/8.png"",""time"":799},{""stimulus"":""img/2to3/9.png"",""time"":899},{""stimulus"":""img/2to3/10.png"",""time"":998},{""stimulus"":""img/2to3/11.png"",""time"":1090},{""stimulus"":""img/2to3/12.png"",""time"":1190}]","[]"
"image-keyboard-response","18","63130","0.0-5.0-1.7","63ead665638c8546d8c3a962","bdp_cybrbll","Sat Mar 25 2023 20:36:14 GMT-0400 (Eastern Daylight Time)","452445","1","3","","null","","","","observe","","img/3to2/1.png","null","218","471","0.5","0.5","3","2","",""
"animation","19","64419","0.0-5.0-2.7","63ead665638c8546d8c3a962","bdp_cybrbll","Sat Mar 25 2023 20:36:14 GMT-0400 (Eastern Daylight Time)","452445","1","3","","","","","","","","","","218","","","","3","2","[{""stimulus"":""img/3to2/1.png"",""time"":100},{""stimulus"":""img/3to2/2.png"",""time"":200},{""stimulus"":""img/3to2/3.png"",""time"":305},{""stimulus"":""img/3to2/4.png"",""time"":402},{""stimulus"":""img/3to2/5.png"",""time"":510},{""stimulus"":""img/3to2/6.png"",""time"":600},{""stimulus"":""img/3to2/7.png"",""time"":706},{""stimulus"":""img/3to2/8.png"",""time"":799},{""stimulus"":""img/3to2/9.png"",""time"":898},{""stimulus"":""img/3to2/10.png"",""time"":997},{""stimulus"":""img/3to2/11.png"",""time"":1089},{""stimulus"":""img/3to2/12.png"",""time"":1197}]","[]"
"image-keyboard-response","20","64721","0.0-5.0-1.8","63ead665638c8546d8c3a962","bdp_cybrbll","Sat Mar 25 2023 20:36:14 GMT-0400 (Eastern Daylight Time)","452445","1","3","","301","","","","choice","","img/2to1/1.png","1","217","329","0.5","0.5","2","1","",""
"animation","21","66010","0.0-5.0-2.8","63ead665638c8546d8c3a962","bdp_cybrbll","Sat Mar 25 2023 20:36:14 GMT-0400 (Eastern Daylight Time)","452445","1","3","","","","","","","","","","217","","","","2","1","[{""stimulus"":""img/2to1/1.png"",""time"":102},{""stimulus"":""img/2to1/2.png"",""time"":202},{""stimulus"":""img/2to1/3.png"",""time"":302},{""stimulus"":""img/2to1/4.png"",""time"":400},{""stimulus"":""img/2to1/5.png"",""time"":498},{""stimulus"":""img/2to1/6.png"",""time"":597},{""stimulus"":""img/2to1/7.png"",""time"":696},{""stimulus"":""img/2to1/8.png"",""time"":795},{""stimulus"":""img/2to1/9.png"",""time"":894},{""stimulus"":""img/2to1/10.png"",""time"":996},{""stimulus"":""img/2to1/11.png"",""time"":1094},{""stimulus"":""img/2to1/12.png"",""time"":1193}]","[]"
"image-keyboard-response","22","66261","0.0-5.0-1.9","63ead665638c8546d8c3a962","bdp_cybrbll","Sat Mar 25 2023 20:36:14 GMT-0400 (Eastern Daylight Time)","452445","1","3","","null","","","","observe","","img/1to3/1.png","null","216","243","0.5","0.5","1","3","",""
"animation","23","67549","0.0-5.0-2.9","63ead665638c8546d8c3a962","bdp_cybrbll","Sat Mar 25 2023 20:36:14 GMT-0400 (Eastern Daylight Time)","452445","1","3","","","","","","","","","","216","","","","1","3","[{""stimulus"":""img/1to3/1.png"",""time"":101},{""stimulus"":""img/1to3/2.png"",""time"":202},{""stimulus"":""img/1to3/3.png"",""time"":302},{""stimulus"":""img/1to3/4.png"",""time"":401},{""stimulus"":""img/1to3/5.png"",""time"":499},{""stimulus"":""img/1to3/6.png"",""time"":598},{""stimulus"":""img/1to3/7.png"",""time"":699},{""stimulus"":""img/1to3/8.png"",""time"":797},{""stimulus"":""img/1to3/9.png"",""time"":896},{""stimulus"":""img/1to3/10.png"",""time"":993},{""stimulus"":""img/1to3/11.png"",""time"":1092},{""stimulus"":""img/1to3/12.png"",""time"":1191}]","[]"
"image-keyboard-response","24","68048","0.0-5.0-1.10","63ead665638c8546d8c3a962","bdp_cybrbll","Sat Mar 25 2023 20:36:14 GMT-0400 (Eastern Daylight Time)","452445","1","3","","null","","","","observe","","img/3to2/1.png","null","215","490","0.5","0.5","3","1","",""
"animation","25","69340","0.0-5.0-2.10","63ead665638c8546d8c3a962","bdp_cybrbll","Sat Mar 25 2023 20:36:14 GMT-0400 (Eastern Daylight Time)","452445","1","3","","","","","","","","","","215","","","","3","1","[{""stimulus"":""img/3to1/1.png"",""time"":104},{""stimulus"":""img/3to1/2.png"",""time"":204},{""stimulus"":""img/3to1/3.png"",""time"":303},{""stimulus"":""img/3to1/4.png"",""time"":401},{""stimulus"":""img/3to1/5.png"",""time"":499},{""stimulus"":""img/3to1/6.png"",""time"":597},{""stimulus"":""img/3to1/7.png"",""time"":696},{""stimulus"":""img/3to1/8.png"",""time"":795},{""stimulus"":""img/3to1/9.png"",""time"":893},{""stimulus"":""img/3to1/10.png"",""time"":993},{""stimulus"":""img/3to1/11.png"",""time"":1092},{""stimulus"":""img/3to1/12.png"",""time"":1192}]","[]"
"image-keyboard-response","26","70697","0.0-5.0-1.11","63ead665638c8546d8c3a962","bdp_cybrbll","Sat Mar 25 2023 20:36:14 GMT-0400 (Eastern Daylight Time)","452445","1","3","","null","","","","observe","","img/1to3/1.png","null","214","1353","0.5","0.5","1","3","",""
"animation","27","71988","0.0-5.0-2.11","63ead665638c8546d8c3a962","bdp_cybrbll","Sat Mar 25 2023 20:36:14 GMT-0400 (Eastern Daylight Time)","452445","1","3","","","","","","","","","","214","","","","1","3","[{""stimulus"":""img/1to3/1.png"",""time"":100},{""stimulus"":""img/1to3/2.png"",""time"":202},{""stimulus"":""img/1to3/3.png"",""time"":302},{""stimulus"":""img/1to3/4.png"",""time"":401},{""stimulus"":""img/1to3/5.png"",""time"":502},{""stimulus"":""img/1to3/6.png"",""time"":601},{""stimulus"":""img/1to3/7.png"",""time"":700},{""stimulus"":""img/1to3/8.png"",""time"":798},{""stimulus"":""img/1to3/9.png"",""time"":898},{""stimulus"":""img/1to3/10.png"",""time"":997},{""stimulus"":""img/1to3/11.png"",""time"":1098},{""stimulus"":""img/1to3/12.png"",""time"":1189}]","[]"
"image-keyboard-response","28","72459","0.0-5.0-1.12","63ead665638c8546d8c3a962","bdp_cybrbll","Sat Mar 25 2023 20:36:14 GMT-0400 (Eastern Daylight Time)","452445","1","3","","null","","","","observe","","img/3to2/1.png","null","213","458","0.5","0.5","3","1","",""
"animation","29","73747","0.0-5.0-2.12","63ead665638c8546d8c3a962","bdp_cybrbll","Sat Mar 25 2023 20:36:14 GMT-0400 (Eastern Daylight Time)","452445","1","3","","","","","","","","","","213","","","","3","1","[{""stimulus"":""img/3to1/1.png"",""time"":108},{""stimulus"":""img/3to1/2.png"",""time"":207},{""stimulus"":""img/3to1/3.png"",""time"":306},{""stimulus"":""img/3to1/4.png"",""time"":405},{""stimulus"":""img/3to1/5.png"",""time"":497},{""stimulus"":""img/3to1/6.png"",""time"":600},{""stimulus"":""img/3to1/7.png"",""time"":701},{""stimulus"":""img/3to1/8.png"",""time"":802},{""stimulus"":""img/3to1/9.png"",""time"":900},{""stimulus"":""img/3to1/10.png"",""time"":992},{""stimulus"":""img/3to1/11.png"",""time"":1098},{""stimulus"":""img/3to1/12.png"",""time"":1189}]","[]"
"image-keyboard-response","30","74470","0.0-5.0-1.13","63ead665638c8546d8c3a962","bdp_cybrbll","Sat Mar 25 2023 20:36:14 GMT-0400 (Eastern Daylight Time)","452445","1","3","","null","","","","observe","","img/1to3/1.png","null","212","714","0.5","0.5","1","3","",""
"animation","31","75765","0.0-5.0-2.13","63ead665638c8546d8c3a962","bdp_cybrbll","Sat Mar 25 2023 20:36:14 GMT-0400 (Eastern Daylight Time)","452445","1","3","","","","","","","","","","212","","","","1","3","[{""stimulus"":""img/1to3/1.png"",""time"":104},{""stimulus"":""img/1to3/2.png"",""time"":202},{""stimulus"":""img/1to3/3.png"",""time"":300},{""stimulus"":""img/1to3/4.png"",""time"":398},{""stimulus"":""img/1to3/5.png"",""time"":498},{""stimulus"":""img/1to3/6.png"",""time"":598},{""stimulus"":""img/1to3/7.png"",""time"":696},{""stimulus"":""img/1to3/8.png"",""time"":802},{""stimulus"":""img/1to3/9.png"",""time"":899},{""stimulus"":""img/1to3/10.png"",""time"":997},{""stimulus"":""img/1to3/11.png"",""time"":1097},{""stimulus"":""img/1to3/12.png"",""time"":1203}]","[]"
"image-keyboard-response","32","76197","0.0-5.0-1.14","63ead665638c8546d8c3a962","bdp_cybrbll","Sat Mar 25 2023 20:36:14 GMT-0400 (Eastern Daylight Time)","452445","1","3","","null","","","","observe","","img/3to2/1.png","null","211","423","0.5","0.5","3","2","",""
"animation","33","77487","0.0-5.0-2.14","63ead665638c8546d8c3a962","bdp_cybrbll","Sat Mar 25 2023 20:36:14 GMT-0400 (Eastern Daylight Time)","452445","1","3","","","","","","","","","","211","","","","3","2","[{""stimulus"":""img/3to2/1.png"",""time"":101},{""stimulus"":""img/3to2/2.png"",""time"":201},{""stimulus"":""img/3to2/3.png"",""time"":310},{""stimulus"":""img/3to2/4.png"",""time"":400},{""stimulus"":""img/3to2/5.png"",""time"":498},{""stimulus"":""img/3to2/6.png"",""time"":599},{""stimulus"":""img/3to2/7.png"",""time"":698},{""stimulus"":""img/3to2/8.png"",""time"":797},{""stimulus"":""img/3to2/9.png"",""time"":897},{""stimulus"":""img/3to2/10.png"",""time"":992},{""stimulus"":""img/3to2/11.png"",""time"":1090},{""stimulus"":""img/3to2/12.png"",""time"":1197}]","[]"
"image-keyboard-response","34","77555","0.0-5.0-1.15","63ead665638c8546d8c3a962","bdp_cybrbll","Sat Mar 25 2023 20:36:14 GMT-0400 (Eastern Daylight Time)","452445","1","3","","67","","","","choice","","img/2to1/1.png","1","210","672","0.5","0.5","2","1","",""
"animation","35","78855","0.0-5.0-2.15","63ead665638c8546d8c3a962","bdp_cybrbll","Sat Mar 25 2023 20:36:14 GMT-0400 (Eastern Daylight Time)","452445","1","3","","","","","","","","","","210","","","","2","1","[{""stimulus"":""img/2to1/1.png"",""time"":109},{""stimulus"":""img/2to1/2.png"",""time"":200},{""stimulus"":""img/2to1/3.png"",""time"":307},{""stimulus"":""img/2to1/4.png"",""time"":397},{""stimulus"":""img/2to1/5.png"",""time"":495},{""stimulus"":""img/2to1/6.png"",""time"":602},{""stimulus"":""img/2to1/7.png"",""time"":694},{""stimulus"":""img/2to1/8.png"",""time"":795},{""stimulus"":""img/2to1/9.png"",""time"":892},{""stimulus"":""img/2to1/10.png"",""time"":991},{""stimulus"":""img/2to1/11.png"",""time"":1093},{""stimulus"":""img/2to1/12.png"",""time"":1192}]","[]"
"image-keyboard-response","36","79082","0.0-5.0-1.16","63ead665638c8546d8c3a962","bdp_cybrbll","Sat Mar 25 2023 20:36:14 GMT-0400 (Eastern Daylight Time)","452445","1","3","","null","","","","observe","","img/1to3/1.png","null","209","226","0.5","0.5","1","2","",""
"animation","37","80375","0.0-5.0-2.16","63ead665638c8546d8c3a962","bdp_cybrbll","Sat Mar 25 2023 20:36:14 GMT-0400 (Eastern Daylight Time)","452445","1","3","","","","","","","","","","209","","","","1","2","[{""stimulus"":""img/1to2/1.png"",""time"":106},{""stimulus"":""img/1to2/2.png"",""time"":206},{""stimulus"":""img/1to2/3.png"",""time"":297},{""stimulus"":""img/1to2/4.png"",""time"":404},{""stimulus"":""img/1to2/5.png"",""time"":511},{""stimulus"":""img/1to2/6.png"",""time"":601},{""stimulus"":""img/1to2/7.png"",""time"":694},{""stimulus"":""img/1to2/8.png"",""time"":795},{""stimulus"":""img/1to2/9.png"",""time"":892},{""stimulus"":""img/1to2/10.png"",""time"":993},{""stimulus"":""img/1to2/11.png"",""time"":1093},{""stimulus"":""img/1to2/12.png"",""time"":1192}]","[]"
"image-keyboard-response","38","80862","0.0-5.0-1.17","63ead665638c8546d8c3a962","bdp_cybrbll","Sat Mar 25 2023 20:36:14 GMT-0400 (Eastern Daylight Time)","452445","1","3","","486","","","","choice","","img/2to1/1.png","2","208","619","0.5","0.5","2","3","",""
"animation","39","82157","0.0-5.0-2.17","63ead665638c8546d8c3a962","bdp_cybrbll","Sat Mar 25 2023 20:36:14 GMT-0400 (Eastern Daylight Time)","452445","1","3","","","","","","","","","","208","","","","2","3","[{""stimulus"":""img/2to3/1.png"",""time"":100},{""stimulus"":""img/2to3/2.png"",""time"":201},{""stimulus"":""img/2to3/3.png"",""time"":309},{""stimulus"":""img/2to3/4.png"",""time"":398},{""stimulus"":""img/2to3/5.png"",""time"":496},{""stimulus"":""img/2to3/6.png"",""time"":595},{""stimulus"":""img/2to3/7.png"",""time"":695},{""stimulus"":""img/2to3/8.png"",""time"":794},{""stimulus"":""img/2to3/9.png"",""time"":893},{""stimulus"":""img/2to3/10.png"",""time"":992},{""stimulus"":""img/2to3/11.png"",""time"":1091},{""stimulus"":""img/2to3/12.png"",""time"":1196}]","[]"
"image-keyboard-response","40","82383","0.0-5.0-1.18","63ead665638c8546d8c3a962","bdp_cybrbll","Sat Mar 25 2023 20:36:14 GMT-0400 (Eastern Daylight Time)","452445","1","3","","null","","","","observe","","img/3to2/1.png","null","207","222","0.5","0.5","3","2","",""
"animation","41","83678","0.0-5.0-2.18","63ead665638c8546d8c3a962","bdp_cybrbll","Sat Mar 25 2023 20:36:14 GMT-0400 (Eastern Daylight Time)","452445","1","3","","","","","","","","","","207","","","","3","2","[{""stimulus"":""img/3to2/1.png"",""time"":103},{""stimulus"":""img/3to2/2.png"",""time"":202},{""stimulus"":""img/3to2/3.png"",""time"":310},{""stimulus"":""img/3to2/4.png"",""time"":400},{""stimulus"":""img/3to2/5.png"",""time"":510},{""stimulus"":""img/3to2/6.png"",""time"":600},{""stimulus"":""img/3to2/7.png"",""time"":695},{""stimulus"":""img/3to2/8.png"",""time"":804},{""stimulus"":""img/3to2/9.png"",""time"":894},{""stimulus"":""img/3to2/10.png"",""time"":993},{""stimulus"":""img/3to2/11.png"",""time"":1094},{""stimulus"":""img/3to2/12.png"",""time"":1193}]","[]"
"image-keyboard-response","42","83815","0.0-5.0-1.19","63ead665638c8546d8c3a962","bdp_cybrbll","Sat Mar 25 2023 20:36:14 GMT-0400 (Eastern Daylight Time)","452445","1","3","","136","","","","choice","","img/2to1/1.png","1","206","680","0.5","0.5","2","1","",""
"animation","43","85108","0.0-5.0-2.19","63ead665638c8546d8c3a962","bdp_cybrbll","Sat Mar 25 2023 20:36:14 GMT-0400 (Eastern Daylight Time)","452445","1","3","","","","","","","","","","206","","","","2","1","[{""stimulus"":""img/2to1/1.png"",""time"":102},{""stimulus"":""img/2to1/2.png"",""time"":203},{""stimulus"":""img/2to1/3.png"",""time"":303},{""stimulus"":""img/2to1/4.png"",""time"":404},{""stimulus"":""img/2to1/5.png"",""time"":496},{""stimulus"":""img/2to1/6.png"",""time"":602},{""stimulus"":""img/2to1/7.png"",""time"":701},{""stimulus"":""img/2to1/8.png"",""time"":800},{""stimulus"":""img/2to1/9.png"",""time"":898},{""stimulus"":""img/2to1/10.png"",""time"":997},{""stimulus"":""img/2to1/11.png"",""time"":1096},{""stimulus"":""img/2to1/12.png"",""time"":1194}]","[]"
"image-keyboard-response","44","85528","0.0-5.0-1.20","63ead665638c8546d8c3a962","bdp_cybrbll","Sat Mar 25 2023 20:36:14 GMT-0400 (Eastern Daylight Time)","452445","1","3","","null","","","","observe","","img/1to3/1.png","null","205","414","0.5","0.5","1","3","",""
"animation","45","86819","0.0-5.0-2.20","63ead665638c8546d8c3a962","bdp_cybrbll","Sat Mar 25 2023 20:36:14 GMT-0400 (Eastern Daylight Time)","452445","1","3","","","","","","","","","","205","","","","1","3","[{""stimulus"":""img/1to3/1.png"",""time"":102},{""stimulus"":""img/1to3/2.png"",""time"":200},{""stimulus"":""img/1to3/3.png"",""time"":299},{""stimulus"":""img/1to3/4.png"",""time"":398},{""stimulus"":""img/1to3/5.png"",""time"":497},{""stimulus"":""img/1to3/6.png"",""time"":597},{""stimulus"":""img/1to3/7.png"",""time"":696},{""stimulus"":""img/1to3/8.png"",""time"":794},{""stimulus"":""img/1to3/9.png"",""time"":893},{""stimulus"":""img/1to3/10.png"",""time"":995},{""stimulus"":""img/1to3/11.png"",""time"":1093},{""stimulus"":""img/1to3/12.png"",""time"":1192}]","[]"
"image-keyboard-response","46","87412","0.0-5.0-1.21","63ead665638c8546d8c3a962","bdp_cybrbll","Sat Mar 25 2023 20:36:14 GMT-0400 (Eastern Daylight Time)","452445","1","3","","null","","","","observe","","img/3to2/1.png","null","204","589","0.5","0.5","3","1","",""
"animation","47","88704","0.0-5.0-2.21","63ead665638c8546d8c3a962","bdp_cybrbll","Sat Mar 25 2023 20:36:14 GMT-0400 (Eastern Daylight Time)","452445","1","3","","","","","","","","","","204","","","","3","1","[{""stimulus"":""img/3to1/1.png"",""time"":105},{""stimulus"":""img/3to1/2.png"",""time"":204},{""stimulus"":""img/3to1/3.png"",""time"":303},{""stimulus"":""img/3to1/4.png"",""time"":403},{""stimulus"":""img/3to1/5.png"",""time"":502},{""stimulus"":""img/3to1/6.png"",""time"":602},{""stimulus"":""img/3to1/7.png"",""time"":696},{""stimulus"":""img/3to1/8.png"",""time"":796},{""stimulus"":""img/3to1/9.png"",""time"":896},{""stimulus"":""img/3to1/10.png"",""time"":995},{""stimulus"":""img/3to1/11.png"",""time"":1093},{""stimulus"":""img/3to1/12.png"",""time"":1193}]","[]"
"image-keyboard-response","48","89586","0.0-5.0-1.22","63ead665638c8546d8c3a962","bdp_cybrbll","Sat Mar 25 2023 20:36:14 GMT-0400 (Eastern Daylight Time)","452445","1","3","","null","","","","observe","","img/1to3/1.png","null","203","880","0.5","0.5","1","2","",""
"animation","49","90877","0.0-5.0-2.22","63ead665638c8546d8c3a962","bdp_cybrbll","Sat Mar 25 2023 20:36:14 GMT-0400 (Eastern Daylight Time)","452445","1","3","","","","","","","","","","203","","","","1","2","[{""stimulus"":""img/1to2/1.png"",""time"":102},{""stimulus"":""img/1to2/2.png"",""time"":202},{""stimulus"":""img/1to2/3.png"",""time"":307},{""stimulus"":""img/1to2/4.png"",""time"":397},{""stimulus"":""img/1to2/5.png"",""time"":498},{""stimulus"":""img/1to2/6.png"",""time"":596},{""stimulus"":""img/1to2/7.png"",""time"":695},{""stimulus"":""img/1to2/8.png"",""time"":793},{""stimulus"":""img/1to2/9.png"",""time"":893},{""stimulus"":""img/1to2/10.png"",""time"":992},{""stimulus"":""img/1to2/11.png"",""time"":1093},{""stimulus"":""img/1to2/12.png"",""time"":1192}]","[]"
"image-keyboard-response","50","91258","0.0-5.0-1.23","63ead665638c8546d8c3a962","bdp_cybrbll","Sat Mar 25 2023 20:36:14 GMT-0400 (Eastern Daylight Time)","452445","1","3","","380","","","","choice","","img/2to1/1.png","2","202","739","0.5","0.5","2","3","",""
"animation","51","92546","0.0-5.0-2.23","63ead665638c8546d8c3a962","bdp_cybrbll","Sat Mar 25 2023 20:36:14 GMT-0400 (Eastern Daylight Time)","452445","1","3","","","","","","","","","","202","","","","2","3","[{""stimulus"":""img/2to3/1.png"",""time"":106},{""stimulus"":""img/2to3/2.png"",""time"":207},{""stimulus"":""img/2to3/3.png"",""time"":299},{""stimulus"":""img/2to3/4.png"",""time"":401},{""stimulus"":""img/2to3/5.png"",""time"":502},{""stimulus"":""img/2to3/6.png"",""time"":602},{""stimulus"":""img/2to3/7.png"",""time"":701},{""stimulus"":""img/2to3/8.png"",""time"":800},{""stimulus"":""img/2to3/9.png"",""time"":892},{""stimulus"":""img/2to3/10.png"",""time"":999},{""stimulus"":""img/2to3/11.png"",""time"":1098},{""stimulus"":""img/2to3/12.png"",""time"":1198}]","[]"
"image-keyboard-response","52","93165","0.0-5.0-1.24","63ead665638c8546d8c3a962","bdp_cybrbll","Sat Mar 25 2023 20:36:14 GMT-0400 (Eastern Daylight Time)","452445","1","3","","null","","","","observe","","img/3to2/1.png","null","201","618","0.5","0.5","3","2","",""
"animation","53","94458","0.0-5.0-2.24","63ead665638c8546d8c3a962","bdp_cybrbll","Sat Mar 25 2023 20:36:14 GMT-0400 (Eastern Daylight Time)","452445","1","3","","","","","","","","","","201","","","","3","2","[{""stimulus"":""img/3to2/1.png"",""time"":100},{""stimulus"":""img/3to2/2.png"",""time"":203},{""stimulus"":""img/3to2/3.png"",""time"":303},{""stimulus"":""img/3to2/4.png"",""time"":402},{""stimulus"":""img/3to2/5.png"",""time"":502},{""stimulus"":""img/3to2/6.png"",""time"":596},{""stimulus"":""img/3to2/7.png"",""time"":700},{""stimulus"":""img/3to2/8.png"",""time"":800},{""stimulus"":""img/3to2/9.png"",""time"":894},{""stimulus"":""img/3to2/10.png"",""time"":994},{""stimulus"":""img/3to2/11.png"",""time"":1094},{""stimulus"":""img/3to2/12.png"",""time"":1193}]","[]"
"image-keyboard-response","54","94593","0.0-5.0-1.25","63ead665638c8546d8c3a962","bdp_cybrbll","Sat Mar 25 2023 20:36:14 GMT-0400 (Eastern Daylight Time)","452445","1","3","","134","","","","choice","","img/2to1/1.png","1","200","415","0.5","0.5","2","1","",""
"animation","55","95889","0.0-5.0-2.25","63ead665638c8546d8c3a962","bdp_cybrbll","Sat Mar 25 2023 20:36:14 GMT-0400 (Eastern Daylight Time)","452445","1","3","","","","","","","","","","200","","","","2","1","[{""stimulus"":""img/2to1/1.png"",""time"":106},{""stimulus"":""img/2to1/2.png"",""time"":205},{""stimulus"":""img/2to1/3.png"",""time"":305},{""stimulus"":""img/2to1/4.png"",""time"":398},{""stimulus"":""img/2to1/5.png"",""time"":496},{""stimulus"":""img/2to1/6.png"",""time"":603},{""stimulus"":""img/2to1/7.png"",""time"":696},{""stimulus"":""img/2to1/8.png"",""time"":795},{""stimulus"":""img/2to1/9.png"",""time"":895},{""stimulus"":""img/2to1/10.png"",""time"":995},{""stimulus"":""img/2to1/11.png"",""time"":1096},{""stimulus"":""img/2to1/12.png"",""time"":1195}]","[]"
"image-keyboard-response","56","96211","0.0-5.0-1.26","63ead665638c8546d8c3a962","bdp_cybrbll","Sat Mar 25 2023 20:36:14 GMT-0400 (Eastern Daylight Time)","452445","1","3","","null","","","","observe","","img/1to3/1.png","null","199","314","0.5","0.5","1","3","",""
"animation","57","97498","0.0-5.0-2.26","63ead665638c8546d8c3a962","bdp_cybrbll","Sat Mar 25 2023 20:36:14 GMT-0400 (Eastern Daylight Time)","452445","1","3","","","","","","","","","","199","","","","1","3","[{""stimulus"":""img/1to3/1.png"",""time"":107},{""stimulus"":""img/1to3/2.png"",""time"":206},{""stimulus"":""img/1to3/3.png"",""time"":305},{""stimulus"":""img/1to3/4.png"",""time"":404},{""stimulus"":""img/1to3/5.png"",""time"":503},{""stimulus"":""img/1to3/6.png"",""time"":602},{""stimulus"":""img/1to3/7.png"",""time"":702},{""stimulus"":""img/1to3/8.png"",""time"":793},{""stimulus"":""img/1to3/9.png"",""time"":893},{""stimulus"":""img/1to3/10.png"",""time"":996},{""stimulus"":""img/1to3/11.png"",""time"":1096},{""stimulus"":""img/1to3/12.png"",""time"":1194}]","[]"
"image-keyboard-response","58","97750","0.0-5.0-1.27","63ead665638c8546d8c3a962","bdp_cybrbll","Sat Mar 25 2023 20:36:14 GMT-0400 (Eastern Daylight Time)","452445","1","3","","null","","","","observe","","img/3to2/1.png","null","198","238","0.5","0.5","3","2","",""
"animation","59","99038","0.0-5.0-2.27","63ead665638c8546d8c3a962","bdp_cybrbll","Sat Mar 25 2023 20:36:14 GMT-0400 (Eastern Daylight Time)","452445","1","3","","","","","","","","","","198","","","","3","2","[{""stimulus"":""img/3to2/1.png"",""time"":100},{""stimulus"":""img/3to2/2.png"",""time"":207},{""stimulus"":""img/3to2/3.png"",""time"":299},{""stimulus"":""img/3to2/4.png"",""time"":399},{""stimulus"":""img/3to2/5.png"",""time"":503},{""stimulus"":""img/3to2/6.png"",""time"":596},{""stimulus"":""img/3to2/7.png"",""time"":694},{""stimulus"":""img/3to2/8.png"",""time"":795},{""stimulus"":""img/3to2/9.png"",""time"":896},{""stimulus"":""img/3to2/10.png"",""time"":996},{""stimulus"":""img/3to2/11.png"",""time"":1094},{""stimulus"":""img/3to2/12.png"",""time"":1194}]","[]"
"image-keyboard-response","60","99296","0.0-5.0-1.28","63ead665638c8546d8c3a962","bdp_cybrbll","Sat Mar 25 2023 20:36:14 GMT-0400 (Eastern Daylight Time)","452445","1","3","","257","","","","choice","","img/2to1/1.png","1","197","224","0.5","0.5","2","1","",""
"animation","61","100591","0.0-5.0-2.28","63ead665638c8546d8c3a962","bdp_cybrbll","Sat Mar 25 2023 20:36:14 GMT-0400 (Eastern Daylight Time)","452445","1","3","","","","","","","","","","197","","","","2","1","[{""stimulus"":""img/2to1/1.png"",""time"":100},{""stimulus"":""img/2to1/2.png"",""time"":201},{""stimulus"":""img/2to1/3.png"",""time"":300},{""stimulus"":""img/2to1/4.png"",""time"":399},{""stimulus"":""img/2to1/5.png"",""time"":498},{""stimulus"":""img/2to1/6.png"",""time"":597},{""stimulus"":""img/2to1/7.png"",""time"":705},{""stimulus"":""img/2to1/8.png"",""time"":795},{""stimulus"":""img/2to1/9.png"",""time"":895},{""stimulus"":""img/2to1/10.png"",""time"":1000},{""stimulus"":""img/2to1/11.png"",""time"":1098},{""stimulus"":""img/2to1/12.png"",""time"":1196}]","[]"
"image-keyboard-response","62","101362","0.0-5.0-1.29","63ead665638c8546d8c3a962","bdp_cybrbll","Sat Mar 25 2023 20:36:14 GMT-0400 (Eastern Daylight Time)","452445","1","3","","null","","","","observe","","img/1to3/1.png","null","196","765","0.5","0.5","1","3","",""
"animation","63","102654","0.0-5.0-2.29","63ead665638c8546d8c3a962","bdp_cybrbll","Sat Mar 25 2023 20:36:14 GMT-0400 (Eastern Daylight Time)","452445","1","3","","","","","","","","","","196","","","","1","3","[{""stimulus"":""img/1to3/1.png"",""time"":100},{""stimulus"":""img/1to3/2.png"",""time"":199},{""stimulus"":""img/1to3/3.png"",""time"":305},{""stimulus"":""img/1to3/4.png"",""time"":403},{""stimulus"":""img/1to3/5.png"",""time"":503},{""stimulus"":""img/1to3/6.png"",""time"":603},{""stimulus"":""img/1to3/7.png"",""time"":697},{""stimulus"":""img/1to3/8.png"",""time"":796},{""stimulus"":""img/1to3/9.png"",""time"":895},{""stimulus"":""img/1to3/10.png"",""time"":999},{""stimulus"":""img/1to3/11.png"",""time"":1092},{""stimulus"":""img/1to3/12.png"",""time"":1192}]","[]"
"image-keyboard-response","64","103454","0.0-5.0-1.30","63ead665638c8546d8c3a962","bdp_cybrbll","Sat Mar 25 2023 20:36:14 GMT-0400 (Eastern Daylight Time)","452445","1","3","","null","","","","observe","","img/3to2/1.png","null","195","791","0.5","0.5","3","2","",""
"animation","65","104745","0.0-5.0-2.30","63ead665638c8546d8c3a962","bdp_cybrbll","Sat Mar 25 2023 20:36:14 GMT-0400 (Eastern Daylight Time)","452445","1","3","","","","","","","","","","195","","","","3","2","[{""stimulus"":""img/3to2/1.png"",""time"":106},{""stimulus"":""img/3to2/2.png"",""time"":204},{""stimulus"":""img/3to2/3.png"",""time"":301},{""stimulus"":""img/3to2/4.png"",""time"":398},{""stimulus"":""img/3to2/5.png"",""time"":503},{""stimulus"":""img/3to2/6.png"",""time"":600},{""stimulus"":""img/3to2/7.png"",""time"":697},{""stimulus"":""img/3to2/8.png"",""time"":796},{""stimulus"":""img/3to2/9.png"",""time"":893},{""stimulus"":""img/3to2/10.png"",""time"":991},{""stimulus"":""img/3to2/11.png"",""time"":1091},{""stimulus"":""img/3to2/12.png"",""time"":1194}]","[]"
"image-keyboard-response","66","109460","0.0-5.0-1.31","63ead665638c8546d8c3a962","bdp_cybrbll","Sat Mar 25 2023 20:36:14 GMT-0400 (Eastern Daylight Time)","452445","1","3","","4715","","","","choice","","img/2to1/1.png","1","194","500","0.5","0.5","2","1","",""
"animation","67","110759","0.0-5.0-2.31","63ead665638c8546d8c3a962","bdp_cybrbll","Sat Mar 25 2023 20:36:14 GMT-0400 (Eastern Daylight Time)","452445","1","3","","","","","","","","","","194","","","","2","1","[{""stimulus"":""img/2to1/1.png"",""time"":105},{""stimulus"":""img/2to1/2.png"",""time"":203},{""stimulus"":""img/2to1/3.png"",""time"":301},{""stimulus"":""img/2to1/4.png"",""time"":401},{""stimulus"":""img/2to1/5.png"",""time"":502},{""stimulus"":""img/2to1/6.png"",""time"":601},{""stimulus"":""img/2to1/7.png"",""time"":701},{""stimulus"":""img/2to1/8.png"",""time"":800},{""stimulus"":""img/2to1/9.png"",""time"":899},{""stimulus"":""img/2to1/10.png"",""time"":1000},{""stimulus"":""img/2to1/11.png"",""time"":1100},{""stimulus"":""img/2to1/12.png"",""time"":1199}]","[]"
"image-keyboard-response","68","110969","0.0-5.0-1.32","63ead665638c8546d8c3a962","bdp_cybrbll","Sat Mar 25 2023 20:36:14 GMT-0400 (Eastern Daylight Time)","452445","1","3","","null","","","","observe","","img/1to3/1.png","null","193","199","0.5","0.5","1","3","",""
"animation","69","112261","0.0-5.0-2.32","63ead665638c8546d8c3a962","bdp_cybrbll","Sat Mar 25 2023 20:36:14 GMT-0400 (Eastern Daylight Time)","452445","1","3","","","","","","","","","","193","","","","1","3","[{""stimulus"":""img/1to3/1.png"",""time"":101},{""stimulus"":""img/1to3/2.png"",""time"":201},{""stimulus"":""img/1to3/3.png"",""time"":300},{""stimulus"":""img/1to3/4.png"",""time"":398},{""stimulus"":""img/1to3/5.png"",""time"":497},{""stimulus"":""img/1to3/6.png"",""time"":597},{""stimulus"":""img/1to3/7.png"",""time"":703},{""stimulus"":""img/1to3/8.png"",""time"":796},{""stimulus"":""img/1to3/9.png"",""time"":893},{""stimulus"":""img/1to3/10.png"",""time"":993},{""stimulus"":""img/1to3/11.png"",""time"":1093},{""stimulus"":""img/1to3/12.png"",""time"":1193}]","[]"
"image-keyboard-response","70","112697","0.0-5.0-1.33","63ead665638c8546d8c3a962","bdp_cybrbll","Sat Mar 25 2023 20:36:14 GMT-0400 (Eastern Daylight Time)","452445","1","3","","null","","","","observe","","img/3to2/1.png","null","192","433","0.5","0.5","3","2","",""
"animation","71","113996","0.0-5.0-2.33","63ead665638c8546d8c3a962","bdp_cybrbll","Sat Mar 25 2023 20:36:14 GMT-0400 (Eastern Daylight Time)","452445","1","3","","","","","","","","","","192","","","","3","2","[{""stimulus"":""img/3to2/1.png"",""time"":100},{""stimulus"":""img/3to2/2.png"",""time"":209},{""stimulus"":""img/3to2/3.png"",""time"":306},{""stimulus"":""img/3to2/4.png"",""time"":397},{""stimulus"":""img/3to2/5.png"",""time"":503},{""stimulus"":""img/3to2/6.png"",""time"":595},{""stimulus"":""img/3to2/7.png"",""time"":702},{""stimulus"":""img/3to2/8.png"",""time"":800},{""stimulus"":""img/3to2/9.png"",""time"":893},{""stimulus"":""img/3to2/10.png"",""time"":992},{""stimulus"":""img/3to2/11.png"",""time"":1091},{""stimulus"":""img/3to2/12.png"",""time"":1189}]","[]"
"image-keyboard-response","72","114069","0.0-5.0-1.34","63ead665638c8546d8c3a962","bdp_cybrbll","Sat Mar 25 2023 20:36:14 GMT-0400 (Eastern Daylight Time)","452445","1","3","","72","","","","choice","","img/2to1/1.png","1","191","354","0.5","0.5","2","1","",""
"animation","73","115360","0.0-5.0-2.34","63ead665638c8546d8c3a962","bdp_cybrbll","Sat Mar 25 2023 20:36:14 GMT-0400 (Eastern Daylight Time)","452445","1","3","","","","","","","","","","191","","","","2","1","[{""stimulus"":""img/2to1/1.png"",""time"":103},{""stimulus"":""img/2to1/2.png"",""time"":203},{""stimulus"":""img/2to1/3.png"",""time"":302},{""stimulus"":""img/2to1/4.png"",""time"":400},{""stimulus"":""img/2to1/5.png"",""time"":503},{""stimulus"":""img/2to1/6.png"",""time"":602},{""stimulus"":""img/2to1/7.png"",""time"":700},{""stimulus"":""img/2to1/8.png"",""time"":793},{""stimulus"":""img/2to1/9.png"",""time"":900},{""stimulus"":""img/2to1/10.png"",""time"":998},{""stimulus"":""img/2to1/11.png"",""time"":1091},{""stimulus"":""img/2to1/12.png"",""time"":1192}]","[]"
"image-keyboard-response","74","115579","0.0-5.0-1.35","63ead665638c8546d8c3a962","bdp_cybrbll","Sat Mar 25 2023 20:36:14 GMT-0400 (Eastern Daylight Time)","452445","1","3","","null","","","","observe","","img/1to3/1.png","null","190","212","0.5","0.5","1","2","",""
"animation","75","116870","0.0-5.0-2.35","63ead665638c8546d8c3a962","bdp_cybrbll","Sat Mar 25 2023 20:36:14 GMT-0400 (Eastern Daylight Time)","452445","1","3","","","","","","","","","","190","","","","1","2","[{""stimulus"":""img/1to2/1.png"",""time"":100},{""stimulus"":""img/1to2/2.png"",""time"":199},{""stimulus"":""img/1to2/3.png"",""time"":301},{""stimulus"":""img/1to2/4.png"",""time"":400},{""stimulus"":""img/1to2/5.png"",""time"":500},{""stimulus"":""img/1to2/6.png"",""time"":601},{""stimulus"":""img/1to2/7.png"",""time"":701},{""stimulus"":""img/1to2/8.png"",""time"":799},{""stimulus"":""img/1to2/9.png"",""time"":898},{""stimulus"":""img/1to2/10.png"",""time"":991},{""stimulus"":""img/1to2/11.png"",""time"":1093},{""stimulus"":""img/1to2/12.png"",""time"":1192}]","[]"
"image-keyboard-response","76","117603","0.0-5.0-1.36","63ead665638c8546d8c3a962","bdp_cybrbll","Sat Mar 25 2023 20:36:14 GMT-0400 (Eastern Daylight Time)","452445","1","3","","732","","","","choice","","img/2to1/1.png","2","189","682","0.5","0.5","2","3","",""
"animation","77","118906","0.0-5.0-2.36","63ead665638c8546d8c3a962","bdp_cybrbll","Sat Mar 25 2023 20:36:14 GMT-0400 (Eastern Daylight Time)","452445","1","3","","","","","","","","","","189","","","","2","3","[{""stimulus"":""img/2to3/1.png"",""time"":108},{""stimulus"":""img/2to3/2.png"",""time"":199},{""stimulus"":""img/2to3/3.png"",""time"":306},{""stimulus"":""img/2to3/4.png"",""time"":400},{""stimulus"":""img/2to3/5.png"",""time"":498},{""stimulus"":""img/2to3/6.png"",""time"":598},{""stimulus"":""img/2to3/7.png"",""time"":697},{""stimulus"":""img/2to3/8.png"",""time"":795},{""stimulus"":""img/2to3/9.png"",""time"":893},{""stimulus"":""img/2to3/10.png"",""time"":992},{""stimulus"":""img/2to3/11.png"",""time"":1093},{""stimulus"":""img/2to3/12.png"",""time"":1191}]","[]"
"image-keyboard-response","78","119072","0.0-5.0-1.37","63ead665638c8546d8c3a962","bdp_cybrbll","Sat Mar 25 2023 20:36:14 GMT-0400 (Eastern Daylight Time)","452445","1","3","","null","","","","observe","","img/3to2/1.png","null","188","159","0.5","0.5","3","2","",""
"animation","79","120360","0.0-5.0-2.37","63ead665638c8546d8c3a962","bdp_cybrbll","Sat Mar 25 2023 20:36:14 GMT-0400 (Eastern Daylight Time)","452445","1","3","","","","","","","","","","188","","","","3","2","[{""stimulus"":""img/3to2/1.png"",""time"":102},{""stimulus"":""img/3to2/2.png"",""time"":203},{""stimulus"":""img/3to2/3.png"",""time"":303},{""stimulus"":""img/3to2/4.png"",""time"":404},{""stimulus"":""img/3to2/5.png"",""time"":498},{""stimulus"":""img/3to2/6.png"",""time"":597},{""stimulus"":""img/3to2/7.png"",""time"":697},{""stimulus"":""img/3to2/8.png"",""time"":795},{""stimulus"":""img/3to2/9.png"",""time"":896},{""stimulus"":""img/3to2/10.png"",""time"":995},{""stimulus"":""img/3to2/11.png"",""time"":1095},{""stimulus"":""img/3to2/12.png"",""time"":1190}]","[]"
"image-keyboard-response","80","120399","0.0-5.0-1.38","63ead665638c8546d8c3a962","bdp_cybrbll","Sat Mar 25 2023 20:36:14 GMT-0400 (Eastern Daylight Time)","452445","1","3","","38","","","","choice","","img/2to1/1.png","1","187","167","0.5","0.5","2","1","",""
"animation","81","121699","0.0-5.0-2.38","63ead665638c8546d8c3a962","bdp_cybrbll","Sat Mar 25 2023 20:36:14 GMT-0400 (Eastern Daylight Time)","452445","1","3","","","","","","","","","","187","","","","2","1","[{""stimulus"":""img/2to1/1.png"",""time"":100},{""stimulus"":""img/2to1/2.png"",""time"":205},{""stimulus"":""img/2to1/3.png"",""time"":313},{""stimulus"":""img/2to1/4.png"",""time"":401},{""stimulus"":""img/2to1/5.png"",""time"":508},{""stimulus"":""img/2to1/6.png"",""time"":600},{""stimulus"":""img/2to1/7.png"",""time"":701},{""stimulus"":""img/2to1/8.png"",""time"":800},{""stimulus"":""img/2to1/9.png"",""time"":899},{""stimulus"":""img/2to1/10.png"",""time"":999},{""stimulus"":""img/2to1/11.png"",""time"":1097},{""stimulus"":""img/2to1/12.png"",""time"":1193}]","[]"
"image-keyboard-response","82","122451","0.0-5.0-1.39","63ead665638c8546d8c3a962","bdp_cybrbll","Sat Mar 25 2023 20:36:14 GMT-0400 (Eastern Daylight Time)","452445","1","3","","null","","","","observe","","img/1to3/1.png","null","186","741","0.5","0.5","1","3","",""
"animation","83","123742","0.0-5.0-2.39","63ead665638c8546d8c3a962","bdp_cybrbll","Sat Mar 25 2023 20:36:14 GMT-0400 (Eastern Daylight Time)","452445","1","3","","","","","","","","","","186","","","","1","3","[{""stimulus"":""img/1to3/1.png"",""time"":102},{""stimulus"":""img/1to3/2.png"",""time"":200},{""stimulus"":""img/1to3/3.png"",""time"":299},{""stimulus"":""img/1to3/4.png"",""time"":400},{""stimulus"":""img/1to3/5.png"",""time"":502},{""stimulus"":""img/1to3/6.png"",""time"":601},{""stimulus"":""img/1to3/7.png"",""time"":700},{""stimulus"":""img/1to3/8.png"",""time"":793},{""stimulus"":""img/1to3/9.png"",""time"":900},{""stimulus"":""img/1to3/10.png"",""time"":992},{""stimulus"":""img/1to3/11.png"",""time"":1093},{""stimulus"":""img/1to3/12.png"",""time"":1191}]","[]"
"image-keyboard-response","84","124242","0.0-5.0-1.40","63ead665638c8546d8c3a962","bdp_cybrbll","Sat Mar 25 2023 20:36:14 GMT-0400 (Eastern Daylight Time)","452445","1","3","","null","","","","observe","","img/3to2/1.png","null","185","495","0.5","0.5","3","1","",""
"animation","85","125530","0.0-5.0-2.40","63ead665638c8546d8c3a962","bdp_cybrbll","Sat Mar 25 2023 20:36:14 GMT-0400 (Eastern Daylight Time)","452445","1","3","","","","","","","","","","185","","","","3","1","[{""stimulus"":""img/3to1/1.png"",""time"":101},{""stimulus"":""img/3to1/2.png"",""time"":199},{""stimulus"":""img/3to1/3.png"",""time"":298},{""stimulus"":""img/3to1/4.png"",""time"":405},{""stimulus"":""img/3to1/5.png"",""time"":496},{""stimulus"":""img/3to1/6.png"",""time"":596},{""stimulus"":""img/3to1/7.png"",""time"":697},{""stimulus"":""img/3to1/8.png"",""time"":795},{""stimulus"":""img/3to1/9.png"",""time"":895},{""stimulus"":""img/3to1/10.png"",""time"":997},{""stimulus"":""img/3to1/11.png"",""time"":1091},{""stimulus"":""img/3to1/12.png"",""time"":1190}]","[]"
"image-keyboard-response","86","125829","0.0-5.0-1.41","63ead665638c8546d8c3a962","bdp_cybrbll","Sat Mar 25 2023 20:36:14 GMT-0400 (Eastern Daylight Time)","452445","1","3","","null","","","","observe","","img/1to3/1.png","null","184","292","0.5","0.5","1","3","",""
"animation","87","127124","0.0-5.0-2.41","63ead665638c8546d8c3a962","bdp_cybrbll","Sat Mar 25 2023 20:36:14 GMT-0400 (Eastern Daylight Time)","452445","1","3","","","","","","","","","","184","","","","1","3","[{""stimulus"":""img/1to3/1.png"",""time"":104},{""stimulus"":""img/1to3/2.png"",""time"":203},{""stimulus"":""img/1to3/3.png"",""time"":301},{""stimulus"":""img/1to3/4.png"",""time"":401},{""stimulus"":""img/1to3/5.png"",""time"":500},{""stimulus"":""img/1to3/6.png"",""time"":601},{""stimulus"":""img/1to3/7.png"",""time"":699},{""stimulus"":""img/1to3/8.png"",""time"":798},{""stimulus"":""img/1to3/9.png"",""time"":897},{""stimulus"":""img/1to3/10.png"",""time"":997},{""stimulus"":""img/1to3/11.png"",""time"":1095},{""stimulus"":""img/1to3/12.png"",""time"":1195}]","[]"
"image-keyboard-response","88","127407","0.0-5.0-1.42","63ead665638c8546d8c3a962","bdp_cybrbll","Sat Mar 25 2023 20:36:14 GMT-0400 (Eastern Daylight Time)","452445","1","3","","null","","","","observe","","img/3to2/1.png","null","183","276","0.5","0.5","3","2","",""
"animation","89","128700","0.0-5.0-2.42","63ead665638c8546d8c3a962","bdp_cybrbll","Sat Mar 25 2023 20:36:14 GMT-0400 (Eastern Daylight Time)","452445","1","3","","","","","","","","","","183","","","","3","2","[{""stimulus"":""img/3to2/1.png"",""time"":102},{""stimulus"":""img/3to2/2.png"",""time"":201},{""stimulus"":""img/3to2/3.png"",""time"":300},{""stimulus"":""img/3to2/4.png"",""time"":398},{""stimulus"":""img/3to2/5.png"",""time"":501},{""stimulus"":""img/3to2/6.png"",""time"":595},{""stimulus"":""img/3to2/7.png"",""time"":700},{""stimulus"":""img/3to2/8.png"",""time"":800},{""stimulus"":""img/3to2/9.png"",""time"":899},{""stimulus"":""img/3to2/10.png"",""time"":992},{""stimulus"":""img/3to2/11.png"",""time"":1093},{""stimulus"":""img/3to2/12.png"",""time"":1192}]","[]"
"image-keyboard-response","90","129162","0.0-5.0-1.43","63ead665638c8546d8c3a962","bdp_cybrbll","Sat Mar 25 2023 20:36:14 GMT-0400 (Eastern Daylight Time)","452445","1","3","","461","","","","choice","","img/2to1/1.png","1","182","407","0.5","0.5","2","1","",""
"animation","91","130450","0.0-5.0-2.43","63ead665638c8546d8c3a962","bdp_cybrbll","Sat Mar 25 2023 20:36:14 GMT-0400 (Eastern Daylight Time)","452445","1","3","","","","","","","","","","182","","","","2","1","[{""stimulus"":""img/2to1/1.png"",""time"":105},{""stimulus"":""img/2to1/2.png"",""time"":203},{""stimulus"":""img/2to1/3.png"",""time"":305},{""stimulus"":""img/2to1/4.png"",""time"":397},{""stimulus"":""img/2to1/5.png"",""time"":496},{""stimulus"":""img/2to1/6.png"",""time"":595},{""stimulus"":""img/2to1/7.png"",""time"":694},{""stimulus"":""img/2to1/8.png"",""time"":798},{""stimulus"":""img/2to1/9.png"",""time"":898},{""stimulus"":""img/2to1/10.png"",""time"":995},{""stimulus"":""img/2to1/11.png"",""time"":1094},{""stimulus"":""img/2to1/12.png"",""time"":1195}]","[]"
"image-keyboard-response","92","130678","0.0-5.0-1.44","63ead665638c8546d8c3a962","bdp_cybrbll","Sat Mar 25 2023 20:36:14 GMT-0400 (Eastern Daylight Time)","452445","1","3","","null","","","","observe","","img/1to3/1.png","null","181","222","0.5","0.5","1","3","",""
"animation","93","131970","0.0-5.0-2.44","63ead665638c8546d8c3a962","bdp_cybrbll","Sat Mar 25 2023 20:36:14 GMT-0400 (Eastern Daylight Time)","452445","1","3","","","","","","","","","","181","","","","1","3","[{""stimulus"":""img/1to3/1.png"",""time"":100},{""stimulus"":""img/1to3/2.png"",""time"":200},{""stimulus"":""img/1to3/3.png"",""time"":303},{""stimulus"":""img/1to3/4.png"",""time"":403},{""stimulus"":""img/1to3/5.png"",""time"":502},{""stimulus"":""img/1to3/6.png"",""time"":595},{""stimulus"":""img/1to3/7.png"",""time"":695},{""stimulus"":""img/1to3/8.png"",""time"":795},{""stimulus"":""img/1to3/9.png"",""time"":895},{""stimulus"":""img/1to3/10.png"",""time"":995},{""stimulus"":""img/1to3/11.png"",""time"":1094},{""stimulus"":""img/1to3/12.png"",""time"":1193}]","[]"
"image-keyboard-response","94","133186","0.0-5.0-1.45","63ead665638c8546d8c3a962","bdp_cybrbll","Sat Mar 25 2023 20:36:14 GMT-0400 (Eastern Daylight Time)","452445","1","3","","null","","","","observe","","img/3to2/1.png","null","180","1204","0.5","0.5","3","1","",""
"animation","95","134480","0.0-5.0-2.45","63ead665638c8546d8c3a962","bdp_cybrbll","Sat Mar 25 2023 20:36:14 GMT-0400 (Eastern Daylight Time)","452445","1","3","","","","","","","","","","180","","","","3","1","[{""stimulus"":""img/3to1/1.png"",""time"":105},{""stimulus"":""img/3to1/2.png"",""time"":203},{""stimulus"":""img/3to1/3.png"",""time"":304},{""stimulus"":""img/3to1/4.png"",""time"":404},{""stimulus"":""img/3to1/5.png"",""time"":502},{""stimulus"":""img/3to1/6.png"",""time"":601},{""stimulus"":""img/3to1/7.png"",""time"":701},{""stimulus"":""img/3to1/8.png"",""time"":793},{""stimulus"":""img/3to1/9.png"",""time"":895},{""stimulus"":""img/3to1/10.png"",""time"":996},{""stimulus"":""img/3to1/11.png"",""time"":1098},{""stimulus"":""img/3to1/12.png"",""time"":1191}]","[]"
"image-keyboard-response","96","134899","0.0-5.0-1.46","63ead665638c8546d8c3a962","bdp_cybrbll","Sat Mar 25 2023 20:36:14 GMT-0400 (Eastern Daylight Time)","452445","1","3","","null","","","","observe","","img/1to3/1.png","null","179","408","0.5","0.5","1","3","",""
"animation","97","136194","0.0-5.0-2.46","63ead665638c8546d8c3a962","bdp_cybrbll","Sat Mar 25 2023 20:36:14 GMT-0400 (Eastern Daylight Time)","452445","1","3","","","","","","","","","","179","","","","1","3","[{""stimulus"":""img/1to3/1.png"",""time"":102},{""stimulus"":""img/1to3/2.png"",""time"":202},{""stimulus"":""img/1to3/3.png"",""time"":301},{""stimulus"":""img/1to3/4.png"",""time"":400},{""stimulus"":""img/1to3/5.png"",""time"":502},{""stimulus"":""img/1to3/6.png"",""time"":602},{""stimulus"":""img/1to3/7.png"",""time"":694},{""stimulus"":""img/1to3/8.png"",""time"":801},{""stimulus"":""img/1to3/9.png"",""time"":900},{""stimulus"":""img/1to3/10.png"",""time"":998},{""stimulus"":""img/1to3/11.png"",""time"":1097},{""stimulus"":""img/1to3/12.png"",""time"":1195}]","[]"
"image-keyboard-response","98","137653","0.0-5.0-1.47","63ead665638c8546d8c3a962","bdp_cybrbll","Sat Mar 25 2023 20:36:14 GMT-0400 (Eastern Daylight Time)","452445","1","3","","null","","","","observe","","img/3to2/1.png","null","178","1444","0.5","0.5","3","1","",""
"animation","99","138943","0.0-5.0-2.47","63ead665638c8546d8c3a962","bdp_cybrbll","Sat Mar 25 2023 20:36:14 GMT-0400 (Eastern Daylight Time)","452445","1","3","","","","","","","","","","178","","","","3","1","[{""stimulus"":""img/3to1/1.png"",""time"":108},{""stimulus"":""img/3to1/2.png"",""time"":200},{""stimulus"":""img/3to1/3.png"",""time"":299},{""stimulus"":""img/3to1/4.png"",""time"":402},{""stimulus"":""img/3to1/5.png"",""time"":500},{""stimulus"":""img/3to1/6.png"",""time"":599},{""stimulus"":""img/3to1/7.png"",""time"":700},{""stimulus"":""img/3to1/8.png"",""time"":798},{""stimulus"":""img/3to1/9.png"",""time"":898},{""stimulus"":""img/3to1/10.png"",""time"":998},{""stimulus"":""img/3to1/11.png"",""time"":1093},{""stimulus"":""img/3to1/12.png"",""time"":1192}]","[]"
"image-keyboard-response","100","139556","0.0-5.0-1.48","63ead665638c8546d8c3a962","bdp_cybrbll","Sat Mar 25 2023 20:36:14 GMT-0400 (Eastern Daylight Time)","452445","1","3","","null","","","","observe","","img/1to3/1.png","null","177","610","0.5","0.5","1","3","",""
"animation","101","140845","0.0-5.0-2.48","63ead665638c8546d8c3a962","bdp_cybrbll","Sat Mar 25 2023 20:36:14 GMT-0400 (Eastern Daylight Time)","452445","1","3","","","","","","","","","","177","","","","1","3","[{""stimulus"":""img/1to3/1.png"",""time"":100},{""stimulus"":""img/1to3/2.png"",""time"":202},{""stimulus"":""img/1to3/3.png"",""time"":302},{""stimulus"":""img/1to3/4.png"",""time"":401},{""stimulus"":""img/1to3/5.png"",""time"":502},{""stimulus"":""img/1to3/6.png"",""time"":602},{""stimulus"":""img/1to3/7.png"",""time"":697},{""stimulus"":""img/1to3/8.png"",""time"":797},{""stimulus"":""img/1to3/9.png"",""time"":893},{""stimulus"":""img/1to3/10.png"",""time"":991},{""stimulus"":""img/1to3/11.png"",""time"":1096},{""stimulus"":""img/1to3/12.png"",""time"":1196}]","[]"
"image-keyboard-response","102","141279","0.0-5.0-1.49","63ead665638c8546d8c3a962","bdp_cybrbll","Sat Mar 25 2023 20:36:14 GMT-0400 (Eastern Daylight Time)","452445","1","3","","null","","","","observe","","img/3to2/1.png","null","176","429","0.5","0.5","3","1","",""
"animation","103","142571","0.0-5.0-2.49","63ead665638c8546d8c3a962","bdp_cybrbll","Sat Mar 25 2023 20:36:14 GMT-0400 (Eastern Daylight Time)","452445","1","3","","","","","","","","","","176","","","","3","1","[{""stimulus"":""img/3to1/1.png"",""time"":104},{""stimulus"":""img/3to1/2.png"",""time"":202},{""stimulus"":""img/3to1/3.png"",""time"":301},{""stimulus"":""img/3to1/4.png"",""time"":400},{""stimulus"":""img/3to1/5.png"",""time"":501},{""stimulus"":""img/3to1/6.png"",""time"":601},{""stimulus"":""img/3to1/7.png"",""time"":700},{""stimulus"":""img/3to1/8.png"",""time"":800},{""stimulus"":""img/3to1/9.png"",""time"":898},{""stimulus"":""img/3to1/10.png"",""time"":991},{""stimulus"":""img/3to1/11.png"",""time"":1091},{""stimulus"":""img/3to1/12.png"",""time"":1192}]","[]"
"image-keyboard-response","104","142905","0.0-5.0-1.50","63ead665638c8546d8c3a962","bdp_cybrbll","Sat Mar 25 2023 20:36:14 GMT-0400 (Eastern Daylight Time)","452445","1","3","","null","","","","observe","","img/1to3/1.png","null","175","331","0.5","0.5","1","2","",""
"animation","105","144192","0.0-5.0-2.50","63ead665638c8546d8c3a962","bdp_cybrbll","Sat Mar 25 2023 20:36:14 GMT-0400 (Eastern Daylight Time)","452445","1","3","","","","","","","","","","175","","","","1","2","[{""stimulus"":""img/1to2/1.png"",""time"":101},{""stimulus"":""img/1to2/2.png"",""time"":202},{""stimulus"":""img/1to2/3.png"",""time"":302},{""stimulus"":""img/1to2/4.png"",""time"":402},{""stimulus"":""img/1to2/5.png"",""time"":501},{""stimulus"":""img/1to2/6.png"",""time"":601},{""stimulus"":""img/1to2/7.png"",""time"":701},{""stimulus"":""img/1to2/8.png"",""time"":800},{""stimulus"":""img/1to2/9.png"",""time"":908},{""stimulus"":""img/1to2/10.png"",""time"":999},{""stimulus"":""img/1to2/11.png"",""time"":1097},{""stimulus"":""img/1to2/12.png"",""time"":1196}]","[]"
"image-keyboard-response","106","144404","0.0-5.0-1.51","63ead665638c8546d8c3a962","bdp_cybrbll","Sat Mar 25 2023 20:36:14 GMT-0400 (Eastern Daylight Time)","452445","1","3","","211","","","","choice","","img/2to1/1.png","2","174","443","0.5","0.5","2","3","",""
"animation","107","145697","0.0-5.0-2.51","63ead665638c8546d8c3a962","bdp_cybrbll","Sat Mar 25 2023 20:36:14 GMT-0400 (Eastern Daylight Time)","452445","1","3","","","","","","","","","","174","","","","2","3","[{""stimulus"":""img/2to3/1.png"",""time"":106},{""stimulus"":""img/2to3/2.png"",""time"":206},{""stimulus"":""img/2to3/3.png"",""time"":305},{""stimulus"":""img/2to3/4.png"",""time"":404},{""stimulus"":""img/2to3/5.png"",""time"":498},{""stimulus"":""img/2to3/6.png"",""time"":597},{""stimulus"":""img/2to3/7.png"",""time"":698},{""stimulus"":""img/2to3/8.png"",""time"":796},{""stimulus"":""img/2to3/9.png"",""time"":894},{""stimulus"":""img/2to3/10.png"",""time"":994},{""stimulus"":""img/2to3/11.png"",""time"":1093},{""stimulus"":""img/2to3/12.png"",""time"":1192}]","[]"
"image-keyboard-response","108","147267","0.0-5.0-1.52","63ead665638c8546d8c3a962","bdp_cybrbll","Sat Mar 25 2023 20:36:14 GMT-0400 (Eastern Daylight Time)","452445","1","3","","null","","","","observe","","img/3to2/1.png","null","173","1562","0.5","0.5","3","2","",""
"animation","109","148561","0.0-5.0-2.52","63ead665638c8546d8c3a962","bdp_cybrbll","Sat Mar 25 2023 20:36:14 GMT-0400 (Eastern Daylight Time)","452445","1","3","","","","","","","","","","173","","","","3","2","[{""stimulus"":""img/3to2/1.png"",""time"":101},{""stimulus"":""img/3to2/2.png"",""time"":200},{""stimulus"":""img/3to2/3.png"",""time"":298},{""stimulus"":""img/3to2/4.png"",""time"":403},{""stimulus"":""img/3to2/5.png"",""time"":496},{""stimulus"":""img/3to2/6.png"",""time"":603},{""stimulus"":""img/3to2/7.png"",""time"":696},{""stimulus"":""img/3to2/8.png"",""time"":794},{""stimulus"":""img/3to2/9.png"",""time"":892},{""stimulus"":""img/3to2/10.png"",""time"":994},{""stimulus"":""img/3to2/11.png"",""time"":1092},{""stimulus"":""img/3to2/12.png"",""time"":1191}]","[]"
"image-keyboard-response","110","148826","0.0-5.0-1.53","63ead665638c8546d8c3a962","bdp_cybrbll","Sat Mar 25 2023 20:36:14 GMT-0400 (Eastern Daylight Time)","452445","1","3","","264","","","","choice","","img/2to1/1.png","1","172","214","0.5","0.5","2","1","",""
"animation","111","150119","0.0-5.0-2.53","63ead665638c8546d8c3a962","bdp_cybrbll","Sat Mar 25 2023 20:36:14 GMT-0400 (Eastern Daylight Time)","452445","1","3","","","","","","","","","","172","","","","2","1","[{""stimulus"":""img/2to1/1.png"",""time"":100},{""stimulus"":""img/2to1/2.png"",""time"":200},{""stimulus"":""img/2to1/3.png"",""time"":304},{""stimulus"":""img/2to1/4.png"",""time"":405},{""stimulus"":""img/2to1/5.png"",""time"":499},{""stimulus"":""img/2to1/6.png"",""time"":599},{""stimulus"":""img/2to1/7.png"",""time"":694},{""stimulus"":""img/2to1/8.png"",""time"":794},{""stimulus"":""img/2to1/9.png"",""time"":894},{""stimulus"":""img/2to1/10.png"",""time"":994},{""stimulus"":""img/2to1/11.png"",""time"":1094},{""stimulus"":""img/2to1/12.png"",""time"":1194}]","[]"
"image-keyboard-response","112","150488","0.0-5.0-1.54","63ead665638c8546d8c3a962","bdp_cybrbll","Sat Mar 25 2023 20:36:14 GMT-0400 (Eastern Daylight Time)","452445","1","3","","null","","","","observe","","img/1to3/1.png","null","171","359","0.5","0.5","1","2","",""
"animation","113","151781","0.0-5.0-2.54","63ead665638c8546d8c3a962","bdp_cybrbll","Sat Mar 25 2023 20:36:14 GMT-0400 (Eastern Daylight Time)","452445","1","3","","","","","","","","","","171","","","","1","2","[{""stimulus"":""img/1to2/1.png"",""time"":101},{""stimulus"":""img/1to2/2.png"",""time"":200},{""stimulus"":""img/1to2/3.png"",""time"":299},{""stimulus"":""img/1to2/4.png"",""time"":403},{""stimulus"":""img/1to2/5.png"",""time"":503},{""stimulus"":""img/1to2/6.png"",""time"":595},{""stimulus"":""img/1to2/7.png"",""time"":702},{""stimulus"":""img/1to2/8.png"",""time"":801},{""stimulus"":""img/1to2/9.png"",""time"":900},{""stimulus"":""img/1to2/10.png"",""time"":994},{""stimulus"":""img/1to2/11.png"",""time"":1095},{""stimulus"":""img/1to2/12.png"",""time"":1194}]","[]"
"image-keyboard-response","114","151867","0.0-5.0-1.55","63ead665638c8546d8c3a962","bdp_cybrbll","Sat Mar 25 2023 20:36:14 GMT-0400 (Eastern Daylight Time)","452445","1","3","","85","","","","choice","","img/2to1/1.png","2","170","718","0.5","0.5","2","3","",""
"animation","115","153160","0.0-5.0-2.55","63ead665638c8546d8c3a962","bdp_cybrbll","Sat Mar 25 2023 20:36:14 GMT-0400 (Eastern Daylight Time)","452445","1","3","","","","","","","","","","170","","","","2","3","[{""stimulus"":""img/2to3/1.png"",""time"":101},{""stimulus"":""img/2to3/2.png"",""time"":203},{""stimulus"":""img/2to3/3.png"",""time"":302},{""stimulus"":""img/2to3/4.png"",""time"":401},{""stimulus"":""img/2to3/5.png"",""time"":503},{""stimulus"":""img/2to3/6.png"",""time"":596},{""stimulus"":""img/2to3/7.png"",""time"":696},{""stimulus"":""img/2to3/8.png"",""time"":795},{""stimulus"":""img/2to3/9.png"",""time"":894},{""stimulus"":""img/2to3/10.png"",""time"":994},{""stimulus"":""img/2to3/11.png"",""time"":1093},{""stimulus"":""img/2to3/12.png"",""time"":1193}]","[]"
"image-keyboard-response","116","153355","0.0-5.0-1.56","63ead665638c8546d8c3a962","bdp_cybrbll","Sat Mar 25 2023 20:36:14 GMT-0400 (Eastern Daylight Time)","452445","1","3","","null","","","","observe","","img/3to2/1.png","null","169","187","0.5","0.5","3","1","",""
"animation","117","154643","0.0-5.0-2.56","63ead665638c8546d8c3a962","bdp_cybrbll","Sat Mar 25 2023 20:36:14 GMT-0400 (Eastern Daylight Time)","452445","1","3","","","","","","","","","","169","","","","3","1","[{""stimulus"":""img/3to1/1.png"",""time"":111},{""stimulus"":""img/3to1/2.png"",""time"":206},{""stimulus"":""img/3to1/3.png"",""time"":303},{""stimulus"":""img/3to1/4.png"",""time"":401},{""stimulus"":""img/3to1/5.png"",""time"":503},{""stimulus"":""img/3to1/6.png"",""time"":597},{""stimulus"":""img/3to1/7.png"",""time"":696},{""stimulus"":""img/3to1/8.png"",""time"":796},{""stimulus"":""img/3to1/9.png"",""time"":896},{""stimulus"":""img/3to1/10.png"",""time"":995},{""stimulus"":""img/3to1/11.png"",""time"":1096},{""stimulus"":""img/3to1/12.png"",""time"":1196}]","[]"
"image-keyboard-response","118","155076","0.0-5.0-1.57","63ead665638c8546d8c3a962","bdp_cybrbll","Sat Mar 25 2023 20:36:14 GMT-0400 (Eastern Daylight Time)","452445","1","3","","null","","","","observe","","img/1to3/1.png","null","168","416","0.5","0.5","1","2","",""
"animation","119","156371","0.0-5.0-2.57","63ead665638c8546d8c3a962","bdp_cybrbll","Sat Mar 25 2023 20:36:14 GMT-0400 (Eastern Daylight Time)","452445","1","3","","","","","","","","","","168","","","","1","2","[{""stimulus"":""img/1to2/1.png"",""time"":101},{""stimulus"":""img/1to2/2.png"",""time"":200},{""stimulus"":""img/1to2/3.png"",""time"":298},{""stimulus"":""img/1to2/4.png"",""time"":399},{""stimulus"":""img/1to2/5.png"",""time"":501},{""stimulus"":""img/1to2/6.png"",""time"":601},{""stimulus"":""img/1to2/7.png"",""time"":698},{""stimulus"":""img/1to2/8.png"",""time"":797},{""stimulus"":""img/1to2/9.png"",""time"":895},{""stimulus"":""img/1to2/10.png"",""time"":995},{""stimulus"":""img/1to2/11.png"",""time"":1094},{""stimulus"":""img/1to2/12.png"",""time"":1197}]","[]"
"image-keyboard-response","120","156544","0.0-5.0-1.58","63ead665638c8546d8c3a962","bdp_cybrbll","Sat Mar 25 2023 20:36:14 GMT-0400 (Eastern Daylight Time)","452445","1","3","","171","","","","choice","","img/2to1/1.png","2","167","503","0.5","0.5","2","3","",""
"animation","121","157832","0.0-5.0-2.58","63ead665638c8546d8c3a962","bdp_cybrbll","Sat Mar 25 2023 20:36:14 GMT-0400 (Eastern Daylight Time)","452445","1","3","","","","","","","","","","167","","","","2","3","[{""stimulus"":""img/2to3/1.png"",""time"":104},{""stimulus"":""img/2to3/2.png"",""time"":204},{""stimulus"":""img/2to3/3.png"",""time"":304},{""stimulus"":""img/2to3/4.png"",""time"":399},{""stimulus"":""img/2to3/5.png"",""time"":499},{""stimulus"":""img/2to3/6.png"",""time"":599},{""stimulus"":""img/2to3/7.png"",""time"":699},{""stimulus"":""img/2to3/8.png"",""time"":800},{""stimulus"":""img/2to3/9.png"",""time"":899},{""stimulus"":""img/2to3/10.png"",""time"":997},{""stimulus"":""img/2to3/11.png"",""time"":1097},{""stimulus"":""img/2to3/12.png"",""time"":1196}]","[]"
"image-keyboard-response","122","158047","0.0-5.0-1.59","63ead665638c8546d8c3a962","bdp_cybrbll","Sat Mar 25 2023 20:36:14 GMT-0400 (Eastern Daylight Time)","452445","1","3","","null","","","","observe","","img/3to2/1.png","null","166","209","0.5","0.5","3","1","",""
"animation","123","159341","0.0-5.0-2.59","63ead665638c8546d8c3a962","bdp_cybrbll","Sat Mar 25 2023 20:36:14 GMT-0400 (Eastern Daylight Time)","452445","1","3","","","","","","","","","","166","","","","3","1","[{""stimulus"":""img/3to1/1.png"",""time"":102},{""stimulus"":""img/3to1/2.png"",""time"":201},{""stimulus"":""img/3to1/3.png"",""time"":301},{""stimulus"":""img/3to1/4.png"",""time"":400},{""stimulus"":""img/3to1/5.png"",""time"":499},{""stimulus"":""img/3to1/6.png"",""time"":598},{""stimulus"":""img/3to1/7.png"",""time"":697},{""stimulus"":""img/3to1/8.png"",""time"":796},{""stimulus"":""img/3to1/9.png"",""time"":894},{""stimulus"":""img/3to1/10.png"",""time"":995},{""stimulus"":""img/3to1/11.png"",""time"":1096},{""stimulus"":""img/3to1/12.png"",""time"":1196}]","[]"
"image-keyboard-response","124","159866","0.0-5.0-1.60","63ead665638c8546d8c3a962","bdp_cybrbll","Sat Mar 25 2023 20:36:14 GMT-0400 (Eastern Daylight Time)","452445","1","3","","null","","","","observe","","img/1to3/1.png","null","165","522","0.5","0.5","1","3","",""
"animation","125","161160","0.0-5.0-2.60","63ead665638c8546d8c3a962","bdp_cybrbll","Sat Mar 25 2023 20:36:14 GMT-0400 (Eastern Daylight Time)","452445","1","3","","","","","","","","","","165","","","","1","3","[{""stimulus"":""img/1to3/1.png"",""time"":106},{""stimulus"":""img/1to3/2.png"",""time"":207},{""stimulus"":""img/1to3/3.png"",""time"":302},{""stimulus"":""img/1to3/4.png"",""time"":402},{""stimulus"":""img/1to3/5.png"",""time"":509},{""stimulus"":""img/1to3/6.png"",""time"":599},{""stimulus"":""img/1to3/7.png"",""time"":698},{""stimulus"":""img/1to3/8.png"",""time"":796},{""stimulus"":""img/1to3/9.png"",""time"":895},{""stimulus"":""img/1to3/10.png"",""time"":994},{""stimulus"":""img/1to3/11.png"",""time"":1093},{""stimulus"":""img/1to3/12.png"",""time"":1194}]","[]"
"image-keyboard-response","126","161709","0.0-5.0-1.61","63ead665638c8546d8c3a962","bdp_cybrbll","Sat Mar 25 2023 20:36:14 GMT-0400 (Eastern Daylight Time)","452445","1","3","","null","","","","observe","","img/3to2/1.png","null","164","536","0.5","0.5","3","2","",""
"animation","127","162999","0.0-5.0-2.61","63ead665638c8546d8c3a962","bdp_cybrbll","Sat Mar 25 2023 20:36:14 GMT-0400 (Eastern Daylight Time)","452445","1","3","","","","","","","","","","164","","","","3","2","[{""stimulus"":""img/3to2/1.png"",""time"":101},{""stimulus"":""img/3to2/2.png"",""time"":199},{""stimulus"":""img/3to2/3.png"",""time"":298},{""stimulus"":""img/3to2/4.png"",""time"":397},{""stimulus"":""img/3to2/5.png"",""time"":509},{""stimulus"":""img/3to2/6.png"",""time"":600},{""stimulus"":""img/3to2/7.png"",""time"":701},{""stimulus"":""img/3to2/8.png"",""time"":800},{""stimulus"":""img/3to2/9.png"",""time"":899},{""stimulus"":""img/3to2/10.png"",""time"":999},{""stimulus"":""img/3to2/11.png"",""time"":1092},{""stimulus"":""img/3to2/12.png"",""time"":1191}]","[]"
"image-keyboard-response","128","163062","0.0-5.0-1.62","63ead665638c8546d8c3a962","bdp_cybrbll","Sat Mar 25 2023 20:36:14 GMT-0400 (Eastern Daylight Time)","452445","1","3","","62","","","","choice","","img/2to1/1.png","1","163","554","0.5","0.5","2","1","",""
"animation","129","164354","0.0-5.0-2.62","63ead665638c8546d8c3a962","bdp_cybrbll","Sat Mar 25 2023 20:36:14 GMT-0400 (Eastern Daylight Time)","452445","1","3","","","","","","","","","","163","","","","2","1","[{""stimulus"":""img/2to1/1.png"",""time"":104},{""stimulus"":""img/2to1/2.png"",""time"":204},{""stimulus"":""img/2to1/3.png"",""time"":303},{""stimulus"":""img/2to1/4.png"",""time"":410},{""stimulus"":""img/2to1/5.png"",""time"":500},{""stimulus"":""img/2to1/6.png"",""time"":601},{""stimulus"":""img/2to1/7.png"",""time"":699},{""stimulus"":""img/2to1/8.png"",""time"":799},{""stimulus"":""img/2to1/9.png"",""time"":899},{""stimulus"":""img/2to1/10.png"",""time"":998},{""stimulus"":""img/2to1/11.png"",""time"":1097},{""stimulus"":""img/2to1/12.png"",""time"":1189}]","[]"
"image-keyboard-response","130","164862","0.0-5.0-1.63","63ead665638c8546d8c3a962","bdp_cybrbll","Sat Mar 25 2023 20:36:14 GMT-0400 (Eastern Daylight Time)","452445","1","3","","null","","","","observe","","img/1to3/1.png","null","162","502","0.5","0.5","1","3","",""
"animation","131","166155","0.0-5.0-2.63","63ead665638c8546d8c3a962","bdp_cybrbll","Sat Mar 25 2023 20:36:14 GMT-0400 (Eastern Daylight Time)","452445","1","3","","","","","","","","","","162","","","","1","3","[{""stimulus"":""img/1to3/1.png"",""time"":108},{""stimulus"":""img/1to3/2.png"",""time"":207},{""stimulus"":""img/1to3/3.png"",""time"":305},{""stimulus"":""img/1to3/4.png"",""time"":404},{""stimulus"":""img/1to3/5.png"",""time"":502},{""stimulus"":""img/1to3/6.png"",""time"":611},{""stimulus"":""img/1to3/7.png"",""time"":702},{""stimulus"":""img/1to3/8.png"",""time"":799},{""stimulus"":""img/1to3/9.png"",""time"":904},{""stimulus"":""img/1to3/10.png"",""time"":993},{""stimulus"":""img/1to3/11.png"",""time"":1090},{""stimulus"":""img/1to3/12.png"",""time"":1196}]","[]"
"image-keyboard-response","132","166800","0.0-5.0-1.64","63ead665638c8546d8c3a962","bdp_cybrbll","Sat Mar 25 2023 20:36:14 GMT-0400 (Eastern Daylight Time)","452445","1","3","","null","","","","observe","","img/3to2/1.png","null","161","640","0.5","0.5","3","1","",""
"animation","133","168091","0.0-5.0-2.64","63ead665638c8546d8c3a962","bdp_cybrbll","Sat Mar 25 2023 20:36:14 GMT-0400 (Eastern Daylight Time)","452445","1","3","","","","","","","","","","161","","","","3","1","[{""stimulus"":""img/3to1/1.png"",""time"":106},{""stimulus"":""img/3to1/2.png"",""time"":200},{""stimulus"":""img/3to1/3.png"",""time"":307},{""stimulus"":""img/3to1/4.png"",""time"":400},{""stimulus"":""img/3to1/5.png"",""time"":501},{""stimulus"":""img/3to1/6.png"",""time"":601},{""stimulus"":""img/3to1/7.png"",""time"":710},{""stimulus"":""img/3to1/8.png"",""time"":799},{""stimulus"":""img/3to1/9.png"",""time"":897},{""stimulus"":""img/3to1/10.png"",""time"":995},{""stimulus"":""img/3to1/11.png"",""time"":1094},{""stimulus"":""img/3to1/12.png"",""time"":1193}]","[]"
"image-keyboard-response","134","168613","0.0-5.0-1.65","63ead665638c8546d8c3a962","bdp_cybrbll","Sat Mar 25 2023 20:36:14 GMT-0400 (Eastern Daylight Time)","452445","1","3","","null","","","","observe","","img/1to3/1.png","null","160","513","0.5","0.5","1","2","",""
"animation","135","169909","0.0-5.0-2.65","63ead665638c8546d8c3a962","bdp_cybrbll","Sat Mar 25 2023 20:36:14 GMT-0400 (Eastern Daylight Time)","452445","1","3","","","","","","","","","","160","","","","1","2","[{""stimulus"":""img/1to2/1.png"",""time"":104},{""stimulus"":""img/1to2/2.png"",""time"":202},{""stimulus"":""img/1to2/3.png"",""time"":303},{""stimulus"":""img/1to2/4.png"",""time"":402},{""stimulus"":""img/1to2/5.png"",""time"":500},{""stimulus"":""img/1to2/6.png"",""time"":599},{""stimulus"":""img/1to2/7.png"",""time"":700},{""stimulus"":""img/1to2/8.png"",""time"":799},{""stimulus"":""img/1to2/9.png"",""time"":906},{""stimulus"":""img/1to2/10.png"",""time"":996},{""stimulus"":""img/1to2/11.png"",""time"":1095},{""stimulus"":""img/1to2/12.png"",""time"":1197}]","[]"
"image-keyboard-response","136","169989","0.0-5.0-1.66","63ead665638c8546d8c3a962","bdp_cybrbll","Sat Mar 25 2023 20:36:14 GMT-0400 (Eastern Daylight Time)","452445","1","3","","78","","","","choice","","img/2to1/1.png","2","159","627","0.5","0.5","2","3","",""
"animation","137","171282","0.0-5.0-2.66","63ead665638c8546d8c3a962","bdp_cybrbll","Sat Mar 25 2023 20:36:14 GMT-0400 (Eastern Daylight Time)","452445","1","3","","","","","","","","","","159","","","","2","3","[{""stimulus"":""img/2to3/1.png"",""time"":104},{""stimulus"":""img/2to3/2.png"",""time"":205},{""stimulus"":""img/2to3/3.png"",""time"":303},{""stimulus"":""img/2to3/4.png"",""time"":410},{""stimulus"":""img/2to3/5.png"",""time"":501},{""stimulus"":""img/2to3/6.png"",""time"":600},{""stimulus"":""img/2to3/7.png"",""time"":699},{""stimulus"":""img/2to3/8.png"",""time"":799},{""stimulus"":""img/2to3/9.png"",""time"":899},{""stimulus"":""img/2to3/10.png"",""time"":994},{""stimulus"":""img/2to3/11.png"",""time"":1092},{""stimulus"":""img/2to3/12.png"",""time"":1195}]","[]"
"image-keyboard-response","138","172295","0.0-5.0-1.67","63ead665638c8546d8c3a962","bdp_cybrbll","Sat Mar 25 2023 20:36:14 GMT-0400 (Eastern Daylight Time)","452445","1","3","","null","","","","observe","","img/3to2/1.png","null","158","1004","0.5","0.5","3","2","",""
"animation","139","173588","0.0-5.0-2.67","63ead665638c8546d8c3a962","bdp_cybrbll","Sat Mar 25 2023 20:36:14 GMT-0400 (Eastern Daylight Time)","452445","1","3","","","","","","","","","","158","","","","3","2","[{""stimulus"":""img/3to2/1.png"",""time"":101},{""stimulus"":""img/3to2/2.png"",""time"":199},{""stimulus"":""img/3to2/3.png"",""time"":300},{""stimulus"":""img/3to2/4.png"",""time"":405},{""stimulus"":""img/3to2/5.png"",""time"":497},{""stimulus"":""img/3to2/6.png"",""time"":596},{""stimulus"":""img/3to2/7.png"",""time"":698},{""stimulus"":""img/3to2/8.png"",""time"":798},{""stimulus"":""img/3to2/9.png"",""time"":897},{""stimulus"":""img/3to2/10.png"",""time"":996},{""stimulus"":""img/3to2/11.png"",""time"":1096},{""stimulus"":""img/3to2/12.png"",""time"":1194}]","[]"
"image-keyboard-response","140","175032","0.0-5.0-1.68","63ead665638c8546d8c3a962","bdp_cybrbll","Sat Mar 25 2023 20:36:14 GMT-0400 (Eastern Daylight Time)","452445","1","3","","1443","","","","choice","","img/2to1/1.png","1","157","923","0.5","0.5","2","1","",""
"animation","141","176321","0.0-5.0-2.68","63ead665638c8546d8c3a962","bdp_cybrbll","Sat Mar 25 2023 20:36:14 GMT-0400 (Eastern Daylight Time)","452445","1","3","","","","","","","","","","157","","","","2","1","[{""stimulus"":""img/2to1/1.png"",""time"":101},{""stimulus"":""img/2to1/2.png"",""time"":200},{""stimulus"":""img/2to1/3.png"",""time"":306},{""stimulus"":""img/2to1/4.png"",""time"":397},{""stimulus"":""img/2to1/5.png"",""time"":497},{""stimulus"":""img/2to1/6.png"",""time"":598},{""stimulus"":""img/2to1/7.png"",""time"":696},{""stimulus"":""img/2to1/8.png"",""time"":799},{""stimulus"":""img/2to1/9.png"",""time"":895},{""stimulus"":""img/2to1/10.png"",""time"":997},{""stimulus"":""img/2to1/11.png"",""time"":1096},{""stimulus"":""img/2to1/12.png"",""time"":1191}]","[]"
"image-keyboard-response","142","176759","0.0-5.0-1.69","63ead665638c8546d8c3a962","bdp_cybrbll","Sat Mar 25 2023 20:36:14 GMT-0400 (Eastern Daylight Time)","452445","1","3","","null","","","","observe","","img/1to3/1.png","null","156","421","0.5","0.5","1","2","",""
"animation","143","178050","0.0-5.0-2.69","63ead665638c8546d8c3a962","bdp_cybrbll","Sat Mar 25 2023 20:36:14 GMT-0400 (Eastern Daylight Time)","452445","1","3","","","","","","","","","","156","","","","1","2","[{""stimulus"":""img/1to2/1.png"",""time"":103},{""stimulus"":""img/1to2/2.png"",""time"":202},{""stimulus"":""img/1to2/3.png"",""time"":302},{""stimulus"":""img/1to2/4.png"",""time"":401},{""stimulus"":""img/1to2/5.png"",""time"":502},{""stimulus"":""img/1to2/6.png"",""time"":602},{""stimulus"":""img/1to2/7.png"",""time"":694},{""stimulus"":""img/1to2/8.png"",""time"":800},{""stimulus"":""img/1to2/9.png"",""time"":899},{""stimulus"":""img/1to2/10.png"",""time"":998},{""stimulus"":""img/1to2/11.png"",""time"":1090},{""stimulus"":""img/1to2/12.png"",""time"":1191}]","[]"
"image-keyboard-response","144","178485","0.0-5.0-1.70","63ead665638c8546d8c3a962","bdp_cybrbll","Sat Mar 25 2023 20:36:14 GMT-0400 (Eastern Daylight Time)","452445","1","3","","433","","","","choice","","img/2to1/1.png","2","155","356","0.5","0.5","2","3","",""
"animation","145","179778","0.0-5.0-2.70","63ead665638c8546d8c3a962","bdp_cybrbll","Sat Mar 25 2023 20:36:14 GMT-0400 (Eastern Daylight Time)","452445","1","3","","","","","","","","","","155","","","","2","3","[{""stimulus"":""img/2to3/1.png"",""time"":109},{""stimulus"":""img/2to3/2.png"",""time"":206},{""stimulus"":""img/2to3/3.png"",""time"":298},{""stimulus"":""img/2to3/4.png"",""time"":398},{""stimulus"":""img/2to3/5.png"",""time"":496},{""stimulus"":""img/2to3/6.png"",""time"":597},{""stimulus"":""img/2to3/7.png"",""time"":696},{""stimulus"":""img/2to3/8.png"",""time"":796},{""stimulus"":""img/2to3/9.png"",""time"":896},{""stimulus"":""img/2to3/10.png"",""time"":994},{""stimulus"":""img/2to3/11.png"",""time"":1095},{""stimulus"":""img/2to3/12.png"",""time"":1195}]","[]"
"image-keyboard-response","146","180393","0.0-5.0-1.71","63ead665638c8546d8c3a962","bdp_cybrbll","Sat Mar 25 2023 20:36:14 GMT-0400 (Eastern Daylight Time)","452445","1","3","","null","","","","observe","","img/3to2/1.png","null","154","609","0.5","0.5","3","1","",""
"animation","147","181688","0.0-5.0-2.71","63ead665638c8546d8c3a962","bdp_cybrbll","Sat Mar 25 2023 20:36:14 GMT-0400 (Eastern Daylight Time)","452445","1","3","","","","","","","","","","154","","","","3","1","[{""stimulus"":""img/3to1/1.png"",""time"":108},{""stimulus"":""img/3to1/2.png"",""time"":207},{""stimulus"":""img/3to1/3.png"",""time"":299},{""stimulus"":""img/3to1/4.png"",""time"":398},{""stimulus"":""img/3to1/5.png"",""time"":498},{""stimulus"":""img/3to1/6.png"",""time"":598},{""stimulus"":""img/3to1/7.png"",""time"":697},{""stimulus"":""img/3to1/8.png"",""time"":796},{""stimulus"":""img/3to1/9.png"",""time"":895},{""stimulus"":""img/3to1/10.png"",""time"":995},{""stimulus"":""img/3to1/11.png"",""time"":1095},{""stimulus"":""img/3to1/12.png"",""time"":1196}]","[]"
"image-keyboard-response","148","181930","0.0-5.0-1.72","63ead665638c8546d8c3a962","bdp_cybrbll","Sat Mar 25 2023 20:36:14 GMT-0400 (Eastern Daylight Time)","452445","1","3","","null","","","","observe","","img/1to3/1.png","null","153","238","0.5","0.5","1","3","",""
"animation","149","183223","0.0-5.0-2.72","63ead665638c8546d8c3a962","bdp_cybrbll","Sat Mar 25 2023 20:36:14 GMT-0400 (Eastern Daylight Time)","452445","1","3","","","","","","","","","","153","","","","1","3","[{""stimulus"":""img/1to3/1.png"",""time"":101},{""stimulus"":""img/1to3/2.png"",""time"":201},{""stimulus"":""img/1to3/3.png"",""time"":302},{""stimulus"":""img/1to3/4.png"",""time"":401},{""stimulus"":""img/1to3/5.png"",""time"":500},{""stimulus"":""img/1to3/6.png"",""time"":598},{""stimulus"":""img/1to3/7.png"",""time"":698},{""stimulus"":""img/1to3/8.png"",""time"":797},{""stimulus"":""img/1to3/9.png"",""time"":898},{""stimulus"":""img/1to3/10.png"",""time"":996},{""stimulus"":""img/1to3/11.png"",""time"":1097},{""stimulus"":""img/1to3/12.png"",""time"":1195}]","[]"
"image-keyboard-response","150","183738","0.0-5.0-1.73","63ead665638c8546d8c3a962","bdp_cybrbll","Sat Mar 25 2023 20:36:14 GMT-0400 (Eastern Daylight Time)","452445","1","3","","null","","","","observe","","img/3to2/1.png","null","152","512","0.5","0.5","3","1","",""
"animation","151","185029","0.0-5.0-2.73","63ead665638c8546d8c3a962","bdp_cybrbll","Sat Mar 25 2023 20:36:14 GMT-0400 (Eastern Daylight Time)","452445","1","3","","","","","","","","","","152","","","","3","1","[{""stimulus"":""img/3to1/1.png"",""time"":107},{""stimulus"":""img/3to1/2.png"",""time"":207},{""stimulus"":""img/3to1/3.png"",""time"":305},{""stimulus"":""img/3to1/4.png"",""time"":404},{""stimulus"":""img/3to1/5.png"",""time"":503},{""stimulus"":""img/3to1/6.png"",""time"":596},{""stimulus"":""img/3to1/7.png"",""time"":695},{""stimulus"":""img/3to1/8.png"",""time"":799},{""stimulus"":""img/3to1/9.png"",""time"":899},{""stimulus"":""img/3to1/10.png"",""time"":993},{""stimulus"":""img/3to1/11.png"",""time"":1092},{""stimulus"":""img/3to1/12.png"",""time"":1193}]","[]"
"image-keyboard-response","152","185303","0.0-5.0-1.74","63ead665638c8546d8c3a962","bdp_cybrbll","Sat Mar 25 2023 20:36:14 GMT-0400 (Eastern Daylight Time)","452445","1","3","","null","","","","observe","","img/1to3/1.png","null","151","265","0.5","0.5","1","2","",""
"animation","153","186594","0.0-5.0-2.74","63ead665638c8546d8c3a962","bdp_cybrbll","Sat Mar 25 2023 20:36:14 GMT-0400 (Eastern Daylight Time)","452445","1","3","","","","","","","","","","151","","","","1","2","[{""stimulus"":""img/1to2/1.png"",""time"":100},{""stimulus"":""img/1to2/2.png"",""time"":206},{""stimulus"":""img/1to2/3.png"",""time"":313},{""stimulus"":""img/1to2/4.png"",""time"":397},{""stimulus"":""img/1to2/5.png"",""time"":498},{""stimulus"":""img/1to2/6.png"",""time"":597},{""stimulus"":""img/1to2/7.png"",""time"":695},{""stimulus"":""img/1to2/8.png"",""time"":795},{""stimulus"":""img/1to2/9.png"",""time"":894},{""stimulus"":""img/1to2/10.png"",""time"":995},{""stimulus"":""img/1to2/11.png"",""time"":1094},{""stimulus"":""img/1to2/12.png"",""time"":1193}]","[]"
"image-keyboard-response","154","186816","0.0-5.0-1.75","63ead665638c8546d8c3a962","bdp_cybrbll","Sat Mar 25 2023 20:36:14 GMT-0400 (Eastern Daylight Time)","452445","1","3","","221","","","","choice","","img/2to1/1.png","2","150","582","0.5","0.5","2","3","",""
"animation","155","188107","0.0-5.0-2.75","63ead665638c8546d8c3a962","bdp_cybrbll","Sat Mar 25 2023 20:36:14 GMT-0400 (Eastern Daylight Time)","452445","1","3","","","","","","","","","","150","","","","2","3","[{""stimulus"":""img/2to3/1.png"",""time"":104},{""stimulus"":""img/2to3/2.png"",""time"":204},{""stimulus"":""img/2to3/3.png"",""time"":303},{""stimulus"":""img/2to3/4.png"",""time"":402},{""stimulus"":""img/2to3/5.png"",""time"":502},{""stimulus"":""img/2to3/6.png"",""time"":600},{""stimulus"":""img/2to3/7.png"",""time"":701},{""stimulus"":""img/2to3/8.png"",""time"":794},{""stimulus"":""img/2to3/9.png"",""time"":893},{""stimulus"":""img/2to3/10.png"",""time"":993},{""stimulus"":""img/2to3/11.png"",""time"":1092},{""stimulus"":""img/2to3/12.png"",""time"":1192}]","[]"
"image-keyboard-response","156","188324","0.0-5.0-1.76","63ead665638c8546d8c3a962","bdp_cybrbll","Sat Mar 25 2023 20:36:14 GMT-0400 (Eastern Daylight Time)","452445","1","3","","null","","","","observe","","img/3to2/1.png","null","149","215","0.5","0.1","3","1","",""
"animation","157","189619","0.0-5.0-2.76","63ead665638c8546d8c3a962","bdp_cybrbll","Sat Mar 25 2023 20:36:14 GMT-0400 (Eastern Daylight Time)","452445","1","3","","","","","","","","","","149","","","","3","1","[{""stimulus"":""img/3to1/1.png"",""time"":102},{""stimulus"":""img/3to1/2.png"",""time"":200},{""stimulus"":""img/3to1/3.png"",""time"":301},{""stimulus"":""img/3to1/4.png"",""time"":406},{""stimulus"":""img/3to1/5.png"",""time"":502},{""stimulus"":""img/3to1/6.png"",""time"":600},{""stimulus"":""img/3to1/7.png"",""time"":700},{""stimulus"":""img/3to1/8.png"",""time"":793},{""stimulus"":""img/3to1/9.png"",""time"":895},{""stimulus"":""img/3to1/10.png"",""time"":996},{""stimulus"":""img/3to1/11.png"",""time"":1097},{""stimulus"":""img/3to1/12.png"",""time"":1196}]","[]"
"image-keyboard-response","158","189853","0.0-5.0-1.77","63ead665638c8546d8c3a962","bdp_cybrbll","Sat Mar 25 2023 20:36:14 GMT-0400 (Eastern Daylight Time)","452445","1","3","","null","","","","observe","","img/1to3/1.png","null","148","230","0.5","0.1","1","3","",""
"animation","159","191143","0.0-5.0-2.77","63ead665638c8546d8c3a962","bdp_cybrbll","Sat Mar 25 2023 20:36:14 GMT-0400 (Eastern Daylight Time)","452445","1","3","","","","","","","","","","148","","","","1","3","[{""stimulus"":""img/1to3/1.png"",""time"":101},{""stimulus"":""img/1to3/2.png"",""time"":207},{""stimulus"":""img/1to3/3.png"",""time"":300},{""stimulus"":""img/1to3/4.png"",""time"":400},{""stimulus"":""img/1to3/5.png"",""time"":500},{""stimulus"":""img/1to3/6.png"",""time"":598},{""stimulus"":""img/1to3/7.png"",""time"":698},{""stimulus"":""img/1to3/8.png"",""time"":798},{""stimulus"":""img/1to3/9.png"",""time"":898},{""stimulus"":""img/1to3/10.png"",""time"":993},{""stimulus"":""img/1to3/11.png"",""time"":1091},{""stimulus"":""img/1to3/12.png"",""time"":1190}]","[]"
"image-keyboard-response","160","191443","0.0-5.0-1.78","63ead665638c8546d8c3a962","bdp_cybrbll","Sat Mar 25 2023 20:36:14 GMT-0400 (Eastern Daylight Time)","452445","1","3","","null","","","","observe","","img/3to2/1.png","null","147","298","0.5","0.1","3","1","",""
"animation","161","192743","0.0-5.0-2.78","63ead665638c8546d8c3a962","bdp_cybrbll","Sat Mar 25 2023 20:36:14 GMT-0400 (Eastern Daylight Time)","452445","1","3","","","","","","","","","","147","","","","3","1","[{""stimulus"":""img/3to1/1.png"",""time"":101},{""stimulus"":""img/3to1/2.png"",""time"":199},{""stimulus"":""img/3to1/3.png"",""time"":297},{""stimulus"":""img/3to1/4.png"",""time"":399},{""stimulus"":""img/3to1/5.png"",""time"":499},{""stimulus"":""img/3to1/6.png"",""time"":599},{""stimulus"":""img/3to1/7.png"",""time"":698},{""stimulus"":""img/3to1/8.png"",""time"":797},{""stimulus"":""img/3to1/9.png"",""time"":896},{""stimulus"":""img/3to1/10.png"",""time"":995},{""stimulus"":""img/3to1/11.png"",""time"":1094},{""stimulus"":""img/3to1/12.png"",""time"":1193}]","[]"
"image-keyboard-response","162","193001","0.0-5.0-1.79","63ead665638c8546d8c3a962","bdp_cybrbll","Sat Mar 25 2023 20:36:14 GMT-0400 (Eastern Daylight Time)","452445","1","3","","null","","","","observe","","img/1to3/1.png","null","146","256","0.5","0.1","1","3","",""
"animation","163","194299","0.0-5.0-2.79","63ead665638c8546d8c3a962","bdp_cybrbll","Sat Mar 25 2023 20:36:14 GMT-0400 (Eastern Daylight Time)","452445","1","3","","","","","","","","","","146","","","","1","3","[{""stimulus"":""img/1to3/1.png"",""time"":101},{""stimulus"":""img/1to3/2.png"",""time"":199},{""stimulus"":""img/1to3/3.png"",""time"":306},{""stimulus"":""img/1to3/4.png"",""time"":397},{""stimulus"":""img/1to3/5.png"",""time"":498},{""stimulus"":""img/1to3/6.png"",""time"":598},{""stimulus"":""img/1to3/7.png"",""time"":697},{""stimulus"":""img/1to3/8.png"",""time"":797},{""stimulus"":""img/1to3/9.png"",""time"":899},{""stimulus"":""img/1to3/10.png"",""time"":997},{""stimulus"":""img/1to3/11.png"",""time"":1097},{""stimulus"":""img/1to3/12.png"",""time"":1197}]","[]"
"image-keyboard-response","164","195218","0.0-5.0-1.80","63ead665638c8546d8c3a962","bdp_cybrbll","Sat Mar 25 2023 20:36:14 GMT-0400 (Eastern Daylight Time)","452445","1","3","","null","","","","observe","","img/3to2/1.png","null","145","911","0.5","0.1","3","1","",""
"animation","165","196510","0.0-5.0-2.80","63ead665638c8546d8c3a962","bdp_cybrbll","Sat Mar 25 2023 20:36:14 GMT-0400 (Eastern Daylight Time)","452445","1","3","","","","","","","","","","145","","","","3","1","[{""stimulus"":""img/3to1/1.png"",""time"":102},{""stimulus"":""img/3to1/2.png"",""time"":201},{""stimulus"":""img/3to1/3.png"",""time"":303},{""stimulus"":""img/3to1/4.png"",""time"":410},{""stimulus"":""img/3to1/5.png"",""time"":501},{""stimulus"":""img/3to1/6.png"",""time"":594},{""stimulus"":""img/3to1/7.png"",""time"":695},{""stimulus"":""img/3to1/8.png"",""time"":794},{""stimulus"":""img/3to1/9.png"",""time"":892},{""stimulus"":""img/3to1/10.png"",""time"":992},{""stimulus"":""img/3to1/11.png"",""time"":1091},{""stimulus"":""img/3to1/12.png"",""time"":1192}]","[]"
"image-keyboard-response","166","197608","0.0-5.0-1.81","63ead665638c8546d8c3a962","bdp_cybrbll","Sat Mar 25 2023 20:36:14 GMT-0400 (Eastern Daylight Time)","452445","1","3","","null","","","","observe","","img/1to3/1.png","null","144","1092","0.5","0.1","1","3","",""
"animation","167","198898","0.0-5.0-2.81","63ead665638c8546d8c3a962","bdp_cybrbll","Sat Mar 25 2023 20:36:14 GMT-0400 (Eastern Daylight Time)","452445","1","3","","","","","","","","","","144","","","","1","3","[{""stimulus"":""img/1to3/1.png"",""time"":100},{""stimulus"":""img/1to3/2.png"",""time"":200},{""stimulus"":""img/1to3/3.png"",""time"":301},{""stimulus"":""img/1to3/4.png"",""time"":401},{""stimulus"":""img/1to3/5.png"",""time"":500},{""stimulus"":""img/1to3/6.png"",""time"":600},{""stimulus"":""img/1to3/7.png"",""time"":700},{""stimulus"":""img/1to3/8.png"",""time"":801},{""stimulus"":""img/1to3/9.png"",""time"":900},{""stimulus"":""img/1to3/10.png"",""time"":991},{""stimulus"":""img/1to3/11.png"",""time"":1091},{""stimulus"":""img/1to3/12.png"",""time"":1190}]","[]"
"image-keyboard-response","168","199521","0.0-5.0-1.82","63ead665638c8546d8c3a962","bdp_cybrbll","Sat Mar 25 2023 20:36:14 GMT-0400 (Eastern Daylight Time)","452445","1","3","","null","","","","observe","","img/3to2/1.png","null","143","616","0.5","0.1","3","1","",""
"animation","169","200815","0.0-5.0-2.82","63ead665638c8546d8c3a962","bdp_cybrbll","Sat Mar 25 2023 20:36:14 GMT-0400 (Eastern Daylight Time)","452445","1","3","","","","","","","","","","143","","","","3","1","[{""stimulus"":""img/3to1/1.png"",""time"":101},{""stimulus"":""img/3to1/2.png"",""time"":200},{""stimulus"":""img/3to1/3.png"",""time"":299},{""stimulus"":""img/3to1/4.png"",""time"":399},{""stimulus"":""img/3to1/5.png"",""time"":499},{""stimulus"":""img/3to1/6.png"",""time"":598},{""stimulus"":""img/3to1/7.png"",""time"":697},{""stimulus"":""img/3to1/8.png"",""time"":795},{""stimulus"":""img/3to1/9.png"",""time"":898},{""stimulus"":""img/3to1/10.png"",""time"":996},{""stimulus"":""img/3to1/11.png"",""time"":1096},{""stimulus"":""img/3to1/12.png"",""time"":1195}]","[]"
"image-keyboard-response","170","201493","0.0-5.0-1.83","63ead665638c8546d8c3a962","bdp_cybrbll","Sat Mar 25 2023 20:36:14 GMT-0400 (Eastern Daylight Time)","452445","1","3","","null","","","","observe","","img/1to3/1.png","null","142","674","0.5","0.1","1","3","",""
"animation","171","202790","0.0-5.0-2.83","63ead665638c8546d8c3a962","bdp_cybrbll","Sat Mar 25 2023 20:36:14 GMT-0400 (Eastern Daylight Time)","452445","1","3","","","","","","","","","","142","","","","1","3","[{""stimulus"":""img/1to3/1.png"",""time"":108},{""stimulus"":""img/1to3/2.png"",""time"":207},{""stimulus"":""img/1to3/3.png"",""time"":305},{""stimulus"":""img/1to3/4.png"",""time"":404},{""stimulus"":""img/1to3/5.png"",""time"":502},{""stimulus"":""img/1to3/6.png"",""time"":601},{""stimulus"":""img/1to3/7.png"",""time"":698},{""stimulus"":""img/1to3/8.png"",""time"":796},{""stimulus"":""img/1to3/9.png"",""time"":896},{""stimulus"":""img/1to3/10.png"",""time"":998},{""stimulus"":""img/1to3/11.png"",""time"":1098},{""stimulus"":""img/1to3/12.png"",""time"":1198}]","[]"
"image-keyboard-response","172","203366","0.0-5.0-1.84","63ead665638c8546d8c3a962","bdp_cybrbll","Sat Mar 25 2023 20:36:14 GMT-0400 (Eastern Daylight Time)","452445","1","3","","null","","","","observe","","img/3to2/1.png","null","141","573","0.5","0.1","3","1","",""
"animation","173","204661","0.0-5.0-2.84","63ead665638c8546d8c3a962","bdp_cybrbll","Sat Mar 25 2023 20:36:14 GMT-0400 (Eastern Daylight Time)","452445","1","3","","","","","","","","","","141","","","","3","1","[{""stimulus"":""img/3to1/1.png"",""time"":100},{""stimulus"":""img/3to1/2.png"",""time"":204},{""stimulus"":""img/3to1/3.png"",""time"":306},{""stimulus"":""img/3to1/4.png"",""time"":405},{""stimulus"":""img/3to1/5.png"",""time"":505},{""stimulus"":""img/3to1/6.png"",""time"":595},{""stimulus"":""img/3to1/7.png"",""time"":694},{""stimulus"":""img/3to1/8.png"",""time"":793},{""stimulus"":""img/3to1/9.png"",""time"":894},{""stimulus"":""img/3to1/10.png"",""time"":995},{""stimulus"":""img/3to1/11.png"",""time"":1094},{""stimulus"":""img/3to1/12.png"",""time"":1193}]","[]"
"image-keyboard-response","174","205478","0.0-5.0-1.85","63ead665638c8546d8c3a962","bdp_cybrbll","Sat Mar 25 2023 20:36:14 GMT-0400 (Eastern Daylight Time)","452445","1","3","","null","","","","observe","","img/1to3/1.png","null","140","800","0.5","0.1","1","3","",""
"animation","175","206768","0.0-5.0-2.85","63ead665638c8546d8c3a962","bdp_cybrbll","Sat Mar 25 2023 20:36:14 GMT-0400 (Eastern Daylight Time)","452445","1","3","","","","","","","","","","140","","","","1","3","[{""stimulus"":""img/1to3/1.png"",""time"":103},{""stimulus"":""img/1to3/2.png"",""time"":200},{""stimulus"":""img/1to3/3.png"",""time"":304},{""stimulus"":""img/1to3/4.png"",""time"":401},{""stimulus"":""img/1to3/5.png"",""time"":499},{""stimulus"":""img/1to3/6.png"",""time"":598},{""stimulus"":""img/1to3/7.png"",""time"":697},{""stimulus"":""img/1to3/8.png"",""time"":794},{""stimulus"":""img/1to3/9.png"",""time"":893},{""stimulus"":""img/1to3/10.png"",""time"":1000},{""stimulus"":""img/1to3/11.png"",""time"":1090},{""stimulus"":""img/1to3/12.png"",""time"":1190}]","[]"
"image-keyboard-response","176","206993","0.0-5.0-1.86","63ead665638c8546d8c3a962","bdp_cybrbll","Sat Mar 25 2023 20:36:14 GMT-0400 (Eastern Daylight Time)","452445","1","3","","null","","","","observe","","img/3to2/1.png","null","139","216","0.5","0.1","3","1","",""
"animation","177","208286","0.0-5.0-2.86","63ead665638c8546d8c3a962","bdp_cybrbll","Sat Mar 25 2023 20:36:14 GMT-0400 (Eastern Daylight Time)","452445","1","3","","","","","","","","","","139","","","","3","1","[{""stimulus"":""img/3to1/1.png"",""time"":101},{""stimulus"":""img/3to1/2.png"",""time"":200},{""stimulus"":""img/3to1/3.png"",""time"":301},{""stimulus"":""img/3to1/4.png"",""time"":399},{""stimulus"":""img/3to1/5.png"",""time"":499},{""stimulus"":""img/3to1/6.png"",""time"":600},{""stimulus"":""img/3to1/7.png"",""time"":698},{""stimulus"":""img/3to1/8.png"",""time"":796},{""stimulus"":""img/3to1/9.png"",""time"":899},{""stimulus"":""img/3to1/10.png"",""time"":996},{""stimulus"":""img/3to1/11.png"",""time"":1094},{""stimulus"":""img/3to1/12.png"",""time"":1194}]","[]"
"image-keyboard-response","178","208733","0.0-5.0-1.87","63ead665638c8546d8c3a962","bdp_cybrbll","Sat Mar 25 2023 20:36:14 GMT-0400 (Eastern Daylight Time)","452445","1","3","","null","","","","observe","","img/1to3/1.png","null","138","440","0.5","0.1","1","2","",""
"animation","179","210021","0.0-5.0-2.87","63ead665638c8546d8c3a962","bdp_cybrbll","Sat Mar 25 2023 20:36:14 GMT-0400 (Eastern Daylight Time)","452445","1","3","","","","","","","","","","138","","","","1","2","[{""stimulus"":""img/1to2/1.png"",""time"":117},{""stimulus"":""img/1to2/2.png"",""time"":199},{""stimulus"":""img/1to2/3.png"",""time"":300},{""stimulus"":""img/1to2/4.png"",""time"":400},{""stimulus"":""img/1to2/5.png"",""time"":500},{""stimulus"":""img/1to2/6.png"",""time"":599},{""stimulus"":""img/1to2/7.png"",""time"":698},{""stimulus"":""img/1to2/8.png"",""time"":799},{""stimulus"":""img/1to2/9.png"",""time"":899},{""stimulus"":""img/1to2/10.png"",""time"":999},{""stimulus"":""img/1to2/11.png"",""time"":1097},{""stimulus"":""img/1to2/12.png"",""time"":1190}]","[]"
"image-keyboard-response","180","210287","0.0-5.0-1.88","63ead665638c8546d8c3a962","bdp_cybrbll","Sat Mar 25 2023 20:36:14 GMT-0400 (Eastern Daylight Time)","452445","1","3","","265","","","","choice","","img/2to1/1.png","2","137","862","0.5","0.1","2","3","",""
"animation","181","211576","0.0-5.0-2.88","63ead665638c8546d8c3a962","bdp_cybrbll","Sat Mar 25 2023 20:36:14 GMT-0400 (Eastern Daylight Time)","452445","1","3","","","","","","","","","","137","","","","2","3","[{""stimulus"":""img/2to3/1.png"",""time"":104},{""stimulus"":""img/2to3/2.png"",""time"":204},{""stimulus"":""img/2to3/3.png"",""time"":304},{""stimulus"":""img/2to3/4.png"",""time"":403},{""stimulus"":""img/2to3/5.png"",""time"":502},{""stimulus"":""img/2to3/6.png"",""time"":602},{""stimulus"":""img/2to3/7.png"",""time"":702},{""stimulus"":""img/2to3/8.png"",""time"":796},{""stimulus"":""img/2to3/9.png"",""time"":893},{""stimulus"":""img/2to3/10.png"",""time"":992},{""stimulus"":""img/2to3/11.png"",""time"":1091},{""stimulus"":""img/2to3/12.png"",""time"":1190}]","[]"
"image-keyboard-response","182","212379","0.0-5.0-1.89","63ead665638c8546d8c3a962","bdp_cybrbll","Sat Mar 25 2023 20:36:14 GMT-0400 (Eastern Daylight Time)","452445","1","3","","null","","","","observe","","img/3to2/1.png","null","136","791","0.5","0.1","3","1","",""
"animation","183","213669","0.0-5.0-2.89","63ead665638c8546d8c3a962","bdp_cybrbll","Sat Mar 25 2023 20:36:14 GMT-0400 (Eastern Daylight Time)","452445","1","3","","","","","","","","","","136","","","","3","1","[{""stimulus"":""img/3to1/1.png"",""time"":105},{""stimulus"":""img/3to1/2.png"",""time"":203},{""stimulus"":""img/3to1/3.png"",""time"":301},{""stimulus"":""img/3to1/4.png"",""time"":404},{""stimulus"":""img/3to1/5.png"",""time"":502},{""stimulus"":""img/3to1/6.png"",""time"":595},{""stimulus"":""img/3to1/7.png"",""time"":694},{""stimulus"":""img/3to1/8.png"",""time"":800},{""stimulus"":""img/3to1/9.png"",""time"":899},{""stimulus"":""img/3to1/10.png"",""time"":999},{""stimulus"":""img/3to1/11.png"",""time"":1092},{""stimulus"":""img/3to1/12.png"",""time"":1193}]","[]"
"image-keyboard-response","184","215183","0.0-5.0-1.90","63ead665638c8546d8c3a962","bdp_cybrbll","Sat Mar 25 2023 20:36:14 GMT-0400 (Eastern Daylight Time)","452445","1","3","","null","","","","observe","","img/1to3/1.png","null","135","1509","0.5","0.1","1","2","",""
"animation","185","216477","0.0-5.0-2.90","63ead665638c8546d8c3a962","bdp_cybrbll","Sat Mar 25 2023 20:36:14 GMT-0400 (Eastern Daylight Time)","452445","1","3","","","","","","","","","","135","","","","1","2","[{""stimulus"":""img/1to2/1.png"",""time"":102},{""stimulus"":""img/1to2/2.png"",""time"":201},{""stimulus"":""img/1to2/3.png"",""time"":299},{""stimulus"":""img/1to2/4.png"",""time"":398},{""stimulus"":""img/1to2/5.png"",""time"":500},{""stimulus"":""img/1to2/6.png"",""time"":598},{""stimulus"":""img/1to2/7.png"",""time"":700},{""stimulus"":""img/1to2/8.png"",""time"":798},{""stimulus"":""img/1to2/9.png"",""time"":898},{""stimulus"":""img/1to2/10.png"",""time"":998},{""stimulus"":""img/1to2/11.png"",""time"":1090},{""stimulus"":""img/1to2/12.png"",""time"":1189}]","[]"
"image-keyboard-response","186","216700","0.0-5.0-1.91","63ead665638c8546d8c3a962","bdp_cybrbll","Sat Mar 25 2023 20:36:14 GMT-0400 (Eastern Daylight Time)","452445","1","3","","222","","","","choice","","img/2to1/1.png","1","134","293","0.5","0.1","2","1","",""
"animation","187","217994","0.0-5.0-2.91","63ead665638c8546d8c3a962","bdp_cybrbll","Sat Mar 25 2023 20:36:14 GMT-0400 (Eastern Daylight Time)","452445","1","3","","","","","","","","","","134","","","","2","1","[{""stimulus"":""img/2to1/1.png"",""time"":100},{""stimulus"":""img/2to1/2.png"",""time"":199},{""stimulus"":""img/2to1/3.png"",""time"":302},{""stimulus"":""img/2to1/4.png"",""time"":401},{""stimulus"":""img/2to1/5.png"",""time"":500},{""stimulus"":""img/2to1/6.png"",""time"":600},{""stimulus"":""img/2to1/7.png"",""time"":700},{""stimulus"":""img/2to1/8.png"",""time"":800},{""stimulus"":""img/2to1/9.png"",""time"":899},{""stimulus"":""img/2to1/10.png"",""time"":1007},{""stimulus"":""img/2to1/11.png"",""time"":1098},{""stimulus"":""img/2to1/12.png"",""time"":1196}]","[]"
"image-keyboard-response","188","218486","0.0-5.0-1.92","63ead665638c8546d8c3a962","bdp_cybrbll","Sat Mar 25 2023 20:36:14 GMT-0400 (Eastern Daylight Time)","452445","1","3","","null","","","","observe","","img/1to3/1.png","null","133","488","0.5","0.1","1","2","",""
"animation","189","219776","0.0-5.0-2.92","63ead665638c8546d8c3a962","bdp_cybrbll","Sat Mar 25 2023 20:36:14 GMT-0400 (Eastern Daylight Time)","452445","1","3","","","","","","","","","","133","","","","1","2","[{""stimulus"":""img/1to2/1.png"",""time"":103},{""stimulus"":""img/1to2/2.png"",""time"":206},{""stimulus"":""img/1to2/3.png"",""time"":304},{""stimulus"":""img/1to2/4.png"",""time"":397},{""stimulus"":""img/1to2/5.png"",""time"":504},{""stimulus"":""img/1to2/6.png"",""time"":602},{""stimulus"":""img/1to2/7.png"",""time"":694},{""stimulus"":""img/1to2/8.png"",""time"":793},{""stimulus"":""img/1to2/9.png"",""time"":893},{""stimulus"":""img/1to2/10.png"",""time"":992},{""stimulus"":""img/1to2/11.png"",""time"":1091},{""stimulus"":""img/1to2/12.png"",""time"":1192}]","[]"
"image-keyboard-response","190","220136","0.0-5.0-1.93","63ead665638c8546d8c3a962","bdp_cybrbll","Sat Mar 25 2023 20:36:14 GMT-0400 (Eastern Daylight Time)","452445","1","3","","359","","","","choice","","img/2to1/1.png","2","132","361","0.5","0.1","2","3","",""
