"trial_type","trial_index","time_elapsed","internal_node_id","subject_id","task","startTime","totalTime","fairPartner","unfairPartner","view_history","rt","event","trial","time","trialtype","success","stimulus","key_press","throwsLeft","rtDur","pFair","pUnfair","holder","receiver","animation_sequence","responses"
"pavlovia","0","1","0.0-0.0","5ec0aeb3d216ee36d856ead2","bdp_cybrbll","Sat Mar 25 2023 23:43:57 GMT-0400 (Eastern Daylight Time)","432053","3","1","","","","","","","","","","","","","","","","",""
"instructions","1","2751","0.0-1.0","5ec0aeb3d216ee36d856ead2","bdp_cybrbll","Sat Mar 25 2023 23:43:57 GMT-0400 (Eastern Daylight Time)","432053","3","1","[{""page_index"":0,""viewing_time"":2748}]","2749","","","","","","","","","","","","","","",""
"","","","","5ec0aeb3d216ee36d856ead2","bdp_cybrbll","Sat Mar 25 2023 23:43:57 GMT-0400 (Eastern Daylight Time)","432053","3","1","","","fullscreenenter","2","5446","fullscreenenter","","","","","","","","","","",""
"fullscreen","2","6438","0.0-2.0","5ec0aeb3d216ee36d856ead2","bdp_cybrbll","Sat Mar 25 2023 23:43:57 GMT-0400 (Eastern Daylight Time)","432053","3","1","","","","","","","true","","","","","","","","","",""
"instructions","3","28728","0.0-4.0","5ec0aeb3d216ee36d856ead2","bdp_cybrbll","Sat Mar 25 2023 23:43:57 GMT-0400 (Eastern Daylight Time)","432053","3","1","[{""page_index"":0,""viewing_time"":22289}]","22289","","","","","","","","","","","","","","",""
"image-keyboard-response","4","29846","0.0-5.0-1.0","5ec0aeb3d216ee36d856ead2","bdp_cybrbll","Sat Mar 25 2023 23:43:57 GMT-0400 (Eastern Daylight Time)","432053","3","1","","1114","","","","choice","","img/2to1/1.png","1","225","532","0.5","0.5","2","1","",""
"animation","5","31135","0.0-5.0-2.0","5ec0aeb3d216ee36d856ead2","bdp_cybrbll","Sat Mar 25 2023 23:43:57 GMT-0400 (Eastern Daylight Time)","432053","3","1","","","","","","","","","","225","","","","2","1","[{""stimulus"":""img/2to1/1.png"",""time"":100},{""stimulus"":""img/2to1/2.png"",""time"":199},{""stimulus"":""img/2to1/3.png"",""time"":298},{""stimulus"":""img/2to1/4.png"",""time"":397},{""stimulus"":""img/2to1/5.png"",""time"":496},{""stimulus"":""img/2to1/6.png"",""time"":594},{""stimulus"":""img/2to1/7.png"",""time"":694},{""stimulus"":""img/2to1/8.png"",""time"":794},{""stimulus"":""img/2to1/9.png"",""time"":892},{""stimulus"":""img/2to1/10.png"",""time"":991},{""stimulus"":""img/2to1/11.png"",""time"":1089},{""stimulus"":""img/2to1/12.png"",""time"":1189}]","[]"
"image-keyboard-response","6","31389","0.0-5.0-1.1","5ec0aeb3d216ee36d856ead2","bdp_cybrbll","Sat Mar 25 2023 23:43:57 GMT-0400 (Eastern Daylight Time)","432053","3","1","","null","","","","observe","","img/1to3/1.png","null","224","252","0.5","0.5","1","2","",""
"animation","7","32677","0.0-5.0-2.1","5ec0aeb3d216ee36d856ead2","bdp_cybrbll","Sat Mar 25 2023 23:43:57 GMT-0400 (Eastern Daylight Time)","432053","3","1","","","","","","","","","","224","","","","1","2","[{""stimulus"":""img/1to2/1.png"",""time"":100},{""stimulus"":""img/1to2/2.png"",""time"":199},{""stimulus"":""img/1to2/3.png"",""time"":298},{""stimulus"":""img/1to2/4.png"",""time"":397},{""stimulus"":""img/1to2/5.png"",""time"":497},{""stimulus"":""img/1to2/6.png"",""time"":595},{""stimulus"":""img/1to2/7.png"",""time"":694},{""stimulus"":""img/1to2/8.png"",""time"":793},{""stimulus"":""img/1to2/9.png"",""time"":892},{""stimulus"":""img/1to2/10.png"",""time"":991},{""stimulus"":""img/1to2/11.png"",""time"":1091},{""stimulus"":""img/1to2/12.png"",""time"":1189}]","[]"
"image-keyboard-response","8","32798","0.0-5.0-1.2","5ec0aeb3d216ee36d856ead2","bdp_cybrbll","Sat Mar 25 2023 23:43:57 GMT-0400 (Eastern Daylight Time)","432053","3","1","","119","","","","choice","","img/2to1/1.png","2","223","554","0.5","0.5","2","3","",""
"animation","9","34085","0.0-5.0-2.2","5ec0aeb3d216ee36d856ead2","bdp_cybrbll","Sat Mar 25 2023 23:43:57 GMT-0400 (Eastern Daylight Time)","432053","3","1","","","","","","","","","","223","","","","2","3","[{""stimulus"":""img/2to3/1.png"",""time"":100},{""stimulus"":""img/2to3/2.png"",""time"":199},{""stimulus"":""img/2to3/3.png"",""time"":299},{""stimulus"":""img/2to3/4.png"",""time"":397},{""stimulus"":""img/2to3/5.png"",""time"":501},{""stimulus"":""img/2to3/6.png"",""time"":595},{""stimulus"":""img/2to3/7.png"",""time"":695},{""stimulus"":""img/2to3/8.png"",""time"":794},{""stimulus"":""img/2to3/9.png"",""time"":892},{""stimulus"":""img/2to3/10.png"",""time"":991},{""stimulus"":""img/2to3/11.png"",""time"":1091},{""stimulus"":""img/2to3/12.png"",""time"":1189}]","[]"
"image-keyboard-response","10","34489","0.0-5.0-1.3","5ec0aeb3d216ee36d856ead2","bdp_cybrbll","Sat Mar 25 2023 23:43:57 GMT-0400 (Eastern Daylight Time)","432053","3","1","","null","","","","observe","","img/3to2/1.png","null","222","402","0.5","0.5","3","2","",""
"animation","11","35778","0.0-5.0-2.3","5ec0aeb3d216ee36d856ead2","bdp_cybrbll","Sat Mar 25 2023 23:43:57 GMT-0400 (Eastern Daylight Time)","432053","3","1","","","","","","","","","","222","","","","3","2","[{""stimulus"":""img/3to2/1.png"",""time"":99},{""stimulus"":""img/3to2/2.png"",""time"":199},{""stimulus"":""img/3to2/3.png"",""time"":298},{""stimulus"":""img/3to2/4.png"",""time"":396},{""stimulus"":""img/3to2/5.png"",""time"":495},{""stimulus"":""img/3to2/6.png"",""time"":594},{""stimulus"":""img/3to2/7.png"",""time"":693},{""stimulus"":""img/3to2/8.png"",""time"":794},{""stimulus"":""img/3to2/9.png"",""time"":892},{""stimulus"":""img/3to2/10.png"",""time"":992},{""stimulus"":""img/3to2/11.png"",""time"":1089},{""stimulus"":""img/3to2/12.png"",""time"":1189}]","[]"
"image-keyboard-response","12","36153","0.0-5.0-1.4","5ec0aeb3d216ee36d856ead2","bdp_cybrbll","Sat Mar 25 2023 23:43:57 GMT-0400 (Eastern Daylight Time)","432053","3","1","","374","","","","choice","","img/2to1/1.png","2","221","354","0.5","0.5","2","3","",""
"animation","13","37441","0.0-5.0-2.4","5ec0aeb3d216ee36d856ead2","bdp_cybrbll","Sat Mar 25 2023 23:43:57 GMT-0400 (Eastern Daylight Time)","432053","3","1","","","","","","","","","","221","","","","2","3","[{""stimulus"":""img/2to3/1.png"",""time"":100},{""stimulus"":""img/2to3/2.png"",""time"":200},{""stimulus"":""img/2to3/3.png"",""time"":298},{""stimulus"":""img/2to3/4.png"",""time"":397},{""stimulus"":""img/2to3/5.png"",""time"":496},{""stimulus"":""img/2to3/6.png"",""time"":595},{""stimulus"":""img/2to3/7.png"",""time"":694},{""stimulus"":""img/2to3/8.png"",""time"":793},{""stimulus"":""img/2to3/9.png"",""time"":892},{""stimulus"":""img/2to3/10.png"",""time"":991},{""stimulus"":""img/2to3/11.png"",""time"":1089},{""stimulus"":""img/2to3/12.png"",""time"":1189}]","[]"
"image-keyboard-response","14","38199","0.0-5.0-1.5","5ec0aeb3d216ee36d856ead2","bdp_cybrbll","Sat Mar 25 2023 23:43:57 GMT-0400 (Eastern Daylight Time)","432053","3","1","","null","","","","observe","","img/3to2/1.png","null","220","756","0.5","0.5","3","2","",""
"animation","15","39487","0.0-5.0-2.5","5ec0aeb3d216ee36d856ead2","bdp_cybrbll","Sat Mar 25 2023 23:43:57 GMT-0400 (Eastern Daylight Time)","432053","3","1","","","","","","","","","","220","","","","3","2","[{""stimulus"":""img/3to2/1.png"",""time"":101},{""stimulus"":""img/3to2/2.png"",""time"":199},{""stimulus"":""img/3to2/3.png"",""time"":298},{""stimulus"":""img/3to2/4.png"",""time"":397},{""stimulus"":""img/3to2/5.png"",""time"":496},{""stimulus"":""img/3to2/6.png"",""time"":596},{""stimulus"":""img/3to2/7.png"",""time"":694},{""stimulus"":""img/3to2/8.png"",""time"":793},{""stimulus"":""img/3to2/9.png"",""time"":892},{""stimulus"":""img/3to2/10.png"",""time"":991},{""stimulus"":""img/3to2/11.png"",""time"":1105},{""stimulus"":""img/3to2/12.png"",""time"":1189}]","[]"
"image-keyboard-response","16","39976","0.0-5.0-1.6","5ec0aeb3d216ee36d856ead2","bdp_cybrbll","Sat Mar 25 2023 23:43:57 GMT-0400 (Eastern Daylight Time)","432053","3","1","","488","","","","choice","","img/2to1/1.png","1","219","577","0.5","0.5","2","1","",""
"animation","17","41264","0.0-5.0-2.6","5ec0aeb3d216ee36d856ead2","bdp_cybrbll","Sat Mar 25 2023 23:43:57 GMT-0400 (Eastern Daylight Time)","432053","3","1","","","","","","","","","","219","","","","2","1","[{""stimulus"":""img/2to1/1.png"",""time"":100},{""stimulus"":""img/2to1/2.png"",""time"":199},{""stimulus"":""img/2to1/3.png"",""time"":299},{""stimulus"":""img/2to1/4.png"",""time"":398},{""stimulus"":""img/2to1/5.png"",""time"":496},{""stimulus"":""img/2to1/6.png"",""time"":595},{""stimulus"":""img/2to1/7.png"",""time"":695},{""stimulus"":""img/2to1/8.png"",""time"":793},{""stimulus"":""img/2to1/9.png"",""time"":893},{""stimulus"":""img/2to1/10.png"",""time"":991},{""stimulus"":""img/2to1/11.png"",""time"":1090},{""stimulus"":""img/2to1/12.png"",""time"":1190}]","[]"
"image-keyboard-response","18","41615","0.0-5.0-1.7","5ec0aeb3d216ee36d856ead2","bdp_cybrbll","Sat Mar 25 2023 23:43:57 GMT-0400 (Eastern Daylight Time)","432053","3","1","","null","","","","observe","","img/1to3/1.png","null","218","350","0.5","0.5","1","3","",""
"animation","19","42904","0.0-5.0-2.7","5ec0aeb3d216ee36d856ead2","bdp_cybrbll","Sat Mar 25 2023 23:43:57 GMT-0400 (Eastern Daylight Time)","432053","3","1","","","","","","","","","","218","","","","1","3","[{""stimulus"":""img/1to3/1.png"",""time"":100},{""stimulus"":""img/1to3/2.png"",""time"":199},{""stimulus"":""img/1to3/3.png"",""time"":298},{""stimulus"":""img/1to3/4.png"",""time"":398},{""stimulus"":""img/1to3/5.png"",""time"":496},{""stimulus"":""img/1to3/6.png"",""time"":595},{""stimulus"":""img/1to3/7.png"",""time"":694},{""stimulus"":""img/1to3/8.png"",""time"":793},{""stimulus"":""img/1to3/9.png"",""time"":891},{""stimulus"":""img/1to3/10.png"",""time"":991},{""stimulus"":""img/1to3/11.png"",""time"":1090},{""stimulus"":""img/1to3/12.png"",""time"":1199}]","[]"
"image-keyboard-response","20","43477","0.0-5.0-1.8","5ec0aeb3d216ee36d856ead2","bdp_cybrbll","Sat Mar 25 2023 23:43:57 GMT-0400 (Eastern Daylight Time)","432053","3","1","","null","","","","observe","","img/3to2/1.png","null","217","571","0.5","0.5","3","1","",""
"animation","21","44765","0.0-5.0-2.8","5ec0aeb3d216ee36d856ead2","bdp_cybrbll","Sat Mar 25 2023 23:43:57 GMT-0400 (Eastern Daylight Time)","432053","3","1","","","","","","","","","","217","","","","3","1","[{""stimulus"":""img/3to1/1.png"",""time"":100},{""stimulus"":""img/3to1/2.png"",""time"":198},{""stimulus"":""img/3to1/3.png"",""time"":298},{""stimulus"":""img/3to1/4.png"",""time"":397},{""stimulus"":""img/3to1/5.png"",""time"":496},{""stimulus"":""img/3to1/6.png"",""time"":595},{""stimulus"":""img/3to1/7.png"",""time"":694},{""stimulus"":""img/3to1/8.png"",""time"":793},{""stimulus"":""img/3to1/9.png"",""time"":892},{""stimulus"":""img/3to1/10.png"",""time"":991},{""stimulus"":""img/3to1/11.png"",""time"":1090},{""stimulus"":""img/3to1/12.png"",""time"":1189}]","[]"
"image-keyboard-response","22","44981","0.0-5.0-1.9","5ec0aeb3d216ee36d856ead2","bdp_cybrbll","Sat Mar 25 2023 23:43:57 GMT-0400 (Eastern Daylight Time)","432053","3","1","","null","","","","observe","","img/1to3/1.png","null","216","214","0.5","0.5","1","2","",""
"animation","23","46269","0.0-5.0-2.9","5ec0aeb3d216ee36d856ead2","bdp_cybrbll","Sat Mar 25 2023 23:43:57 GMT-0400 (Eastern Daylight Time)","432053","3","1","","","","","","","","","","216","","","","1","2","[{""stimulus"":""img/1to2/1.png"",""time"":100},{""stimulus"":""img/1to2/2.png"",""time"":199},{""stimulus"":""img/1to2/3.png"",""time"":298},{""stimulus"":""img/1to2/4.png"",""time"":398},{""stimulus"":""img/1to2/5.png"",""time"":496},{""stimulus"":""img/1to2/6.png"",""time"":595},{""stimulus"":""img/1to2/7.png"",""time"":694},{""stimulus"":""img/1to2/8.png"",""time"":793},{""stimulus"":""img/1to2/9.png"",""time"":892},{""stimulus"":""img/1to2/10.png"",""time"":991},{""stimulus"":""img/1to2/11.png"",""time"":1090},{""stimulus"":""img/1to2/12.png"",""time"":1189}]","[]"
"image-keyboard-response","24","46654","0.0-5.0-1.10","5ec0aeb3d216ee36d856ead2","bdp_cybrbll","Sat Mar 25 2023 23:43:57 GMT-0400 (Eastern Daylight Time)","432053","3","1","","384","","","","choice","","img/2to1/1.png","2","215","369","0.5","0.5","2","3","",""
"animation","25","47942","0.0-5.0-2.10","5ec0aeb3d216ee36d856ead2","bdp_cybrbll","Sat Mar 25 2023 23:43:57 GMT-0400 (Eastern Daylight Time)","432053","3","1","","","","","","","","","","215","","","","2","3","[{""stimulus"":""img/2to3/1.png"",""time"":99},{""stimulus"":""img/2to3/2.png"",""time"":199},{""stimulus"":""img/2to3/3.png"",""time"":298},{""stimulus"":""img/2to3/4.png"",""time"":397},{""stimulus"":""img/2to3/5.png"",""time"":495},{""stimulus"":""img/2to3/6.png"",""time"":594},{""stimulus"":""img/2to3/7.png"",""time"":694},{""stimulus"":""img/2to3/8.png"",""time"":793},{""stimulus"":""img/2to3/9.png"",""time"":891},{""stimulus"":""img/2to3/10.png"",""time"":990},{""stimulus"":""img/2to3/11.png"",""time"":1090},{""stimulus"":""img/2to3/12.png"",""time"":1189}]","[]"
"image-keyboard-response","26","48737","0.0-5.0-1.11","5ec0aeb3d216ee36d856ead2","bdp_cybrbll","Sat Mar 25 2023 23:43:57 GMT-0400 (Eastern Daylight Time)","432053","3","1","","null","","","","observe","","img/3to2/1.png","null","214","794","0.5","0.5","3","2","",""
"animation","27","50026","0.0-5.0-2.11","5ec0aeb3d216ee36d856ead2","bdp_cybrbll","Sat Mar 25 2023 23:43:57 GMT-0400 (Eastern Daylight Time)","432053","3","1","","","","","","","","","","214","","","","3","2","[{""stimulus"":""img/3to2/1.png"",""time"":100},{""stimulus"":""img/3to2/2.png"",""time"":200},{""stimulus"":""img/3to2/3.png"",""time"":298},{""stimulus"":""img/3to2/4.png"",""time"":396},{""stimulus"":""img/3to2/5.png"",""time"":496},{""stimulus"":""img/3to2/6.png"",""time"":595},{""stimulus"":""img/3to2/7.png"",""time"":694},{""stimulus"":""img/3to2/8.png"",""time"":792},{""stimulus"":""img/3to2/9.png"",""time"":891},{""stimulus"":""img/3to2/10.png"",""time"":991},{""stimulus"":""img/3to2/11.png"",""time"":1090},{""stimulus"":""img/3to2/12.png"",""time"":1189}]","[]"
"image-keyboard-response","28","50473","0.0-5.0-1.12","5ec0aeb3d216ee36d856ead2","bdp_cybrbll","Sat Mar 25 2023 23:43:57 GMT-0400 (Eastern Daylight Time)","432053","3","1","","447","","","","choice","","img/2to1/1.png","2","213","500","0.5","0.5","2","3","",""
"animation","29","51761","0.0-5.0-2.12","5ec0aeb3d216ee36d856ead2","bdp_cybrbll","Sat Mar 25 2023 23:43:57 GMT-0400 (Eastern Daylight Time)","432053","3","1","","","","","","","","","","213","","","","2","3","[{""stimulus"":""img/2to3/1.png"",""time"":100},{""stimulus"":""img/2to3/2.png"",""time"":198},{""stimulus"":""img/2to3/3.png"",""time"":297},{""stimulus"":""img/2to3/4.png"",""time"":397},{""stimulus"":""img/2to3/5.png"",""time"":497},{""stimulus"":""img/2to3/6.png"",""time"":594},{""stimulus"":""img/2to3/7.png"",""time"":693},{""stimulus"":""img/2to3/8.png"",""time"":793},{""stimulus"":""img/2to3/9.png"",""time"":892},{""stimulus"":""img/2to3/10.png"",""time"":991},{""stimulus"":""img/2to3/11.png"",""time"":1089},{""stimulus"":""img/2to3/12.png"",""time"":1189}]","[]"
"image-keyboard-response","30","52053","0.0-5.0-1.13","5ec0aeb3d216ee36d856ead2","bdp_cybrbll","Sat Mar 25 2023 23:43:57 GMT-0400 (Eastern Daylight Time)","432053","3","1","","null","","","","observe","","img/3to2/1.png","null","212","291","0.5","0.5","3","2","",""
"animation","31","53354","0.0-5.0-2.13","5ec0aeb3d216ee36d856ead2","bdp_cybrbll","Sat Mar 25 2023 23:43:57 GMT-0400 (Eastern Daylight Time)","432053","3","1","","","","","","","","","","212","","","","3","2","[{""stimulus"":""img/3to2/1.png"",""time"":99},{""stimulus"":""img/3to2/2.png"",""time"":198},{""stimulus"":""img/3to2/3.png"",""time"":298},{""stimulus"":""img/3to2/4.png"",""time"":397},{""stimulus"":""img/3to2/5.png"",""time"":496},{""stimulus"":""img/3to2/6.png"",""time"":595},{""stimulus"":""img/3to2/7.png"",""time"":698},{""stimulus"":""img/3to2/8.png"",""time"":793},{""stimulus"":""img/3to2/9.png"",""time"":891},{""stimulus"":""img/3to2/10.png"",""time"":990},{""stimulus"":""img/3to2/11.png"",""time"":1089},{""stimulus"":""img/3to2/12.png"",""time"":1189}]","[]"
"image-keyboard-response","32","53430","0.0-5.0-1.14","5ec0aeb3d216ee36d856ead2","bdp_cybrbll","Sat Mar 25 2023 23:43:57 GMT-0400 (Eastern Daylight Time)","432053","3","1","","76","","","","choice","","img/2to1/1.png","1","211","674","0.5","0.5","2","1","",""
"animation","33","54717","0.0-5.0-2.14","5ec0aeb3d216ee36d856ead2","bdp_cybrbll","Sat Mar 25 2023 23:43:57 GMT-0400 (Eastern Daylight Time)","432053","3","1","","","","","","","","","","211","","","","2","1","[{""stimulus"":""img/2to1/1.png"",""time"":100},{""stimulus"":""img/2to1/2.png"",""time"":199},{""stimulus"":""img/2to1/3.png"",""time"":298},{""stimulus"":""img/2to1/4.png"",""time"":397},{""stimulus"":""img/2to1/5.png"",""time"":496},{""stimulus"":""img/2to1/6.png"",""time"":595},{""stimulus"":""img/2to1/7.png"",""time"":694},{""stimulus"":""img/2to1/8.png"",""time"":793},{""stimulus"":""img/2to1/9.png"",""time"":893},{""stimulus"":""img/2to1/10.png"",""time"":991},{""stimulus"":""img/2to1/11.png"",""time"":1090},{""stimulus"":""img/2to1/12.png"",""time"":1189}]","[]"
"image-keyboard-response","34","55229","0.0-5.0-1.15","5ec0aeb3d216ee36d856ead2","bdp_cybrbll","Sat Mar 25 2023 23:43:57 GMT-0400 (Eastern Daylight Time)","432053","3","1","","null","","","","observe","","img/1to3/1.png","null","210","510","0.5","0.5","1","3","",""
"animation","35","56517","0.0-5.0-2.15","5ec0aeb3d216ee36d856ead2","bdp_cybrbll","Sat Mar 25 2023 23:43:57 GMT-0400 (Eastern Daylight Time)","432053","3","1","","","","","","","","","","210","","","","1","3","[{""stimulus"":""img/1to3/1.png"",""time"":102},{""stimulus"":""img/1to3/2.png"",""time"":199},{""stimulus"":""img/1to3/3.png"",""time"":298},{""stimulus"":""img/1to3/4.png"",""time"":397},{""stimulus"":""img/1to3/5.png"",""time"":496},{""stimulus"":""img/1to3/6.png"",""time"":595},{""stimulus"":""img/1to3/7.png"",""time"":694},{""stimulus"":""img/1to3/8.png"",""time"":793},{""stimulus"":""img/1to3/9.png"",""time"":892},{""stimulus"":""img/1to3/10.png"",""time"":991},{""stimulus"":""img/1to3/11.png"",""time"":1091},{""stimulus"":""img/1to3/12.png"",""time"":1189}]","[]"
"image-keyboard-response","36","57192","0.0-5.0-1.16","5ec0aeb3d216ee36d856ead2","bdp_cybrbll","Sat Mar 25 2023 23:43:57 GMT-0400 (Eastern Daylight Time)","432053","3","1","","null","","","","observe","","img/3to2/1.png","null","209","674","0.5","0.5","3","2","",""
"animation","37","58480","0.0-5.0-2.16","5ec0aeb3d216ee36d856ead2","bdp_cybrbll","Sat Mar 25 2023 23:43:57 GMT-0400 (Eastern Daylight Time)","432053","3","1","","","","","","","","","","209","","","","3","2","[{""stimulus"":""img/3to2/1.png"",""time"":100},{""stimulus"":""img/3to2/2.png"",""time"":198},{""stimulus"":""img/3to2/3.png"",""time"":297},{""stimulus"":""img/3to2/4.png"",""time"":397},{""stimulus"":""img/3to2/5.png"",""time"":496},{""stimulus"":""img/3to2/6.png"",""time"":595},{""stimulus"":""img/3to2/7.png"",""time"":694},{""stimulus"":""img/3to2/8.png"",""time"":793},{""stimulus"":""img/3to2/9.png"",""time"":891},{""stimulus"":""img/3to2/10.png"",""time"":990},{""stimulus"":""img/3to2/11.png"",""time"":1090},{""stimulus"":""img/3to2/12.png"",""time"":1189}]","[]"
"image-keyboard-response","38","59088","0.0-5.0-1.17","5ec0aeb3d216ee36d856ead2","bdp_cybrbll","Sat Mar 25 2023 23:43:57 GMT-0400 (Eastern Daylight Time)","432053","3","1","","607","","","","choice","","img/2to1/1.png","2","208","142","0.5","0.5","2","3","",""
"animation","39","60376","0.0-5.0-2.17","5ec0aeb3d216ee36d856ead2","bdp_cybrbll","Sat Mar 25 2023 23:43:57 GMT-0400 (Eastern Daylight Time)","432053","3","1","","","","","","","","","","208","","","","2","3","[{""stimulus"":""img/2to3/1.png"",""time"":100},{""stimulus"":""img/2to3/2.png"",""time"":199},{""stimulus"":""img/2to3/3.png"",""time"":298},{""stimulus"":""img/2to3/4.png"",""time"":398},{""stimulus"":""img/2to3/5.png"",""time"":496},{""stimulus"":""img/2to3/6.png"",""time"":596},{""stimulus"":""img/2to3/7.png"",""time"":695},{""stimulus"":""img/2to3/8.png"",""time"":793},{""stimulus"":""img/2to3/9.png"",""time"":893},{""stimulus"":""img/2to3/10.png"",""time"":992},{""stimulus"":""img/2to3/11.png"",""time"":1090},{""stimulus"":""img/2to3/12.png"",""time"":1189}]","[]"
"image-keyboard-response","40","61179","0.0-5.0-1.18","5ec0aeb3d216ee36d856ead2","bdp_cybrbll","Sat Mar 25 2023 23:43:57 GMT-0400 (Eastern Daylight Time)","432053","3","1","","null","","","","observe","","img/3to2/1.png","null","207","803","0.5","0.5","3","2","",""
"animation","41","62468","0.0-5.0-2.18","5ec0aeb3d216ee36d856ead2","bdp_cybrbll","Sat Mar 25 2023 23:43:57 GMT-0400 (Eastern Daylight Time)","432053","3","1","","","","","","","","","","207","","","","3","2","[{""stimulus"":""img/3to2/1.png"",""time"":100},{""stimulus"":""img/3to2/2.png"",""time"":199},{""stimulus"":""img/3to2/3.png"",""time"":297},{""stimulus"":""img/3to2/4.png"",""time"":397},{""stimulus"":""img/3to2/5.png"",""time"":496},{""stimulus"":""img/3to2/6.png"",""time"":595},{""stimulus"":""img/3to2/7.png"",""time"":693},{""stimulus"":""img/3to2/8.png"",""time"":794},{""stimulus"":""img/3to2/9.png"",""time"":893},{""stimulus"":""img/3to2/10.png"",""time"":993},{""stimulus"":""img/3to2/11.png"",""time"":1091},{""stimulus"":""img/3to2/12.png"",""time"":1189}]","[]"
"image-keyboard-response","42","62987","0.0-5.0-1.19","5ec0aeb3d216ee36d856ead2","bdp_cybrbll","Sat Mar 25 2023 23:43:57 GMT-0400 (Eastern Daylight Time)","432053","3","1","","517","","","","choice","","img/2to1/1.png","2","206","262","0.5","0.5","2","3","",""
"animation","43","64275","0.0-5.0-2.19","5ec0aeb3d216ee36d856ead2","bdp_cybrbll","Sat Mar 25 2023 23:43:57 GMT-0400 (Eastern Daylight Time)","432053","3","1","","","","","","","","","","206","","","","2","3","[{""stimulus"":""img/2to3/1.png"",""time"":100},{""stimulus"":""img/2to3/2.png"",""time"":200},{""stimulus"":""img/2to3/3.png"",""time"":298},{""stimulus"":""img/2to3/4.png"",""time"":398},{""stimulus"":""img/2to3/5.png"",""time"":495},{""stimulus"":""img/2to3/6.png"",""time"":595},{""stimulus"":""img/2to3/7.png"",""time"":694},{""stimulus"":""img/2to3/8.png"",""time"":792},{""stimulus"":""img/2to3/9.png"",""time"":893},{""stimulus"":""img/2to3/10.png"",""time"":991},{""stimulus"":""img/2to3/11.png"",""time"":1090},{""stimulus"":""img/2to3/12.png"",""time"":1189}]","[]"
"image-keyboard-response","44","64692","0.0-5.0-1.20","5ec0aeb3d216ee36d856ead2","bdp_cybrbll","Sat Mar 25 2023 23:43:57 GMT-0400 (Eastern Daylight Time)","432053","3","1","","null","","","","observe","","img/3to2/1.png","null","205","416","0.5","0.5","3","2","",""
"animation","45","65980","0.0-5.0-2.20","5ec0aeb3d216ee36d856ead2","bdp_cybrbll","Sat Mar 25 2023 23:43:57 GMT-0400 (Eastern Daylight Time)","432053","3","1","","","","","","","","","","205","","","","3","2","[{""stimulus"":""img/3to2/1.png"",""time"":100},{""stimulus"":""img/3to2/2.png"",""time"":199},{""stimulus"":""img/3to2/3.png"",""time"":297},{""stimulus"":""img/3to2/4.png"",""time"":397},{""stimulus"":""img/3to2/5.png"",""time"":496},{""stimulus"":""img/3to2/6.png"",""time"":595},{""stimulus"":""img/3to2/7.png"",""time"":693},{""stimulus"":""img/3to2/8.png"",""time"":793},{""stimulus"":""img/3to2/9.png"",""time"":893},{""stimulus"":""img/3to2/10.png"",""time"":991},{""stimulus"":""img/3to2/11.png"",""time"":1090},{""stimulus"":""img/3to2/12.png"",""time"":1189}]","[]"
"image-keyboard-response","46","66088","0.0-5.0-1.21","5ec0aeb3d216ee36d856ead2","bdp_cybrbll","Sat Mar 25 2023 23:43:57 GMT-0400 (Eastern Daylight Time)","432053","3","1","","108","","","","choice","","img/2to1/1.png","2","204","409","0.5","0.5","2","3","",""
"animation","47","67376","0.0-5.0-2.21","5ec0aeb3d216ee36d856ead2","bdp_cybrbll","Sat Mar 25 2023 23:43:57 GMT-0400 (Eastern Daylight Time)","432053","3","1","","","","","","","","","","204","","","","2","3","[{""stimulus"":""img/2to3/1.png"",""time"":101},{""stimulus"":""img/2to3/2.png"",""time"":200},{""stimulus"":""img/2to3/3.png"",""time"":299},{""stimulus"":""img/2to3/4.png"",""time"":397},{""stimulus"":""img/2to3/5.png"",""time"":496},{""stimulus"":""img/2to3/6.png"",""time"":595},{""stimulus"":""img/2to3/7.png"",""time"":698},{""stimulus"":""img/2to3/8.png"",""time"":793},{""stimulus"":""img/2to3/9.png"",""time"":892},{""stimulus"":""img/2to3/10.png"",""time"":991},{""stimulus"":""img/2to3/11.png"",""time"":1091},{""stimulus"":""img/2to3/12.png"",""time"":1189}]","[]"
"image-keyboard-response","48","67640","0.0-5.0-1.22","5ec0aeb3d216ee36d856ead2","bdp_cybrbll","Sat Mar 25 2023 23:43:57 GMT-0400 (Eastern Daylight Time)","432053","3","1","","null","","","","observe","","img/3to2/1.png","null","203","262","0.5","0.5","3","2","",""
"animation","49","68927","0.0-5.0-2.22","5ec0aeb3d216ee36d856ead2","bdp_cybrbll","Sat Mar 25 2023 23:43:57 GMT-0400 (Eastern Daylight Time)","432053","3","1","","","","","","","","","","203","","","","3","2","[{""stimulus"":""img/3to2/1.png"",""time"":100},{""stimulus"":""img/3to2/2.png"",""time"":199},{""stimulus"":""img/3to2/3.png"",""time"":298},{""stimulus"":""img/3to2/4.png"",""time"":398},{""stimulus"":""img/3to2/5.png"",""time"":496},{""stimulus"":""img/3to2/6.png"",""time"":596},{""stimulus"":""img/3to2/7.png"",""time"":694},{""stimulus"":""img/3to2/8.png"",""time"":793},{""stimulus"":""img/3to2/9.png"",""time"":892},{""stimulus"":""img/3to2/10.png"",""time"":991},{""stimulus"":""img/3to2/11.png"",""time"":1091},{""stimulus"":""img/3to2/12.png"",""time"":1189}]","[]"
"image-keyboard-response","50","69094","0.0-5.0-1.23","5ec0aeb3d216ee36d856ead2","bdp_cybrbll","Sat Mar 25 2023 23:43:57 GMT-0400 (Eastern Daylight Time)","432053","3","1","","166","","","","choice","","img/2to1/1.png","2","202","226","0.5","0.5","2","3","",""
"animation","51","70383","0.0-5.0-2.23","5ec0aeb3d216ee36d856ead2","bdp_cybrbll","Sat Mar 25 2023 23:43:57 GMT-0400 (Eastern Daylight Time)","432053","3","1","","","","","","","","","","202","","","","2","3","[{""stimulus"":""img/2to3/1.png"",""time"":100},{""stimulus"":""img/2to3/2.png"",""time"":198},{""stimulus"":""img/2to3/3.png"",""time"":298},{""stimulus"":""img/2to3/4.png"",""time"":397},{""stimulus"":""img/2to3/5.png"",""time"":495},{""stimulus"":""img/2to3/6.png"",""time"":595},{""stimulus"":""img/2to3/7.png"",""time"":695},{""stimulus"":""img/2to3/8.png"",""time"":794},{""stimulus"":""img/2to3/9.png"",""time"":891},{""stimulus"":""img/2to3/10.png"",""time"":990},{""stimulus"":""img/2to3/11.png"",""time"":1089},{""stimulus"":""img/2to3/12.png"",""time"":1189}]","[]"
"image-keyboard-response","52","70677","0.0-5.0-1.24","5ec0aeb3d216ee36d856ead2","bdp_cybrbll","Sat Mar 25 2023 23:43:57 GMT-0400 (Eastern Daylight Time)","432053","3","1","","null","","","","observe","","img/3to2/1.png","null","201","293","0.5","0.5","3","2","",""
"animation","53","71965","0.0-5.0-2.24","5ec0aeb3d216ee36d856ead2","bdp_cybrbll","Sat Mar 25 2023 23:43:57 GMT-0400 (Eastern Daylight Time)","432053","3","1","","","","","","","","","","201","","","","3","2","[{""stimulus"":""img/3to2/1.png"",""time"":100},{""stimulus"":""img/3to2/2.png"",""time"":199},{""stimulus"":""img/3to2/3.png"",""time"":298},{""stimulus"":""img/3to2/4.png"",""time"":397},{""stimulus"":""img/3to2/5.png"",""time"":496},{""stimulus"":""img/3to2/6.png"",""time"":595},{""stimulus"":""img/3to2/7.png"",""time"":694},{""stimulus"":""img/3to2/8.png"",""time"":793},{""stimulus"":""img/3to2/9.png"",""time"":892},{""stimulus"":""img/3to2/10.png"",""time"":991},{""stimulus"":""img/3to2/11.png"",""time"":1090},{""stimulus"":""img/3to2/12.png"",""time"":1189}]","[]"
"image-keyboard-response","54","72350","0.0-5.0-1.25","5ec0aeb3d216ee36d856ead2","bdp_cybrbll","Sat Mar 25 2023 23:43:57 GMT-0400 (Eastern Daylight Time)","432053","3","1","","384","","","","choice","","img/2to1/1.png","1","200","1175","0.5","0.5","2","1","",""
"animation","55","73638","0.0-5.0-2.25","5ec0aeb3d216ee36d856ead2","bdp_cybrbll","Sat Mar 25 2023 23:43:57 GMT-0400 (Eastern Daylight Time)","432053","3","1","","","","","","","","","","200","","","","2","1","[{""stimulus"":""img/2to1/1.png"",""time"":100},{""stimulus"":""img/2to1/2.png"",""time"":199},{""stimulus"":""img/2to1/3.png"",""time"":298},{""stimulus"":""img/2to1/4.png"",""time"":396},{""stimulus"":""img/2to1/5.png"",""time"":496},{""stimulus"":""img/2to1/6.png"",""time"":595},{""stimulus"":""img/2to1/7.png"",""time"":694},{""stimulus"":""img/2to1/8.png"",""time"":793},{""stimulus"":""img/2to1/9.png"",""time"":891},{""stimulus"":""img/2to1/10.png"",""time"":990},{""stimulus"":""img/2to1/11.png"",""time"":1091},{""stimulus"":""img/2to1/12.png"",""time"":1189}]","[]"
"image-keyboard-response","56","74277","0.0-5.0-1.26","5ec0aeb3d216ee36d856ead2","bdp_cybrbll","Sat Mar 25 2023 23:43:57 GMT-0400 (Eastern Daylight Time)","432053","3","1","","null","","","","observe","","img/1to3/1.png","null","199","638","0.5","0.5","1","2","",""
"animation","57","75566","0.0-5.0-2.26","5ec0aeb3d216ee36d856ead2","bdp_cybrbll","Sat Mar 25 2023 23:43:57 GMT-0400 (Eastern Daylight Time)","432053","3","1","","","","","","","","","","199","","","","1","2","[{""stimulus"":""img/1to2/1.png"",""time"":100},{""stimulus"":""img/1to2/2.png"",""time"":198},{""stimulus"":""img/1to2/3.png"",""time"":297},{""stimulus"":""img/1to2/4.png"",""time"":397},{""stimulus"":""img/1to2/5.png"",""time"":495},{""stimulus"":""img/1to2/6.png"",""time"":595},{""stimulus"":""img/1to2/7.png"",""time"":693},{""stimulus"":""img/1to2/8.png"",""time"":793},{""stimulus"":""img/1to2/9.png"",""time"":891},{""stimulus"":""img/1to2/10.png"",""time"":991},{""stimulus"":""img/1to2/11.png"",""time"":1089},{""stimulus"":""img/1to2/12.png"",""time"":1189}]","[]"
"image-keyboard-response","58","75929","0.0-5.0-1.27","5ec0aeb3d216ee36d856ead2","bdp_cybrbll","Sat Mar 25 2023 23:43:57 GMT-0400 (Eastern Daylight Time)","432053","3","1","","363","","","","choice","","img/2to1/1.png","1","198","347","0.5","0.5","2","1","",""
"animation","59","77217","0.0-5.0-2.27","5ec0aeb3d216ee36d856ead2","bdp_cybrbll","Sat Mar 25 2023 23:43:57 GMT-0400 (Eastern Daylight Time)","432053","3","1","","","","","","","","","","198","","","","2","1","[{""stimulus"":""img/2to1/1.png"",""time"":100},{""stimulus"":""img/2to1/2.png"",""time"":199},{""stimulus"":""img/2to1/3.png"",""time"":298},{""stimulus"":""img/2to1/4.png"",""time"":397},{""stimulus"":""img/2to1/5.png"",""time"":497},{""stimulus"":""img/2to1/6.png"",""time"":595},{""stimulus"":""img/2to1/7.png"",""time"":695},{""stimulus"":""img/2to1/8.png"",""time"":793},{""stimulus"":""img/2to1/9.png"",""time"":892},{""stimulus"":""img/2to1/10.png"",""time"":991},{""stimulus"":""img/2to1/11.png"",""time"":1090},{""stimulus"":""img/2to1/12.png"",""time"":1189}]","[]"
"image-keyboard-response","60","77478","0.0-5.0-1.28","5ec0aeb3d216ee36d856ead2","bdp_cybrbll","Sat Mar 25 2023 23:43:57 GMT-0400 (Eastern Daylight Time)","432053","3","1","","null","","","","observe","","img/1to3/1.png","null","197","260","0.5","0.5","1","3","",""
"animation","61","78766","0.0-5.0-2.28","5ec0aeb3d216ee36d856ead2","bdp_cybrbll","Sat Mar 25 2023 23:43:57 GMT-0400 (Eastern Daylight Time)","432053","3","1","","","","","","","","","","197","","","","1","3","[{""stimulus"":""img/1to3/1.png"",""time"":100},{""stimulus"":""img/1to3/2.png"",""time"":199},{""stimulus"":""img/1to3/3.png"",""time"":298},{""stimulus"":""img/1to3/4.png"",""time"":397},{""stimulus"":""img/1to3/5.png"",""time"":496},{""stimulus"":""img/1to3/6.png"",""time"":595},{""stimulus"":""img/1to3/7.png"",""time"":694},{""stimulus"":""img/1to3/8.png"",""time"":794},{""stimulus"":""img/1to3/9.png"",""time"":892},{""stimulus"":""img/1to3/10.png"",""time"":991},{""stimulus"":""img/1to3/11.png"",""time"":1090},{""stimulus"":""img/1to3/12.png"",""time"":1189}]","[]"
"image-keyboard-response","62","79662","0.0-5.0-1.29","5ec0aeb3d216ee36d856ead2","bdp_cybrbll","Sat Mar 25 2023 23:43:57 GMT-0400 (Eastern Daylight Time)","432053","3","1","","null","","","","observe","","img/3to2/1.png","null","196","895","0.5","0.5","3","1","",""
"animation","63","80950","0.0-5.0-2.29","5ec0aeb3d216ee36d856ead2","bdp_cybrbll","Sat Mar 25 2023 23:43:57 GMT-0400 (Eastern Daylight Time)","432053","3","1","","","","","","","","","","196","","","","3","1","[{""stimulus"":""img/3to1/1.png"",""time"":102},{""stimulus"":""img/3to1/2.png"",""time"":199},{""stimulus"":""img/3to1/3.png"",""time"":299},{""stimulus"":""img/3to1/4.png"",""time"":397},{""stimulus"":""img/3to1/5.png"",""time"":496},{""stimulus"":""img/3to1/6.png"",""time"":595},{""stimulus"":""img/3to1/7.png"",""time"":694},{""stimulus"":""img/3to1/8.png"",""time"":793},{""stimulus"":""img/3to1/9.png"",""time"":892},{""stimulus"":""img/3to1/10.png"",""time"":992},{""stimulus"":""img/3to1/11.png"",""time"":1090},{""stimulus"":""img/3to1/12.png"",""time"":1189}]","[]"
"image-keyboard-response","64","81193","0.0-5.0-1.30","5ec0aeb3d216ee36d856ead2","bdp_cybrbll","Sat Mar 25 2023 23:43:57 GMT-0400 (Eastern Daylight Time)","432053","3","1","","null","","","","observe","","img/1to3/1.png","null","195","242","0.5","0.5","1","2","",""
"animation","65","82481","0.0-5.0-2.30","5ec0aeb3d216ee36d856ead2","bdp_cybrbll","Sat Mar 25 2023 23:43:57 GMT-0400 (Eastern Daylight Time)","432053","3","1","","","","","","","","","","195","","","","1","2","[{""stimulus"":""img/1to2/1.png"",""time"":100},{""stimulus"":""img/1to2/2.png"",""time"":200},{""stimulus"":""img/1to2/3.png"",""time"":298},{""stimulus"":""img/1to2/4.png"",""time"":397},{""stimulus"":""img/1to2/5.png"",""time"":496},{""stimulus"":""img/1to2/6.png"",""time"":595},{""stimulus"":""img/1to2/7.png"",""time"":694},{""stimulus"":""img/1to2/8.png"",""time"":794},{""stimulus"":""img/1to2/9.png"",""time"":892},{""stimulus"":""img/1to2/10.png"",""time"":991},{""stimulus"":""img/1to2/11.png"",""time"":1090},{""stimulus"":""img/1to2/12.png"",""time"":1189}]","[]"
"image-keyboard-response","66","82775","0.0-5.0-1.31","5ec0aeb3d216ee36d856ead2","bdp_cybrbll","Sat Mar 25 2023 23:43:57 GMT-0400 (Eastern Daylight Time)","432053","3","1","","294","","","","choice","","img/2to1/1.png","2","194","492","0.5","0.5","2","3","",""
"animation","67","84063","0.0-5.0-2.31","5ec0aeb3d216ee36d856ead2","bdp_cybrbll","Sat Mar 25 2023 23:43:57 GMT-0400 (Eastern Daylight Time)","432053","3","1","","","","","","","","","","194","","","","2","3","[{""stimulus"":""img/2to3/1.png"",""time"":99},{""stimulus"":""img/2to3/2.png"",""time"":199},{""stimulus"":""img/2to3/3.png"",""time"":298},{""stimulus"":""img/2to3/4.png"",""time"":397},{""stimulus"":""img/2to3/5.png"",""time"":502},{""stimulus"":""img/2to3/6.png"",""time"":595},{""stimulus"":""img/2to3/7.png"",""time"":694},{""stimulus"":""img/2to3/8.png"",""time"":793},{""stimulus"":""img/2to3/9.png"",""time"":892},{""stimulus"":""img/2to3/10.png"",""time"":991},{""stimulus"":""img/2to3/11.png"",""time"":1105},{""stimulus"":""img/2to3/12.png"",""time"":1189}]","[]"
"image-keyboard-response","68","84574","0.0-5.0-1.32","5ec0aeb3d216ee36d856ead2","bdp_cybrbll","Sat Mar 25 2023 23:43:57 GMT-0400 (Eastern Daylight Time)","432053","3","1","","null","","","","observe","","img/3to2/1.png","null","193","510","0.5","0.5","3","2","",""
"animation","69","85862","0.0-5.0-2.32","5ec0aeb3d216ee36d856ead2","bdp_cybrbll","Sat Mar 25 2023 23:43:57 GMT-0400 (Eastern Daylight Time)","432053","3","1","","","","","","","","","","193","","","","3","2","[{""stimulus"":""img/3to2/1.png"",""time"":100},{""stimulus"":""img/3to2/2.png"",""time"":200},{""stimulus"":""img/3to2/3.png"",""time"":297},{""stimulus"":""img/3to2/4.png"",""time"":396},{""stimulus"":""img/3to2/5.png"",""time"":496},{""stimulus"":""img/3to2/6.png"",""time"":596},{""stimulus"":""img/3to2/7.png"",""time"":694},{""stimulus"":""img/3to2/8.png"",""time"":793},{""stimulus"":""img/3to2/9.png"",""time"":891},{""stimulus"":""img/3to2/10.png"",""time"":991},{""stimulus"":""img/3to2/11.png"",""time"":1089},{""stimulus"":""img/3to2/12.png"",""time"":1188}]","[]"
"image-keyboard-response","70","86081","0.0-5.0-1.33","5ec0aeb3d216ee36d856ead2","bdp_cybrbll","Sat Mar 25 2023 23:43:57 GMT-0400 (Eastern Daylight Time)","432053","3","1","","217","","","","choice","","img/2to1/1.png","2","192","266","0.5","0.5","2","3","",""
"animation","71","87369","0.0-5.0-2.33","5ec0aeb3d216ee36d856ead2","bdp_cybrbll","Sat Mar 25 2023 23:43:57 GMT-0400 (Eastern Daylight Time)","432053","3","1","","","","","","","","","","192","","","","2","3","[{""stimulus"":""img/2to3/1.png"",""time"":100},{""stimulus"":""img/2to3/2.png"",""time"":199},{""stimulus"":""img/2to3/3.png"",""time"":298},{""stimulus"":""img/2to3/4.png"",""time"":397},{""stimulus"":""img/2to3/5.png"",""time"":497},{""stimulus"":""img/2to3/6.png"",""time"":596},{""stimulus"":""img/2to3/7.png"",""time"":708},{""stimulus"":""img/2to3/8.png"",""time"":793},{""stimulus"":""img/2to3/9.png"",""time"":892},{""stimulus"":""img/2to3/10.png"",""time"":990},{""stimulus"":""img/2to3/11.png"",""time"":1090},{""stimulus"":""img/2to3/12.png"",""time"":1189}]","[]"
"image-keyboard-response","72","87924","0.0-5.0-1.34","5ec0aeb3d216ee36d856ead2","bdp_cybrbll","Sat Mar 25 2023 23:43:57 GMT-0400 (Eastern Daylight Time)","432053","3","1","","null","","","","observe","","img/3to2/1.png","null","191","554","0.5","0.5","3","2","",""
"animation","73","89212","0.0-5.0-2.34","5ec0aeb3d216ee36d856ead2","bdp_cybrbll","Sat Mar 25 2023 23:43:57 GMT-0400 (Eastern Daylight Time)","432053","3","1","","","","","","","","","","191","","","","3","2","[{""stimulus"":""img/3to2/1.png"",""time"":100},{""stimulus"":""img/3to2/2.png"",""time"":199},{""stimulus"":""img/3to2/3.png"",""time"":299},{""stimulus"":""img/3to2/4.png"",""time"":396},{""stimulus"":""img/3to2/5.png"",""time"":495},{""stimulus"":""img/3to2/6.png"",""time"":595},{""stimulus"":""img/3to2/7.png"",""time"":694},{""stimulus"":""img/3to2/8.png"",""time"":793},{""stimulus"":""img/3to2/9.png"",""time"":893},{""stimulus"":""img/3to2/10.png"",""time"":991},{""stimulus"":""img/3to2/11.png"",""time"":1089},{""stimulus"":""img/3to2/12.png"",""time"":1189}]","[]"
"image-keyboard-response","74","89638","0.0-5.0-1.35","5ec0aeb3d216ee36d856ead2","bdp_cybrbll","Sat Mar 25 2023 23:43:57 GMT-0400 (Eastern Daylight Time)","432053","3","1","","425","","","","choice","","img/2to1/1.png","1","190","206","0.5","0.5","2","1","",""
"animation","75","90926","0.0-5.0-2.35","5ec0aeb3d216ee36d856ead2","bdp_cybrbll","Sat Mar 25 2023 23:43:57 GMT-0400 (Eastern Daylight Time)","432053","3","1","","","","","","","","","","190","","","","2","1","[{""stimulus"":""img/2to1/1.png"",""time"":100},{""stimulus"":""img/2to1/2.png"",""time"":199},{""stimulus"":""img/2to1/3.png"",""time"":298},{""stimulus"":""img/2to1/4.png"",""time"":397},{""stimulus"":""img/2to1/5.png"",""time"":496},{""stimulus"":""img/2to1/6.png"",""time"":594},{""stimulus"":""img/2to1/7.png"",""time"":693},{""stimulus"":""img/2to1/8.png"",""time"":792},{""stimulus"":""img/2to1/9.png"",""time"":892},{""stimulus"":""img/2to1/10.png"",""time"":991},{""stimulus"":""img/2to1/11.png"",""time"":1089},{""stimulus"":""img/2to1/12.png"",""time"":1188}]","[]"
"image-keyboard-response","76","91484","0.0-5.0-1.36","5ec0aeb3d216ee36d856ead2","bdp_cybrbll","Sat Mar 25 2023 23:43:57 GMT-0400 (Eastern Daylight Time)","432053","3","1","","null","","","","observe","","img/1to3/1.png","null","189","556","0.5","0.5","1","3","",""
"animation","77","92772","0.0-5.0-2.36","5ec0aeb3d216ee36d856ead2","bdp_cybrbll","Sat Mar 25 2023 23:43:57 GMT-0400 (Eastern Daylight Time)","432053","3","1","","","","","","","","","","189","","","","1","3","[{""stimulus"":""img/1to3/1.png"",""time"":101},{""stimulus"":""img/1to3/2.png"",""time"":199},{""stimulus"":""img/1to3/3.png"",""time"":298},{""stimulus"":""img/1to3/4.png"",""time"":397},{""stimulus"":""img/1to3/5.png"",""time"":497},{""stimulus"":""img/1to3/6.png"",""time"":595},{""stimulus"":""img/1to3/7.png"",""time"":694},{""stimulus"":""img/1to3/8.png"",""time"":793},{""stimulus"":""img/1to3/9.png"",""time"":892},{""stimulus"":""img/1to3/10.png"",""time"":991},{""stimulus"":""img/1to3/11.png"",""time"":1090},{""stimulus"":""img/1to3/12.png"",""time"":1190}]","[]"
"image-keyboard-response","78","93062","0.0-5.0-1.37","5ec0aeb3d216ee36d856ead2","bdp_cybrbll","Sat Mar 25 2023 23:43:57 GMT-0400 (Eastern Daylight Time)","432053","3","1","","null","","","","observe","","img/3to2/1.png","null","188","289","0.5","0.5","3","2","",""
"animation","79","94350","0.0-5.0-2.37","5ec0aeb3d216ee36d856ead2","bdp_cybrbll","Sat Mar 25 2023 23:43:57 GMT-0400 (Eastern Daylight Time)","432053","3","1","","","","","","","","","","188","","","","3","2","[{""stimulus"":""img/3to2/1.png"",""time"":100},{""stimulus"":""img/3to2/2.png"",""time"":199},{""stimulus"":""img/3to2/3.png"",""time"":298},{""stimulus"":""img/3to2/4.png"",""time"":396},{""stimulus"":""img/3to2/5.png"",""time"":496},{""stimulus"":""img/3to2/6.png"",""time"":595},{""stimulus"":""img/3to2/7.png"",""time"":694},{""stimulus"":""img/3to2/8.png"",""time"":793},{""stimulus"":""img/3to2/9.png"",""time"":891},{""stimulus"":""img/3to2/10.png"",""time"":990},{""stimulus"":""img/3to2/11.png"",""time"":1090},{""stimulus"":""img/3to2/12.png"",""time"":1190}]","[]"
"image-keyboard-response","80","94366","0.0-5.0-1.38","5ec0aeb3d216ee36d856ead2","bdp_cybrbll","Sat Mar 25 2023 23:43:57 GMT-0400 (Eastern Daylight Time)","432053","3","1","","15","","","","choice","","img/2to1/1.png","2","187","495","0.5","0.5","2","3","",""
"animation","81","95655","0.0-5.0-2.38","5ec0aeb3d216ee36d856ead2","bdp_cybrbll","Sat Mar 25 2023 23:43:57 GMT-0400 (Eastern Daylight Time)","432053","3","1","","","","","","","","","","187","","","","2","3","[{""stimulus"":""img/2to3/1.png"",""time"":101},{""stimulus"":""img/2to3/2.png"",""time"":198},{""stimulus"":""img/2to3/3.png"",""time"":297},{""stimulus"":""img/2to3/4.png"",""time"":397},{""stimulus"":""img/2to3/5.png"",""time"":497},{""stimulus"":""img/2to3/6.png"",""time"":596},{""stimulus"":""img/2to3/7.png"",""time"":693},{""stimulus"":""img/2to3/8.png"",""time"":793},{""stimulus"":""img/2to3/9.png"",""time"":892},{""stimulus"":""img/2to3/10.png"",""time"":991},{""stimulus"":""img/2to3/11.png"",""time"":1091},{""stimulus"":""img/2to3/12.png"",""time"":1188}]","[]"
"image-keyboard-response","82","96446","0.0-5.0-1.39","5ec0aeb3d216ee36d856ead2","bdp_cybrbll","Sat Mar 25 2023 23:43:57 GMT-0400 (Eastern Daylight Time)","432053","3","1","","null","","","","observe","","img/3to2/1.png","null","186","789","0.5","0.5","3","2","",""
"animation","83","97734","0.0-5.0-2.39","5ec0aeb3d216ee36d856ead2","bdp_cybrbll","Sat Mar 25 2023 23:43:57 GMT-0400 (Eastern Daylight Time)","432053","3","1","","","","","","","","","","186","","","","3","2","[{""stimulus"":""img/3to2/1.png"",""time"":100},{""stimulus"":""img/3to2/2.png"",""time"":199},{""stimulus"":""img/3to2/3.png"",""time"":299},{""stimulus"":""img/3to2/4.png"",""time"":397},{""stimulus"":""img/3to2/5.png"",""time"":496},{""stimulus"":""img/3to2/6.png"",""time"":596},{""stimulus"":""img/3to2/7.png"",""time"":695},{""stimulus"":""img/3to2/8.png"",""time"":794},{""stimulus"":""img/3to2/9.png"",""time"":892},{""stimulus"":""img/3to2/10.png"",""time"":992},{""stimulus"":""img/3to2/11.png"",""time"":1090},{""stimulus"":""img/3to2/12.png"",""time"":1189}]","[]"
"image-keyboard-response","84","97974","0.0-5.0-1.40","5ec0aeb3d216ee36d856ead2","bdp_cybrbll","Sat Mar 25 2023 23:43:57 GMT-0400 (Eastern Daylight Time)","432053","3","1","","239","","","","choice","","img/2to1/1.png","2","185","354","0.5","0.5","2","3","",""
"animation","85","99261","0.0-5.0-2.40","5ec0aeb3d216ee36d856ead2","bdp_cybrbll","Sat Mar 25 2023 23:43:57 GMT-0400 (Eastern Daylight Time)","432053","3","1","","","","","","","","","","185","","","","2","3","[{""stimulus"":""img/2to3/1.png"",""time"":100},{""stimulus"":""img/2to3/2.png"",""time"":199},{""stimulus"":""img/2to3/3.png"",""time"":297},{""stimulus"":""img/2to3/4.png"",""time"":397},{""stimulus"":""img/2to3/5.png"",""time"":496},{""stimulus"":""img/2to3/6.png"",""time"":595},{""stimulus"":""img/2to3/7.png"",""time"":695},{""stimulus"":""img/2to3/8.png"",""time"":793},{""stimulus"":""img/2to3/9.png"",""time"":893},{""stimulus"":""img/2to3/10.png"",""time"":991},{""stimulus"":""img/2to3/11.png"",""time"":1091},{""stimulus"":""img/2to3/12.png"",""time"":1189}]","[]"
"image-keyboard-response","86","99781","0.0-5.0-1.41","5ec0aeb3d216ee36d856ead2","bdp_cybrbll","Sat Mar 25 2023 23:43:57 GMT-0400 (Eastern Daylight Time)","432053","3","1","","null","","","","observe","","img/3to2/1.png","null","184","518","0.5","0.5","3","1","",""
"animation","87","101070","0.0-5.0-2.41","5ec0aeb3d216ee36d856ead2","bdp_cybrbll","Sat Mar 25 2023 23:43:57 GMT-0400 (Eastern Daylight Time)","432053","3","1","","","","","","","","","","184","","","","3","1","[{""stimulus"":""img/3to1/1.png"",""time"":101},{""stimulus"":""img/3to1/2.png"",""time"":199},{""stimulus"":""img/3to1/3.png"",""time"":298},{""stimulus"":""img/3to1/4.png"",""time"":397},{""stimulus"":""img/3to1/5.png"",""time"":496},{""stimulus"":""img/3to1/6.png"",""time"":595},{""stimulus"":""img/3to1/7.png"",""time"":694},{""stimulus"":""img/3to1/8.png"",""time"":793},{""stimulus"":""img/3to1/9.png"",""time"":892},{""stimulus"":""img/3to1/10.png"",""time"":992},{""stimulus"":""img/3to1/11.png"",""time"":1091},{""stimulus"":""img/3to1/12.png"",""time"":1189}]","[]"
"image-keyboard-response","88","101357","0.0-5.0-1.42","5ec0aeb3d216ee36d856ead2","bdp_cybrbll","Sat Mar 25 2023 23:43:57 GMT-0400 (Eastern Daylight Time)","432053","3","1","","null","","","","observe","","img/1to3/1.png","null","183","286","0.5","0.5","1","2","",""
"animation","89","102646","0.0-5.0-2.42","5ec0aeb3d216ee36d856ead2","bdp_cybrbll","Sat Mar 25 2023 23:43:57 GMT-0400 (Eastern Daylight Time)","432053","3","1","","","","","","","","","","183","","","","1","2","[{""stimulus"":""img/1to2/1.png"",""time"":101},{""stimulus"":""img/1to2/2.png"",""time"":199},{""stimulus"":""img/1to2/3.png"",""time"":298},{""stimulus"":""img/1to2/4.png"",""time"":397},{""stimulus"":""img/1to2/5.png"",""time"":496},{""stimulus"":""img/1to2/6.png"",""time"":595},{""stimulus"":""img/1to2/7.png"",""time"":694},{""stimulus"":""img/1to2/8.png"",""time"":793},{""stimulus"":""img/1to2/9.png"",""time"":892},{""stimulus"":""img/1to2/10.png"",""time"":991},{""stimulus"":""img/1to2/11.png"",""time"":1091},{""stimulus"":""img/1to2/12.png"",""time"":1189}]","[]"
"image-keyboard-response","90","103038","0.0-5.0-1.43","5ec0aeb3d216ee36d856ead2","bdp_cybrbll","Sat Mar 25 2023 23:43:57 GMT-0400 (Eastern Daylight Time)","432053","3","1","","391","","","","choice","","img/2to1/1.png","2","182","788","0.5","0.5","2","3","",""
"animation","91","104327","0.0-5.0-2.43","5ec0aeb3d216ee36d856ead2","bdp_cybrbll","Sat Mar 25 2023 23:43:57 GMT-0400 (Eastern Daylight Time)","432053","3","1","","","","","","","","","","182","","","","2","3","[{""stimulus"":""img/2to3/1.png"",""time"":100},{""stimulus"":""img/2to3/2.png"",""time"":200},{""stimulus"":""img/2to3/3.png"",""time"":298},{""stimulus"":""img/2to3/4.png"",""time"":397},{""stimulus"":""img/2to3/5.png"",""time"":497},{""stimulus"":""img/2to3/6.png"",""time"":595},{""stimulus"":""img/2to3/7.png"",""time"":693},{""stimulus"":""img/2to3/8.png"",""time"":798},{""stimulus"":""img/2to3/9.png"",""time"":892},{""stimulus"":""img/2to3/10.png"",""time"":991},{""stimulus"":""img/2to3/11.png"",""time"":1090},{""stimulus"":""img/2to3/12.png"",""time"":1189}]","[]"
"image-keyboard-response","92","104677","0.0-5.0-1.44","5ec0aeb3d216ee36d856ead2","bdp_cybrbll","Sat Mar 25 2023 23:43:57 GMT-0400 (Eastern Daylight Time)","432053","3","1","","null","","","","observe","","img/3to2/1.png","null","181","349","0.5","0.5","3","2","",""
"animation","93","105966","0.0-5.0-2.44","5ec0aeb3d216ee36d856ead2","bdp_cybrbll","Sat Mar 25 2023 23:43:57 GMT-0400 (Eastern Daylight Time)","432053","3","1","","","","","","","","","","181","","","","3","2","[{""stimulus"":""img/3to2/1.png"",""time"":100},{""stimulus"":""img/3to2/2.png"",""time"":199},{""stimulus"":""img/3to2/3.png"",""time"":298},{""stimulus"":""img/3to2/4.png"",""time"":396},{""stimulus"":""img/3to2/5.png"",""time"":495},{""stimulus"":""img/3to2/6.png"",""time"":594},{""stimulus"":""img/3to2/7.png"",""time"":695},{""stimulus"":""img/3to2/8.png"",""time"":793},{""stimulus"":""img/3to2/9.png"",""time"":891},{""stimulus"":""img/3to2/10.png"",""time"":990},{""stimulus"":""img/3to2/11.png"",""time"":1090},{""stimulus"":""img/3to2/12.png"",""time"":1189}]","[]"
"image-keyboard-response","94","106024","0.0-5.0-1.45","5ec0aeb3d216ee36d856ead2","bdp_cybrbll","Sat Mar 25 2023 23:43:57 GMT-0400 (Eastern Daylight Time)","432053","3","1","","58","","","","choice","","img/2to1/1.png","1","180","258","0.5","0.5","2","1","",""
"animation","95","107312","0.0-5.0-2.45","5ec0aeb3d216ee36d856ead2","bdp_cybrbll","Sat Mar 25 2023 23:43:57 GMT-0400 (Eastern Daylight Time)","432053","3","1","","","","","","","","","","180","","","","2","1","[{""stimulus"":""img/2to1/1.png"",""time"":100},{""stimulus"":""img/2to1/2.png"",""time"":199},{""stimulus"":""img/2to1/3.png"",""time"":300},{""stimulus"":""img/2to1/4.png"",""time"":396},{""stimulus"":""img/2to1/5.png"",""time"":496},{""stimulus"":""img/2to1/6.png"",""time"":595},{""stimulus"":""img/2to1/7.png"",""time"":694},{""stimulus"":""img/2to1/8.png"",""time"":792},{""stimulus"":""img/2to1/9.png"",""time"":892},{""stimulus"":""img/2to1/10.png"",""time"":990},{""stimulus"":""img/2to1/11.png"",""time"":1089},{""stimulus"":""img/2to1/12.png"",""time"":1189}]","[]"
"image-keyboard-response","96","108003","0.0-5.0-1.46","5ec0aeb3d216ee36d856ead2","bdp_cybrbll","Sat Mar 25 2023 23:43:57 GMT-0400 (Eastern Daylight Time)","432053","3","1","","null","","","","observe","","img/1to3/1.png","null","179","689","0.5","0.5","1","3","",""
"animation","97","109291","0.0-5.0-2.46","5ec0aeb3d216ee36d856ead2","bdp_cybrbll","Sat Mar 25 2023 23:43:57 GMT-0400 (Eastern Daylight Time)","432053","3","1","","","","","","","","","","179","","","","1","3","[{""stimulus"":""img/1to3/1.png"",""time"":100},{""stimulus"":""img/1to3/2.png"",""time"":199},{""stimulus"":""img/1to3/3.png"",""time"":298},{""stimulus"":""img/1to3/4.png"",""time"":397},{""stimulus"":""img/1to3/5.png"",""time"":496},{""stimulus"":""img/1to3/6.png"",""time"":595},{""stimulus"":""img/1to3/7.png"",""time"":694},{""stimulus"":""img/1to3/8.png"",""time"":794},{""stimulus"":""img/1to3/9.png"",""time"":892},{""stimulus"":""img/1to3/10.png"",""time"":991},{""stimulus"":""img/1to3/11.png"",""time"":1091},{""stimulus"":""img/1to3/12.png"",""time"":1189}]","[]"
"image-keyboard-response","98","110023","0.0-5.0-1.47","5ec0aeb3d216ee36d856ead2","bdp_cybrbll","Sat Mar 25 2023 23:43:57 GMT-0400 (Eastern Daylight Time)","432053","3","1","","null","","","","observe","","img/3to2/1.png","null","178","731","0.5","0.5","3","2","",""
"animation","99","111312","0.0-5.0-2.47","5ec0aeb3d216ee36d856ead2","bdp_cybrbll","Sat Mar 25 2023 23:43:57 GMT-0400 (Eastern Daylight Time)","432053","3","1","","","","","","","","","","178","","","","3","2","[{""stimulus"":""img/3to2/1.png"",""time"":102},{""stimulus"":""img/3to2/2.png"",""time"":199},{""stimulus"":""img/3to2/3.png"",""time"":298},{""stimulus"":""img/3to2/4.png"",""time"":397},{""stimulus"":""img/3to2/5.png"",""time"":496},{""stimulus"":""img/3to2/6.png"",""time"":595},{""stimulus"":""img/3to2/7.png"",""time"":695},{""stimulus"":""img/3to2/8.png"",""time"":794},{""stimulus"":""img/3to2/9.png"",""time"":893},{""stimulus"":""img/3to2/10.png"",""time"":991},{""stimulus"":""img/3to2/11.png"",""time"":1091},{""stimulus"":""img/3to2/12.png"",""time"":1189}]","[]"
"image-keyboard-response","100","112030","0.0-5.0-1.48","5ec0aeb3d216ee36d856ead2","bdp_cybrbll","Sat Mar 25 2023 23:43:57 GMT-0400 (Eastern Daylight Time)","432053","3","1","","717","","","","choice","","img/2to1/1.png","1","177","544","0.5","0.5","2","1","",""
"animation","101","113318","0.0-5.0-2.48","5ec0aeb3d216ee36d856ead2","bdp_cybrbll","Sat Mar 25 2023 23:43:57 GMT-0400 (Eastern Daylight Time)","432053","3","1","","","","","","","","","","177","","","","2","1","[{""stimulus"":""img/2to1/1.png"",""time"":99},{""stimulus"":""img/2to1/2.png"",""time"":198},{""stimulus"":""img/2to1/3.png"",""time"":298},{""stimulus"":""img/2to1/4.png"",""time"":396},{""stimulus"":""img/2to1/5.png"",""time"":496},{""stimulus"":""img/2to1/6.png"",""time"":594},{""stimulus"":""img/2to1/7.png"",""time"":694},{""stimulus"":""img/2to1/8.png"",""time"":793},{""stimulus"":""img/2to1/9.png"",""time"":891},{""stimulus"":""img/2to1/10.png"",""time"":990},{""stimulus"":""img/2to1/11.png"",""time"":1090},{""stimulus"":""img/2to1/12.png"",""time"":1189}]","[]"
"image-keyboard-response","102","113732","0.0-5.0-1.49","5ec0aeb3d216ee36d856ead2","bdp_cybrbll","Sat Mar 25 2023 23:43:57 GMT-0400 (Eastern Daylight Time)","432053","3","1","","null","","","","observe","","img/1to3/1.png","null","176","413","0.5","0.5","1","2","",""
"animation","103","115020","0.0-5.0-2.49","5ec0aeb3d216ee36d856ead2","bdp_cybrbll","Sat Mar 25 2023 23:43:57 GMT-0400 (Eastern Daylight Time)","432053","3","1","","","","","","","","","","176","","","","1","2","[{""stimulus"":""img/1to2/1.png"",""time"":99},{""stimulus"":""img/1to2/2.png"",""time"":199},{""stimulus"":""img/1to2/3.png"",""time"":298},{""stimulus"":""img/1to2/4.png"",""time"":397},{""stimulus"":""img/1to2/5.png"",""time"":495},{""stimulus"":""img/1to2/6.png"",""time"":594},{""stimulus"":""img/1to2/7.png"",""time"":694},{""stimulus"":""img/1to2/8.png"",""time"":793},{""stimulus"":""img/1to2/9.png"",""time"":892},{""stimulus"":""img/1to2/10.png"",""time"":991},{""stimulus"":""img/1to2/11.png"",""time"":1090},{""stimulus"":""img/1to2/12.png"",""time"":1188}]","[]"
"image-keyboard-response","104","115648","0.0-5.0-1.50","5ec0aeb3d216ee36d856ead2","bdp_cybrbll","Sat Mar 25 2023 23:43:57 GMT-0400 (Eastern Daylight Time)","432053","3","1","","627","","","","choice","","img/2to1/1.png","2","175","836","0.5","0.5","2","3","",""
"animation","105","116936","0.0-5.0-2.50","5ec0aeb3d216ee36d856ead2","bdp_cybrbll","Sat Mar 25 2023 23:43:57 GMT-0400 (Eastern Daylight Time)","432053","3","1","","","","","","","","","","175","","","","2","3","[{""stimulus"":""img/2to3/1.png"",""time"":100},{""stimulus"":""img/2to3/2.png"",""time"":212},{""stimulus"":""img/2to3/3.png"",""time"":297},{""stimulus"":""img/2to3/4.png"",""time"":396},{""stimulus"":""img/2to3/5.png"",""time"":495},{""stimulus"":""img/2to3/6.png"",""time"":595},{""stimulus"":""img/2to3/7.png"",""time"":694},{""stimulus"":""img/2to3/8.png"",""time"":793},{""stimulus"":""img/2to3/9.png"",""time"":891},{""stimulus"":""img/2to3/10.png"",""time"":992},{""stimulus"":""img/2to3/11.png"",""time"":1090},{""stimulus"":""img/2to3/12.png"",""time"":1188}]","[]"
"image-keyboard-response","106","117211","0.0-5.0-1.51","5ec0aeb3d216ee36d856ead2","bdp_cybrbll","Sat Mar 25 2023 23:43:57 GMT-0400 (Eastern Daylight Time)","432053","3","1","","null","","","","observe","","img/3to2/1.png","null","174","274","0.5","0.5","3","2","",""
"animation","107","118500","0.0-5.0-2.51","5ec0aeb3d216ee36d856ead2","bdp_cybrbll","Sat Mar 25 2023 23:43:57 GMT-0400 (Eastern Daylight Time)","432053","3","1","","","","","","","","","","174","","","","3","2","[{""stimulus"":""img/3to2/1.png"",""time"":99},{""stimulus"":""img/3to2/2.png"",""time"":198},{""stimulus"":""img/3to2/3.png"",""time"":297},{""stimulus"":""img/3to2/4.png"",""time"":396},{""stimulus"":""img/3to2/5.png"",""time"":496},{""stimulus"":""img/3to2/6.png"",""time"":595},{""stimulus"":""img/3to2/7.png"",""time"":694},{""stimulus"":""img/3to2/8.png"",""time"":793},{""stimulus"":""img/3to2/9.png"",""time"":891},{""stimulus"":""img/3to2/10.png"",""time"":991},{""stimulus"":""img/3to2/11.png"",""time"":1090},{""stimulus"":""img/3to2/12.png"",""time"":1189}]","[]"
"image-keyboard-response","108","118694","0.0-5.0-1.52","5ec0aeb3d216ee36d856ead2","bdp_cybrbll","Sat Mar 25 2023 23:43:57 GMT-0400 (Eastern Daylight Time)","432053","3","1","","194","","","","choice","","img/2to1/1.png","1","173","468","0.5","0.5","2","1","",""
"animation","109","119981","0.0-5.0-2.52","5ec0aeb3d216ee36d856ead2","bdp_cybrbll","Sat Mar 25 2023 23:43:57 GMT-0400 (Eastern Daylight Time)","432053","3","1","","","","","","","","","","173","","","","2","1","[{""stimulus"":""img/2to1/1.png"",""time"":101},{""stimulus"":""img/2to1/2.png"",""time"":201},{""stimulus"":""img/2to1/3.png"",""time"":298},{""stimulus"":""img/2to1/4.png"",""time"":397},{""stimulus"":""img/2to1/5.png"",""time"":496},{""stimulus"":""img/2to1/6.png"",""time"":595},{""stimulus"":""img/2to1/7.png"",""time"":694},{""stimulus"":""img/2to1/8.png"",""time"":804},{""stimulus"":""img/2to1/9.png"",""time"":892},{""stimulus"":""img/2to1/10.png"",""time"":991},{""stimulus"":""img/2to1/11.png"",""time"":1091},{""stimulus"":""img/2to1/12.png"",""time"":1189}]","[]"
"image-keyboard-response","110","120161","0.0-5.0-1.53","5ec0aeb3d216ee36d856ead2","bdp_cybrbll","Sat Mar 25 2023 23:43:57 GMT-0400 (Eastern Daylight Time)","432053","3","1","","null","","","","observe","","img/1to3/1.png","null","172","178","0.5","0.5","1","2","",""
"animation","111","121449","0.0-5.0-2.53","5ec0aeb3d216ee36d856ead2","bdp_cybrbll","Sat Mar 25 2023 23:43:57 GMT-0400 (Eastern Daylight Time)","432053","3","1","","","","","","","","","","172","","","","1","2","[{""stimulus"":""img/1to2/1.png"",""time"":101},{""stimulus"":""img/1to2/2.png"",""time"":199},{""stimulus"":""img/1to2/3.png"",""time"":298},{""stimulus"":""img/1to2/4.png"",""time"":397},{""stimulus"":""img/1to2/5.png"",""time"":496},{""stimulus"":""img/1to2/6.png"",""time"":596},{""stimulus"":""img/1to2/7.png"",""time"":694},{""stimulus"":""img/1to2/8.png"",""time"":792},{""stimulus"":""img/1to2/9.png"",""time"":892},{""stimulus"":""img/1to2/10.png"",""time"":991},{""stimulus"":""img/1to2/11.png"",""time"":1090},{""stimulus"":""img/1to2/12.png"",""time"":1189}]","[]"
"image-keyboard-response","112","121486","0.0-5.0-1.54","5ec0aeb3d216ee36d856ead2","bdp_cybrbll","Sat Mar 25 2023 23:43:57 GMT-0400 (Eastern Daylight Time)","432053","3","1","","37","","","","choice","","img/2to1/1.png","2","171","414","0.5","0.5","2","3","",""
"animation","113","122775","0.0-5.0-2.54","5ec0aeb3d216ee36d856ead2","bdp_cybrbll","Sat Mar 25 2023 23:43:57 GMT-0400 (Eastern Daylight Time)","432053","3","1","","","","","","","","","","171","","","","2","3","[{""stimulus"":""img/2to3/1.png"",""time"":100},{""stimulus"":""img/2to3/2.png"",""time"":199},{""stimulus"":""img/2to3/3.png"",""time"":299},{""stimulus"":""img/2to3/4.png"",""time"":397},{""stimulus"":""img/2to3/5.png"",""time"":496},{""stimulus"":""img/2to3/6.png"",""time"":595},{""stimulus"":""img/2to3/7.png"",""time"":694},{""stimulus"":""img/2to3/8.png"",""time"":793},{""stimulus"":""img/2to3/9.png"",""time"":891},{""stimulus"":""img/2to3/10.png"",""time"":990},{""stimulus"":""img/2to3/11.png"",""time"":1091},{""stimulus"":""img/2to3/12.png"",""time"":1189}]","[]"
"image-keyboard-response","114","123385","0.0-5.0-1.55","5ec0aeb3d216ee36d856ead2","bdp_cybrbll","Sat Mar 25 2023 23:43:57 GMT-0400 (Eastern Daylight Time)","432053","3","1","","null","","","","observe","","img/3to2/1.png","null","170","609","0.5","0.5","3","2","",""
"animation","115","124672","0.0-5.0-2.55","5ec0aeb3d216ee36d856ead2","bdp_cybrbll","Sat Mar 25 2023 23:43:57 GMT-0400 (Eastern Daylight Time)","432053","3","1","","","","","","","","","","170","","","","3","2","[{""stimulus"":""img/3to2/1.png"",""time"":100},{""stimulus"":""img/3to2/2.png"",""time"":199},{""stimulus"":""img/3to2/3.png"",""time"":299},{""stimulus"":""img/3to2/4.png"",""time"":397},{""stimulus"":""img/3to2/5.png"",""time"":496},{""stimulus"":""img/3to2/6.png"",""time"":595},{""stimulus"":""img/3to2/7.png"",""time"":695},{""stimulus"":""img/3to2/8.png"",""time"":793},{""stimulus"":""img/3to2/9.png"",""time"":892},{""stimulus"":""img/3to2/10.png"",""time"":991},{""stimulus"":""img/3to2/11.png"",""time"":1090},{""stimulus"":""img/3to2/12.png"",""time"":1189}]","[]"
"image-keyboard-response","116","125038","0.0-5.0-1.56","5ec0aeb3d216ee36d856ead2","bdp_cybrbll","Sat Mar 25 2023 23:43:57 GMT-0400 (Eastern Daylight Time)","432053","3","1","","365","","","","choice","","img/2to1/1.png","2","169","432","0.5","0.5","2","3","",""
"animation","117","126327","0.0-5.0-2.56","5ec0aeb3d216ee36d856ead2","bdp_cybrbll","Sat Mar 25 2023 23:43:57 GMT-0400 (Eastern Daylight Time)","432053","3","1","","","","","","","","","","169","","","","2","3","[{""stimulus"":""img/2to3/1.png"",""time"":100},{""stimulus"":""img/2to3/2.png"",""time"":199},{""stimulus"":""img/2to3/3.png"",""time"":297},{""stimulus"":""img/2to3/4.png"",""time"":397},{""stimulus"":""img/2to3/5.png"",""time"":496},{""stimulus"":""img/2to3/6.png"",""time"":594},{""stimulus"":""img/2to3/7.png"",""time"":694},{""stimulus"":""img/2to3/8.png"",""time"":794},{""stimulus"":""img/2to3/9.png"",""time"":891},{""stimulus"":""img/2to3/10.png"",""time"":991},{""stimulus"":""img/2to3/11.png"",""time"":1089},{""stimulus"":""img/2to3/12.png"",""time"":1188}]","[]"
"image-keyboard-response","118","126822","0.0-5.0-1.57","5ec0aeb3d216ee36d856ead2","bdp_cybrbll","Sat Mar 25 2023 23:43:57 GMT-0400 (Eastern Daylight Time)","432053","3","1","","null","","","","observe","","img/3to2/1.png","null","168","494","0.5","0.5","3","1","",""
"animation","119","128110","0.0-5.0-2.57","5ec0aeb3d216ee36d856ead2","bdp_cybrbll","Sat Mar 25 2023 23:43:57 GMT-0400 (Eastern Daylight Time)","432053","3","1","","","","","","","","","","168","","","","3","1","[{""stimulus"":""img/3to1/1.png"",""time"":100},{""stimulus"":""img/3to1/2.png"",""time"":199},{""stimulus"":""img/3to1/3.png"",""time"":298},{""stimulus"":""img/3to1/4.png"",""time"":397},{""stimulus"":""img/3to1/5.png"",""time"":497},{""stimulus"":""img/3to1/6.png"",""time"":595},{""stimulus"":""img/3to1/7.png"",""time"":694},{""stimulus"":""img/3to1/8.png"",""time"":793},{""stimulus"":""img/3to1/9.png"",""time"":892},{""stimulus"":""img/3to1/10.png"",""time"":992},{""stimulus"":""img/3to1/11.png"",""time"":1090},{""stimulus"":""img/3to1/12.png"",""time"":1200}]","[]"
"image-keyboard-response","120","128296","0.0-5.0-1.58","5ec0aeb3d216ee36d856ead2","bdp_cybrbll","Sat Mar 25 2023 23:43:57 GMT-0400 (Eastern Daylight Time)","432053","3","1","","null","","","","observe","","img/1to3/1.png","null","167","185","0.5","0.5","1","2","",""
"animation","121","129585","0.0-5.0-2.58","5ec0aeb3d216ee36d856ead2","bdp_cybrbll","Sat Mar 25 2023 23:43:57 GMT-0400 (Eastern Daylight Time)","432053","3","1","","","","","","","","","","167","","","","1","2","[{""stimulus"":""img/1to2/1.png"",""time"":100},{""stimulus"":""img/1to2/2.png"",""time"":199},{""stimulus"":""img/1to2/3.png"",""time"":299},{""stimulus"":""img/1to2/4.png"",""time"":397},{""stimulus"":""img/1to2/5.png"",""time"":497},{""stimulus"":""img/1to2/6.png"",""time"":595},{""stimulus"":""img/1to2/7.png"",""time"":694},{""stimulus"":""img/1to2/8.png"",""time"":793},{""stimulus"":""img/1to2/9.png"",""time"":893},{""stimulus"":""img/1to2/10.png"",""time"":991},{""stimulus"":""img/1to2/11.png"",""time"":1090},{""stimulus"":""img/1to2/12.png"",""time"":1189}]","[]"
"image-keyboard-response","122","129614","0.0-5.0-1.59","5ec0aeb3d216ee36d856ead2","bdp_cybrbll","Sat Mar 25 2023 23:43:57 GMT-0400 (Eastern Daylight Time)","432053","3","1","","28","","","","choice","","img/2to1/1.png","1","166","462","0.5","0.5","2","1","",""
"animation","123","130903","0.0-5.0-2.59","5ec0aeb3d216ee36d856ead2","bdp_cybrbll","Sat Mar 25 2023 23:43:57 GMT-0400 (Eastern Daylight Time)","432053","3","1","","","","","","","","","","166","","","","2","1","[{""stimulus"":""img/2to1/1.png"",""time"":100},{""stimulus"":""img/2to1/2.png"",""time"":199},{""stimulus"":""img/2to1/3.png"",""time"":297},{""stimulus"":""img/2to1/4.png"",""time"":397},{""stimulus"":""img/2to1/5.png"",""time"":496},{""stimulus"":""img/2to1/6.png"",""time"":595},{""stimulus"":""img/2to1/7.png"",""time"":694},{""stimulus"":""img/2to1/8.png"",""time"":793},{""stimulus"":""img/2to1/9.png"",""time"":892},{""stimulus"":""img/2to1/10.png"",""time"":991},{""stimulus"":""img/2to1/11.png"",""time"":1089},{""stimulus"":""img/2to1/12.png"",""time"":1188}]","[]"
"image-keyboard-response","124","132166","0.0-5.0-1.60","5ec0aeb3d216ee36d856ead2","bdp_cybrbll","Sat Mar 25 2023 23:43:57 GMT-0400 (Eastern Daylight Time)","432053","3","1","","null","","","","observe","","img/1to3/1.png","null","165","1262","0.5","0.5","1","3","",""
"animation","125","133454","0.0-5.0-2.60","5ec0aeb3d216ee36d856ead2","bdp_cybrbll","Sat Mar 25 2023 23:43:57 GMT-0400 (Eastern Daylight Time)","432053","3","1","","","","","","","","","","165","","","","1","3","[{""stimulus"":""img/1to3/1.png"",""time"":100},{""stimulus"":""img/1to3/2.png"",""time"":200},{""stimulus"":""img/1to3/3.png"",""time"":298},{""stimulus"":""img/1to3/4.png"",""time"":397},{""stimulus"":""img/1to3/5.png"",""time"":496},{""stimulus"":""img/1to3/6.png"",""time"":595},{""stimulus"":""img/1to3/7.png"",""time"":694},{""stimulus"":""img/1to3/8.png"",""time"":794},{""stimulus"":""img/1to3/9.png"",""time"":893},{""stimulus"":""img/1to3/10.png"",""time"":991},{""stimulus"":""img/1to3/11.png"",""time"":1090},{""stimulus"":""img/1to3/12.png"",""time"":1190}]","[]"
"image-keyboard-response","126","133684","0.0-5.0-1.61","5ec0aeb3d216ee36d856ead2","bdp_cybrbll","Sat Mar 25 2023 23:43:57 GMT-0400 (Eastern Daylight Time)","432053","3","1","","null","","","","observe","","img/3to2/1.png","null","164","229","0.5","0.5","3","1","",""
"animation","127","134972","0.0-5.0-2.61","5ec0aeb3d216ee36d856ead2","bdp_cybrbll","Sat Mar 25 2023 23:43:57 GMT-0400 (Eastern Daylight Time)","432053","3","1","","","","","","","","","","164","","","","3","1","[{""stimulus"":""img/3to1/1.png"",""time"":100},{""stimulus"":""img/3to1/2.png"",""time"":199},{""stimulus"":""img/3to1/3.png"",""time"":298},{""stimulus"":""img/3to1/4.png"",""time"":397},{""stimulus"":""img/3to1/5.png"",""time"":496},{""stimulus"":""img/3to1/6.png"",""time"":596},{""stimulus"":""img/3to1/7.png"",""time"":693},{""stimulus"":""img/3to1/8.png"",""time"":793},{""stimulus"":""img/3to1/9.png"",""time"":891},{""stimulus"":""img/3to1/10.png"",""time"":991},{""stimulus"":""img/3to1/11.png"",""time"":1089},{""stimulus"":""img/3to1/12.png"",""time"":1189}]","[]"
"image-keyboard-response","128","135253","0.0-5.0-1.62","5ec0aeb3d216ee36d856ead2","bdp_cybrbll","Sat Mar 25 2023 23:43:57 GMT-0400 (Eastern Daylight Time)","432053","3","1","","null","","","","observe","","img/1to3/1.png","null","163","280","0.5","0.5","1","2","",""
"animation","129","136541","0.0-5.0-2.62","5ec0aeb3d216ee36d856ead2","bdp_cybrbll","Sat Mar 25 2023 23:43:57 GMT-0400 (Eastern Daylight Time)","432053","3","1","","","","","","","","","","163","","","","1","2","[{""stimulus"":""img/1to2/1.png"",""time"":100},{""stimulus"":""img/1to2/2.png"",""time"":199},{""stimulus"":""img/1to2/3.png"",""time"":298},{""stimulus"":""img/1to2/4.png"",""time"":398},{""stimulus"":""img/1to2/5.png"",""time"":496},{""stimulus"":""img/1to2/6.png"",""time"":595},{""stimulus"":""img/1to2/7.png"",""time"":694},{""stimulus"":""img/1to2/8.png"",""time"":795},{""stimulus"":""img/1to2/9.png"",""time"":892},{""stimulus"":""img/1to2/10.png"",""time"":991},{""stimulus"":""img/1to2/11.png"",""time"":1090},{""stimulus"":""img/1to2/12.png"",""time"":1190}]","[]"
"image-keyboard-response","130","136840","0.0-5.0-1.63","5ec0aeb3d216ee36d856ead2","bdp_cybrbll","Sat Mar 25 2023 23:43:57 GMT-0400 (Eastern Daylight Time)","432053","3","1","","298","","","","choice","","img/2to1/1.png","2","162","325","0.5","0.5","2","3","",""
"animation","131","138129","0.0-5.0-2.63","5ec0aeb3d216ee36d856ead2","bdp_cybrbll","Sat Mar 25 2023 23:43:57 GMT-0400 (Eastern Daylight Time)","432053","3","1","","","","","","","","","","162","","","","2","3","[{""stimulus"":""img/2to3/1.png"",""time"":100},{""stimulus"":""img/2to3/2.png"",""time"":199},{""stimulus"":""img/2to3/3.png"",""time"":298},{""stimulus"":""img/2to3/4.png"",""time"":397},{""stimulus"":""img/2to3/5.png"",""time"":496},{""stimulus"":""img/2to3/6.png"",""time"":594},{""stimulus"":""img/2to3/7.png"",""time"":694},{""stimulus"":""img/2to3/8.png"",""time"":793},{""stimulus"":""img/2to3/9.png"",""time"":892},{""stimulus"":""img/2to3/10.png"",""time"":991},{""stimulus"":""img/2to3/11.png"",""time"":1090},{""stimulus"":""img/2to3/12.png"",""time"":1189}]","[]"
"image-keyboard-response","132","138452","0.0-5.0-1.64","5ec0aeb3d216ee36d856ead2","bdp_cybrbll","Sat Mar 25 2023 23:43:57 GMT-0400 (Eastern Daylight Time)","432053","3","1","","null","","","","observe","","img/3to2/1.png","null","161","321","0.5","0.5","3","1","",""
"animation","133","139740","0.0-5.0-2.64","5ec0aeb3d216ee36d856ead2","bdp_cybrbll","Sat Mar 25 2023 23:43:57 GMT-0400 (Eastern Daylight Time)","432053","3","1","","","","","","","","","","161","","","","3","1","[{""stimulus"":""img/3to1/1.png"",""time"":101},{""stimulus"":""img/3to1/2.png"",""time"":199},{""stimulus"":""img/3to1/3.png"",""time"":298},{""stimulus"":""img/3to1/4.png"",""time"":397},{""stimulus"":""img/3to1/5.png"",""time"":496},{""stimulus"":""img/3to1/6.png"",""time"":595},{""stimulus"":""img/3to1/7.png"",""time"":694},{""stimulus"":""img/3to1/8.png"",""time"":793},{""stimulus"":""img/3to1/9.png"",""time"":892},{""stimulus"":""img/3to1/10.png"",""time"":991},{""stimulus"":""img/3to1/11.png"",""time"":1091},{""stimulus"":""img/3to1/12.png"",""time"":1190}]","[]"
"image-keyboard-response","134","140630","0.0-5.0-1.65","5ec0aeb3d216ee36d856ead2","bdp_cybrbll","Sat Mar 25 2023 23:43:57 GMT-0400 (Eastern Daylight Time)","432053","3","1","","null","","","","observe","","img/1to3/1.png","null","160","888","0.5","0.5","1","3","",""
"animation","135","141930","0.0-5.0-2.65","5ec0aeb3d216ee36d856ead2","bdp_cybrbll","Sat Mar 25 2023 23:43:57 GMT-0400 (Eastern Daylight Time)","432053","3","1","","","","","","","","","","160","","","","1","3","[{""stimulus"":""img/1to3/1.png"",""time"":101},{""stimulus"":""img/1to3/2.png"",""time"":200},{""stimulus"":""img/1to3/3.png"",""time"":298},{""stimulus"":""img/1to3/4.png"",""time"":398},{""stimulus"":""img/1to3/5.png"",""time"":496},{""stimulus"":""img/1to3/6.png"",""time"":595},{""stimulus"":""img/1to3/7.png"",""time"":694},{""stimulus"":""img/1to3/8.png"",""time"":793},{""stimulus"":""img/1to3/9.png"",""time"":892},{""stimulus"":""img/1to3/10.png"",""time"":991},{""stimulus"":""img/1to3/11.png"",""time"":1091},{""stimulus"":""img/1to3/12.png"",""time"":1189}]","[]"
"image-keyboard-response","136","142468","0.0-5.0-1.66","5ec0aeb3d216ee36d856ead2","bdp_cybrbll","Sat Mar 25 2023 23:43:57 GMT-0400 (Eastern Daylight Time)","432053","3","1","","null","","","","observe","","img/3to2/1.png","null","159","536","0.5","0.5","3","1","",""
"animation","137","143756","0.0-5.0-2.66","5ec0aeb3d216ee36d856ead2","bdp_cybrbll","Sat Mar 25 2023 23:43:57 GMT-0400 (Eastern Daylight Time)","432053","3","1","","","","","","","","","","159","","","","3","1","[{""stimulus"":""img/3to1/1.png"",""time"":100},{""stimulus"":""img/3to1/2.png"",""time"":200},{""stimulus"":""img/3to1/3.png"",""time"":298},{""stimulus"":""img/3to1/4.png"",""time"":397},{""stimulus"":""img/3to1/5.png"",""time"":496},{""stimulus"":""img/3to1/6.png"",""time"":596},{""stimulus"":""img/3to1/7.png"",""time"":694},{""stimulus"":""img/3to1/8.png"",""time"":794},{""stimulus"":""img/3to1/9.png"",""time"":892},{""stimulus"":""img/3to1/10.png"",""time"":991},{""stimulus"":""img/3to1/11.png"",""time"":1090},{""stimulus"":""img/3to1/12.png"",""time"":1189}]","[]"
"image-keyboard-response","138","144384","0.0-5.0-1.67","5ec0aeb3d216ee36d856ead2","bdp_cybrbll","Sat Mar 25 2023 23:43:57 GMT-0400 (Eastern Daylight Time)","432053","3","1","","null","","","","observe","","img/1to3/1.png","null","158","627","0.5","0.5","1","2","",""
"animation","139","145671","0.0-5.0-2.67","5ec0aeb3d216ee36d856ead2","bdp_cybrbll","Sat Mar 25 2023 23:43:57 GMT-0400 (Eastern Daylight Time)","432053","3","1","","","","","","","","","","158","","","","1","2","[{""stimulus"":""img/1to2/1.png"",""time"":100},{""stimulus"":""img/1to2/2.png"",""time"":198},{""stimulus"":""img/1to2/3.png"",""time"":298},{""stimulus"":""img/1to2/4.png"",""time"":398},{""stimulus"":""img/1to2/5.png"",""time"":496},{""stimulus"":""img/1to2/6.png"",""time"":595},{""stimulus"":""img/1to2/7.png"",""time"":694},{""stimulus"":""img/1to2/8.png"",""time"":793},{""stimulus"":""img/1to2/9.png"",""time"":892},{""stimulus"":""img/1to2/10.png"",""time"":991},{""stimulus"":""img/1to2/11.png"",""time"":1090},{""stimulus"":""img/1to2/12.png"",""time"":1188}]","[]"
"image-keyboard-response","140","146126","0.0-5.0-1.68","5ec0aeb3d216ee36d856ead2","bdp_cybrbll","Sat Mar 25 2023 23:43:57 GMT-0400 (Eastern Daylight Time)","432053","3","1","","454","","","","choice","","img/2to1/1.png","2","157","265","0.5","0.5","2","3","",""
"animation","141","147415","0.0-5.0-2.68","5ec0aeb3d216ee36d856ead2","bdp_cybrbll","Sat Mar 25 2023 23:43:57 GMT-0400 (Eastern Daylight Time)","432053","3","1","","","","","","","","","","157","","","","2","3","[{""stimulus"":""img/2to3/1.png"",""time"":99},{""stimulus"":""img/2to3/2.png"",""time"":198},{""stimulus"":""img/2to3/3.png"",""time"":299},{""stimulus"":""img/2to3/4.png"",""time"":397},{""stimulus"":""img/2to3/5.png"",""time"":497},{""stimulus"":""img/2to3/6.png"",""time"":594},{""stimulus"":""img/2to3/7.png"",""time"":693},{""stimulus"":""img/2to3/8.png"",""time"":793},{""stimulus"":""img/2to3/9.png"",""time"":892},{""stimulus"":""img/2to3/10.png"",""time"":990},{""stimulus"":""img/2to3/11.png"",""time"":1089},{""stimulus"":""img/2to3/12.png"",""time"":1189}]","[]"
"image-keyboard-response","142","147888","0.0-5.0-1.69","5ec0aeb3d216ee36d856ead2","bdp_cybrbll","Sat Mar 25 2023 23:43:57 GMT-0400 (Eastern Daylight Time)","432053","3","1","","null","","","","observe","","img/3to2/1.png","null","156","471","0.5","0.5","3","2","",""
"animation","143","149176","0.0-5.0-2.69","5ec0aeb3d216ee36d856ead2","bdp_cybrbll","Sat Mar 25 2023 23:43:57 GMT-0400 (Eastern Daylight Time)","432053","3","1","","","","","","","","","","156","","","","3","2","[{""stimulus"":""img/3to2/1.png"",""time"":100},{""stimulus"":""img/3to2/2.png"",""time"":199},{""stimulus"":""img/3to2/3.png"",""time"":298},{""stimulus"":""img/3to2/4.png"",""time"":397},{""stimulus"":""img/3to2/5.png"",""time"":496},{""stimulus"":""img/3to2/6.png"",""time"":596},{""stimulus"":""img/3to2/7.png"",""time"":693},{""stimulus"":""img/3to2/8.png"",""time"":793},{""stimulus"":""img/3to2/9.png"",""time"":891},{""stimulus"":""img/3to2/10.png"",""time"":991},{""stimulus"":""img/3to2/11.png"",""time"":1090},{""stimulus"":""img/3to2/12.png"",""time"":1189}]","[]"
"image-keyboard-response","144","151216","0.0-5.0-1.70","5ec0aeb3d216ee36d856ead2","bdp_cybrbll","Sat Mar 25 2023 23:43:57 GMT-0400 (Eastern Daylight Time)","432053","3","1","","2040","","","","choice","","img/2to1/1.png","1","155","311","0.5","0.5","2","1","",""
"animation","145","152504","0.0-5.0-2.70","5ec0aeb3d216ee36d856ead2","bdp_cybrbll","Sat Mar 25 2023 23:43:57 GMT-0400 (Eastern Daylight Time)","432053","3","1","","","","","","","","","","155","","","","2","1","[{""stimulus"":""img/2to1/1.png"",""time"":100},{""stimulus"":""img/2to1/2.png"",""time"":199},{""stimulus"":""img/2to1/3.png"",""time"":298},{""stimulus"":""img/2to1/4.png"",""time"":402},{""stimulus"":""img/2to1/5.png"",""time"":496},{""stimulus"":""img/2to1/6.png"",""time"":595},{""stimulus"":""img/2to1/7.png"",""time"":693},{""stimulus"":""img/2to1/8.png"",""time"":792},{""stimulus"":""img/2to1/9.png"",""time"":892},{""stimulus"":""img/2to1/10.png"",""time"":990},{""stimulus"":""img/2to1/11.png"",""time"":1089},{""stimulus"":""img/2to1/12.png"",""time"":1188}]","[]"
"image-keyboard-response","146","152889","0.0-5.0-1.71","5ec0aeb3d216ee36d856ead2","bdp_cybrbll","Sat Mar 25 2023 23:43:57 GMT-0400 (Eastern Daylight Time)","432053","3","1","","null","","","","observe","","img/1to3/1.png","null","154","384","0.5","0.5","1","2","",""
"animation","147","154177","0.0-5.0-2.71","5ec0aeb3d216ee36d856ead2","bdp_cybrbll","Sat Mar 25 2023 23:43:57 GMT-0400 (Eastern Daylight Time)","432053","3","1","","","","","","","","","","154","","","","1","2","[{""stimulus"":""img/1to2/1.png"",""time"":100},{""stimulus"":""img/1to2/2.png"",""time"":198},{""stimulus"":""img/1to2/3.png"",""time"":297},{""stimulus"":""img/1to2/4.png"",""time"":397},{""stimulus"":""img/1to2/5.png"",""time"":496},{""stimulus"":""img/1to2/6.png"",""time"":595},{""stimulus"":""img/1to2/7.png"",""time"":693},{""stimulus"":""img/1to2/8.png"",""time"":793},{""stimulus"":""img/1to2/9.png"",""time"":892},{""stimulus"":""img/1to2/10.png"",""time"":990},{""stimulus"":""img/1to2/11.png"",""time"":1090},{""stimulus"":""img/1to2/12.png"",""time"":1188}]","[]"
"image-keyboard-response","148","154510","0.0-5.0-1.72","5ec0aeb3d216ee36d856ead2","bdp_cybrbll","Sat Mar 25 2023 23:43:57 GMT-0400 (Eastern Daylight Time)","432053","3","1","","332","","","","choice","","img/2to1/1.png","1","153","1818","0.5","0.5","2","1","",""
"animation","149","155798","0.0-5.0-2.72","5ec0aeb3d216ee36d856ead2","bdp_cybrbll","Sat Mar 25 2023 23:43:57 GMT-0400 (Eastern Daylight Time)","432053","3","1","","","","","","","","","","153","","","","2","1","[{""stimulus"":""img/2to1/1.png"",""time"":100},{""stimulus"":""img/2to1/2.png"",""time"":199},{""stimulus"":""img/2to1/3.png"",""time"":298},{""stimulus"":""img/2to1/4.png"",""time"":397},{""stimulus"":""img/2to1/5.png"",""time"":495},{""stimulus"":""img/2to1/6.png"",""time"":594},{""stimulus"":""img/2to1/7.png"",""time"":694},{""stimulus"":""img/2to1/8.png"",""time"":792},{""stimulus"":""img/2to1/9.png"",""time"":891},{""stimulus"":""img/2to1/10.png"",""time"":991},{""stimulus"":""img/2to1/11.png"",""time"":1090},{""stimulus"":""img/2to1/12.png"",""time"":1190}]","[]"
"image-keyboard-response","150","156071","0.0-5.0-1.73","5ec0aeb3d216ee36d856ead2","bdp_cybrbll","Sat Mar 25 2023 23:43:57 GMT-0400 (Eastern Daylight Time)","432053","3","1","","null","","","","observe","","img/1to3/1.png","null","152","272","0.5","0.5","1","2","",""
"animation","151","157358","0.0-5.0-2.73","5ec0aeb3d216ee36d856ead2","bdp_cybrbll","Sat Mar 25 2023 23:43:57 GMT-0400 (Eastern Daylight Time)","432053","3","1","","","","","","","","","","152","","","","1","2","[{""stimulus"":""img/1to2/1.png"",""time"":102},{""stimulus"":""img/1to2/2.png"",""time"":199},{""stimulus"":""img/1to2/3.png"",""time"":298},{""stimulus"":""img/1to2/4.png"",""time"":397},{""stimulus"":""img/1to2/5.png"",""time"":496},{""stimulus"":""img/1to2/6.png"",""time"":595},{""stimulus"":""img/1to2/7.png"",""time"":694},{""stimulus"":""img/1to2/8.png"",""time"":794},{""stimulus"":""img/1to2/9.png"",""time"":892},{""stimulus"":""img/1to2/10.png"",""time"":991},{""stimulus"":""img/1to2/11.png"",""time"":1090},{""stimulus"":""img/1to2/12.png"",""time"":1189}]","[]"
"image-keyboard-response","152","157714","0.0-5.0-1.74","5ec0aeb3d216ee36d856ead2","bdp_cybrbll","Sat Mar 25 2023 23:43:57 GMT-0400 (Eastern Daylight Time)","432053","3","1","","355","","","","choice","","img/2to1/1.png","1","151","310","0.5","0.5","2","1","",""
"animation","153","159002","0.0-5.0-2.74","5ec0aeb3d216ee36d856ead2","bdp_cybrbll","Sat Mar 25 2023 23:43:57 GMT-0400 (Eastern Daylight Time)","432053","3","1","","","","","","","","","","151","","","","2","1","[{""stimulus"":""img/2to1/1.png"",""time"":99},{""stimulus"":""img/2to1/2.png"",""time"":199},{""stimulus"":""img/2to1/3.png"",""time"":298},{""stimulus"":""img/2to1/4.png"",""time"":398},{""stimulus"":""img/2to1/5.png"",""time"":495},{""stimulus"":""img/2to1/6.png"",""time"":604},{""stimulus"":""img/2to1/7.png"",""time"":694},{""stimulus"":""img/2to1/8.png"",""time"":793},{""stimulus"":""img/2to1/9.png"",""time"":892},{""stimulus"":""img/2to1/10.png"",""time"":990},{""stimulus"":""img/2to1/11.png"",""time"":1089},{""stimulus"":""img/2to1/12.png"",""time"":1188}]","[]"
"image-keyboard-response","154","159429","0.0-5.0-1.75","5ec0aeb3d216ee36d856ead2","bdp_cybrbll","Sat Mar 25 2023 23:43:57 GMT-0400 (Eastern Daylight Time)","432053","3","1","","null","","","","observe","","img/1to3/1.png","null","150","425","0.5","0.5","1","2","",""
"animation","155","160718","0.0-5.0-2.75","5ec0aeb3d216ee36d856ead2","bdp_cybrbll","Sat Mar 25 2023 23:43:57 GMT-0400 (Eastern Daylight Time)","432053","3","1","","","","","","","","","","150","","","","1","2","[{""stimulus"":""img/1to2/1.png"",""time"":100},{""stimulus"":""img/1to2/2.png"",""time"":199},{""stimulus"":""img/1to2/3.png"",""time"":298},{""stimulus"":""img/1to2/4.png"",""time"":397},{""stimulus"":""img/1to2/5.png"",""time"":498},{""stimulus"":""img/1to2/6.png"",""time"":595},{""stimulus"":""img/1to2/7.png"",""time"":694},{""stimulus"":""img/1to2/8.png"",""time"":794},{""stimulus"":""img/1to2/9.png"",""time"":894},{""stimulus"":""img/1to2/10.png"",""time"":993},{""stimulus"":""img/1to2/11.png"",""time"":1091},{""stimulus"":""img/1to2/12.png"",""time"":1190}]","[]"
"image-keyboard-response","156","161406","0.0-5.0-1.76","5ec0aeb3d216ee36d856ead2","bdp_cybrbll","Sat Mar 25 2023 23:43:57 GMT-0400 (Eastern Daylight Time)","432053","3","1","","688","","","","choice","","img/2to1/1.png","1","149","496","0.5","0.1","2","1","",""
"animation","157","162694","0.0-5.0-2.76","5ec0aeb3d216ee36d856ead2","bdp_cybrbll","Sat Mar 25 2023 23:43:57 GMT-0400 (Eastern Daylight Time)","432053","3","1","","","","","","","","","","149","","","","2","1","[{""stimulus"":""img/2to1/1.png"",""time"":100},{""stimulus"":""img/2to1/2.png"",""time"":198},{""stimulus"":""img/2to1/3.png"",""time"":298},{""stimulus"":""img/2to1/4.png"",""time"":396},{""stimulus"":""img/2to1/5.png"",""time"":496},{""stimulus"":""img/2to1/6.png"",""time"":595},{""stimulus"":""img/2to1/7.png"",""time"":694},{""stimulus"":""img/2to1/8.png"",""time"":793},{""stimulus"":""img/2to1/9.png"",""time"":892},{""stimulus"":""img/2to1/10.png"",""time"":991},{""stimulus"":""img/2to1/11.png"",""time"":1089},{""stimulus"":""img/2to1/12.png"",""time"":1189}]","[]"
"image-keyboard-response","158","163315","0.0-5.0-1.77","5ec0aeb3d216ee36d856ead2","bdp_cybrbll","Sat Mar 25 2023 23:43:57 GMT-0400 (Eastern Daylight Time)","432053","3","1","","null","","","","observe","","img/1to3/1.png","null","148","618","0.5","0.1","1","3","",""
"animation","159","164602","0.0-5.0-2.77","5ec0aeb3d216ee36d856ead2","bdp_cybrbll","Sat Mar 25 2023 23:43:57 GMT-0400 (Eastern Daylight Time)","432053","3","1","","","","","","","","","","148","","","","1","3","[{""stimulus"":""img/1to3/1.png"",""time"":100},{""stimulus"":""img/1to3/2.png"",""time"":198},{""stimulus"":""img/1to3/3.png"",""time"":297},{""stimulus"":""img/1to3/4.png"",""time"":397},{""stimulus"":""img/1to3/5.png"",""time"":496},{""stimulus"":""img/1to3/6.png"",""time"":596},{""stimulus"":""img/1to3/7.png"",""time"":693},{""stimulus"":""img/1to3/8.png"",""time"":792},{""stimulus"":""img/1to3/9.png"",""time"":892},{""stimulus"":""img/1to3/10.png"",""time"":991},{""stimulus"":""img/1to3/11.png"",""time"":1090},{""stimulus"":""img/1to3/12.png"",""time"":1188}]","[]"
"image-keyboard-response","160","165140","0.0-5.0-1.78","5ec0aeb3d216ee36d856ead2","bdp_cybrbll","Sat Mar 25 2023 23:43:57 GMT-0400 (Eastern Daylight Time)","432053","3","1","","null","","","","observe","","img/3to2/1.png","null","147","535","0.5","0.1","3","1","",""
"animation","161","166427","0.0-5.0-2.78","5ec0aeb3d216ee36d856ead2","bdp_cybrbll","Sat Mar 25 2023 23:43:57 GMT-0400 (Eastern Daylight Time)","432053","3","1","","","","","","","","","","147","","","","3","1","[{""stimulus"":""img/3to1/1.png"",""time"":101},{""stimulus"":""img/3to1/2.png"",""time"":198},{""stimulus"":""img/3to1/3.png"",""time"":297},{""stimulus"":""img/3to1/4.png"",""time"":398},{""stimulus"":""img/3to1/5.png"",""time"":495},{""stimulus"":""img/3to1/6.png"",""time"":595},{""stimulus"":""img/3to1/7.png"",""time"":694},{""stimulus"":""img/3to1/8.png"",""time"":792},{""stimulus"":""img/3to1/9.png"",""time"":891},{""stimulus"":""img/3to1/10.png"",""time"":990},{""stimulus"":""img/3to1/11.png"",""time"":1090},{""stimulus"":""img/3to1/12.png"",""time"":1189}]","[]"
"image-keyboard-response","162","167664","0.0-5.0-1.79","5ec0aeb3d216ee36d856ead2","bdp_cybrbll","Sat Mar 25 2023 23:43:57 GMT-0400 (Eastern Daylight Time)","432053","3","1","","null","","","","observe","","img/1to3/1.png","null","146","1236","0.5","0.1","1","3","",""
"animation","163","168952","0.0-5.0-2.79","5ec0aeb3d216ee36d856ead2","bdp_cybrbll","Sat Mar 25 2023 23:43:57 GMT-0400 (Eastern Daylight Time)","432053","3","1","","","","","","","","","","146","","","","1","3","[{""stimulus"":""img/1to3/1.png"",""time"":101},{""stimulus"":""img/1to3/2.png"",""time"":199},{""stimulus"":""img/1to3/3.png"",""time"":298},{""stimulus"":""img/1to3/4.png"",""time"":398},{""stimulus"":""img/1to3/5.png"",""time"":496},{""stimulus"":""img/1to3/6.png"",""time"":595},{""stimulus"":""img/1to3/7.png"",""time"":694},{""stimulus"":""img/1to3/8.png"",""time"":794},{""stimulus"":""img/1to3/9.png"",""time"":893},{""stimulus"":""img/1to3/10.png"",""time"":991},{""stimulus"":""img/1to3/11.png"",""time"":1091},{""stimulus"":""img/1to3/12.png"",""time"":1190}]","[]"
"image-keyboard-response","164","169449","0.0-5.0-1.80","5ec0aeb3d216ee36d856ead2","bdp_cybrbll","Sat Mar 25 2023 23:43:57 GMT-0400 (Eastern Daylight Time)","432053","3","1","","null","","","","observe","","img/3to2/1.png","null","145","496","0.5","0.1","3","2","",""
"animation","165","170737","0.0-5.0-2.80","5ec0aeb3d216ee36d856ead2","bdp_cybrbll","Sat Mar 25 2023 23:43:57 GMT-0400 (Eastern Daylight Time)","432053","3","1","","","","","","","","","","145","","","","3","2","[{""stimulus"":""img/3to2/1.png"",""time"":100},{""stimulus"":""img/3to2/2.png"",""time"":199},{""stimulus"":""img/3to2/3.png"",""time"":298},{""stimulus"":""img/3to2/4.png"",""time"":397},{""stimulus"":""img/3to2/5.png"",""time"":496},{""stimulus"":""img/3to2/6.png"",""time"":595},{""stimulus"":""img/3to2/7.png"",""time"":694},{""stimulus"":""img/3to2/8.png"",""time"":793},{""stimulus"":""img/3to2/9.png"",""time"":893},{""stimulus"":""img/3to2/10.png"",""time"":991},{""stimulus"":""img/3to2/11.png"",""time"":1090},{""stimulus"":""img/3to2/12.png"",""time"":1189}]","[]"
"image-keyboard-response","166","170960","0.0-5.0-1.81","5ec0aeb3d216ee36d856ead2","bdp_cybrbll","Sat Mar 25 2023 23:43:57 GMT-0400 (Eastern Daylight Time)","432053","3","1","","222","","","","choice","","img/2to1/1.png","2","144","911","0.5","0.1","2","3","",""
"animation","167","172250","0.0-5.0-2.81","5ec0aeb3d216ee36d856ead2","bdp_cybrbll","Sat Mar 25 2023 23:43:57 GMT-0400 (Eastern Daylight Time)","432053","3","1","","","","","","","","","","144","","","","2","3","[{""stimulus"":""img/2to3/1.png"",""time"":100},{""stimulus"":""img/2to3/2.png"",""time"":199},{""stimulus"":""img/2to3/3.png"",""time"":297},{""stimulus"":""img/2to3/4.png"",""time"":397},{""stimulus"":""img/2to3/5.png"",""time"":496},{""stimulus"":""img/2to3/6.png"",""time"":595},{""stimulus"":""img/2to3/7.png"",""time"":694},{""stimulus"":""img/2to3/8.png"",""time"":793},{""stimulus"":""img/2to3/9.png"",""time"":893},{""stimulus"":""img/2to3/10.png"",""time"":990},{""stimulus"":""img/2to3/11.png"",""time"":1090},{""stimulus"":""img/2to3/12.png"",""time"":1189}]","[]"
"image-keyboard-response","168","172529","0.0-5.0-1.82","5ec0aeb3d216ee36d856ead2","bdp_cybrbll","Sat Mar 25 2023 23:43:57 GMT-0400 (Eastern Daylight Time)","432053","3","1","","null","","","","observe","","img/3to2/1.png","null","143","278","0.5","0.1","3","2","",""
"animation","169","173817","0.0-5.0-2.82","5ec0aeb3d216ee36d856ead2","bdp_cybrbll","Sat Mar 25 2023 23:43:57 GMT-0400 (Eastern Daylight Time)","432053","3","1","","","","","","","","","","143","","","","3","2","[{""stimulus"":""img/3to2/1.png"",""time"":100},{""stimulus"":""img/3to2/2.png"",""time"":199},{""stimulus"":""img/3to2/3.png"",""time"":298},{""stimulus"":""img/3to2/4.png"",""time"":398},{""stimulus"":""img/3to2/5.png"",""time"":496},{""stimulus"":""img/3to2/6.png"",""time"":596},{""stimulus"":""img/3to2/7.png"",""time"":694},{""stimulus"":""img/3to2/8.png"",""time"":793},{""stimulus"":""img/3to2/9.png"",""time"":892},{""stimulus"":""img/3to2/10.png"",""time"":992},{""stimulus"":""img/3to2/11.png"",""time"":1090},{""stimulus"":""img/3to2/12.png"",""time"":1189}]","[]"
"image-keyboard-response","170","174358","0.0-5.0-1.83","5ec0aeb3d216ee36d856ead2","bdp_cybrbll","Sat Mar 25 2023 23:43:57 GMT-0400 (Eastern Daylight Time)","432053","3","1","","540","","","","choice","","img/2to1/1.png","2","142","743","0.5","0.1","2","3","",""
"animation","171","175646","0.0-5.0-2.83","5ec0aeb3d216ee36d856ead2","bdp_cybrbll","Sat Mar 25 2023 23:43:57 GMT-0400 (Eastern Daylight Time)","432053","3","1","","","","","","","","","","142","","","","2","3","[{""stimulus"":""img/2to3/1.png"",""time"":99},{""stimulus"":""img/2to3/2.png"",""time"":199},{""stimulus"":""img/2to3/3.png"",""time"":298},{""stimulus"":""img/2to3/4.png"",""time"":396},{""stimulus"":""img/2to3/5.png"",""time"":496},{""stimulus"":""img/2to3/6.png"",""time"":596},{""stimulus"":""img/2to3/7.png"",""time"":693},{""stimulus"":""img/2to3/8.png"",""time"":793},{""stimulus"":""img/2to3/9.png"",""time"":892},{""stimulus"":""img/2to3/10.png"",""time"":991},{""stimulus"":""img/2to3/11.png"",""time"":1090},{""stimulus"":""img/2to3/12.png"",""time"":1189}]","[]"
"image-keyboard-response","172","176363","0.0-5.0-1.84","5ec0aeb3d216ee36d856ead2","bdp_cybrbll","Sat Mar 25 2023 23:43:57 GMT-0400 (Eastern Daylight Time)","432053","3","1","","null","","","","observe","","img/3to2/1.png","null","141","715","0.5","0.1","3","1","",""
"animation","173","177650","0.0-5.0-2.84","5ec0aeb3d216ee36d856ead2","bdp_cybrbll","Sat Mar 25 2023 23:43:57 GMT-0400 (Eastern Daylight Time)","432053","3","1","","","","","","","","","","141","","","","3","1","[{""stimulus"":""img/3to1/1.png"",""time"":100},{""stimulus"":""img/3to1/2.png"",""time"":199},{""stimulus"":""img/3to1/3.png"",""time"":297},{""stimulus"":""img/3to1/4.png"",""time"":397},{""stimulus"":""img/3to1/5.png"",""time"":497},{""stimulus"":""img/3to1/6.png"",""time"":595},{""stimulus"":""img/3to1/7.png"",""time"":694},{""stimulus"":""img/3to1/8.png"",""time"":793},{""stimulus"":""img/3to1/9.png"",""time"":892},{""stimulus"":""img/3to1/10.png"",""time"":991},{""stimulus"":""img/3to1/11.png"",""time"":1091},{""stimulus"":""img/3to1/12.png"",""time"":1189}]","[]"
"image-keyboard-response","174","179221","0.0-5.0-1.85","5ec0aeb3d216ee36d856ead2","bdp_cybrbll","Sat Mar 25 2023 23:43:57 GMT-0400 (Eastern Daylight Time)","432053","3","1","","null","","","","observe","","img/1to3/1.png","null","140","1569","0.5","0.1","1","3","",""
"animation","175","180509","0.0-5.0-2.85","5ec0aeb3d216ee36d856ead2","bdp_cybrbll","Sat Mar 25 2023 23:43:57 GMT-0400 (Eastern Daylight Time)","432053","3","1","","","","","","","","","","140","","","","1","3","[{""stimulus"":""img/1to3/1.png"",""time"":99},{""stimulus"":""img/1to3/2.png"",""time"":199},{""stimulus"":""img/1to3/3.png"",""time"":298},{""stimulus"":""img/1to3/4.png"",""time"":397},{""stimulus"":""img/1to3/5.png"",""time"":496},{""stimulus"":""img/1to3/6.png"",""time"":596},{""stimulus"":""img/1to3/7.png"",""time"":694},{""stimulus"":""img/1to3/8.png"",""time"":793},{""stimulus"":""img/1to3/9.png"",""time"":891},{""stimulus"":""img/1to3/10.png"",""time"":991},{""stimulus"":""img/1to3/11.png"",""time"":1090},{""stimulus"":""img/1to3/12.png"",""time"":1189}]","[]"
"image-keyboard-response","176","181412","0.0-5.0-1.86","5ec0aeb3d216ee36d856ead2","bdp_cybrbll","Sat Mar 25 2023 23:43:57 GMT-0400 (Eastern Daylight Time)","432053","3","1","","null","","","","observe","","img/3to2/1.png","null","139","902","0.5","0.1","3","1","",""
"animation","177","182700","0.0-5.0-2.86","5ec0aeb3d216ee36d856ead2","bdp_cybrbll","Sat Mar 25 2023 23:43:57 GMT-0400 (Eastern Daylight Time)","432053","3","1","","","","","","","","","","139","","","","3","1","[{""stimulus"":""img/3to1/1.png"",""time"":101},{""stimulus"":""img/3to1/2.png"",""time"":200},{""stimulus"":""img/3to1/3.png"",""time"":298},{""stimulus"":""img/3to1/4.png"",""time"":398},{""stimulus"":""img/3to1/5.png"",""time"":498},{""stimulus"":""img/3to1/6.png"",""time"":595},{""stimulus"":""img/3to1/7.png"",""time"":695},{""stimulus"":""img/3to1/8.png"",""time"":793},{""stimulus"":""img/3to1/9.png"",""time"":892},{""stimulus"":""img/3to1/10.png"",""time"":991},{""stimulus"":""img/3to1/11.png"",""time"":1091},{""stimulus"":""img/3to1/12.png"",""time"":1190}]","[]"
"image-keyboard-response","178","183283","0.0-5.0-1.87","5ec0aeb3d216ee36d856ead2","bdp_cybrbll","Sat Mar 25 2023 23:43:57 GMT-0400 (Eastern Daylight Time)","432053","3","1","","null","","","","observe","","img/1to3/1.png","null","138","582","0.5","0.1","1","3","",""
"animation","179","184571","0.0-5.0-2.87","5ec0aeb3d216ee36d856ead2","bdp_cybrbll","Sat Mar 25 2023 23:43:57 GMT-0400 (Eastern Daylight Time)","432053","3","1","","","","","","","","","","138","","","","1","3","[{""stimulus"":""img/1to3/1.png"",""time"":101},{""stimulus"":""img/1to3/2.png"",""time"":198},{""stimulus"":""img/1to3/3.png"",""time"":297},{""stimulus"":""img/1to3/4.png"",""time"":397},{""stimulus"":""img/1to3/5.png"",""time"":495},{""stimulus"":""img/1to3/6.png"",""time"":595},{""stimulus"":""img/1to3/7.png"",""time"":694},{""stimulus"":""img/1to3/8.png"",""time"":793},{""stimulus"":""img/1to3/9.png"",""time"":892},{""stimulus"":""img/1to3/10.png"",""time"":990},{""stimulus"":""img/1to3/11.png"",""time"":1090},{""stimulus"":""img/1to3/12.png"",""time"":1190}]","[]"
"image-keyboard-response","180","185483","0.0-5.0-1.88","5ec0aeb3d216ee36d856ead2","bdp_cybrbll","Sat Mar 25 2023 23:43:57 GMT-0400 (Eastern Daylight Time)","432053","3","1","","null","","","","observe","","img/3to2/1.png","null","137","911","0.5","0.1","3","1","",""
"animation","181","186771","0.0-5.0-2.88","5ec0aeb3d216ee36d856ead2","bdp_cybrbll","Sat Mar 25 2023 23:43:57 GMT-0400 (Eastern Daylight Time)","432053","3","1","","","","","","","","","","137","","","","3","1","[{""stimulus"":""img/3to1/1.png"",""time"":100},{""stimulus"":""img/3to1/2.png"",""time"":209},{""stimulus"":""img/3to1/3.png"",""time"":299},{""stimulus"":""img/3to1/4.png"",""time"":399},{""stimulus"":""img/3to1/5.png"",""time"":496},{""stimulus"":""img/3to1/6.png"",""time"":596},{""stimulus"":""img/3to1/7.png"",""time"":694},{""stimulus"":""img/3to1/8.png"",""time"":794},{""stimulus"":""img/3to1/9.png"",""time"":906},{""stimulus"":""img/3to1/10.png"",""time"":992},{""stimulus"":""img/3to1/11.png"",""time"":1091},{""stimulus"":""img/3to1/12.png"",""time"":1190}]","[]"
"image-keyboard-response","182","187075","0.0-5.0-1.89","5ec0aeb3d216ee36d856ead2","bdp_cybrbll","Sat Mar 25 2023 23:43:57 GMT-0400 (Eastern Daylight Time)","432053","3","1","","null","","","","observe","","img/1to3/1.png","null","136","303","0.5","0.1","1","3","",""
"animation","183","188363","0.0-5.0-2.89","5ec0aeb3d216ee36d856ead2","bdp_cybrbll","Sat Mar 25 2023 23:43:57 GMT-0400 (Eastern Daylight Time)","432053","3","1","","","","","","","","","","136","","","","1","3","[{""stimulus"":""img/1to3/1.png"",""time"":99},{""stimulus"":""img/1to3/2.png"",""time"":199},{""stimulus"":""img/1to3/3.png"",""time"":305},{""stimulus"":""img/1to3/4.png"",""time"":397},{""stimulus"":""img/1to3/5.png"",""time"":496},{""stimulus"":""img/1to3/6.png"",""time"":594},{""stimulus"":""img/1to3/7.png"",""time"":693},{""stimulus"":""img/1to3/8.png"",""time"":794},{""stimulus"":""img/1to3/9.png"",""time"":891},{""stimulus"":""img/1to3/10.png"",""time"":990},{""stimulus"":""img/1to3/11.png"",""time"":1089},{""stimulus"":""img/1to3/12.png"",""time"":1189}]","[]"
"image-keyboard-response","184","188590","0.0-5.0-1.90","5ec0aeb3d216ee36d856ead2","bdp_cybrbll","Sat Mar 25 2023 23:43:57 GMT-0400 (Eastern Daylight Time)","432053","3","1","","null","","","","observe","","img/3to2/1.png","null","135","225","0.5","0.1","3","2","",""
"animation","185","189879","0.0-5.0-2.90","5ec0aeb3d216ee36d856ead2","bdp_cybrbll","Sat Mar 25 2023 23:43:57 GMT-0400 (Eastern Daylight Time)","432053","3","1","","","","","","","","","","135","","","","3","2","[{""stimulus"":""img/3to2/1.png"",""time"":100},{""stimulus"":""img/3to2/2.png"",""time"":199},{""stimulus"":""img/3to2/3.png"",""time"":298},{""stimulus"":""img/3to2/4.png"",""time"":397},{""stimulus"":""img/3to2/5.png"",""time"":496},{""stimulus"":""img/3to2/6.png"",""time"":595},{""stimulus"":""img/3to2/7.png"",""time"":694},{""stimulus"":""img/3to2/8.png"",""time"":793},{""stimulus"":""img/3to2/9.png"",""time"":892},{""stimulus"":""img/3to2/10.png"",""time"":990},{""stimulus"":""img/3to2/11.png"",""time"":1091},{""stimulus"":""img/3to2/12.png"",""time"":1189}]","[]"
"image-keyboard-response","186","190326","0.0-5.0-1.91","5ec0aeb3d216ee36d856ead2","bdp_cybrbll","Sat Mar 25 2023 23:43:57 GMT-0400 (Eastern Daylight Time)","432053","3","1","","446","","","","choice","","img/2to1/1.png","1","134","442","0.5","0.1","2","1","",""
"animation","187","191614","0.0-5.0-2.91","5ec0aeb3d216ee36d856ead2","bdp_cybrbll","Sat Mar 25 2023 23:43:57 GMT-0400 (Eastern Daylight Time)","432053","3","1","","","","","","","","","","134","","","","2","1","[{""stimulus"":""img/2to1/1.png"",""time"":100},{""stimulus"":""img/2to1/2.png"",""time"":199},{""stimulus"":""img/2to1/3.png"",""time"":298},{""stimulus"":""img/2to1/4.png"",""time"":397},{""stimulus"":""img/2to1/5.png"",""time"":496},{""stimulus"":""img/2to1/6.png"",""time"":595},{""stimulus"":""img/2to1/7.png"",""time"":694},{""stimulus"":""img/2to1/8.png"",""time"":793},{""stimulus"":""img/2to1/9.png"",""time"":891},{""stimulus"":""img/2to1/10.png"",""time"":990},{""stimulus"":""img/2to1/11.png"",""time"":1091},{""stimulus"":""img/2to1/12.png"",""time"":1188}]","[]"
"image-keyboard-response","188","192195","0.0-5.0-1.92","5ec0aeb3d216ee36d856ead2","bdp_cybrbll","Sat Mar 25 2023 23:43:57 GMT-0400 (Eastern Daylight Time)","432053","3","1","","null","","","","observe","","img/1to3/1.png","null","133","579","0.5","0.1","1","3","",""
"animation","189","193482","0.0-5.0-2.92","5ec0aeb3d216ee36d856ead2","bdp_cybrbll","Sat Mar 25 2023 23:43:57 GMT-0400 (Eastern Daylight Time)","432053","3","1","","","","","","","","","","133","","","","1","3","[{""stimulus"":""img/1to3/1.png"",""time"":101},{""stimulus"":""img/1to3/2.png"",""time"":198},{""stimulus"":""img/1to3/3.png"",""time"":298},{""stimulus"":""img/1to3/4.png"",""time"":396},{""stimulus"":""img/1to3/5.png"",""time"":496},{""stimulus"":""img/1to3/6.png"",""time"":595},{""stimulus"":""img/1to3/7.png"",""time"":694},{""stimulus"":""img/1to3/8.png"",""time"":793},{""stimulus"":""img/1to3/9.png"",""time"":893},{""stimulus"":""img/1to3/10.png"",""time"":991},{""stimulus"":""img/1to3/11.png"",""time"":1089},{""stimulus"":""img/1to3/12.png"",""time"":1189}]","[]"
"image-keyboard-response","190","193925","0.0-5.0-1.93","5ec0aeb3d216ee36d856ead2","bdp_cybrbll","Sat Mar 25 2023 23:43:57 GMT-0400 (Eastern Daylight Time)","432053","3","1","","null","","","","observe","","img/3to2/1.png","null","132","440","0.5","0.1","3","1","",""
