"trial_type","trial_index","time_elapsed","internal_node_id","subject_id","task","startTime","totalTime","fairPartner","unfairPartner","view_history","rt","event","trial","time","trialtype","success","stimulus","key_press","throwsLeft","rtDur","pFair","pUnfair","holder","receiver","animation_sequence","responses"
"pavlovia","0","6","0.0-0.0","60fcf7102d7c9907d95a0920","bdp_cybrbll","Thu Apr 13 2023 09:50:21 GMT-0700 (PDT)","444093","1","3","","","","","","","","","","","","","","","","",""
"instructions","1","3386","0.0-1.0","60fcf7102d7c9907d95a0920","bdp_cybrbll","Thu Apr 13 2023 09:50:21 GMT-0700 (PDT)","444093","1","3","[{""page_index"":0,""viewing_time"":3379}]","3380","","","","","","","","","","","","","","",""
"","","","","60fcf7102d7c9907d95a0920","bdp_cybrbll","Thu Apr 13 2023 09:50:21 GMT-0700 (PDT)","444093","1","3","","","fullscreenenter","2","4996","fullscreenenter","","","","","","","","","","",""
"fullscreen","2","5962","0.0-2.0","60fcf7102d7c9907d95a0920","bdp_cybrbll","Thu Apr 13 2023 09:50:21 GMT-0700 (PDT)","444093","1","3","","","","","","","true","","","","","","","","","",""
"instructions","3","30516","0.0-4.0","60fcf7102d7c9907d95a0920","bdp_cybrbll","Thu Apr 13 2023 09:50:21 GMT-0700 (PDT)","444093","1","3","[{""page_index"":0,""viewing_time"":24546}]","24547","","","","","","","","","","","","","","",""
"image-keyboard-response","4","33031","0.0-5.0-1.0","60fcf7102d7c9907d95a0920","bdp_cybrbll","Thu Apr 13 2023 09:50:21 GMT-0700 (PDT)","444093","1","3","","2512","","","","choice","","img/2to1/1.png","1","225","276","0.5","0.5","2","1","",""
"animation","5","34334","0.0-5.0-2.0","60fcf7102d7c9907d95a0920","bdp_cybrbll","Thu Apr 13 2023 09:50:21 GMT-0700 (PDT)","444093","1","3","","","","","","","","","","225","","","","2","1","[{""stimulus"":""img/2to1/1.png"",""time"":101},{""stimulus"":""img/2to1/2.png"",""time"":200},{""stimulus"":""img/2to1/3.png"",""time"":300},{""stimulus"":""img/2to1/4.png"",""time"":400},{""stimulus"":""img/2to1/5.png"",""time"":500},{""stimulus"":""img/2to1/6.png"",""time"":601},{""stimulus"":""img/2to1/7.png"",""time"":701},{""stimulus"":""img/2to1/8.png"",""time"":801},{""stimulus"":""img/2to1/9.png"",""time"":901},{""stimulus"":""img/2to1/10.png"",""time"":1001},{""stimulus"":""img/2to1/11.png"",""time"":1101},{""stimulus"":""img/2to1/12.png"",""time"":1201}]","[]"
"image-keyboard-response","6","34598","0.0-5.0-1.1","60fcf7102d7c9907d95a0920","bdp_cybrbll","Thu Apr 13 2023 09:50:21 GMT-0700 (PDT)","444093","1","3","","null","","","","observe","","img/1to3/1.png","null","224","262","0.5","0.5","1","2","",""
"animation","7","35898","0.0-5.0-2.1","60fcf7102d7c9907d95a0920","bdp_cybrbll","Thu Apr 13 2023 09:50:21 GMT-0700 (PDT)","444093","1","3","","","","","","","","","","224","","","","1","2","[{""stimulus"":""img/1to2/1.png"",""time"":100},{""stimulus"":""img/1to2/2.png"",""time"":200},{""stimulus"":""img/1to2/3.png"",""time"":300},{""stimulus"":""img/1to2/4.png"",""time"":400},{""stimulus"":""img/1to2/5.png"",""time"":500},{""stimulus"":""img/1to2/6.png"",""time"":599},{""stimulus"":""img/1to2/7.png"",""time"":699},{""stimulus"":""img/1to2/8.png"",""time"":799},{""stimulus"":""img/1to2/9.png"",""time"":899},{""stimulus"":""img/1to2/10.png"",""time"":999},{""stimulus"":""img/1to2/11.png"",""time"":1099},{""stimulus"":""img/1to2/12.png"",""time"":1199}]","[]"
"image-keyboard-response","8","36351","0.0-5.0-1.2","60fcf7102d7c9907d95a0920","bdp_cybrbll","Thu Apr 13 2023 09:50:21 GMT-0700 (PDT)","444093","1","3","","451","","","","choice","","img/2to1/1.png","2","223","911","0.5","0.5","2","3","",""
"animation","9","37653","0.0-5.0-2.2","60fcf7102d7c9907d95a0920","bdp_cybrbll","Thu Apr 13 2023 09:50:21 GMT-0700 (PDT)","444093","1","3","","","","","","","","","","223","","","","2","3","[{""stimulus"":""img/2to3/1.png"",""time"":101},{""stimulus"":""img/2to3/2.png"",""time"":201},{""stimulus"":""img/2to3/3.png"",""time"":301},{""stimulus"":""img/2to3/4.png"",""time"":401},{""stimulus"":""img/2to3/5.png"",""time"":501},{""stimulus"":""img/2to3/6.png"",""time"":601},{""stimulus"":""img/2to3/7.png"",""time"":701},{""stimulus"":""img/2to3/8.png"",""time"":801},{""stimulus"":""img/2to3/9.png"",""time"":901},{""stimulus"":""img/2to3/10.png"",""time"":1002},{""stimulus"":""img/2to3/11.png"",""time"":1102},{""stimulus"":""img/2to3/12.png"",""time"":1202}]","[]"
"image-keyboard-response","10","38105","0.0-5.0-1.3","60fcf7102d7c9907d95a0920","bdp_cybrbll","Thu Apr 13 2023 09:50:21 GMT-0700 (PDT)","444093","1","3","","null","","","","observe","","img/3to2/1.png","null","222","450","0.5","0.5","3","2","",""
"animation","11","39407","0.0-5.0-2.3","60fcf7102d7c9907d95a0920","bdp_cybrbll","Thu Apr 13 2023 09:50:21 GMT-0700 (PDT)","444093","1","3","","","","","","","","","","222","","","","3","2","[{""stimulus"":""img/3to2/1.png"",""time"":101},{""stimulus"":""img/3to2/2.png"",""time"":201},{""stimulus"":""img/3to2/3.png"",""time"":301},{""stimulus"":""img/3to2/4.png"",""time"":401},{""stimulus"":""img/3to2/5.png"",""time"":501},{""stimulus"":""img/3to2/6.png"",""time"":601},{""stimulus"":""img/3to2/7.png"",""time"":700},{""stimulus"":""img/3to2/8.png"",""time"":801},{""stimulus"":""img/3to2/9.png"",""time"":901},{""stimulus"":""img/3to2/10.png"",""time"":1001},{""stimulus"":""img/3to2/11.png"",""time"":1101},{""stimulus"":""img/3to2/12.png"",""time"":1201}]","[]"
"image-keyboard-response","12","40055","0.0-5.0-1.4","60fcf7102d7c9907d95a0920","bdp_cybrbll","Thu Apr 13 2023 09:50:21 GMT-0700 (PDT)","444093","1","3","","647","","","","choice","","img/2to1/1.png","1","221","1262","0.5","0.5","2","1","",""
"animation","13","41359","0.0-5.0-2.4","60fcf7102d7c9907d95a0920","bdp_cybrbll","Thu Apr 13 2023 09:50:21 GMT-0700 (PDT)","444093","1","3","","","","","","","","","","221","","","","2","1","[{""stimulus"":""img/2to1/1.png"",""time"":100},{""stimulus"":""img/2to1/2.png"",""time"":200},{""stimulus"":""img/2to1/3.png"",""time"":300},{""stimulus"":""img/2to1/4.png"",""time"":400},{""stimulus"":""img/2to1/5.png"",""time"":500},{""stimulus"":""img/2to1/6.png"",""time"":600},{""stimulus"":""img/2to1/7.png"",""time"":700},{""stimulus"":""img/2to1/8.png"",""time"":801},{""stimulus"":""img/2to1/9.png"",""time"":901},{""stimulus"":""img/2to1/10.png"",""time"":1001},{""stimulus"":""img/2to1/11.png"",""time"":1101},{""stimulus"":""img/2to1/12.png"",""time"":1201}]","[]"
"image-keyboard-response","14","41776","0.0-5.0-1.5","60fcf7102d7c9907d95a0920","bdp_cybrbll","Thu Apr 13 2023 09:50:21 GMT-0700 (PDT)","444093","1","3","","null","","","","observe","","img/1to3/1.png","null","220","414","0.5","0.5","1","2","",""
"animation","15","43078","0.0-5.0-2.5","60fcf7102d7c9907d95a0920","bdp_cybrbll","Thu Apr 13 2023 09:50:21 GMT-0700 (PDT)","444093","1","3","","","","","","","","","","220","","","","1","2","[{""stimulus"":""img/1to2/1.png"",""time"":101},{""stimulus"":""img/1to2/2.png"",""time"":200},{""stimulus"":""img/1to2/3.png"",""time"":301},{""stimulus"":""img/1to2/4.png"",""time"":401},{""stimulus"":""img/1to2/5.png"",""time"":501},{""stimulus"":""img/1to2/6.png"",""time"":601},{""stimulus"":""img/1to2/7.png"",""time"":701},{""stimulus"":""img/1to2/8.png"",""time"":801},{""stimulus"":""img/1to2/9.png"",""time"":901},{""stimulus"":""img/1to2/10.png"",""time"":1001},{""stimulus"":""img/1to2/11.png"",""time"":1101},{""stimulus"":""img/1to2/12.png"",""time"":1201}]","[]"
"image-keyboard-response","16","43627","0.0-5.0-1.6","60fcf7102d7c9907d95a0920","bdp_cybrbll","Thu Apr 13 2023 09:50:21 GMT-0700 (PDT)","444093","1","3","","548","","","","choice","","img/2to1/1.png","2","219","689","0.5","0.5","2","3","",""
"animation","17","44928","0.0-5.0-2.6","60fcf7102d7c9907d95a0920","bdp_cybrbll","Thu Apr 13 2023 09:50:21 GMT-0700 (PDT)","444093","1","3","","","","","","","","","","219","","","","2","3","[{""stimulus"":""img/2to3/1.png"",""time"":100},{""stimulus"":""img/2to3/2.png"",""time"":200},{""stimulus"":""img/2to3/3.png"",""time"":300},{""stimulus"":""img/2to3/4.png"",""time"":400},{""stimulus"":""img/2to3/5.png"",""time"":500},{""stimulus"":""img/2to3/6.png"",""time"":600},{""stimulus"":""img/2to3/7.png"",""time"":701},{""stimulus"":""img/2to3/8.png"",""time"":801},{""stimulus"":""img/2to3/9.png"",""time"":901},{""stimulus"":""img/2to3/10.png"",""time"":1001},{""stimulus"":""img/2to3/11.png"",""time"":1100},{""stimulus"":""img/2to3/12.png"",""time"":1200}]","[]"
"image-keyboard-response","18","45192","0.0-5.0-1.7","60fcf7102d7c9907d95a0920","bdp_cybrbll","Thu Apr 13 2023 09:50:21 GMT-0700 (PDT)","444093","1","3","","null","","","","observe","","img/3to2/1.png","null","218","261","0.5","0.5","3","1","",""
"animation","19","46493","0.0-5.0-2.7","60fcf7102d7c9907d95a0920","bdp_cybrbll","Thu Apr 13 2023 09:50:21 GMT-0700 (PDT)","444093","1","3","","","","","","","","","","218","","","","3","1","[{""stimulus"":""img/3to1/1.png"",""time"":101},{""stimulus"":""img/3to1/2.png"",""time"":201},{""stimulus"":""img/3to1/3.png"",""time"":301},{""stimulus"":""img/3to1/4.png"",""time"":401},{""stimulus"":""img/3to1/5.png"",""time"":501},{""stimulus"":""img/3to1/6.png"",""time"":601},{""stimulus"":""img/3to1/7.png"",""time"":701},{""stimulus"":""img/3to1/8.png"",""time"":801},{""stimulus"":""img/3to1/9.png"",""time"":901},{""stimulus"":""img/3to1/10.png"",""time"":1001},{""stimulus"":""img/3to1/11.png"",""time"":1101},{""stimulus"":""img/3to1/12.png"",""time"":1201}]","[]"
"image-keyboard-response","20","46731","0.0-5.0-1.8","60fcf7102d7c9907d95a0920","bdp_cybrbll","Thu Apr 13 2023 09:50:21 GMT-0700 (PDT)","444093","1","3","","null","","","","observe","","img/1to3/1.png","null","217","236","0.5","0.5","1","2","",""
"animation","21","48032","0.0-5.0-2.8","60fcf7102d7c9907d95a0920","bdp_cybrbll","Thu Apr 13 2023 09:50:21 GMT-0700 (PDT)","444093","1","3","","","","","","","","","","217","","","","1","2","[{""stimulus"":""img/1to2/1.png"",""time"":100},{""stimulus"":""img/1to2/2.png"",""time"":200},{""stimulus"":""img/1to2/3.png"",""time"":300},{""stimulus"":""img/1to2/4.png"",""time"":400},{""stimulus"":""img/1to2/5.png"",""time"":500},{""stimulus"":""img/1to2/6.png"",""time"":600},{""stimulus"":""img/1to2/7.png"",""time"":700},{""stimulus"":""img/1to2/8.png"",""time"":800},{""stimulus"":""img/1to2/9.png"",""time"":900},{""stimulus"":""img/1to2/10.png"",""time"":1000},{""stimulus"":""img/1to2/11.png"",""time"":1100},{""stimulus"":""img/1to2/12.png"",""time"":1200}]","[]"
"image-keyboard-response","22","48753","0.0-5.0-1.9","60fcf7102d7c9907d95a0920","bdp_cybrbll","Thu Apr 13 2023 09:50:21 GMT-0700 (PDT)","444093","1","3","","720","","","","choice","","img/2to1/1.png","2","216","231","0.5","0.5","2","3","",""
"animation","23","50054","0.0-5.0-2.9","60fcf7102d7c9907d95a0920","bdp_cybrbll","Thu Apr 13 2023 09:50:21 GMT-0700 (PDT)","444093","1","3","","","","","","","","","","216","","","","2","3","[{""stimulus"":""img/2to3/1.png"",""time"":100},{""stimulus"":""img/2to3/2.png"",""time"":200},{""stimulus"":""img/2to3/3.png"",""time"":300},{""stimulus"":""img/2to3/4.png"",""time"":400},{""stimulus"":""img/2to3/5.png"",""time"":500},{""stimulus"":""img/2to3/6.png"",""time"":600},{""stimulus"":""img/2to3/7.png"",""time"":700},{""stimulus"":""img/2to3/8.png"",""time"":800},{""stimulus"":""img/2to3/9.png"",""time"":900},{""stimulus"":""img/2to3/10.png"",""time"":1000},{""stimulus"":""img/2to3/11.png"",""time"":1100},{""stimulus"":""img/2to3/12.png"",""time"":1200}]","[]"
"image-keyboard-response","24","50978","0.0-5.0-1.10","60fcf7102d7c9907d95a0920","bdp_cybrbll","Thu Apr 13 2023 09:50:21 GMT-0700 (PDT)","444093","1","3","","null","","","","observe","","img/3to2/1.png","null","215","921","0.5","0.5","3","2","",""
"animation","25","52279","0.0-5.0-2.10","60fcf7102d7c9907d95a0920","bdp_cybrbll","Thu Apr 13 2023 09:50:21 GMT-0700 (PDT)","444093","1","3","","","","","","","","","","215","","","","3","2","[{""stimulus"":""img/3to2/1.png"",""time"":101},{""stimulus"":""img/3to2/2.png"",""time"":201},{""stimulus"":""img/3to2/3.png"",""time"":301},{""stimulus"":""img/3to2/4.png"",""time"":401},{""stimulus"":""img/3to2/5.png"",""time"":501},{""stimulus"":""img/3to2/6.png"",""time"":601},{""stimulus"":""img/3to2/7.png"",""time"":701},{""stimulus"":""img/3to2/8.png"",""time"":801},{""stimulus"":""img/3to2/9.png"",""time"":901},{""stimulus"":""img/3to2/10.png"",""time"":1001},{""stimulus"":""img/3to2/11.png"",""time"":1101},{""stimulus"":""img/3to2/12.png"",""time"":1201}]","[]"
"image-keyboard-response","26","52696","0.0-5.0-1.11","60fcf7102d7c9907d95a0920","bdp_cybrbll","Thu Apr 13 2023 09:50:21 GMT-0700 (PDT)","444093","1","3","","416","","","","choice","","img/2to1/1.png","1","214","434","0.5","0.5","2","1","",""
"animation","27","53996","0.0-5.0-2.11","60fcf7102d7c9907d95a0920","bdp_cybrbll","Thu Apr 13 2023 09:50:21 GMT-0700 (PDT)","444093","1","3","","","","","","","","","","214","","","","2","1","[{""stimulus"":""img/2to1/1.png"",""time"":100},{""stimulus"":""img/2to1/2.png"",""time"":200},{""stimulus"":""img/2to1/3.png"",""time"":300},{""stimulus"":""img/2to1/4.png"",""time"":401},{""stimulus"":""img/2to1/5.png"",""time"":501},{""stimulus"":""img/2to1/6.png"",""time"":601},{""stimulus"":""img/2to1/7.png"",""time"":700},{""stimulus"":""img/2to1/8.png"",""time"":800},{""stimulus"":""img/2to1/9.png"",""time"":899},{""stimulus"":""img/2to1/10.png"",""time"":999},{""stimulus"":""img/2to1/11.png"",""time"":1099},{""stimulus"":""img/2to1/12.png"",""time"":1199}]","[]"
"image-keyboard-response","28","54521","0.0-5.0-1.12","60fcf7102d7c9907d95a0920","bdp_cybrbll","Thu Apr 13 2023 09:50:21 GMT-0700 (PDT)","444093","1","3","","null","","","","observe","","img/1to3/1.png","null","213","522","0.5","0.5","1","2","",""
"animation","29","55822","0.0-5.0-2.12","60fcf7102d7c9907d95a0920","bdp_cybrbll","Thu Apr 13 2023 09:50:21 GMT-0700 (PDT)","444093","1","3","","","","","","","","","","213","","","","1","2","[{""stimulus"":""img/1to2/1.png"",""time"":101},{""stimulus"":""img/1to2/2.png"",""time"":201},{""stimulus"":""img/1to2/3.png"",""time"":301},{""stimulus"":""img/1to2/4.png"",""time"":401},{""stimulus"":""img/1to2/5.png"",""time"":501},{""stimulus"":""img/1to2/6.png"",""time"":601},{""stimulus"":""img/1to2/7.png"",""time"":701},{""stimulus"":""img/1to2/8.png"",""time"":801},{""stimulus"":""img/1to2/9.png"",""time"":901},{""stimulus"":""img/1to2/10.png"",""time"":1001},{""stimulus"":""img/1to2/11.png"",""time"":1101},{""stimulus"":""img/1to2/12.png"",""time"":1202}]","[]"
"image-keyboard-response","30","56171","0.0-5.0-1.13","60fcf7102d7c9907d95a0920","bdp_cybrbll","Thu Apr 13 2023 09:50:21 GMT-0700 (PDT)","444093","1","3","","347","","","","choice","","img/2to1/1.png","2","212","490","0.5","0.5","2","3","",""
"animation","31","57472","0.0-5.0-2.13","60fcf7102d7c9907d95a0920","bdp_cybrbll","Thu Apr 13 2023 09:50:21 GMT-0700 (PDT)","444093","1","3","","","","","","","","","","212","","","","2","3","[{""stimulus"":""img/2to3/1.png"",""time"":101},{""stimulus"":""img/2to3/2.png"",""time"":201},{""stimulus"":""img/2to3/3.png"",""time"":301},{""stimulus"":""img/2to3/4.png"",""time"":401},{""stimulus"":""img/2to3/5.png"",""time"":501},{""stimulus"":""img/2to3/6.png"",""time"":601},{""stimulus"":""img/2to3/7.png"",""time"":701},{""stimulus"":""img/2to3/8.png"",""time"":801},{""stimulus"":""img/2to3/9.png"",""time"":901},{""stimulus"":""img/2to3/10.png"",""time"":1001},{""stimulus"":""img/2to3/11.png"",""time"":1101},{""stimulus"":""img/2to3/12.png"",""time"":1201}]","[]"
"image-keyboard-response","32","57787","0.0-5.0-1.14","60fcf7102d7c9907d95a0920","bdp_cybrbll","Thu Apr 13 2023 09:50:21 GMT-0700 (PDT)","444093","1","3","","null","","","","observe","","img/3to2/1.png","null","211","312","0.5","0.5","3","2","",""
"animation","33","59088","0.0-5.0-2.14","60fcf7102d7c9907d95a0920","bdp_cybrbll","Thu Apr 13 2023 09:50:21 GMT-0700 (PDT)","444093","1","3","","","","","","","","","","211","","","","3","2","[{""stimulus"":""img/3to2/1.png"",""time"":101},{""stimulus"":""img/3to2/2.png"",""time"":201},{""stimulus"":""img/3to2/3.png"",""time"":301},{""stimulus"":""img/3to2/4.png"",""time"":401},{""stimulus"":""img/3to2/5.png"",""time"":501},{""stimulus"":""img/3to2/6.png"",""time"":601},{""stimulus"":""img/3to2/7.png"",""time"":701},{""stimulus"":""img/3to2/8.png"",""time"":801},{""stimulus"":""img/3to2/9.png"",""time"":901},{""stimulus"":""img/3to2/10.png"",""time"":1001},{""stimulus"":""img/3to2/11.png"",""time"":1101},{""stimulus"":""img/3to2/12.png"",""time"":1201}]","[]"
"image-keyboard-response","34","59412","0.0-5.0-1.15","60fcf7102d7c9907d95a0920","bdp_cybrbll","Thu Apr 13 2023 09:50:21 GMT-0700 (PDT)","444093","1","3","","322","","","","choice","","img/2to1/1.png","1","210","529","0.5","0.5","2","1","",""
"animation","35","60712","0.0-5.0-2.15","60fcf7102d7c9907d95a0920","bdp_cybrbll","Thu Apr 13 2023 09:50:21 GMT-0700 (PDT)","444093","1","3","","","","","","","","","","210","","","","2","1","[{""stimulus"":""img/2to1/1.png"",""time"":100},{""stimulus"":""img/2to1/2.png"",""time"":200},{""stimulus"":""img/2to1/3.png"",""time"":300},{""stimulus"":""img/2to1/4.png"",""time"":400},{""stimulus"":""img/2to1/5.png"",""time"":500},{""stimulus"":""img/2to1/6.png"",""time"":600},{""stimulus"":""img/2to1/7.png"",""time"":700},{""stimulus"":""img/2to1/8.png"",""time"":800},{""stimulus"":""img/2to1/9.png"",""time"":900},{""stimulus"":""img/2to1/10.png"",""time"":1000},{""stimulus"":""img/2to1/11.png"",""time"":1100},{""stimulus"":""img/2to1/12.png"",""time"":1199}]","[]"
"image-keyboard-response","36","61445","0.0-5.0-1.16","60fcf7102d7c9907d95a0920","bdp_cybrbll","Thu Apr 13 2023 09:50:21 GMT-0700 (PDT)","444093","1","3","","null","","","","observe","","img/1to3/1.png","null","209","730","0.5","0.5","1","3","",""
"animation","37","62747","0.0-5.0-2.16","60fcf7102d7c9907d95a0920","bdp_cybrbll","Thu Apr 13 2023 09:50:21 GMT-0700 (PDT)","444093","1","3","","","","","","","","","","209","","","","1","3","[{""stimulus"":""img/1to3/1.png"",""time"":101},{""stimulus"":""img/1to3/2.png"",""time"":201},{""stimulus"":""img/1to3/3.png"",""time"":301},{""stimulus"":""img/1to3/4.png"",""time"":401},{""stimulus"":""img/1to3/5.png"",""time"":501},{""stimulus"":""img/1to3/6.png"",""time"":601},{""stimulus"":""img/1to3/7.png"",""time"":701},{""stimulus"":""img/1to3/8.png"",""time"":801},{""stimulus"":""img/1to3/9.png"",""time"":901},{""stimulus"":""img/1to3/10.png"",""time"":1002},{""stimulus"":""img/1to3/11.png"",""time"":1102},{""stimulus"":""img/1to3/12.png"",""time"":1202}]","[]"
"image-keyboard-response","38","63140","0.0-5.0-1.17","60fcf7102d7c9907d95a0920","bdp_cybrbll","Thu Apr 13 2023 09:50:21 GMT-0700 (PDT)","444093","1","3","","null","","","","observe","","img/3to2/1.png","null","208","392","0.5","0.5","3","2","",""
"animation","39","64440","0.0-5.0-2.17","60fcf7102d7c9907d95a0920","bdp_cybrbll","Thu Apr 13 2023 09:50:21 GMT-0700 (PDT)","444093","1","3","","","","","","","","","","208","","","","3","2","[{""stimulus"":""img/3to2/1.png"",""time"":100},{""stimulus"":""img/3to2/2.png"",""time"":200},{""stimulus"":""img/3to2/3.png"",""time"":300},{""stimulus"":""img/3to2/4.png"",""time"":400},{""stimulus"":""img/3to2/5.png"",""time"":500},{""stimulus"":""img/3to2/6.png"",""time"":600},{""stimulus"":""img/3to2/7.png"",""time"":700},{""stimulus"":""img/3to2/8.png"",""time"":800},{""stimulus"":""img/3to2/9.png"",""time"":900},{""stimulus"":""img/3to2/10.png"",""time"":1000},{""stimulus"":""img/3to2/11.png"",""time"":1100},{""stimulus"":""img/3to2/12.png"",""time"":1200}]","[]"
"image-keyboard-response","40","64514","0.0-5.0-1.18","60fcf7102d7c9907d95a0920","bdp_cybrbll","Thu Apr 13 2023 09:50:21 GMT-0700 (PDT)","444093","1","3","","72","","","","choice","","img/2to1/1.png","1","207","321","0.5","0.5","2","1","",""
"animation","41","65815","0.0-5.0-2.18","60fcf7102d7c9907d95a0920","bdp_cybrbll","Thu Apr 13 2023 09:50:21 GMT-0700 (PDT)","444093","1","3","","","","","","","","","","207","","","","2","1","[{""stimulus"":""img/2to1/1.png"",""time"":100},{""stimulus"":""img/2to1/2.png"",""time"":200},{""stimulus"":""img/2to1/3.png"",""time"":300},{""stimulus"":""img/2to1/4.png"",""time"":400},{""stimulus"":""img/2to1/5.png"",""time"":500},{""stimulus"":""img/2to1/6.png"",""time"":600},{""stimulus"":""img/2to1/7.png"",""time"":700},{""stimulus"":""img/2to1/8.png"",""time"":800},{""stimulus"":""img/2to1/9.png"",""time"":900},{""stimulus"":""img/2to1/10.png"",""time"":1000},{""stimulus"":""img/2to1/11.png"",""time"":1100},{""stimulus"":""img/2to1/12.png"",""time"":1200}]","[]"
"image-keyboard-response","42","66427","0.0-5.0-1.19","60fcf7102d7c9907d95a0920","bdp_cybrbll","Thu Apr 13 2023 09:50:21 GMT-0700 (PDT)","444093","1","3","","null","","","","observe","","img/1to3/1.png","null","206","610","0.5","0.5","1","2","",""
"animation","43","67731","0.0-5.0-2.19","60fcf7102d7c9907d95a0920","bdp_cybrbll","Thu Apr 13 2023 09:50:21 GMT-0700 (PDT)","444093","1","3","","","","","","","","","","206","","","","1","2","[{""stimulus"":""img/1to2/1.png"",""time"":101},{""stimulus"":""img/1to2/2.png"",""time"":201},{""stimulus"":""img/1to2/3.png"",""time"":301},{""stimulus"":""img/1to2/4.png"",""time"":401},{""stimulus"":""img/1to2/5.png"",""time"":501},{""stimulus"":""img/1to2/6.png"",""time"":601},{""stimulus"":""img/1to2/7.png"",""time"":701},{""stimulus"":""img/1to2/8.png"",""time"":801},{""stimulus"":""img/1to2/9.png"",""time"":901},{""stimulus"":""img/1to2/10.png"",""time"":1001},{""stimulus"":""img/1to2/11.png"",""time"":1101},{""stimulus"":""img/1to2/12.png"",""time"":1201}]","[]"
"image-keyboard-response","44","67820","0.0-5.0-1.20","60fcf7102d7c9907d95a0920","bdp_cybrbll","Thu Apr 13 2023 09:50:21 GMT-0700 (PDT)","444093","1","3","","87","","","","choice","","img/2to1/1.png","2","205","319","0.5","0.5","2","3","",""
"animation","45","69122","0.0-5.0-2.20","60fcf7102d7c9907d95a0920","bdp_cybrbll","Thu Apr 13 2023 09:50:21 GMT-0700 (PDT)","444093","1","3","","","","","","","","","","205","","","","2","3","[{""stimulus"":""img/2to3/1.png"",""time"":100},{""stimulus"":""img/2to3/2.png"",""time"":200},{""stimulus"":""img/2to3/3.png"",""time"":300},{""stimulus"":""img/2to3/4.png"",""time"":400},{""stimulus"":""img/2to3/5.png"",""time"":500},{""stimulus"":""img/2to3/6.png"",""time"":600},{""stimulus"":""img/2to3/7.png"",""time"":700},{""stimulus"":""img/2to3/8.png"",""time"":801},{""stimulus"":""img/2to3/9.png"",""time"":900},{""stimulus"":""img/2to3/10.png"",""time"":1001},{""stimulus"":""img/2to3/11.png"",""time"":1101},{""stimulus"":""img/2to3/12.png"",""time"":1201}]","[]"
"image-keyboard-response","46","69367","0.0-5.0-1.21","60fcf7102d7c9907d95a0920","bdp_cybrbll","Thu Apr 13 2023 09:50:21 GMT-0700 (PDT)","444093","1","3","","null","","","","observe","","img/3to2/1.png","null","204","243","0.5","0.5","3","2","",""
"animation","47","70667","0.0-5.0-2.21","60fcf7102d7c9907d95a0920","bdp_cybrbll","Thu Apr 13 2023 09:50:21 GMT-0700 (PDT)","444093","1","3","","","","","","","","","","204","","","","3","2","[{""stimulus"":""img/3to2/1.png"",""time"":101},{""stimulus"":""img/3to2/2.png"",""time"":200},{""stimulus"":""img/3to2/3.png"",""time"":300},{""stimulus"":""img/3to2/4.png"",""time"":400},{""stimulus"":""img/3to2/5.png"",""time"":500},{""stimulus"":""img/3to2/6.png"",""time"":600},{""stimulus"":""img/3to2/7.png"",""time"":700},{""stimulus"":""img/3to2/8.png"",""time"":799},{""stimulus"":""img/3to2/9.png"",""time"":899},{""stimulus"":""img/3to2/10.png"",""time"":999},{""stimulus"":""img/3to2/11.png"",""time"":1099},{""stimulus"":""img/3to2/12.png"",""time"":1199}]","[]"
"image-keyboard-response","48","71241","0.0-5.0-1.22","60fcf7102d7c9907d95a0920","bdp_cybrbll","Thu Apr 13 2023 09:50:21 GMT-0700 (PDT)","444093","1","3","","572","","","","choice","","img/2to1/1.png","1","203","285","0.5","0.5","2","1","",""
"animation","49","72543","0.0-5.0-2.22","60fcf7102d7c9907d95a0920","bdp_cybrbll","Thu Apr 13 2023 09:50:21 GMT-0700 (PDT)","444093","1","3","","","","","","","","","","203","","","","2","1","[{""stimulus"":""img/2to1/1.png"",""time"":100},{""stimulus"":""img/2to1/2.png"",""time"":200},{""stimulus"":""img/2to1/3.png"",""time"":300},{""stimulus"":""img/2to1/4.png"",""time"":401},{""stimulus"":""img/2to1/5.png"",""time"":501},{""stimulus"":""img/2to1/6.png"",""time"":601},{""stimulus"":""img/2to1/7.png"",""time"":701},{""stimulus"":""img/2to1/8.png"",""time"":801},{""stimulus"":""img/2to1/9.png"",""time"":901},{""stimulus"":""img/2to1/10.png"",""time"":1001},{""stimulus"":""img/2to1/11.png"",""time"":1101},{""stimulus"":""img/2to1/12.png"",""time"":1201}]","[]"
"image-keyboard-response","50","72792","0.0-5.0-1.23","60fcf7102d7c9907d95a0920","bdp_cybrbll","Thu Apr 13 2023 09:50:21 GMT-0700 (PDT)","444093","1","3","","null","","","","observe","","img/1to3/1.png","null","202","246","0.5","0.5","1","2","",""
"animation","51","74093","0.0-5.0-2.23","60fcf7102d7c9907d95a0920","bdp_cybrbll","Thu Apr 13 2023 09:50:21 GMT-0700 (PDT)","444093","1","3","","","","","","","","","","202","","","","1","2","[{""stimulus"":""img/1to2/1.png"",""time"":101},{""stimulus"":""img/1to2/2.png"",""time"":201},{""stimulus"":""img/1to2/3.png"",""time"":300},{""stimulus"":""img/1to2/4.png"",""time"":400},{""stimulus"":""img/1to2/5.png"",""time"":500},{""stimulus"":""img/1to2/6.png"",""time"":600},{""stimulus"":""img/1to2/7.png"",""time"":701},{""stimulus"":""img/1to2/8.png"",""time"":801},{""stimulus"":""img/1to2/9.png"",""time"":901},{""stimulus"":""img/1to2/10.png"",""time"":1001},{""stimulus"":""img/1to2/11.png"",""time"":1101},{""stimulus"":""img/1to2/12.png"",""time"":1201}]","[]"
"image-keyboard-response","52","74711","0.0-5.0-1.24","60fcf7102d7c9907d95a0920","bdp_cybrbll","Thu Apr 13 2023 09:50:21 GMT-0700 (PDT)","444093","1","3","","617","","","","choice","","img/2to1/1.png","2","201","501","0.5","0.5","2","3","",""
"animation","53","76012","0.0-5.0-2.24","60fcf7102d7c9907d95a0920","bdp_cybrbll","Thu Apr 13 2023 09:50:21 GMT-0700 (PDT)","444093","1","3","","","","","","","","","","201","","","","2","3","[{""stimulus"":""img/2to3/1.png"",""time"":100},{""stimulus"":""img/2to3/2.png"",""time"":200},{""stimulus"":""img/2to3/3.png"",""time"":300},{""stimulus"":""img/2to3/4.png"",""time"":400},{""stimulus"":""img/2to3/5.png"",""time"":500},{""stimulus"":""img/2to3/6.png"",""time"":600},{""stimulus"":""img/2to3/7.png"",""time"":700},{""stimulus"":""img/2to3/8.png"",""time"":800},{""stimulus"":""img/2to3/9.png"",""time"":899},{""stimulus"":""img/2to3/10.png"",""time"":999},{""stimulus"":""img/2to3/11.png"",""time"":1100},{""stimulus"":""img/2to3/12.png"",""time"":1200}]","[]"
"image-keyboard-response","54","76282","0.0-5.0-1.25","60fcf7102d7c9907d95a0920","bdp_cybrbll","Thu Apr 13 2023 09:50:21 GMT-0700 (PDT)","444093","1","3","","null","","","","observe","","img/3to2/1.png","null","200","268","0.5","0.5","3","1","",""
"animation","55","77584","0.0-5.0-2.25","60fcf7102d7c9907d95a0920","bdp_cybrbll","Thu Apr 13 2023 09:50:21 GMT-0700 (PDT)","444093","1","3","","","","","","","","","","200","","","","3","1","[{""stimulus"":""img/3to1/1.png"",""time"":101},{""stimulus"":""img/3to1/2.png"",""time"":200},{""stimulus"":""img/3to1/3.png"",""time"":300},{""stimulus"":""img/3to1/4.png"",""time"":401},{""stimulus"":""img/3to1/5.png"",""time"":501},{""stimulus"":""img/3to1/6.png"",""time"":601},{""stimulus"":""img/3to1/7.png"",""time"":701},{""stimulus"":""img/3to1/8.png"",""time"":801},{""stimulus"":""img/3to1/9.png"",""time"":901},{""stimulus"":""img/3to1/10.png"",""time"":1001},{""stimulus"":""img/3to1/11.png"",""time"":1101},{""stimulus"":""img/3to1/12.png"",""time"":1201}]","[]"
"image-keyboard-response","56","78189","0.0-5.0-1.26","60fcf7102d7c9907d95a0920","bdp_cybrbll","Thu Apr 13 2023 09:50:21 GMT-0700 (PDT)","444093","1","3","","null","","","","observe","","img/1to3/1.png","null","199","603","0.5","0.5","1","3","",""
"animation","57","79491","0.0-5.0-2.26","60fcf7102d7c9907d95a0920","bdp_cybrbll","Thu Apr 13 2023 09:50:21 GMT-0700 (PDT)","444093","1","3","","","","","","","","","","199","","","","1","3","[{""stimulus"":""img/1to3/1.png"",""time"":101},{""stimulus"":""img/1to3/2.png"",""time"":201},{""stimulus"":""img/1to3/3.png"",""time"":301},{""stimulus"":""img/1to3/4.png"",""time"":401},{""stimulus"":""img/1to3/5.png"",""time"":501},{""stimulus"":""img/1to3/6.png"",""time"":601},{""stimulus"":""img/1to3/7.png"",""time"":701},{""stimulus"":""img/1to3/8.png"",""time"":801},{""stimulus"":""img/1to3/9.png"",""time"":901},{""stimulus"":""img/1to3/10.png"",""time"":1001},{""stimulus"":""img/1to3/11.png"",""time"":1101},{""stimulus"":""img/1to3/12.png"",""time"":1201}]","[]"
"image-keyboard-response","58","79786","0.0-5.0-1.27","60fcf7102d7c9907d95a0920","bdp_cybrbll","Thu Apr 13 2023 09:50:21 GMT-0700 (PDT)","444093","1","3","","null","","","","observe","","img/3to2/1.png","null","198","292","0.5","0.5","3","2","",""
"animation","59","81087","0.0-5.0-2.27","60fcf7102d7c9907d95a0920","bdp_cybrbll","Thu Apr 13 2023 09:50:21 GMT-0700 (PDT)","444093","1","3","","","","","","","","","","198","","","","3","2","[{""stimulus"":""img/3to2/1.png"",""time"":101},{""stimulus"":""img/3to2/2.png"",""time"":201},{""stimulus"":""img/3to2/3.png"",""time"":301},{""stimulus"":""img/3to2/4.png"",""time"":401},{""stimulus"":""img/3to2/5.png"",""time"":501},{""stimulus"":""img/3to2/6.png"",""time"":601},{""stimulus"":""img/3to2/7.png"",""time"":701},{""stimulus"":""img/3to2/8.png"",""time"":801},{""stimulus"":""img/3to2/9.png"",""time"":901},{""stimulus"":""img/3to2/10.png"",""time"":1001},{""stimulus"":""img/3to2/11.png"",""time"":1101},{""stimulus"":""img/3to2/12.png"",""time"":1201}]","[]"
"image-keyboard-response","60","81195","0.0-5.0-1.28","60fcf7102d7c9907d95a0920","bdp_cybrbll","Thu Apr 13 2023 09:50:21 GMT-0700 (PDT)","444093","1","3","","106","","","","choice","","img/2to1/1.png","1","197","555","0.5","0.5","2","1","",""
"animation","61","82498","0.0-5.0-2.28","60fcf7102d7c9907d95a0920","bdp_cybrbll","Thu Apr 13 2023 09:50:21 GMT-0700 (PDT)","444093","1","3","","","","","","","","","","197","","","","2","1","[{""stimulus"":""img/2to1/1.png"",""time"":101},{""stimulus"":""img/2to1/2.png"",""time"":201},{""stimulus"":""img/2to1/3.png"",""time"":300},{""stimulus"":""img/2to1/4.png"",""time"":400},{""stimulus"":""img/2to1/5.png"",""time"":500},{""stimulus"":""img/2to1/6.png"",""time"":600},{""stimulus"":""img/2to1/7.png"",""time"":700},{""stimulus"":""img/2to1/8.png"",""time"":800},{""stimulus"":""img/2to1/9.png"",""time"":900},{""stimulus"":""img/2to1/10.png"",""time"":1000},{""stimulus"":""img/2to1/11.png"",""time"":1100},{""stimulus"":""img/2to1/12.png"",""time"":1200}]","[]"
"image-keyboard-response","62","82792","0.0-5.0-1.29","60fcf7102d7c9907d95a0920","bdp_cybrbll","Thu Apr 13 2023 09:50:21 GMT-0700 (PDT)","444093","1","3","","null","","","","observe","","img/1to3/1.png","null","196","290","0.5","0.5","1","3","",""
"animation","63","84092","0.0-5.0-2.29","60fcf7102d7c9907d95a0920","bdp_cybrbll","Thu Apr 13 2023 09:50:21 GMT-0700 (PDT)","444093","1","3","","","","","","","","","","196","","","","1","3","[{""stimulus"":""img/1to3/1.png"",""time"":101},{""stimulus"":""img/1to3/2.png"",""time"":201},{""stimulus"":""img/1to3/3.png"",""time"":301},{""stimulus"":""img/1to3/4.png"",""time"":400},{""stimulus"":""img/1to3/5.png"",""time"":500},{""stimulus"":""img/1to3/6.png"",""time"":600},{""stimulus"":""img/1to3/7.png"",""time"":700},{""stimulus"":""img/1to3/8.png"",""time"":800},{""stimulus"":""img/1to3/9.png"",""time"":900},{""stimulus"":""img/1to3/10.png"",""time"":1000},{""stimulus"":""img/1to3/11.png"",""time"":1100},{""stimulus"":""img/1to3/12.png"",""time"":1201}]","[]"
"image-keyboard-response","64","85111","0.0-5.0-1.30","60fcf7102d7c9907d95a0920","bdp_cybrbll","Thu Apr 13 2023 09:50:21 GMT-0700 (PDT)","444093","1","3","","null","","","","observe","","img/3to2/1.png","null","195","1016","0.5","0.5","3","2","",""
"animation","65","86412","0.0-5.0-2.30","60fcf7102d7c9907d95a0920","bdp_cybrbll","Thu Apr 13 2023 09:50:21 GMT-0700 (PDT)","444093","1","3","","","","","","","","","","195","","","","3","2","[{""stimulus"":""img/3to2/1.png"",""time"":101},{""stimulus"":""img/3to2/2.png"",""time"":201},{""stimulus"":""img/3to2/3.png"",""time"":301},{""stimulus"":""img/3to2/4.png"",""time"":401},{""stimulus"":""img/3to2/5.png"",""time"":501},{""stimulus"":""img/3to2/6.png"",""time"":601},{""stimulus"":""img/3to2/7.png"",""time"":701},{""stimulus"":""img/3to2/8.png"",""time"":801},{""stimulus"":""img/3to2/9.png"",""time"":901},{""stimulus"":""img/3to2/10.png"",""time"":1001},{""stimulus"":""img/3to2/11.png"",""time"":1101},{""stimulus"":""img/3to2/12.png"",""time"":1201}]","[]"
"image-keyboard-response","66","86525","0.0-5.0-1.31","60fcf7102d7c9907d95a0920","bdp_cybrbll","Thu Apr 13 2023 09:50:21 GMT-0700 (PDT)","444093","1","3","","111","","","","choice","","img/2to1/1.png","1","194","222","0.5","0.5","2","1","",""
"animation","67","87827","0.0-5.0-2.31","60fcf7102d7c9907d95a0920","bdp_cybrbll","Thu Apr 13 2023 09:50:21 GMT-0700 (PDT)","444093","1","3","","","","","","","","","","194","","","","2","1","[{""stimulus"":""img/2to1/1.png"",""time"":100},{""stimulus"":""img/2to1/2.png"",""time"":200},{""stimulus"":""img/2to1/3.png"",""time"":300},{""stimulus"":""img/2to1/4.png"",""time"":400},{""stimulus"":""img/2to1/5.png"",""time"":501},{""stimulus"":""img/2to1/6.png"",""time"":601},{""stimulus"":""img/2to1/7.png"",""time"":701},{""stimulus"":""img/2to1/8.png"",""time"":801},{""stimulus"":""img/2to1/9.png"",""time"":901},{""stimulus"":""img/2to1/10.png"",""time"":1001},{""stimulus"":""img/2to1/11.png"",""time"":1101},{""stimulus"":""img/2to1/12.png"",""time"":1201}]","[]"
"image-keyboard-response","68","88054","0.0-5.0-1.32","60fcf7102d7c9907d95a0920","bdp_cybrbll","Thu Apr 13 2023 09:50:21 GMT-0700 (PDT)","444093","1","3","","null","","","","observe","","img/1to3/1.png","null","193","225","0.5","0.5","1","2","",""
"animation","69","89356","0.0-5.0-2.32","60fcf7102d7c9907d95a0920","bdp_cybrbll","Thu Apr 13 2023 09:50:21 GMT-0700 (PDT)","444093","1","3","","","","","","","","","","193","","","","1","2","[{""stimulus"":""img/1to2/1.png"",""time"":101},{""stimulus"":""img/1to2/2.png"",""time"":200},{""stimulus"":""img/1to2/3.png"",""time"":301},{""stimulus"":""img/1to2/4.png"",""time"":401},{""stimulus"":""img/1to2/5.png"",""time"":501},{""stimulus"":""img/1to2/6.png"",""time"":601},{""stimulus"":""img/1to2/7.png"",""time"":701},{""stimulus"":""img/1to2/8.png"",""time"":801},{""stimulus"":""img/1to2/9.png"",""time"":901},{""stimulus"":""img/1to2/10.png"",""time"":1001},{""stimulus"":""img/1to2/11.png"",""time"":1101},{""stimulus"":""img/1to2/12.png"",""time"":1201}]","[]"
"image-keyboard-response","70","89630","0.0-5.0-1.33","60fcf7102d7c9907d95a0920","bdp_cybrbll","Thu Apr 13 2023 09:50:21 GMT-0700 (PDT)","444093","1","3","","272","","","","choice","","img/2to1/1.png","2","192","312","0.5","0.5","2","3","",""
"animation","71","90932","0.0-5.0-2.33","60fcf7102d7c9907d95a0920","bdp_cybrbll","Thu Apr 13 2023 09:50:21 GMT-0700 (PDT)","444093","1","3","","","","","","","","","","192","","","","2","3","[{""stimulus"":""img/2to3/1.png"",""time"":101},{""stimulus"":""img/2to3/2.png"",""time"":201},{""stimulus"":""img/2to3/3.png"",""time"":301},{""stimulus"":""img/2to3/4.png"",""time"":401},{""stimulus"":""img/2to3/5.png"",""time"":501},{""stimulus"":""img/2to3/6.png"",""time"":601},{""stimulus"":""img/2to3/7.png"",""time"":701},{""stimulus"":""img/2to3/8.png"",""time"":801},{""stimulus"":""img/2to3/9.png"",""time"":901},{""stimulus"":""img/2to3/10.png"",""time"":1001},{""stimulus"":""img/2to3/11.png"",""time"":1101},{""stimulus"":""img/2to3/12.png"",""time"":1201}]","[]"
"image-keyboard-response","72","91322","0.0-5.0-1.34","60fcf7102d7c9907d95a0920","bdp_cybrbll","Thu Apr 13 2023 09:50:21 GMT-0700 (PDT)","444093","1","3","","null","","","","observe","","img/3to2/1.png","null","191","388","0.5","0.5","3","1","",""
"animation","73","92623","0.0-5.0-2.34","60fcf7102d7c9907d95a0920","bdp_cybrbll","Thu Apr 13 2023 09:50:21 GMT-0700 (PDT)","444093","1","3","","","","","","","","","","191","","","","3","1","[{""stimulus"":""img/3to1/1.png"",""time"":100},{""stimulus"":""img/3to1/2.png"",""time"":200},{""stimulus"":""img/3to1/3.png"",""time"":300},{""stimulus"":""img/3to1/4.png"",""time"":400},{""stimulus"":""img/3to1/5.png"",""time"":500},{""stimulus"":""img/3to1/6.png"",""time"":600},{""stimulus"":""img/3to1/7.png"",""time"":700},{""stimulus"":""img/3to1/8.png"",""time"":800},{""stimulus"":""img/3to1/9.png"",""time"":900},{""stimulus"":""img/3to1/10.png"",""time"":1000},{""stimulus"":""img/3to1/11.png"",""time"":1100},{""stimulus"":""img/3to1/12.png"",""time"":1200}]","[]"
"image-keyboard-response","74","93097","0.0-5.0-1.35","60fcf7102d7c9907d95a0920","bdp_cybrbll","Thu Apr 13 2023 09:50:21 GMT-0700 (PDT)","444093","1","3","","null","","","","observe","","img/1to3/1.png","null","190","471","0.5","0.5","1","3","",""
"animation","75","94398","0.0-5.0-2.35","60fcf7102d7c9907d95a0920","bdp_cybrbll","Thu Apr 13 2023 09:50:21 GMT-0700 (PDT)","444093","1","3","","","","","","","","","","190","","","","1","3","[{""stimulus"":""img/1to3/1.png"",""time"":100},{""stimulus"":""img/1to3/2.png"",""time"":200},{""stimulus"":""img/1to3/3.png"",""time"":300},{""stimulus"":""img/1to3/4.png"",""time"":401},{""stimulus"":""img/1to3/5.png"",""time"":500},{""stimulus"":""img/1to3/6.png"",""time"":600},{""stimulus"":""img/1to3/7.png"",""time"":700},{""stimulus"":""img/1to3/8.png"",""time"":800},{""stimulus"":""img/1to3/9.png"",""time"":900},{""stimulus"":""img/1to3/10.png"",""time"":1000},{""stimulus"":""img/1to3/11.png"",""time"":1100},{""stimulus"":""img/1to3/12.png"",""time"":1200}]","[]"
"image-keyboard-response","76","94720","0.0-5.0-1.36","60fcf7102d7c9907d95a0920","bdp_cybrbll","Thu Apr 13 2023 09:50:21 GMT-0700 (PDT)","444093","1","3","","null","","","","observe","","img/3to2/1.png","null","189","319","0.5","0.5","3","2","",""
"animation","77","96021","0.0-5.0-2.36","60fcf7102d7c9907d95a0920","bdp_cybrbll","Thu Apr 13 2023 09:50:21 GMT-0700 (PDT)","444093","1","3","","","","","","","","","","189","","","","3","2","[{""stimulus"":""img/3to2/1.png"",""time"":101},{""stimulus"":""img/3to2/2.png"",""time"":201},{""stimulus"":""img/3to2/3.png"",""time"":301},{""stimulus"":""img/3to2/4.png"",""time"":401},{""stimulus"":""img/3to2/5.png"",""time"":501},{""stimulus"":""img/3to2/6.png"",""time"":601},{""stimulus"":""img/3to2/7.png"",""time"":701},{""stimulus"":""img/3to2/8.png"",""time"":801},{""stimulus"":""img/3to2/9.png"",""time"":901},{""stimulus"":""img/3to2/10.png"",""time"":1001},{""stimulus"":""img/3to2/11.png"",""time"":1101},{""stimulus"":""img/3to2/12.png"",""time"":1201}]","[]"
"image-keyboard-response","78","98479","0.0-5.0-1.37","60fcf7102d7c9907d95a0920","bdp_cybrbll","Thu Apr 13 2023 09:50:21 GMT-0700 (PDT)","444093","1","3","","2457","","","","choice","","img/2to1/1.png","2","188","167","0.5","0.5","2","3","",""
"animation","79","99782","0.0-5.0-2.37","60fcf7102d7c9907d95a0920","bdp_cybrbll","Thu Apr 13 2023 09:50:21 GMT-0700 (PDT)","444093","1","3","","","","","","","","","","188","","","","2","3","[{""stimulus"":""img/2to3/1.png"",""time"":101},{""stimulus"":""img/2to3/2.png"",""time"":200},{""stimulus"":""img/2to3/3.png"",""time"":300},{""stimulus"":""img/2to3/4.png"",""time"":400},{""stimulus"":""img/2to3/5.png"",""time"":500},{""stimulus"":""img/2to3/6.png"",""time"":600},{""stimulus"":""img/2to3/7.png"",""time"":700},{""stimulus"":""img/2to3/8.png"",""time"":800},{""stimulus"":""img/2to3/9.png"",""time"":900},{""stimulus"":""img/2to3/10.png"",""time"":1000},{""stimulus"":""img/2to3/11.png"",""time"":1100},{""stimulus"":""img/2to3/12.png"",""time"":1200}]","[]"
"image-keyboard-response","80","100194","0.0-5.0-1.38","60fcf7102d7c9907d95a0920","bdp_cybrbll","Thu Apr 13 2023 09:50:21 GMT-0700 (PDT)","444093","1","3","","null","","","","observe","","img/3to2/1.png","null","187","410","0.5","0.5","3","2","",""
"animation","81","101496","0.0-5.0-2.38","60fcf7102d7c9907d95a0920","bdp_cybrbll","Thu Apr 13 2023 09:50:21 GMT-0700 (PDT)","444093","1","3","","","","","","","","","","187","","","","3","2","[{""stimulus"":""img/3to2/1.png"",""time"":101},{""stimulus"":""img/3to2/2.png"",""time"":201},{""stimulus"":""img/3to2/3.png"",""time"":301},{""stimulus"":""img/3to2/4.png"",""time"":401},{""stimulus"":""img/3to2/5.png"",""time"":501},{""stimulus"":""img/3to2/6.png"",""time"":601},{""stimulus"":""img/3to2/7.png"",""time"":701},{""stimulus"":""img/3to2/8.png"",""time"":801},{""stimulus"":""img/3to2/9.png"",""time"":901},{""stimulus"":""img/3to2/10.png"",""time"":1001},{""stimulus"":""img/3to2/11.png"",""time"":1101},{""stimulus"":""img/3to2/12.png"",""time"":1201}]","[]"
"image-keyboard-response","82","101612","0.0-5.0-1.39","60fcf7102d7c9907d95a0920","bdp_cybrbll","Thu Apr 13 2023 09:50:21 GMT-0700 (PDT)","444093","1","3","","115","","","","choice","","img/2to1/1.png","1","186","708","0.5","0.5","2","1","",""
"animation","83","102913","0.0-5.0-2.39","60fcf7102d7c9907d95a0920","bdp_cybrbll","Thu Apr 13 2023 09:50:21 GMT-0700 (PDT)","444093","1","3","","","","","","","","","","186","","","","2","1","[{""stimulus"":""img/2to1/1.png"",""time"":101},{""stimulus"":""img/2to1/2.png"",""time"":201},{""stimulus"":""img/2to1/3.png"",""time"":301},{""stimulus"":""img/2to1/4.png"",""time"":401},{""stimulus"":""img/2to1/5.png"",""time"":501},{""stimulus"":""img/2to1/6.png"",""time"":601},{""stimulus"":""img/2to1/7.png"",""time"":701},{""stimulus"":""img/2to1/8.png"",""time"":801},{""stimulus"":""img/2to1/9.png"",""time"":901},{""stimulus"":""img/2to1/10.png"",""time"":1001},{""stimulus"":""img/2to1/11.png"",""time"":1101},{""stimulus"":""img/2to1/12.png"",""time"":1202}]","[]"
"image-keyboard-response","84","103084","0.0-5.0-1.40","60fcf7102d7c9907d95a0920","bdp_cybrbll","Thu Apr 13 2023 09:50:21 GMT-0700 (PDT)","444093","1","3","","null","","","","observe","","img/1to3/1.png","null","185","168","0.5","0.5","1","2","",""
"animation","85","104386","0.0-5.0-2.40","60fcf7102d7c9907d95a0920","bdp_cybrbll","Thu Apr 13 2023 09:50:21 GMT-0700 (PDT)","444093","1","3","","","","","","","","","","185","","","","1","2","[{""stimulus"":""img/1to2/1.png"",""time"":100},{""stimulus"":""img/1to2/2.png"",""time"":200},{""stimulus"":""img/1to2/3.png"",""time"":300},{""stimulus"":""img/1to2/4.png"",""time"":400},{""stimulus"":""img/1to2/5.png"",""time"":500},{""stimulus"":""img/1to2/6.png"",""time"":600},{""stimulus"":""img/1to2/7.png"",""time"":700},{""stimulus"":""img/1to2/8.png"",""time"":801},{""stimulus"":""img/1to2/9.png"",""time"":901},{""stimulus"":""img/1to2/10.png"",""time"":1001},{""stimulus"":""img/1to2/11.png"",""time"":1101},{""stimulus"":""img/1to2/12.png"",""time"":1201}]","[]"
"image-keyboard-response","86","104587","0.0-5.0-1.41","60fcf7102d7c9907d95a0920","bdp_cybrbll","Thu Apr 13 2023 09:50:21 GMT-0700 (PDT)","444093","1","3","","200","","","","choice","","img/2to1/1.png","2","184","549","0.5","0.5","2","3","",""
"animation","87","105888","0.0-5.0-2.41","60fcf7102d7c9907d95a0920","bdp_cybrbll","Thu Apr 13 2023 09:50:21 GMT-0700 (PDT)","444093","1","3","","","","","","","","","","184","","","","2","3","[{""stimulus"":""img/2to3/1.png"",""time"":100},{""stimulus"":""img/2to3/2.png"",""time"":200},{""stimulus"":""img/2to3/3.png"",""time"":300},{""stimulus"":""img/2to3/4.png"",""time"":400},{""stimulus"":""img/2to3/5.png"",""time"":500},{""stimulus"":""img/2to3/6.png"",""time"":600},{""stimulus"":""img/2to3/7.png"",""time"":700},{""stimulus"":""img/2to3/8.png"",""time"":800},{""stimulus"":""img/2to3/9.png"",""time"":900},{""stimulus"":""img/2to3/10.png"",""time"":1000},{""stimulus"":""img/2to3/11.png"",""time"":1100},{""stimulus"":""img/2to3/12.png"",""time"":1200}]","[]"
"image-keyboard-response","88","106966","0.0-5.0-1.42","60fcf7102d7c9907d95a0920","bdp_cybrbll","Thu Apr 13 2023 09:50:21 GMT-0700 (PDT)","444093","1","3","","null","","","","observe","","img/3to2/1.png","null","183","1076","0.5","0.5","3","1","",""
"animation","89","108268","0.0-5.0-2.42","60fcf7102d7c9907d95a0920","bdp_cybrbll","Thu Apr 13 2023 09:50:21 GMT-0700 (PDT)","444093","1","3","","","","","","","","","","183","","","","3","1","[{""stimulus"":""img/3to1/1.png"",""time"":101},{""stimulus"":""img/3to1/2.png"",""time"":201},{""stimulus"":""img/3to1/3.png"",""time"":301},{""stimulus"":""img/3to1/4.png"",""time"":401},{""stimulus"":""img/3to1/5.png"",""time"":501},{""stimulus"":""img/3to1/6.png"",""time"":601},{""stimulus"":""img/3to1/7.png"",""time"":701},{""stimulus"":""img/3to1/8.png"",""time"":801},{""stimulus"":""img/3to1/9.png"",""time"":901},{""stimulus"":""img/3to1/10.png"",""time"":1001},{""stimulus"":""img/3to1/11.png"",""time"":1101},{""stimulus"":""img/3to1/12.png"",""time"":1201}]","[]"
"image-keyboard-response","90","108469","0.0-5.0-1.43","60fcf7102d7c9907d95a0920","bdp_cybrbll","Thu Apr 13 2023 09:50:21 GMT-0700 (PDT)","444093","1","3","","null","","","","observe","","img/1to3/1.png","null","182","198","0.5","0.5","1","3","",""
"animation","91","109768","0.0-5.0-2.43","60fcf7102d7c9907d95a0920","bdp_cybrbll","Thu Apr 13 2023 09:50:21 GMT-0700 (PDT)","444093","1","3","","","","","","","","","","182","","","","1","3","[{""stimulus"":""img/1to3/1.png"",""time"":100},{""stimulus"":""img/1to3/2.png"",""time"":200},{""stimulus"":""img/1to3/3.png"",""time"":299},{""stimulus"":""img/1to3/4.png"",""time"":399},{""stimulus"":""img/1to3/5.png"",""time"":499},{""stimulus"":""img/1to3/6.png"",""time"":599},{""stimulus"":""img/1to3/7.png"",""time"":699},{""stimulus"":""img/1to3/8.png"",""time"":799},{""stimulus"":""img/1to3/9.png"",""time"":899},{""stimulus"":""img/1to3/10.png"",""time"":1000},{""stimulus"":""img/1to3/11.png"",""time"":1100},{""stimulus"":""img/1to3/12.png"",""time"":1199}]","[]"
"image-keyboard-response","92","110228","0.0-5.0-1.44","60fcf7102d7c9907d95a0920","bdp_cybrbll","Thu Apr 13 2023 09:50:21 GMT-0700 (PDT)","444093","1","3","","null","","","","observe","","img/3to2/1.png","null","181","457","0.5","0.5","3","1","",""
"animation","93","111529","0.0-5.0-2.44","60fcf7102d7c9907d95a0920","bdp_cybrbll","Thu Apr 13 2023 09:50:21 GMT-0700 (PDT)","444093","1","3","","","","","","","","","","181","","","","3","1","[{""stimulus"":""img/3to1/1.png"",""time"":101},{""stimulus"":""img/3to1/2.png"",""time"":201},{""stimulus"":""img/3to1/3.png"",""time"":301},{""stimulus"":""img/3to1/4.png"",""time"":401},{""stimulus"":""img/3to1/5.png"",""time"":501},{""stimulus"":""img/3to1/6.png"",""time"":601},{""stimulus"":""img/3to1/7.png"",""time"":701},{""stimulus"":""img/3to1/8.png"",""time"":801},{""stimulus"":""img/3to1/9.png"",""time"":901},{""stimulus"":""img/3to1/10.png"",""time"":1001},{""stimulus"":""img/3to1/11.png"",""time"":1101},{""stimulus"":""img/3to1/12.png"",""time"":1201}]","[]"
"image-keyboard-response","94","111804","0.0-5.0-1.45","60fcf7102d7c9907d95a0920","bdp_cybrbll","Thu Apr 13 2023 09:50:21 GMT-0700 (PDT)","444093","1","3","","null","","","","observe","","img/1to3/1.png","null","180","272","0.5","0.5","1","3","",""
"animation","95","113105","0.0-5.0-2.45","60fcf7102d7c9907d95a0920","bdp_cybrbll","Thu Apr 13 2023 09:50:21 GMT-0700 (PDT)","444093","1","3","","","","","","","","","","180","","","","1","3","[{""stimulus"":""img/1to3/1.png"",""time"":100},{""stimulus"":""img/1to3/2.png"",""time"":200},{""stimulus"":""img/1to3/3.png"",""time"":300},{""stimulus"":""img/1to3/4.png"",""time"":399},{""stimulus"":""img/1to3/5.png"",""time"":500},{""stimulus"":""img/1to3/6.png"",""time"":600},{""stimulus"":""img/1to3/7.png"",""time"":700},{""stimulus"":""img/1to3/8.png"",""time"":800},{""stimulus"":""img/1to3/9.png"",""time"":900},{""stimulus"":""img/1to3/10.png"",""time"":1000},{""stimulus"":""img/1to3/11.png"",""time"":1100},{""stimulus"":""img/1to3/12.png"",""time"":1200}]","[]"
"image-keyboard-response","96","113365","0.0-5.0-1.46","60fcf7102d7c9907d95a0920","bdp_cybrbll","Thu Apr 13 2023 09:50:21 GMT-0700 (PDT)","444093","1","3","","null","","","","observe","","img/3to2/1.png","null","179","258","0.5","0.5","3","2","",""
"animation","97","114668","0.0-5.0-2.46","60fcf7102d7c9907d95a0920","bdp_cybrbll","Thu Apr 13 2023 09:50:21 GMT-0700 (PDT)","444093","1","3","","","","","","","","","","179","","","","3","2","[{""stimulus"":""img/3to2/1.png"",""time"":100},{""stimulus"":""img/3to2/2.png"",""time"":200},{""stimulus"":""img/3to2/3.png"",""time"":300},{""stimulus"":""img/3to2/4.png"",""time"":400},{""stimulus"":""img/3to2/5.png"",""time"":500},{""stimulus"":""img/3to2/6.png"",""time"":600},{""stimulus"":""img/3to2/7.png"",""time"":700},{""stimulus"":""img/3to2/8.png"",""time"":800},{""stimulus"":""img/3to2/9.png"",""time"":900},{""stimulus"":""img/3to2/10.png"",""time"":1000},{""stimulus"":""img/3to2/11.png"",""time"":1100},{""stimulus"":""img/3to2/12.png"",""time"":1200}]","[]"
"image-keyboard-response","98","114814","0.0-5.0-1.47","60fcf7102d7c9907d95a0920","bdp_cybrbll","Thu Apr 13 2023 09:50:21 GMT-0700 (PDT)","444093","1","3","","145","","","","choice","","img/2to1/1.png","1","178","554","0.5","0.5","2","1","",""
"animation","99","116115","0.0-5.0-2.47","60fcf7102d7c9907d95a0920","bdp_cybrbll","Thu Apr 13 2023 09:50:21 GMT-0700 (PDT)","444093","1","3","","","","","","","","","","178","","","","2","1","[{""stimulus"":""img/2to1/1.png"",""time"":101},{""stimulus"":""img/2to1/2.png"",""time"":201},{""stimulus"":""img/2to1/3.png"",""time"":300},{""stimulus"":""img/2to1/4.png"",""time"":400},{""stimulus"":""img/2to1/5.png"",""time"":500},{""stimulus"":""img/2to1/6.png"",""time"":600},{""stimulus"":""img/2to1/7.png"",""time"":700},{""stimulus"":""img/2to1/8.png"",""time"":800},{""stimulus"":""img/2to1/9.png"",""time"":900},{""stimulus"":""img/2to1/10.png"",""time"":1000},{""stimulus"":""img/2to1/11.png"",""time"":1100},{""stimulus"":""img/2to1/12.png"",""time"":1200}]","[]"
"image-keyboard-response","100","116502","0.0-5.0-1.48","60fcf7102d7c9907d95a0920","bdp_cybrbll","Thu Apr 13 2023 09:50:21 GMT-0700 (PDT)","444093","1","3","","null","","","","observe","","img/1to3/1.png","null","177","385","0.5","0.5","1","2","",""
"animation","101","117803","0.0-5.0-2.48","60fcf7102d7c9907d95a0920","bdp_cybrbll","Thu Apr 13 2023 09:50:21 GMT-0700 (PDT)","444093","1","3","","","","","","","","","","177","","","","1","2","[{""stimulus"":""img/1to2/1.png"",""time"":100},{""stimulus"":""img/1to2/2.png"",""time"":200},{""stimulus"":""img/1to2/3.png"",""time"":300},{""stimulus"":""img/1to2/4.png"",""time"":400},{""stimulus"":""img/1to2/5.png"",""time"":500},{""stimulus"":""img/1to2/6.png"",""time"":599},{""stimulus"":""img/1to2/7.png"",""time"":700},{""stimulus"":""img/1to2/8.png"",""time"":800},{""stimulus"":""img/1to2/9.png"",""time"":900},{""stimulus"":""img/1to2/10.png"",""time"":1000},{""stimulus"":""img/1to2/11.png"",""time"":1100},{""stimulus"":""img/1to2/12.png"",""time"":1200}]","[]"
"image-keyboard-response","102","118648","0.0-5.0-1.49","60fcf7102d7c9907d95a0920","bdp_cybrbll","Thu Apr 13 2023 09:50:21 GMT-0700 (PDT)","444093","1","3","","844","","","","choice","","img/2to1/1.png","2","176","144","0.5","0.5","2","3","",""
"animation","103","119948","0.0-5.0-2.49","60fcf7102d7c9907d95a0920","bdp_cybrbll","Thu Apr 13 2023 09:50:21 GMT-0700 (PDT)","444093","1","3","","","","","","","","","","176","","","","2","3","[{""stimulus"":""img/2to3/1.png"",""time"":100},{""stimulus"":""img/2to3/2.png"",""time"":199},{""stimulus"":""img/2to3/3.png"",""time"":299},{""stimulus"":""img/2to3/4.png"",""time"":399},{""stimulus"":""img/2to3/5.png"",""time"":499},{""stimulus"":""img/2to3/6.png"",""time"":600},{""stimulus"":""img/2to3/7.png"",""time"":700},{""stimulus"":""img/2to3/8.png"",""time"":799},{""stimulus"":""img/2to3/9.png"",""time"":899},{""stimulus"":""img/2to3/10.png"",""time"":999},{""stimulus"":""img/2to3/11.png"",""time"":1099},{""stimulus"":""img/2to3/12.png"",""time"":1199}]","[]"
"image-keyboard-response","104","120142","0.0-5.0-1.50","60fcf7102d7c9907d95a0920","bdp_cybrbll","Thu Apr 13 2023 09:50:21 GMT-0700 (PDT)","444093","1","3","","null","","","","observe","","img/3to2/1.png","null","175","191","0.5","0.5","3","1","",""
"animation","105","121442","0.0-5.0-2.50","60fcf7102d7c9907d95a0920","bdp_cybrbll","Thu Apr 13 2023 09:50:21 GMT-0700 (PDT)","444093","1","3","","","","","","","","","","175","","","","3","1","[{""stimulus"":""img/3to1/1.png"",""time"":101},{""stimulus"":""img/3to1/2.png"",""time"":201},{""stimulus"":""img/3to1/3.png"",""time"":301},{""stimulus"":""img/3to1/4.png"",""time"":401},{""stimulus"":""img/3to1/5.png"",""time"":500},{""stimulus"":""img/3to1/6.png"",""time"":600},{""stimulus"":""img/3to1/7.png"",""time"":700},{""stimulus"":""img/3to1/8.png"",""time"":800},{""stimulus"":""img/3to1/9.png"",""time"":900},{""stimulus"":""img/3to1/10.png"",""time"":1000},{""stimulus"":""img/3to1/11.png"",""time"":1100},{""stimulus"":""img/3to1/12.png"",""time"":1200}]","[]"
"image-keyboard-response","106","122023","0.0-5.0-1.51","60fcf7102d7c9907d95a0920","bdp_cybrbll","Thu Apr 13 2023 09:50:21 GMT-0700 (PDT)","444093","1","3","","null","","","","observe","","img/1to3/1.png","null","174","579","0.5","0.5","1","3","",""
"animation","107","123323","0.0-5.0-2.51","60fcf7102d7c9907d95a0920","bdp_cybrbll","Thu Apr 13 2023 09:50:21 GMT-0700 (PDT)","444093","1","3","","","","","","","","","","174","","","","1","3","[{""stimulus"":""img/1to3/1.png"",""time"":99},{""stimulus"":""img/1to3/2.png"",""time"":199},{""stimulus"":""img/1to3/3.png"",""time"":299},{""stimulus"":""img/1to3/4.png"",""time"":399},{""stimulus"":""img/1to3/5.png"",""time"":499},{""stimulus"":""img/1to3/6.png"",""time"":600},{""stimulus"":""img/1to3/7.png"",""time"":700},{""stimulus"":""img/1to3/8.png"",""time"":800},{""stimulus"":""img/1to3/9.png"",""time"":900},{""stimulus"":""img/1to3/10.png"",""time"":1000},{""stimulus"":""img/1to3/11.png"",""time"":1099},{""stimulus"":""img/1to3/12.png"",""time"":1199}]","[]"
"image-keyboard-response","108","123730","0.0-5.0-1.52","60fcf7102d7c9907d95a0920","bdp_cybrbll","Thu Apr 13 2023 09:50:21 GMT-0700 (PDT)","444093","1","3","","null","","","","observe","","img/3to2/1.png","null","173","404","0.5","0.5","3","1","",""
"animation","109","125032","0.0-5.0-2.52","60fcf7102d7c9907d95a0920","bdp_cybrbll","Thu Apr 13 2023 09:50:21 GMT-0700 (PDT)","444093","1","3","","","","","","","","","","173","","","","3","1","[{""stimulus"":""img/3to1/1.png"",""time"":101},{""stimulus"":""img/3to1/2.png"",""time"":201},{""stimulus"":""img/3to1/3.png"",""time"":301},{""stimulus"":""img/3to1/4.png"",""time"":401},{""stimulus"":""img/3to1/5.png"",""time"":501},{""stimulus"":""img/3to1/6.png"",""time"":601},{""stimulus"":""img/3to1/7.png"",""time"":702},{""stimulus"":""img/3to1/8.png"",""time"":802},{""stimulus"":""img/3to1/9.png"",""time"":902},{""stimulus"":""img/3to1/10.png"",""time"":1002},{""stimulus"":""img/3to1/11.png"",""time"":1102},{""stimulus"":""img/3to1/12.png"",""time"":1202}]","[]"
"image-keyboard-response","110","125334","0.0-5.0-1.53","60fcf7102d7c9907d95a0920","bdp_cybrbll","Thu Apr 13 2023 09:50:21 GMT-0700 (PDT)","444093","1","3","","null","","","","observe","","img/1to3/1.png","null","172","300","0.5","0.5","1","3","",""
"animation","111","126635","0.0-5.0-2.53","60fcf7102d7c9907d95a0920","bdp_cybrbll","Thu Apr 13 2023 09:50:21 GMT-0700 (PDT)","444093","1","3","","","","","","","","","","172","","","","1","3","[{""stimulus"":""img/1to3/1.png"",""time"":100},{""stimulus"":""img/1to3/2.png"",""time"":200},{""stimulus"":""img/1to3/3.png"",""time"":300},{""stimulus"":""img/1to3/4.png"",""time"":400},{""stimulus"":""img/1to3/5.png"",""time"":500},{""stimulus"":""img/1to3/6.png"",""time"":600},{""stimulus"":""img/1to3/7.png"",""time"":700},{""stimulus"":""img/1to3/8.png"",""time"":800},{""stimulus"":""img/1to3/9.png"",""time"":900},{""stimulus"":""img/1to3/10.png"",""time"":1000},{""stimulus"":""img/1to3/11.png"",""time"":1100},{""stimulus"":""img/1to3/12.png"",""time"":1200}]","[]"
"image-keyboard-response","112","127169","0.0-5.0-1.54","60fcf7102d7c9907d95a0920","bdp_cybrbll","Thu Apr 13 2023 09:50:21 GMT-0700 (PDT)","444093","1","3","","null","","","","observe","","img/3to2/1.png","null","171","532","0.5","0.5","3","2","",""
"animation","113","128470","0.0-5.0-2.54","60fcf7102d7c9907d95a0920","bdp_cybrbll","Thu Apr 13 2023 09:50:21 GMT-0700 (PDT)","444093","1","3","","","","","","","","","","171","","","","3","2","[{""stimulus"":""img/3to2/1.png"",""time"":101},{""stimulus"":""img/3to2/2.png"",""time"":201},{""stimulus"":""img/3to2/3.png"",""time"":301},{""stimulus"":""img/3to2/4.png"",""time"":401},{""stimulus"":""img/3to2/5.png"",""time"":501},{""stimulus"":""img/3to2/6.png"",""time"":601},{""stimulus"":""img/3to2/7.png"",""time"":701},{""stimulus"":""img/3to2/8.png"",""time"":801},{""stimulus"":""img/3to2/9.png"",""time"":901},{""stimulus"":""img/3to2/10.png"",""time"":1001},{""stimulus"":""img/3to2/11.png"",""time"":1101},{""stimulus"":""img/3to2/12.png"",""time"":1200}]","[]"
"image-keyboard-response","114","129283","0.0-5.0-1.55","60fcf7102d7c9907d95a0920","bdp_cybrbll","Thu Apr 13 2023 09:50:21 GMT-0700 (PDT)","444093","1","3","","812","","","","choice","","img/2to1/1.png","1","170","1097","0.5","0.5","2","1","",""
"animation","115","130582","0.0-5.0-2.55","60fcf7102d7c9907d95a0920","bdp_cybrbll","Thu Apr 13 2023 09:50:21 GMT-0700 (PDT)","444093","1","3","","","","","","","","","","170","","","","2","1","[{""stimulus"":""img/2to1/1.png"",""time"":101},{""stimulus"":""img/2to1/2.png"",""time"":200},{""stimulus"":""img/2to1/3.png"",""time"":300},{""stimulus"":""img/2to1/4.png"",""time"":400},{""stimulus"":""img/2to1/5.png"",""time"":500},{""stimulus"":""img/2to1/6.png"",""time"":600},{""stimulus"":""img/2to1/7.png"",""time"":700},{""stimulus"":""img/2to1/8.png"",""time"":800},{""stimulus"":""img/2to1/9.png"",""time"":900},{""stimulus"":""img/2to1/10.png"",""time"":1000},{""stimulus"":""img/2to1/11.png"",""time"":1099},{""stimulus"":""img/2to1/12.png"",""time"":1199}]","[]"
"image-keyboard-response","116","130804","0.0-5.0-1.56","60fcf7102d7c9907d95a0920","bdp_cybrbll","Thu Apr 13 2023 09:50:21 GMT-0700 (PDT)","444093","1","3","","null","","","","observe","","img/1to3/1.png","null","169","219","0.5","0.5","1","2","",""
"animation","117","132106","0.0-5.0-2.56","60fcf7102d7c9907d95a0920","bdp_cybrbll","Thu Apr 13 2023 09:50:21 GMT-0700 (PDT)","444093","1","3","","","","","","","","","","169","","","","1","2","[{""stimulus"":""img/1to2/1.png"",""time"":100},{""stimulus"":""img/1to2/2.png"",""time"":200},{""stimulus"":""img/1to2/3.png"",""time"":300},{""stimulus"":""img/1to2/4.png"",""time"":400},{""stimulus"":""img/1to2/5.png"",""time"":500},{""stimulus"":""img/1to2/6.png"",""time"":601},{""stimulus"":""img/1to2/7.png"",""time"":701},{""stimulus"":""img/1to2/8.png"",""time"":801},{""stimulus"":""img/1to2/9.png"",""time"":901},{""stimulus"":""img/1to2/10.png"",""time"":1001},{""stimulus"":""img/1to2/11.png"",""time"":1101},{""stimulus"":""img/1to2/12.png"",""time"":1201}]","[]"
"image-keyboard-response","118","132111","0.0-5.0-1.57","60fcf7102d7c9907d95a0920","bdp_cybrbll","Thu Apr 13 2023 09:50:21 GMT-0700 (PDT)","444093","1","3","","3","","","","choice","","img/2to1/1.png","2","168","255","0.5","0.5","2","3","",""
"animation","119","133416","0.0-5.0-2.57","60fcf7102d7c9907d95a0920","bdp_cybrbll","Thu Apr 13 2023 09:50:21 GMT-0700 (PDT)","444093","1","3","","","","","","","","","","168","","","","2","3","[{""stimulus"":""img/2to3/1.png"",""time"":101},{""stimulus"":""img/2to3/2.png"",""time"":201},{""stimulus"":""img/2to3/3.png"",""time"":301},{""stimulus"":""img/2to3/4.png"",""time"":401},{""stimulus"":""img/2to3/5.png"",""time"":501},{""stimulus"":""img/2to3/6.png"",""time"":601},{""stimulus"":""img/2to3/7.png"",""time"":701},{""stimulus"":""img/2to3/8.png"",""time"":801},{""stimulus"":""img/2to3/9.png"",""time"":901},{""stimulus"":""img/2to3/10.png"",""time"":1001},{""stimulus"":""img/2to3/11.png"",""time"":1101},{""stimulus"":""img/2to3/12.png"",""time"":1201}]","[]"
"image-keyboard-response","120","133864","0.0-5.0-1.58","60fcf7102d7c9907d95a0920","bdp_cybrbll","Thu Apr 13 2023 09:50:21 GMT-0700 (PDT)","444093","1","3","","null","","","","observe","","img/3to2/1.png","null","167","443","0.5","0.5","3","1","",""
"animation","121","135166","0.0-5.0-2.58","60fcf7102d7c9907d95a0920","bdp_cybrbll","Thu Apr 13 2023 09:50:21 GMT-0700 (PDT)","444093","1","3","","","","","","","","","","167","","","","3","1","[{""stimulus"":""img/3to1/1.png"",""time"":101},{""stimulus"":""img/3to1/2.png"",""time"":201},{""stimulus"":""img/3to1/3.png"",""time"":301},{""stimulus"":""img/3to1/4.png"",""time"":401},{""stimulus"":""img/3to1/5.png"",""time"":501},{""stimulus"":""img/3to1/6.png"",""time"":601},{""stimulus"":""img/3to1/7.png"",""time"":701},{""stimulus"":""img/3to1/8.png"",""time"":801},{""stimulus"":""img/3to1/9.png"",""time"":901},{""stimulus"":""img/3to1/10.png"",""time"":1001},{""stimulus"":""img/3to1/11.png"",""time"":1101},{""stimulus"":""img/3to1/12.png"",""time"":1201}]","[]"
"image-keyboard-response","122","135557","0.0-5.0-1.59","60fcf7102d7c9907d95a0920","bdp_cybrbll","Thu Apr 13 2023 09:50:21 GMT-0700 (PDT)","444093","1","3","","null","","","","observe","","img/1to3/1.png","null","166","388","0.5","0.5","1","2","",""
"animation","123","136858","0.0-5.0-2.59","60fcf7102d7c9907d95a0920","bdp_cybrbll","Thu Apr 13 2023 09:50:21 GMT-0700 (PDT)","444093","1","3","","","","","","","","","","166","","","","1","2","[{""stimulus"":""img/1to2/1.png"",""time"":101},{""stimulus"":""img/1to2/2.png"",""time"":201},{""stimulus"":""img/1to2/3.png"",""time"":301},{""stimulus"":""img/1to2/4.png"",""time"":401},{""stimulus"":""img/1to2/5.png"",""time"":501},{""stimulus"":""img/1to2/6.png"",""time"":601},{""stimulus"":""img/1to2/7.png"",""time"":701},{""stimulus"":""img/1to2/8.png"",""time"":801},{""stimulus"":""img/1to2/9.png"",""time"":900},{""stimulus"":""img/1to2/10.png"",""time"":1001},{""stimulus"":""img/1to2/11.png"",""time"":1101},{""stimulus"":""img/1to2/12.png"",""time"":1201}]","[]"
"image-keyboard-response","124","136922","0.0-5.0-1.60","60fcf7102d7c9907d95a0920","bdp_cybrbll","Thu Apr 13 2023 09:50:21 GMT-0700 (PDT)","444093","1","3","","62","","","","choice","","img/2to1/1.png","2","165","526","0.5","0.5","2","3","",""
"animation","125","138224","0.0-5.0-2.60","60fcf7102d7c9907d95a0920","bdp_cybrbll","Thu Apr 13 2023 09:50:21 GMT-0700 (PDT)","444093","1","3","","","","","","","","","","165","","","","2","3","[{""stimulus"":""img/2to3/1.png"",""time"":101},{""stimulus"":""img/2to3/2.png"",""time"":201},{""stimulus"":""img/2to3/3.png"",""time"":301},{""stimulus"":""img/2to3/4.png"",""time"":401},{""stimulus"":""img/2to3/5.png"",""time"":501},{""stimulus"":""img/2to3/6.png"",""time"":601},{""stimulus"":""img/2to3/7.png"",""time"":701},{""stimulus"":""img/2to3/8.png"",""time"":801},{""stimulus"":""img/2to3/9.png"",""time"":901},{""stimulus"":""img/2to3/10.png"",""time"":1001},{""stimulus"":""img/2to3/11.png"",""time"":1101},{""stimulus"":""img/2to3/12.png"",""time"":1202}]","[]"
"image-keyboard-response","126","138480","0.0-5.0-1.61","60fcf7102d7c9907d95a0920","bdp_cybrbll","Thu Apr 13 2023 09:50:21 GMT-0700 (PDT)","444093","1","3","","null","","","","observe","","img/3to2/1.png","null","164","254","0.5","0.5","3","2","",""
"animation","127","139781","0.0-5.0-2.61","60fcf7102d7c9907d95a0920","bdp_cybrbll","Thu Apr 13 2023 09:50:21 GMT-0700 (PDT)","444093","1","3","","","","","","","","","","164","","","","3","2","[{""stimulus"":""img/3to2/1.png"",""time"":101},{""stimulus"":""img/3to2/2.png"",""time"":201},{""stimulus"":""img/3to2/3.png"",""time"":301},{""stimulus"":""img/3to2/4.png"",""time"":401},{""stimulus"":""img/3to2/5.png"",""time"":501},{""stimulus"":""img/3to2/6.png"",""time"":601},{""stimulus"":""img/3to2/7.png"",""time"":701},{""stimulus"":""img/3to2/8.png"",""time"":801},{""stimulus"":""img/3to2/9.png"",""time"":901},{""stimulus"":""img/3to2/10.png"",""time"":1001},{""stimulus"":""img/3to2/11.png"",""time"":1101},{""stimulus"":""img/3to2/12.png"",""time"":1201}]","[]"
"image-keyboard-response","128","140615","0.0-5.0-1.62","60fcf7102d7c9907d95a0920","bdp_cybrbll","Thu Apr 13 2023 09:50:21 GMT-0700 (PDT)","444093","1","3","","833","","","","choice","","img/2to1/1.png","1","163","423","0.5","0.5","2","1","",""
"animation","129","141916","0.0-5.0-2.62","60fcf7102d7c9907d95a0920","bdp_cybrbll","Thu Apr 13 2023 09:50:21 GMT-0700 (PDT)","444093","1","3","","","","","","","","","","163","","","","2","1","[{""stimulus"":""img/2to1/1.png"",""time"":100},{""stimulus"":""img/2to1/2.png"",""time"":200},{""stimulus"":""img/2to1/3.png"",""time"":300},{""stimulus"":""img/2to1/4.png"",""time"":400},{""stimulus"":""img/2to1/5.png"",""time"":501},{""stimulus"":""img/2to1/6.png"",""time"":601},{""stimulus"":""img/2to1/7.png"",""time"":700},{""stimulus"":""img/2to1/8.png"",""time"":800},{""stimulus"":""img/2to1/9.png"",""time"":900},{""stimulus"":""img/2to1/10.png"",""time"":1000},{""stimulus"":""img/2to1/11.png"",""time"":1100},{""stimulus"":""img/2to1/12.png"",""time"":1200}]","[]"
"image-keyboard-response","130","142545","0.0-5.0-1.63","60fcf7102d7c9907d95a0920","bdp_cybrbll","Thu Apr 13 2023 09:50:21 GMT-0700 (PDT)","444093","1","3","","null","","","","observe","","img/1to3/1.png","null","162","627","0.5","0.5","1","3","",""
"animation","131","143845","0.0-5.0-2.63","60fcf7102d7c9907d95a0920","bdp_cybrbll","Thu Apr 13 2023 09:50:21 GMT-0700 (PDT)","444093","1","3","","","","","","","","","","162","","","","1","3","[{""stimulus"":""img/1to3/1.png"",""time"":101},{""stimulus"":""img/1to3/2.png"",""time"":201},{""stimulus"":""img/1to3/3.png"",""time"":301},{""stimulus"":""img/1to3/4.png"",""time"":401},{""stimulus"":""img/1to3/5.png"",""time"":501},{""stimulus"":""img/1to3/6.png"",""time"":600},{""stimulus"":""img/1to3/7.png"",""time"":699},{""stimulus"":""img/1to3/8.png"",""time"":799},{""stimulus"":""img/1to3/9.png"",""time"":899},{""stimulus"":""img/1to3/10.png"",""time"":999},{""stimulus"":""img/1to3/11.png"",""time"":1099},{""stimulus"":""img/1to3/12.png"",""time"":1200}]","[]"
"image-keyboard-response","132","144095","0.0-5.0-1.64","60fcf7102d7c9907d95a0920","bdp_cybrbll","Thu Apr 13 2023 09:50:21 GMT-0700 (PDT)","444093","1","3","","null","","","","observe","","img/3to2/1.png","null","161","247","0.5","0.5","3","1","",""
"animation","133","145397","0.0-5.0-2.64","60fcf7102d7c9907d95a0920","bdp_cybrbll","Thu Apr 13 2023 09:50:21 GMT-0700 (PDT)","444093","1","3","","","","","","","","","","161","","","","3","1","[{""stimulus"":""img/3to1/1.png"",""time"":100},{""stimulus"":""img/3to1/2.png"",""time"":200},{""stimulus"":""img/3to1/3.png"",""time"":300},{""stimulus"":""img/3to1/4.png"",""time"":400},{""stimulus"":""img/3to1/5.png"",""time"":500},{""stimulus"":""img/3to1/6.png"",""time"":600},{""stimulus"":""img/3to1/7.png"",""time"":700},{""stimulus"":""img/3to1/8.png"",""time"":801},{""stimulus"":""img/3to1/9.png"",""time"":901},{""stimulus"":""img/3to1/10.png"",""time"":1001},{""stimulus"":""img/3to1/11.png"",""time"":1101},{""stimulus"":""img/3to1/12.png"",""time"":1201}]","[]"
"image-keyboard-response","134","145892","0.0-5.0-1.65","60fcf7102d7c9907d95a0920","bdp_cybrbll","Thu Apr 13 2023 09:50:21 GMT-0700 (PDT)","444093","1","3","","null","","","","observe","","img/1to3/1.png","null","160","493","0.5","0.5","1","3","",""
"animation","135","147194","0.0-5.0-2.65","60fcf7102d7c9907d95a0920","bdp_cybrbll","Thu Apr 13 2023 09:50:21 GMT-0700 (PDT)","444093","1","3","","","","","","","","","","160","","","","1","3","[{""stimulus"":""img/1to3/1.png"",""time"":100},{""stimulus"":""img/1to3/2.png"",""time"":200},{""stimulus"":""img/1to3/3.png"",""time"":300},{""stimulus"":""img/1to3/4.png"",""time"":400},{""stimulus"":""img/1to3/5.png"",""time"":500},{""stimulus"":""img/1to3/6.png"",""time"":600},{""stimulus"":""img/1to3/7.png"",""time"":700},{""stimulus"":""img/1to3/8.png"",""time"":800},{""stimulus"":""img/1to3/9.png"",""time"":900},{""stimulus"":""img/1to3/10.png"",""time"":1000},{""stimulus"":""img/1to3/11.png"",""time"":1100},{""stimulus"":""img/1to3/12.png"",""time"":1200}]","[]"
"image-keyboard-response","136","147668","0.0-5.0-1.66","60fcf7102d7c9907d95a0920","bdp_cybrbll","Thu Apr 13 2023 09:50:21 GMT-0700 (PDT)","444093","1","3","","null","","","","observe","","img/3to2/1.png","null","159","471","0.5","0.5","3","1","",""
"animation","137","148970","0.0-5.0-2.66","60fcf7102d7c9907d95a0920","bdp_cybrbll","Thu Apr 13 2023 09:50:21 GMT-0700 (PDT)","444093","1","3","","","","","","","","","","159","","","","3","1","[{""stimulus"":""img/3to1/1.png"",""time"":100},{""stimulus"":""img/3to1/2.png"",""time"":200},{""stimulus"":""img/3to1/3.png"",""time"":300},{""stimulus"":""img/3to1/4.png"",""time"":400},{""stimulus"":""img/3to1/5.png"",""time"":500},{""stimulus"":""img/3to1/6.png"",""time"":600},{""stimulus"":""img/3to1/7.png"",""time"":701},{""stimulus"":""img/3to1/8.png"",""time"":801},{""stimulus"":""img/3to1/9.png"",""time"":901},{""stimulus"":""img/3to1/10.png"",""time"":1001},{""stimulus"":""img/3to1/11.png"",""time"":1101},{""stimulus"":""img/3to1/12.png"",""time"":1201}]","[]"
"image-keyboard-response","138","149667","0.0-5.0-1.67","60fcf7102d7c9907d95a0920","bdp_cybrbll","Thu Apr 13 2023 09:50:21 GMT-0700 (PDT)","444093","1","3","","null","","","","observe","","img/1to3/1.png","null","158","694","0.5","0.5","1","2","",""
"animation","139","150966","0.0-5.0-2.67","60fcf7102d7c9907d95a0920","bdp_cybrbll","Thu Apr 13 2023 09:50:21 GMT-0700 (PDT)","444093","1","3","","","","","","","","","","158","","","","1","2","[{""stimulus"":""img/1to2/1.png"",""time"":101},{""stimulus"":""img/1to2/2.png"",""time"":200},{""stimulus"":""img/1to2/3.png"",""time"":299},{""stimulus"":""img/1to2/4.png"",""time"":399},{""stimulus"":""img/1to2/5.png"",""time"":500},{""stimulus"":""img/1to2/6.png"",""time"":600},{""stimulus"":""img/1to2/7.png"",""time"":700},{""stimulus"":""img/1to2/8.png"",""time"":800},{""stimulus"":""img/1to2/9.png"",""time"":900},{""stimulus"":""img/1to2/10.png"",""time"":1000},{""stimulus"":""img/1to2/11.png"",""time"":1100},{""stimulus"":""img/1to2/12.png"",""time"":1200}]","[]"
"image-keyboard-response","140","151920","0.0-5.0-1.68","60fcf7102d7c9907d95a0920","bdp_cybrbll","Thu Apr 13 2023 09:50:21 GMT-0700 (PDT)","444093","1","3","","953","","","","choice","","img/2to1/1.png","2","157","369","0.5","0.5","2","3","",""
"animation","141","153221","0.0-5.0-2.68","60fcf7102d7c9907d95a0920","bdp_cybrbll","Thu Apr 13 2023 09:50:21 GMT-0700 (PDT)","444093","1","3","","","","","","","","","","157","","","","2","3","[{""stimulus"":""img/2to3/1.png"",""time"":101},{""stimulus"":""img/2to3/2.png"",""time"":201},{""stimulus"":""img/2to3/3.png"",""time"":301},{""stimulus"":""img/2to3/4.png"",""time"":400},{""stimulus"":""img/2to3/5.png"",""time"":500},{""stimulus"":""img/2to3/6.png"",""time"":600},{""stimulus"":""img/2to3/7.png"",""time"":700},{""stimulus"":""img/2to3/8.png"",""time"":800},{""stimulus"":""img/2to3/9.png"",""time"":900},{""stimulus"":""img/2to3/10.png"",""time"":1000},{""stimulus"":""img/2to3/11.png"",""time"":1100},{""stimulus"":""img/2to3/12.png"",""time"":1200}]","[]"
"image-keyboard-response","142","153671","0.0-5.0-1.69","60fcf7102d7c9907d95a0920","bdp_cybrbll","Thu Apr 13 2023 09:50:21 GMT-0700 (PDT)","444093","1","3","","null","","","","observe","","img/3to2/1.png","null","156","448","0.5","0.5","3","1","",""
"animation","143","154973","0.0-5.0-2.69","60fcf7102d7c9907d95a0920","bdp_cybrbll","Thu Apr 13 2023 09:50:21 GMT-0700 (PDT)","444093","1","3","","","","","","","","","","156","","","","3","1","[{""stimulus"":""img/3to1/1.png"",""time"":101},{""stimulus"":""img/3to1/2.png"",""time"":200},{""stimulus"":""img/3to1/3.png"",""time"":301},{""stimulus"":""img/3to1/4.png"",""time"":401},{""stimulus"":""img/3to1/5.png"",""time"":501},{""stimulus"":""img/3to1/6.png"",""time"":601},{""stimulus"":""img/3to1/7.png"",""time"":701},{""stimulus"":""img/3to1/8.png"",""time"":801},{""stimulus"":""img/3to1/9.png"",""time"":901},{""stimulus"":""img/3to1/10.png"",""time"":1001},{""stimulus"":""img/3to1/11.png"",""time"":1101},{""stimulus"":""img/3to1/12.png"",""time"":1201}]","[]"
"image-keyboard-response","144","155339","0.0-5.0-1.70","60fcf7102d7c9907d95a0920","bdp_cybrbll","Thu Apr 13 2023 09:50:21 GMT-0700 (PDT)","444093","1","3","","null","","","","observe","","img/1to3/1.png","null","155","363","0.5","0.5","1","3","",""
"animation","145","156639","0.0-5.0-2.70","60fcf7102d7c9907d95a0920","bdp_cybrbll","Thu Apr 13 2023 09:50:21 GMT-0700 (PDT)","444093","1","3","","","","","","","","","","155","","","","1","3","[{""stimulus"":""img/1to3/1.png"",""time"":100},{""stimulus"":""img/1to3/2.png"",""time"":200},{""stimulus"":""img/1to3/3.png"",""time"":300},{""stimulus"":""img/1to3/4.png"",""time"":400},{""stimulus"":""img/1to3/5.png"",""time"":500},{""stimulus"":""img/1to3/6.png"",""time"":600},{""stimulus"":""img/1to3/7.png"",""time"":701},{""stimulus"":""img/1to3/8.png"",""time"":801},{""stimulus"":""img/1to3/9.png"",""time"":901},{""stimulus"":""img/1to3/10.png"",""time"":1001},{""stimulus"":""img/1to3/11.png"",""time"":1100},{""stimulus"":""img/1to3/12.png"",""time"":1200}]","[]"
"image-keyboard-response","146","157257","0.0-5.0-1.71","60fcf7102d7c9907d95a0920","bdp_cybrbll","Thu Apr 13 2023 09:50:21 GMT-0700 (PDT)","444093","1","3","","null","","","","observe","","img/3to2/1.png","null","154","616","0.5","0.5","3","1","",""
"animation","147","158557","0.0-5.0-2.71","60fcf7102d7c9907d95a0920","bdp_cybrbll","Thu Apr 13 2023 09:50:21 GMT-0700 (PDT)","444093","1","3","","","","","","","","","","154","","","","3","1","[{""stimulus"":""img/3to1/1.png"",""time"":99},{""stimulus"":""img/3to1/2.png"",""time"":199},{""stimulus"":""img/3to1/3.png"",""time"":299},{""stimulus"":""img/3to1/4.png"",""time"":399},{""stimulus"":""img/3to1/5.png"",""time"":499},{""stimulus"":""img/3to1/6.png"",""time"":599},{""stimulus"":""img/3to1/7.png"",""time"":699},{""stimulus"":""img/3to1/8.png"",""time"":799},{""stimulus"":""img/3to1/9.png"",""time"":899},{""stimulus"":""img/3to1/10.png"",""time"":999},{""stimulus"":""img/3to1/11.png"",""time"":1099},{""stimulus"":""img/3to1/12.png"",""time"":1199}]","[]"
"image-keyboard-response","148","158973","0.0-5.0-1.72","60fcf7102d7c9907d95a0920","bdp_cybrbll","Thu Apr 13 2023 09:50:21 GMT-0700 (PDT)","444093","1","3","","null","","","","observe","","img/1to3/1.png","null","153","414","0.5","0.5","1","3","",""
"animation","149","160274","0.0-5.0-2.72","60fcf7102d7c9907d95a0920","bdp_cybrbll","Thu Apr 13 2023 09:50:21 GMT-0700 (PDT)","444093","1","3","","","","","","","","","","153","","","","1","3","[{""stimulus"":""img/1to3/1.png"",""time"":100},{""stimulus"":""img/1to3/2.png"",""time"":200},{""stimulus"":""img/1to3/3.png"",""time"":300},{""stimulus"":""img/1to3/4.png"",""time"":400},{""stimulus"":""img/1to3/5.png"",""time"":500},{""stimulus"":""img/1to3/6.png"",""time"":600},{""stimulus"":""img/1to3/7.png"",""time"":700},{""stimulus"":""img/1to3/8.png"",""time"":800},{""stimulus"":""img/1to3/9.png"",""time"":900},{""stimulus"":""img/1to3/10.png"",""time"":1000},{""stimulus"":""img/1to3/11.png"",""time"":1100},{""stimulus"":""img/1to3/12.png"",""time"":1200}]","[]"
"image-keyboard-response","150","161439","0.0-5.0-1.73","60fcf7102d7c9907d95a0920","bdp_cybrbll","Thu Apr 13 2023 09:50:21 GMT-0700 (PDT)","444093","1","3","","null","","","","observe","","img/3to2/1.png","null","152","1163","0.5","0.5","3","2","",""
"animation","151","162740","0.0-5.0-2.73","60fcf7102d7c9907d95a0920","bdp_cybrbll","Thu Apr 13 2023 09:50:21 GMT-0700 (PDT)","444093","1","3","","","","","","","","","","152","","","","3","2","[{""stimulus"":""img/3to2/1.png"",""time"":100},{""stimulus"":""img/3to2/2.png"",""time"":200},{""stimulus"":""img/3to2/3.png"",""time"":300},{""stimulus"":""img/3to2/4.png"",""time"":400},{""stimulus"":""img/3to2/5.png"",""time"":500},{""stimulus"":""img/3to2/6.png"",""time"":600},{""stimulus"":""img/3to2/7.png"",""time"":700},{""stimulus"":""img/3to2/8.png"",""time"":800},{""stimulus"":""img/3to2/9.png"",""time"":900},{""stimulus"":""img/3to2/10.png"",""time"":1000},{""stimulus"":""img/3to2/11.png"",""time"":1100},{""stimulus"":""img/3to2/12.png"",""time"":1200}]","[]"
"image-keyboard-response","152","163501","0.0-5.0-1.74","60fcf7102d7c9907d95a0920","bdp_cybrbll","Thu Apr 13 2023 09:50:21 GMT-0700 (PDT)","444093","1","3","","760","","","","choice","","img/2to1/1.png","1","151","539","0.5","0.5","2","1","",""
"animation","153","164803","0.0-5.0-2.74","60fcf7102d7c9907d95a0920","bdp_cybrbll","Thu Apr 13 2023 09:50:21 GMT-0700 (PDT)","444093","1","3","","","","","","","","","","151","","","","2","1","[{""stimulus"":""img/2to1/1.png"",""time"":100},{""stimulus"":""img/2to1/2.png"",""time"":200},{""stimulus"":""img/2to1/3.png"",""time"":300},{""stimulus"":""img/2to1/4.png"",""time"":400},{""stimulus"":""img/2to1/5.png"",""time"":500},{""stimulus"":""img/2to1/6.png"",""time"":601},{""stimulus"":""img/2to1/7.png"",""time"":701},{""stimulus"":""img/2to1/8.png"",""time"":800},{""stimulus"":""img/2to1/9.png"",""time"":901},{""stimulus"":""img/2to1/10.png"",""time"":1001},{""stimulus"":""img/2to1/11.png"",""time"":1101},{""stimulus"":""img/2to1/12.png"",""time"":1201}]","[]"
"image-keyboard-response","154","165028","0.0-5.0-1.75","60fcf7102d7c9907d95a0920","bdp_cybrbll","Thu Apr 13 2023 09:50:21 GMT-0700 (PDT)","444093","1","3","","null","","","","observe","","img/1to3/1.png","null","150","222","0.5","0.5","1","3","",""
"animation","155","166329","0.0-5.0-2.75","60fcf7102d7c9907d95a0920","bdp_cybrbll","Thu Apr 13 2023 09:50:21 GMT-0700 (PDT)","444093","1","3","","","","","","","","","","150","","","","1","3","[{""stimulus"":""img/1to3/1.png"",""time"":100},{""stimulus"":""img/1to3/2.png"",""time"":200},{""stimulus"":""img/1to3/3.png"",""time"":300},{""stimulus"":""img/1to3/4.png"",""time"":400},{""stimulus"":""img/1to3/5.png"",""time"":500},{""stimulus"":""img/1to3/6.png"",""time"":600},{""stimulus"":""img/1to3/7.png"",""time"":700},{""stimulus"":""img/1to3/8.png"",""time"":800},{""stimulus"":""img/1to3/9.png"",""time"":900},{""stimulus"":""img/1to3/10.png"",""time"":1000},{""stimulus"":""img/1to3/11.png"",""time"":1100},{""stimulus"":""img/1to3/12.png"",""time"":1200}]","[]"
"image-keyboard-response","156","167217","0.0-5.0-1.76","60fcf7102d7c9907d95a0920","bdp_cybrbll","Thu Apr 13 2023 09:50:21 GMT-0700 (PDT)","444093","1","3","","null","","","","observe","","img/3to2/1.png","null","149","885","0.5","0.1","3","1","",""
"animation","157","168517","0.0-5.0-2.76","60fcf7102d7c9907d95a0920","bdp_cybrbll","Thu Apr 13 2023 09:50:21 GMT-0700 (PDT)","444093","1","3","","","","","","","","","","149","","","","3","1","[{""stimulus"":""img/3to1/1.png"",""time"":100},{""stimulus"":""img/3to1/2.png"",""time"":200},{""stimulus"":""img/3to1/3.png"",""time"":300},{""stimulus"":""img/3to1/4.png"",""time"":400},{""stimulus"":""img/3to1/5.png"",""time"":500},{""stimulus"":""img/3to1/6.png"",""time"":600},{""stimulus"":""img/3to1/7.png"",""time"":700},{""stimulus"":""img/3to1/8.png"",""time"":800},{""stimulus"":""img/3to1/9.png"",""time"":900},{""stimulus"":""img/3to1/10.png"",""time"":1000},{""stimulus"":""img/3to1/11.png"",""time"":1100},{""stimulus"":""img/3to1/12.png"",""time"":1200}]","[]"
"image-keyboard-response","158","169262","0.0-5.0-1.77","60fcf7102d7c9907d95a0920","bdp_cybrbll","Thu Apr 13 2023 09:50:21 GMT-0700 (PDT)","444093","1","3","","null","","","","observe","","img/1to3/1.png","null","148","743","0.5","0.1","1","3","",""
"animation","159","170562","0.0-5.0-2.77","60fcf7102d7c9907d95a0920","bdp_cybrbll","Thu Apr 13 2023 09:50:21 GMT-0700 (PDT)","444093","1","3","","","","","","","","","","148","","","","1","3","[{""stimulus"":""img/1to3/1.png"",""time"":100},{""stimulus"":""img/1to3/2.png"",""time"":200},{""stimulus"":""img/1to3/3.png"",""time"":300},{""stimulus"":""img/1to3/4.png"",""time"":399},{""stimulus"":""img/1to3/5.png"",""time"":500},{""stimulus"":""img/1to3/6.png"",""time"":600},{""stimulus"":""img/1to3/7.png"",""time"":700},{""stimulus"":""img/1to3/8.png"",""time"":799},{""stimulus"":""img/1to3/9.png"",""time"":899},{""stimulus"":""img/1to3/10.png"",""time"":999},{""stimulus"":""img/1to3/11.png"",""time"":1099},{""stimulus"":""img/1to3/12.png"",""time"":1199}]","[]"
"image-keyboard-response","160","171256","0.0-5.0-1.78","60fcf7102d7c9907d95a0920","bdp_cybrbll","Thu Apr 13 2023 09:50:21 GMT-0700 (PDT)","444093","1","3","","null","","","","observe","","img/3to2/1.png","null","147","691","0.5","0.1","3","1","",""
"animation","161","172557","0.0-5.0-2.78","60fcf7102d7c9907d95a0920","bdp_cybrbll","Thu Apr 13 2023 09:50:21 GMT-0700 (PDT)","444093","1","3","","","","","","","","","","147","","","","3","1","[{""stimulus"":""img/3to1/1.png"",""time"":101},{""stimulus"":""img/3to1/2.png"",""time"":201},{""stimulus"":""img/3to1/3.png"",""time"":301},{""stimulus"":""img/3to1/4.png"",""time"":401},{""stimulus"":""img/3to1/5.png"",""time"":501},{""stimulus"":""img/3to1/6.png"",""time"":601},{""stimulus"":""img/3to1/7.png"",""time"":701},{""stimulus"":""img/3to1/8.png"",""time"":801},{""stimulus"":""img/3to1/9.png"",""time"":901},{""stimulus"":""img/3to1/10.png"",""time"":1001},{""stimulus"":""img/3to1/11.png"",""time"":1101},{""stimulus"":""img/3to1/12.png"",""time"":1201}]","[]"
"image-keyboard-response","162","173233","0.0-5.0-1.79","60fcf7102d7c9907d95a0920","bdp_cybrbll","Thu Apr 13 2023 09:50:21 GMT-0700 (PDT)","444093","1","3","","null","","","","observe","","img/1to3/1.png","null","146","674","0.5","0.1","1","2","",""
"animation","163","174537","0.0-5.0-2.79","60fcf7102d7c9907d95a0920","bdp_cybrbll","Thu Apr 13 2023 09:50:21 GMT-0700 (PDT)","444093","1","3","","","","","","","","","","146","","","","1","2","[{""stimulus"":""img/1to2/1.png"",""time"":100},{""stimulus"":""img/1to2/2.png"",""time"":200},{""stimulus"":""img/1to2/3.png"",""time"":300},{""stimulus"":""img/1to2/4.png"",""time"":400},{""stimulus"":""img/1to2/5.png"",""time"":500},{""stimulus"":""img/1to2/6.png"",""time"":601},{""stimulus"":""img/1to2/7.png"",""time"":701},{""stimulus"":""img/1to2/8.png"",""time"":801},{""stimulus"":""img/1to2/9.png"",""time"":901},{""stimulus"":""img/1to2/10.png"",""time"":1001},{""stimulus"":""img/1to2/11.png"",""time"":1101},{""stimulus"":""img/1to2/12.png"",""time"":1201}]","[]"
"image-keyboard-response","164","175014","0.0-5.0-1.80","60fcf7102d7c9907d95a0920","bdp_cybrbll","Thu Apr 13 2023 09:50:21 GMT-0700 (PDT)","444093","1","3","","474","","","","choice","","img/2to1/1.png","2","145","502","0.5","0.1","2","3","",""
"animation","165","176315","0.0-5.0-2.80","60fcf7102d7c9907d95a0920","bdp_cybrbll","Thu Apr 13 2023 09:50:21 GMT-0700 (PDT)","444093","1","3","","","","","","","","","","145","","","","2","3","[{""stimulus"":""img/2to3/1.png"",""time"":101},{""stimulus"":""img/2to3/2.png"",""time"":201},{""stimulus"":""img/2to3/3.png"",""time"":301},{""stimulus"":""img/2to3/4.png"",""time"":401},{""stimulus"":""img/2to3/5.png"",""time"":501},{""stimulus"":""img/2to3/6.png"",""time"":601},{""stimulus"":""img/2to3/7.png"",""time"":701},{""stimulus"":""img/2to3/8.png"",""time"":801},{""stimulus"":""img/2to3/9.png"",""time"":901},{""stimulus"":""img/2to3/10.png"",""time"":1001},{""stimulus"":""img/2to3/11.png"",""time"":1101},{""stimulus"":""img/2to3/12.png"",""time"":1201}]","[]"
"image-keyboard-response","166","176764","0.0-5.0-1.81","60fcf7102d7c9907d95a0920","bdp_cybrbll","Thu Apr 13 2023 09:50:21 GMT-0700 (PDT)","444093","1","3","","null","","","","observe","","img/3to2/1.png","null","144","446","0.5","0.1","3","2","",""
"animation","167","178065","0.0-5.0-2.81","60fcf7102d7c9907d95a0920","bdp_cybrbll","Thu Apr 13 2023 09:50:21 GMT-0700 (PDT)","444093","1","3","","","","","","","","","","144","","","","3","2","[{""stimulus"":""img/3to2/1.png"",""time"":100},{""stimulus"":""img/3to2/2.png"",""time"":200},{""stimulus"":""img/3to2/3.png"",""time"":300},{""stimulus"":""img/3to2/4.png"",""time"":400},{""stimulus"":""img/3to2/5.png"",""time"":500},{""stimulus"":""img/3to2/6.png"",""time"":600},{""stimulus"":""img/3to2/7.png"",""time"":700},{""stimulus"":""img/3to2/8.png"",""time"":800},{""stimulus"":""img/3to2/9.png"",""time"":900},{""stimulus"":""img/3to2/10.png"",""time"":1000},{""stimulus"":""img/3to2/11.png"",""time"":1100},{""stimulus"":""img/3to2/12.png"",""time"":1200}]","[]"
"image-keyboard-response","168","179643","0.0-5.0-1.82","60fcf7102d7c9907d95a0920","bdp_cybrbll","Thu Apr 13 2023 09:50:21 GMT-0700 (PDT)","444093","1","3","","1578","","","","choice","","img/2to1/1.png","2","143","334","0.5","0.1","2","3","",""
"animation","169","180944","0.0-5.0-2.82","60fcf7102d7c9907d95a0920","bdp_cybrbll","Thu Apr 13 2023 09:50:21 GMT-0700 (PDT)","444093","1","3","","","","","","","","","","143","","","","2","3","[{""stimulus"":""img/2to3/1.png"",""time"":101},{""stimulus"":""img/2to3/2.png"",""time"":201},{""stimulus"":""img/2to3/3.png"",""time"":301},{""stimulus"":""img/2to3/4.png"",""time"":401},{""stimulus"":""img/2to3/5.png"",""time"":501},{""stimulus"":""img/2to3/6.png"",""time"":600},{""stimulus"":""img/2to3/7.png"",""time"":700},{""stimulus"":""img/2to3/8.png"",""time"":801},{""stimulus"":""img/2to3/9.png"",""time"":901},{""stimulus"":""img/2to3/10.png"",""time"":1001},{""stimulus"":""img/2to3/11.png"",""time"":1101},{""stimulus"":""img/2to3/12.png"",""time"":1201}]","[]"
"image-keyboard-response","170","181386","0.0-5.0-1.83","60fcf7102d7c9907d95a0920","bdp_cybrbll","Thu Apr 13 2023 09:50:21 GMT-0700 (PDT)","444093","1","3","","null","","","","observe","","img/3to2/1.png","null","142","440","0.5","0.1","3","1","",""
"animation","171","182685","0.0-5.0-2.83","60fcf7102d7c9907d95a0920","bdp_cybrbll","Thu Apr 13 2023 09:50:21 GMT-0700 (PDT)","444093","1","3","","","","","","","","","","142","","","","3","1","[{""stimulus"":""img/3to1/1.png"",""time"":101},{""stimulus"":""img/3to1/2.png"",""time"":200},{""stimulus"":""img/3to1/3.png"",""time"":300},{""stimulus"":""img/3to1/4.png"",""time"":400},{""stimulus"":""img/3to1/5.png"",""time"":500},{""stimulus"":""img/3to1/6.png"",""time"":600},{""stimulus"":""img/3to1/7.png"",""time"":700},{""stimulus"":""img/3to1/8.png"",""time"":800},{""stimulus"":""img/3to1/9.png"",""time"":899},{""stimulus"":""img/3to1/10.png"",""time"":999},{""stimulus"":""img/3to1/11.png"",""time"":1099},{""stimulus"":""img/3to1/12.png"",""time"":1199}]","[]"
"image-keyboard-response","172","183038","0.0-5.0-1.84","60fcf7102d7c9907d95a0920","bdp_cybrbll","Thu Apr 13 2023 09:50:21 GMT-0700 (PDT)","444093","1","3","","null","","","","observe","","img/1to3/1.png","null","141","350","0.5","0.1","1","3","",""
"animation","173","184339","0.0-5.0-2.84","60fcf7102d7c9907d95a0920","bdp_cybrbll","Thu Apr 13 2023 09:50:21 GMT-0700 (PDT)","444093","1","3","","","","","","","","","","141","","","","1","3","[{""stimulus"":""img/1to3/1.png"",""time"":101},{""stimulus"":""img/1to3/2.png"",""time"":201},{""stimulus"":""img/1to3/3.png"",""time"":301},{""stimulus"":""img/1to3/4.png"",""time"":401},{""stimulus"":""img/1to3/5.png"",""time"":501},{""stimulus"":""img/1to3/6.png"",""time"":601},{""stimulus"":""img/1to3/7.png"",""time"":701},{""stimulus"":""img/1to3/8.png"",""time"":801},{""stimulus"":""img/1to3/9.png"",""time"":901},{""stimulus"":""img/1to3/10.png"",""time"":1001},{""stimulus"":""img/1to3/11.png"",""time"":1101},{""stimulus"":""img/1to3/12.png"",""time"":1201}]","[]"
"image-keyboard-response","174","185118","0.0-5.0-1.85","60fcf7102d7c9907d95a0920","bdp_cybrbll","Thu Apr 13 2023 09:50:21 GMT-0700 (PDT)","444093","1","3","","null","","","","observe","","img/3to2/1.png","null","140","776","0.5","0.1","3","2","",""
"animation","175","186420","0.0-5.0-2.85","60fcf7102d7c9907d95a0920","bdp_cybrbll","Thu Apr 13 2023 09:50:21 GMT-0700 (PDT)","444093","1","3","","","","","","","","","","140","","","","3","2","[{""stimulus"":""img/3to2/1.png"",""time"":100},{""stimulus"":""img/3to2/2.png"",""time"":200},{""stimulus"":""img/3to2/3.png"",""time"":300},{""stimulus"":""img/3to2/4.png"",""time"":400},{""stimulus"":""img/3to2/5.png"",""time"":500},{""stimulus"":""img/3to2/6.png"",""time"":600},{""stimulus"":""img/3to2/7.png"",""time"":700},{""stimulus"":""img/3to2/8.png"",""time"":801},{""stimulus"":""img/3to2/9.png"",""time"":901},{""stimulus"":""img/3to2/10.png"",""time"":1001},{""stimulus"":""img/3to2/11.png"",""time"":1101},{""stimulus"":""img/3to2/12.png"",""time"":1201}]","[]"
"image-keyboard-response","176","186655","0.0-5.0-1.86","60fcf7102d7c9907d95a0920","bdp_cybrbll","Thu Apr 13 2023 09:50:21 GMT-0700 (PDT)","444093","1","3","","234","","","","choice","","img/2to1/1.png","1","139","341","0.5","0.1","2","1","",""
"animation","177","187956","0.0-5.0-2.86","60fcf7102d7c9907d95a0920","bdp_cybrbll","Thu Apr 13 2023 09:50:21 GMT-0700 (PDT)","444093","1","3","","","","","","","","","","139","","","","2","1","[{""stimulus"":""img/2to1/1.png"",""time"":100},{""stimulus"":""img/2to1/2.png"",""time"":200},{""stimulus"":""img/2to1/3.png"",""time"":300},{""stimulus"":""img/2to1/4.png"",""time"":400},{""stimulus"":""img/2to1/5.png"",""time"":500},{""stimulus"":""img/2to1/6.png"",""time"":600},{""stimulus"":""img/2to1/7.png"",""time"":700},{""stimulus"":""img/2to1/8.png"",""time"":800},{""stimulus"":""img/2to1/9.png"",""time"":900},{""stimulus"":""img/2to1/10.png"",""time"":1000},{""stimulus"":""img/2to1/11.png"",""time"":1100},{""stimulus"":""img/2to1/12.png"",""time"":1200}]","[]"
"image-keyboard-response","178","189090","0.0-5.0-1.87","60fcf7102d7c9907d95a0920","bdp_cybrbll","Thu Apr 13 2023 09:50:21 GMT-0700 (PDT)","444093","1","3","","null","","","","observe","","img/1to3/1.png","null","138","1132","0.5","0.1","1","2","",""
"animation","179","190391","0.0-5.0-2.87","60fcf7102d7c9907d95a0920","bdp_cybrbll","Thu Apr 13 2023 09:50:21 GMT-0700 (PDT)","444093","1","3","","","","","","","","","","138","","","","1","2","[{""stimulus"":""img/1to2/1.png"",""time"":102},{""stimulus"":""img/1to2/2.png"",""time"":200},{""stimulus"":""img/1to2/3.png"",""time"":300},{""stimulus"":""img/1to2/4.png"",""time"":400},{""stimulus"":""img/1to2/5.png"",""time"":500},{""stimulus"":""img/1to2/6.png"",""time"":600},{""stimulus"":""img/1to2/7.png"",""time"":700},{""stimulus"":""img/1to2/8.png"",""time"":800},{""stimulus"":""img/1to2/9.png"",""time"":900},{""stimulus"":""img/1to2/10.png"",""time"":1000},{""stimulus"":""img/1to2/11.png"",""time"":1100},{""stimulus"":""img/1to2/12.png"",""time"":1200}]","[]"
"image-keyboard-response","180","190968","0.0-5.0-1.88","60fcf7102d7c9907d95a0920","bdp_cybrbll","Thu Apr 13 2023 09:50:21 GMT-0700 (PDT)","444093","1","3","","576","","","","choice","","img/2to1/1.png","2","137","510","0.5","0.1","2","3","",""
"animation","181","192270","0.0-5.0-2.88","60fcf7102d7c9907d95a0920","bdp_cybrbll","Thu Apr 13 2023 09:50:21 GMT-0700 (PDT)","444093","1","3","","","","","","","","","","137","","","","2","3","[{""stimulus"":""img/2to3/1.png"",""time"":101},{""stimulus"":""img/2to3/2.png"",""time"":200},{""stimulus"":""img/2to3/3.png"",""time"":300},{""stimulus"":""img/2to3/4.png"",""time"":400},{""stimulus"":""img/2to3/5.png"",""time"":500},{""stimulus"":""img/2to3/6.png"",""time"":600},{""stimulus"":""img/2to3/7.png"",""time"":700},{""stimulus"":""img/2to3/8.png"",""time"":800},{""stimulus"":""img/2to3/9.png"",""time"":900},{""stimulus"":""img/2to3/10.png"",""time"":1001},{""stimulus"":""img/2to3/11.png"",""time"":1101},{""stimulus"":""img/2to3/12.png"",""time"":1201}]","[]"
"image-keyboard-response","182","192633","0.0-5.0-1.89","60fcf7102d7c9907d95a0920","bdp_cybrbll","Thu Apr 13 2023 09:50:21 GMT-0700 (PDT)","444093","1","3","","null","","","","observe","","img/3to2/1.png","null","136","361","0.5","0.1","3","1","",""
"animation","183","193935","0.0-5.0-2.89","60fcf7102d7c9907d95a0920","bdp_cybrbll","Thu Apr 13 2023 09:50:21 GMT-0700 (PDT)","444093","1","3","","","","","","","","","","136","","","","3","1","[{""stimulus"":""img/3to1/1.png"",""time"":100},{""stimulus"":""img/3to1/2.png"",""time"":200},{""stimulus"":""img/3to1/3.png"",""time"":300},{""stimulus"":""img/3to1/4.png"",""time"":401},{""stimulus"":""img/3to1/5.png"",""time"":501},{""stimulus"":""img/3to1/6.png"",""time"":601},{""stimulus"":""img/3to1/7.png"",""time"":701},{""stimulus"":""img/3to1/8.png"",""time"":801},{""stimulus"":""img/3to1/9.png"",""time"":901},{""stimulus"":""img/3to1/10.png"",""time"":1001},{""stimulus"":""img/3to1/11.png"",""time"":1101},{""stimulus"":""img/3to1/12.png"",""time"":1201}]","[]"
"image-keyboard-response","184","194681","0.0-5.0-1.90","60fcf7102d7c9907d95a0920","bdp_cybrbll","Thu Apr 13 2023 09:50:21 GMT-0700 (PDT)","444093","1","3","","null","","","","observe","","img/1to3/1.png","null","135","744","0.5","0.1","1","3","",""
"animation","185","195982","0.0-5.0-2.90","60fcf7102d7c9907d95a0920","bdp_cybrbll","Thu Apr 13 2023 09:50:21 GMT-0700 (PDT)","444093","1","3","","","","","","","","","","135","","","","1","3","[{""stimulus"":""img/1to3/1.png"",""time"":100},{""stimulus"":""img/1to3/2.png"",""time"":200},{""stimulus"":""img/1to3/3.png"",""time"":300},{""stimulus"":""img/1to3/4.png"",""time"":400},{""stimulus"":""img/1to3/5.png"",""time"":500},{""stimulus"":""img/1to3/6.png"",""time"":600},{""stimulus"":""img/1to3/7.png"",""time"":700},{""stimulus"":""img/1to3/8.png"",""time"":800},{""stimulus"":""img/1to3/9.png"",""time"":900},{""stimulus"":""img/1to3/10.png"",""time"":1000},{""stimulus"":""img/1to3/11.png"",""time"":1100},{""stimulus"":""img/1to3/12.png"",""time"":1200}]","[]"
"image-keyboard-response","186","197142","0.0-5.0-1.91","60fcf7102d7c9907d95a0920","bdp_cybrbll","Thu Apr 13 2023 09:50:21 GMT-0700 (PDT)","444093","1","3","","null","","","","observe","","img/3to2/1.png","null","134","1158","0.5","0.1","3","1","",""
"animation","187","198443","0.0-5.0-2.91","60fcf7102d7c9907d95a0920","bdp_cybrbll","Thu Apr 13 2023 09:50:21 GMT-0700 (PDT)","444093","1","3","","","","","","","","","","134","","","","3","1","[{""stimulus"":""img/3to1/1.png"",""time"":100},{""stimulus"":""img/3to1/2.png"",""time"":200},{""stimulus"":""img/3to1/3.png"",""time"":299},{""stimulus"":""img/3to1/4.png"",""time"":399},{""stimulus"":""img/3to1/5.png"",""time"":499},{""stimulus"":""img/3to1/6.png"",""time"":599},{""stimulus"":""img/3to1/7.png"",""time"":699},{""stimulus"":""img/3to1/8.png"",""time"":799},{""stimulus"":""img/3to1/9.png"",""time"":899},{""stimulus"":""img/3to1/10.png"",""time"":999},{""stimulus"":""img/3to1/11.png"",""time"":1099},{""stimulus"":""img/3to1/12.png"",""time"":1199}]","[]"
"image-keyboard-response","188","199040","0.0-5.0-1.92","60fcf7102d7c9907d95a0920","bdp_cybrbll","Thu Apr 13 2023 09:50:21 GMT-0700 (PDT)","444093","1","3","","null","","","","observe","","img/1to3/1.png","null","133","595","0.5","0.1","1","2","",""
"animation","189","200342","0.0-5.0-2.92","60fcf7102d7c9907d95a0920","bdp_cybrbll","Thu Apr 13 2023 09:50:21 GMT-0700 (PDT)","444093","1","3","","","","","","","","","","133","","","","1","2","[{""stimulus"":""img/1to2/1.png"",""time"":100},{""stimulus"":""img/1to2/2.png"",""time"":200},{""stimulus"":""img/1to2/3.png"",""time"":300},{""stimulus"":""img/1to2/4.png"",""time"":400},{""stimulus"":""img/1to2/5.png"",""time"":501},{""stimulus"":""img/1to2/6.png"",""time"":601},{""stimulus"":""img/1to2/7.png"",""time"":701},{""stimulus"":""img/1to2/8.png"",""time"":801},{""stimulus"":""img/1to2/9.png"",""time"":901},{""stimulus"":""img/1to2/10.png"",""time"":1001},{""stimulus"":""img/1to2/11.png"",""time"":1101},{""stimulus"":""img/1to2/12.png"",""time"":1201}]","[]"
"image-keyboard-response","190","200465","0.0-5.0-1.93","60fcf7102d7c9907d95a0920","bdp_cybrbll","Thu Apr 13 2023 09:50:21 GMT-0700 (PDT)","444093","1","3","","121","","","","choice","","img/2to1/1.png","2","132","416","0.5","0.1","2","3","",""
"animation","191","201765","0.0-5.0-2.93","60fcf7102d7c9907d95a0920","bdp_cybrbll","Thu Apr 13 2023 09:50:21 GMT-0700 (PDT)","444093","1","3","","","","","","","","","","132","","","","2","3","[{""stimulus"":""img/2to3/1.png"",""time"":101},{""stimulus"":""img/2to3/2.png"",""time"":200},{""stimulus"":""img/2to3/3.png"",""time"":300},{""stimulus"":""img/2to3/4.png"",""time"":400},{""stimulus"":""img/2to3/5.png"",""time"":500},{""stimulus"":""img/2to3/6.png"",""time"":600},{""stimulus"":""img/2to3/7.png"",""time"":700},{""stimulus"":""img/2to3/8.png"",""time"":800},{""stimulus"":""img/2to3/9.png"",""time"":900},{""stimulus"":""img/2to3/10.png"",""time"":1000},{""stimulus"":""img/2to3/11.png"",""time"":1100},{""stimulus"":""img/2to3/12.png"",""time"":1200}]","[]"
"image-keyboard-response","192","201899","0.0-5.0-1.94","60fcf7102d7c9907d95a0920","bdp_cybrbll","Thu Apr 13 2023 09:50:21 GMT-0700 (PDT)","444093","1","3","","null","","","","observe","","img/3to2/1.png","null","131","131","0.5","0.1","3","1","",""
"animation","193","203200","0.0-5.0-2.94","60fcf7102d7c9907d95a0920","bdp_cybrbll","Thu Apr 13 2023 09:50:21 GMT-0700 (PDT)","444093","1","3","","","","","","","","","","131","","","","3","1","[{""stimulus"":""img/3to1/1.png"",""time"":100},{""stimulus"":""img/3to1/2.png"",""time"":200},{""stimulus"":""img/3to1/3.png"",""time"":300},{""stimulus"":""img/3to1/4.png"",""time"":400},{""stimulus"":""img/3to1/5.png"",""time"":500},{""stimulus"":""img/3to1/6.png"",""time"":600},{""stimulus"":""img/3to1/7.png"",""time"":700},{""stimulus"":""img/3to1/8.png"",""time"":800},{""stimulus"":""img/3to1/9.png"",""time"":900},{""stimulus"":""img/3to1/10.png"",""time"":1000},{""stimulus"":""img/3to1/11.png"",""time"":1100},{""stimulus"":""img/3to1/12.png"",""time"":1200}]","[]"
"image-keyboard-response","194","203973","0.0-5.0-1.95","60fcf7102d7c9907d95a0920","bdp_cybrbll","Thu Apr 13 2023 09:50:21 GMT-0700 (PDT)","444093","1","3","","null","","","","observe","","img/1to3/1.png","null","130","771","0.5","0.1","1","3","",""
"animation","195","205275","0.0-5.0-2.95","60fcf7102d7c9907d95a0920","bdp_cybrbll","Thu Apr 13 2023 09:50:21 GMT-0700 (PDT)","444093","1","3","","","","","","","","","","130","","","","1","3","[{""stimulus"":""img/1to3/1.png"",""time"":101},{""stimulus"":""img/1to3/2.png"",""time"":200},{""stimulus"":""img/1to3/3.png"",""time"":300},{""stimulus"":""img/1to3/4.png"",""time"":400},{""stimulus"":""img/1to3/5.png"",""time"":501},{""stimulus"":""img/1to3/6.png"",""time"":601},{""stimulus"":""img/1to3/7.png"",""time"":701},{""stimulus"":""img/1to3/8.png"",""time"":801},{""stimulus"":""img/1to3/9.png"",""time"":901},{""stimulus"":""img/1to3/10.png"",""time"":1001},{""stimulus"":""img/1to3/11.png"",""time"":1101},{""stimulus"":""img/1to3/12.png"",""time"":1201}]","[]"
"image-keyboard-response","196","205561","0.0-5.0-1.96","60fcf7102d7c9907d95a0920","bdp_cybrbll","Thu Apr 13 2023 09:50:21 GMT-0700 (PDT)","444093","1","3","","null","","","","observe","","img/3to2/1.png","null","129","284","0.5","0.1","3","1","",""
