"trial_type","trial_index","time_elapsed","internal_node_id","subject_id","task","startTime","totalTime","fairPartner","unfairPartner","view_history","rt","event","trial","time","trialtype","success","stimulus","key_press","throwsLeft","rtDur","pFair","pUnfair","holder","receiver","animation_sequence","responses"
"pavlovia","0","2","0.0-0.0","63ecff07b619306f41db42fa","bdp_cybrbll","Sat Mar 25 2023 21:29:29 GMT-0700 (Pacific Daylight Time)","450585","3","1","","","","","","","","","","","","","","","","",""
"instructions","1","5278","0.0-1.0","63ecff07b619306f41db42fa","bdp_cybrbll","Sat Mar 25 2023 21:29:29 GMT-0700 (Pacific Daylight Time)","450585","3","1","[{""page_index"":0,""viewing_time"":5276}]","5276","","","","","","","","","","","","","","",""
"","","","","63ecff07b619306f41db42fa","bdp_cybrbll","Sat Mar 25 2023 21:29:29 GMT-0700 (Pacific Daylight Time)","450585","3","1","","","fullscreenenter","2","10955","fullscreenenter","","","","","","","","","","",""
"fullscreen","2","11953","0.0-2.0","63ecff07b619306f41db42fa","bdp_cybrbll","Sat Mar 25 2023 21:29:29 GMT-0700 (Pacific Daylight Time)","450585","3","1","","","","","","","true","","","","","","","","","",""
"instructions","3","56329","0.0-4.0","63ecff07b619306f41db42fa","bdp_cybrbll","Sat Mar 25 2023 21:29:29 GMT-0700 (Pacific Daylight Time)","450585","3","1","[{""page_index"":0,""viewing_time"":44373}]","44374","","","","","","","","","","","","","","",""
"image-keyboard-response","4","58314","0.0-5.0-1.0","63ecff07b619306f41db42fa","bdp_cybrbll","Sat Mar 25 2023 21:29:29 GMT-0700 (Pacific Daylight Time)","450585","3","1","","1985","","","","choice","","img/2to1/1.png","1","225","620","0.5","0.5","2","1","",""
"animation","5","59602","0.0-5.0-2.0","63ecff07b619306f41db42fa","bdp_cybrbll","Sat Mar 25 2023 21:29:29 GMT-0700 (Pacific Daylight Time)","450585","3","1","","","","","","","","","","225","","","","2","1","[{""stimulus"":""img/2to1/1.png"",""time"":101},{""stimulus"":""img/2to1/2.png"",""time"":199},{""stimulus"":""img/2to1/3.png"",""time"":299},{""stimulus"":""img/2to1/4.png"",""time"":397},{""stimulus"":""img/2to1/5.png"",""time"":496},{""stimulus"":""img/2to1/6.png"",""time"":595},{""stimulus"":""img/2to1/7.png"",""time"":695},{""stimulus"":""img/2to1/8.png"",""time"":793},{""stimulus"":""img/2to1/9.png"",""time"":892},{""stimulus"":""img/2to1/10.png"",""time"":991},{""stimulus"":""img/2to1/11.png"",""time"":1090},{""stimulus"":""img/2to1/12.png"",""time"":1189}]","[]"
"image-keyboard-response","6","59936","0.0-5.0-1.1","63ecff07b619306f41db42fa","bdp_cybrbll","Sat Mar 25 2023 21:29:29 GMT-0700 (Pacific Daylight Time)","450585","3","1","","null","","","","observe","","img/1to3/1.png","null","224","331","0.5","0.5","1","3","",""
"animation","7","61224","0.0-5.0-2.1","63ecff07b619306f41db42fa","bdp_cybrbll","Sat Mar 25 2023 21:29:29 GMT-0700 (Pacific Daylight Time)","450585","3","1","","","","","","","","","","224","","","","1","3","[{""stimulus"":""img/1to3/1.png"",""time"":101},{""stimulus"":""img/1to3/2.png"",""time"":199},{""stimulus"":""img/1to3/3.png"",""time"":298},{""stimulus"":""img/1to3/4.png"",""time"":397},{""stimulus"":""img/1to3/5.png"",""time"":496},{""stimulus"":""img/1to3/6.png"",""time"":594},{""stimulus"":""img/1to3/7.png"",""time"":694},{""stimulus"":""img/1to3/8.png"",""time"":793},{""stimulus"":""img/1to3/9.png"",""time"":892},{""stimulus"":""img/1to3/10.png"",""time"":991},{""stimulus"":""img/1to3/11.png"",""time"":1091},{""stimulus"":""img/1to3/12.png"",""time"":1189}]","[]"
"image-keyboard-response","8","61536","0.0-5.0-1.2","63ecff07b619306f41db42fa","bdp_cybrbll","Sat Mar 25 2023 21:29:29 GMT-0700 (Pacific Daylight Time)","450585","3","1","","null","","","","observe","","img/3to2/1.png","null","223","310","0.5","0.5","3","1","",""
"animation","9","62824","0.0-5.0-2.2","63ecff07b619306f41db42fa","bdp_cybrbll","Sat Mar 25 2023 21:29:29 GMT-0700 (Pacific Daylight Time)","450585","3","1","","","","","","","","","","223","","","","3","1","[{""stimulus"":""img/3to1/1.png"",""time"":99},{""stimulus"":""img/3to1/2.png"",""time"":198},{""stimulus"":""img/3to1/3.png"",""time"":297},{""stimulus"":""img/3to1/4.png"",""time"":397},{""stimulus"":""img/3to1/5.png"",""time"":495},{""stimulus"":""img/3to1/6.png"",""time"":595},{""stimulus"":""img/3to1/7.png"",""time"":694},{""stimulus"":""img/3to1/8.png"",""time"":793},{""stimulus"":""img/3to1/9.png"",""time"":891},{""stimulus"":""img/3to1/10.png"",""time"":991},{""stimulus"":""img/3to1/11.png"",""time"":1090},{""stimulus"":""img/3to1/12.png"",""time"":1189}]","[]"
"image-keyboard-response","10","63379","0.0-5.0-1.3","63ecff07b619306f41db42fa","bdp_cybrbll","Sat Mar 25 2023 21:29:29 GMT-0700 (Pacific Daylight Time)","450585","3","1","","null","","","","observe","","img/1to3/1.png","null","222","552","0.5","0.5","1","3","",""
"animation","11","64667","0.0-5.0-2.3","63ecff07b619306f41db42fa","bdp_cybrbll","Sat Mar 25 2023 21:29:29 GMT-0700 (Pacific Daylight Time)","450585","3","1","","","","","","","","","","222","","","","1","3","[{""stimulus"":""img/1to3/1.png"",""time"":100},{""stimulus"":""img/1to3/2.png"",""time"":199},{""stimulus"":""img/1to3/3.png"",""time"":298},{""stimulus"":""img/1to3/4.png"",""time"":397},{""stimulus"":""img/1to3/5.png"",""time"":496},{""stimulus"":""img/1to3/6.png"",""time"":595},{""stimulus"":""img/1to3/7.png"",""time"":694},{""stimulus"":""img/1to3/8.png"",""time"":794},{""stimulus"":""img/1to3/9.png"",""time"":892},{""stimulus"":""img/1to3/10.png"",""time"":991},{""stimulus"":""img/1to3/11.png"",""time"":1090},{""stimulus"":""img/1to3/12.png"",""time"":1189}]","[]"
"image-keyboard-response","12","65285","0.0-5.0-1.4","63ecff07b619306f41db42fa","bdp_cybrbll","Sat Mar 25 2023 21:29:29 GMT-0700 (Pacific Daylight Time)","450585","3","1","","null","","","","observe","","img/3to2/1.png","null","221","616","0.5","0.5","3","1","",""
"animation","13","66573","0.0-5.0-2.4","63ecff07b619306f41db42fa","bdp_cybrbll","Sat Mar 25 2023 21:29:29 GMT-0700 (Pacific Daylight Time)","450585","3","1","","","","","","","","","","221","","","","3","1","[{""stimulus"":""img/3to1/1.png"",""time"":100},{""stimulus"":""img/3to1/2.png"",""time"":199},{""stimulus"":""img/3to1/3.png"",""time"":297},{""stimulus"":""img/3to1/4.png"",""time"":396},{""stimulus"":""img/3to1/5.png"",""time"":496},{""stimulus"":""img/3to1/6.png"",""time"":595},{""stimulus"":""img/3to1/7.png"",""time"":693},{""stimulus"":""img/3to1/8.png"",""time"":792},{""stimulus"":""img/3to1/9.png"",""time"":891},{""stimulus"":""img/3to1/10.png"",""time"":990},{""stimulus"":""img/3to1/11.png"",""time"":1089},{""stimulus"":""img/3to1/12.png"",""time"":1188}]","[]"
"image-keyboard-response","14","66780","0.0-5.0-1.5","63ecff07b619306f41db42fa","bdp_cybrbll","Sat Mar 25 2023 21:29:29 GMT-0700 (Pacific Daylight Time)","450585","3","1","","null","","","","observe","","img/1to3/1.png","null","220","206","0.5","0.5","1","2","",""
"animation","15","68068","0.0-5.0-2.5","63ecff07b619306f41db42fa","bdp_cybrbll","Sat Mar 25 2023 21:29:29 GMT-0700 (Pacific Daylight Time)","450585","3","1","","","","","","","","","","220","","","","1","2","[{""stimulus"":""img/1to2/1.png"",""time"":100},{""stimulus"":""img/1to2/2.png"",""time"":199},{""stimulus"":""img/1to2/3.png"",""time"":298},{""stimulus"":""img/1to2/4.png"",""time"":397},{""stimulus"":""img/1to2/5.png"",""time"":496},{""stimulus"":""img/1to2/6.png"",""time"":596},{""stimulus"":""img/1to2/7.png"",""time"":695},{""stimulus"":""img/1to2/8.png"",""time"":793},{""stimulus"":""img/1to2/9.png"",""time"":892},{""stimulus"":""img/1to2/10.png"",""time"":992},{""stimulus"":""img/1to2/11.png"",""time"":1090},{""stimulus"":""img/1to2/12.png"",""time"":1189}]","[]"
"image-keyboard-response","16","68526","0.0-5.0-1.6","63ecff07b619306f41db42fa","bdp_cybrbll","Sat Mar 25 2023 21:29:29 GMT-0700 (Pacific Daylight Time)","450585","3","1","","458","","","","choice","","img/2to1/1.png","2","219","241","0.5","0.5","2","3","",""
"animation","17","69814","0.0-5.0-2.6","63ecff07b619306f41db42fa","bdp_cybrbll","Sat Mar 25 2023 21:29:29 GMT-0700 (Pacific Daylight Time)","450585","3","1","","","","","","","","","","219","","","","2","3","[{""stimulus"":""img/2to3/1.png"",""time"":100},{""stimulus"":""img/2to3/2.png"",""time"":199},{""stimulus"":""img/2to3/3.png"",""time"":298},{""stimulus"":""img/2to3/4.png"",""time"":398},{""stimulus"":""img/2to3/5.png"",""time"":496},{""stimulus"":""img/2to3/6.png"",""time"":595},{""stimulus"":""img/2to3/7.png"",""time"":693},{""stimulus"":""img/2to3/8.png"",""time"":793},{""stimulus"":""img/2to3/9.png"",""time"":891},{""stimulus"":""img/2to3/10.png"",""time"":990},{""stimulus"":""img/2to3/11.png"",""time"":1090},{""stimulus"":""img/2to3/12.png"",""time"":1189}]","[]"
"image-keyboard-response","18","70250","0.0-5.0-1.7","63ecff07b619306f41db42fa","bdp_cybrbll","Sat Mar 25 2023 21:29:29 GMT-0700 (Pacific Daylight Time)","450585","3","1","","null","","","","observe","","img/3to2/1.png","null","218","435","0.5","0.5","3","2","",""
"animation","19","71539","0.0-5.0-2.7","63ecff07b619306f41db42fa","bdp_cybrbll","Sat Mar 25 2023 21:29:29 GMT-0700 (Pacific Daylight Time)","450585","3","1","","","","","","","","","","218","","","","3","2","[{""stimulus"":""img/3to2/1.png"",""time"":100},{""stimulus"":""img/3to2/2.png"",""time"":199},{""stimulus"":""img/3to2/3.png"",""time"":298},{""stimulus"":""img/3to2/4.png"",""time"":398},{""stimulus"":""img/3to2/5.png"",""time"":496},{""stimulus"":""img/3to2/6.png"",""time"":596},{""stimulus"":""img/3to2/7.png"",""time"":695},{""stimulus"":""img/3to2/8.png"",""time"":793},{""stimulus"":""img/3to2/9.png"",""time"":892},{""stimulus"":""img/3to2/10.png"",""time"":991},{""stimulus"":""img/3to2/11.png"",""time"":1090},{""stimulus"":""img/3to2/12.png"",""time"":1189}]","[]"
"image-keyboard-response","20","71803","0.0-5.0-1.8","63ecff07b619306f41db42fa","bdp_cybrbll","Sat Mar 25 2023 21:29:29 GMT-0700 (Pacific Daylight Time)","450585","3","1","","263","","","","choice","","img/2to1/1.png","1","217","1098","0.5","0.5","2","1","",""
"animation","21","73091","0.0-5.0-2.8","63ecff07b619306f41db42fa","bdp_cybrbll","Sat Mar 25 2023 21:29:29 GMT-0700 (Pacific Daylight Time)","450585","3","1","","","","","","","","","","217","","","","2","1","[{""stimulus"":""img/2to1/1.png"",""time"":100},{""stimulus"":""img/2to1/2.png"",""time"":200},{""stimulus"":""img/2to1/3.png"",""time"":299},{""stimulus"":""img/2to1/4.png"",""time"":397},{""stimulus"":""img/2to1/5.png"",""time"":497},{""stimulus"":""img/2to1/6.png"",""time"":595},{""stimulus"":""img/2to1/7.png"",""time"":695},{""stimulus"":""img/2to1/8.png"",""time"":793},{""stimulus"":""img/2to1/9.png"",""time"":893},{""stimulus"":""img/2to1/10.png"",""time"":991},{""stimulus"":""img/2to1/11.png"",""time"":1090},{""stimulus"":""img/2to1/12.png"",""time"":1189}]","[]"
"image-keyboard-response","22","73464","0.0-5.0-1.9","63ecff07b619306f41db42fa","bdp_cybrbll","Sat Mar 25 2023 21:29:29 GMT-0700 (Pacific Daylight Time)","450585","3","1","","null","","","","observe","","img/1to3/1.png","null","216","372","0.5","0.5","1","2","",""
"animation","23","74753","0.0-5.0-2.9","63ecff07b619306f41db42fa","bdp_cybrbll","Sat Mar 25 2023 21:29:29 GMT-0700 (Pacific Daylight Time)","450585","3","1","","","","","","","","","","216","","","","1","2","[{""stimulus"":""img/1to2/1.png"",""time"":99},{""stimulus"":""img/1to2/2.png"",""time"":198},{""stimulus"":""img/1to2/3.png"",""time"":298},{""stimulus"":""img/1to2/4.png"",""time"":396},{""stimulus"":""img/1to2/5.png"",""time"":496},{""stimulus"":""img/1to2/6.png"",""time"":594},{""stimulus"":""img/1to2/7.png"",""time"":693},{""stimulus"":""img/1to2/8.png"",""time"":792},{""stimulus"":""img/1to2/9.png"",""time"":892},{""stimulus"":""img/1to2/10.png"",""time"":991},{""stimulus"":""img/1to2/11.png"",""time"":1089},{""stimulus"":""img/1to2/12.png"",""time"":1189}]","[]"
"image-keyboard-response","24","74886","0.0-5.0-1.10","63ecff07b619306f41db42fa","bdp_cybrbll","Sat Mar 25 2023 21:29:29 GMT-0700 (Pacific Daylight Time)","450585","3","1","","133","","","","choice","","img/2to1/1.png","2","215","514","0.5","0.5","2","3","",""
"animation","25","76174","0.0-5.0-2.10","63ecff07b619306f41db42fa","bdp_cybrbll","Sat Mar 25 2023 21:29:29 GMT-0700 (Pacific Daylight Time)","450585","3","1","","","","","","","","","","215","","","","2","3","[{""stimulus"":""img/2to3/1.png"",""time"":100},{""stimulus"":""img/2to3/2.png"",""time"":199},{""stimulus"":""img/2to3/3.png"",""time"":298},{""stimulus"":""img/2to3/4.png"",""time"":397},{""stimulus"":""img/2to3/5.png"",""time"":495},{""stimulus"":""img/2to3/6.png"",""time"":595},{""stimulus"":""img/2to3/7.png"",""time"":694},{""stimulus"":""img/2to3/8.png"",""time"":793},{""stimulus"":""img/2to3/9.png"",""time"":892},{""stimulus"":""img/2to3/10.png"",""time"":991},{""stimulus"":""img/2to3/11.png"",""time"":1090},{""stimulus"":""img/2to3/12.png"",""time"":1189}]","[]"
"image-keyboard-response","26","76481","0.0-5.0-1.11","63ecff07b619306f41db42fa","bdp_cybrbll","Sat Mar 25 2023 21:29:29 GMT-0700 (Pacific Daylight Time)","450585","3","1","","null","","","","observe","","img/3to2/1.png","null","214","306","0.5","0.5","3","2","",""
"animation","27","77769","0.0-5.0-2.11","63ecff07b619306f41db42fa","bdp_cybrbll","Sat Mar 25 2023 21:29:29 GMT-0700 (Pacific Daylight Time)","450585","3","1","","","","","","","","","","214","","","","3","2","[{""stimulus"":""img/3to2/1.png"",""time"":100},{""stimulus"":""img/3to2/2.png"",""time"":199},{""stimulus"":""img/3to2/3.png"",""time"":298},{""stimulus"":""img/3to2/4.png"",""time"":396},{""stimulus"":""img/3to2/5.png"",""time"":495},{""stimulus"":""img/3to2/6.png"",""time"":594},{""stimulus"":""img/3to2/7.png"",""time"":694},{""stimulus"":""img/3to2/8.png"",""time"":792},{""stimulus"":""img/3to2/9.png"",""time"":891},{""stimulus"":""img/3to2/10.png"",""time"":991},{""stimulus"":""img/3to2/11.png"",""time"":1090},{""stimulus"":""img/3to2/12.png"",""time"":1189}]","[]"
"image-keyboard-response","28","78104","0.0-5.0-1.12","63ecff07b619306f41db42fa","bdp_cybrbll","Sat Mar 25 2023 21:29:29 GMT-0700 (Pacific Daylight Time)","450585","3","1","","334","","","","choice","","img/2to1/1.png","2","213","859","0.5","0.5","2","3","",""
"animation","29","79393","0.0-5.0-2.12","63ecff07b619306f41db42fa","bdp_cybrbll","Sat Mar 25 2023 21:29:29 GMT-0700 (Pacific Daylight Time)","450585","3","1","","","","","","","","","","213","","","","2","3","[{""stimulus"":""img/2to3/1.png"",""time"":100},{""stimulus"":""img/2to3/2.png"",""time"":199},{""stimulus"":""img/2to3/3.png"",""time"":299},{""stimulus"":""img/2to3/4.png"",""time"":397},{""stimulus"":""img/2to3/5.png"",""time"":496},{""stimulus"":""img/2to3/6.png"",""time"":596},{""stimulus"":""img/2to3/7.png"",""time"":694},{""stimulus"":""img/2to3/8.png"",""time"":793},{""stimulus"":""img/2to3/9.png"",""time"":901},{""stimulus"":""img/2to3/10.png"",""time"":992},{""stimulus"":""img/2to3/11.png"",""time"":1090},{""stimulus"":""img/2to3/12.png"",""time"":1190}]","[]"
"image-keyboard-response","30","79731","0.0-5.0-1.13","63ecff07b619306f41db42fa","bdp_cybrbll","Sat Mar 25 2023 21:29:29 GMT-0700 (Pacific Daylight Time)","450585","3","1","","null","","","","observe","","img/3to2/1.png","null","212","337","0.5","0.5","3","2","",""
"animation","31","81019","0.0-5.0-2.13","63ecff07b619306f41db42fa","bdp_cybrbll","Sat Mar 25 2023 21:29:29 GMT-0700 (Pacific Daylight Time)","450585","3","1","","","","","","","","","","212","","","","3","2","[{""stimulus"":""img/3to2/1.png"",""time"":100},{""stimulus"":""img/3to2/2.png"",""time"":199},{""stimulus"":""img/3to2/3.png"",""time"":298},{""stimulus"":""img/3to2/4.png"",""time"":397},{""stimulus"":""img/3to2/5.png"",""time"":500},{""stimulus"":""img/3to2/6.png"",""time"":595},{""stimulus"":""img/3to2/7.png"",""time"":694},{""stimulus"":""img/3to2/8.png"",""time"":793},{""stimulus"":""img/3to2/9.png"",""time"":892},{""stimulus"":""img/3to2/10.png"",""time"":991},{""stimulus"":""img/3to2/11.png"",""time"":1090},{""stimulus"":""img/3to2/12.png"",""time"":1190}]","[]"
"image-keyboard-response","32","81293","0.0-5.0-1.14","63ecff07b619306f41db42fa","bdp_cybrbll","Sat Mar 25 2023 21:29:29 GMT-0700 (Pacific Daylight Time)","450585","3","1","","273","","","","choice","","img/2to1/1.png","2","211","585","0.5","0.5","2","3","",""
"animation","33","82581","0.0-5.0-2.14","63ecff07b619306f41db42fa","bdp_cybrbll","Sat Mar 25 2023 21:29:29 GMT-0700 (Pacific Daylight Time)","450585","3","1","","","","","","","","","","211","","","","2","3","[{""stimulus"":""img/2to3/1.png"",""time"":100},{""stimulus"":""img/2to3/2.png"",""time"":199},{""stimulus"":""img/2to3/3.png"",""time"":299},{""stimulus"":""img/2to3/4.png"",""time"":396},{""stimulus"":""img/2to3/5.png"",""time"":497},{""stimulus"":""img/2to3/6.png"",""time"":595},{""stimulus"":""img/2to3/7.png"",""time"":694},{""stimulus"":""img/2to3/8.png"",""time"":793},{""stimulus"":""img/2to3/9.png"",""time"":893},{""stimulus"":""img/2to3/10.png"",""time"":991},{""stimulus"":""img/2to3/11.png"",""time"":1104},{""stimulus"":""img/2to3/12.png"",""time"":1189}]","[]"
"image-keyboard-response","34","83762","0.0-5.0-1.15","63ecff07b619306f41db42fa","bdp_cybrbll","Sat Mar 25 2023 21:29:29 GMT-0700 (Pacific Daylight Time)","450585","3","1","","null","","","","observe","","img/3to2/1.png","null","210","1180","0.5","0.5","3","2","",""
"animation","35","85051","0.0-5.0-2.15","63ecff07b619306f41db42fa","bdp_cybrbll","Sat Mar 25 2023 21:29:29 GMT-0700 (Pacific Daylight Time)","450585","3","1","","","","","","","","","","210","","","","3","2","[{""stimulus"":""img/3to2/1.png"",""time"":100},{""stimulus"":""img/3to2/2.png"",""time"":199},{""stimulus"":""img/3to2/3.png"",""time"":297},{""stimulus"":""img/3to2/4.png"",""time"":396},{""stimulus"":""img/3to2/5.png"",""time"":496},{""stimulus"":""img/3to2/6.png"",""time"":594},{""stimulus"":""img/3to2/7.png"",""time"":694},{""stimulus"":""img/3to2/8.png"",""time"":793},{""stimulus"":""img/3to2/9.png"",""time"":891},{""stimulus"":""img/3to2/10.png"",""time"":991},{""stimulus"":""img/3to2/11.png"",""time"":1089},{""stimulus"":""img/3to2/12.png"",""time"":1188}]","[]"
"image-keyboard-response","36","85482","0.0-5.0-1.16","63ecff07b619306f41db42fa","bdp_cybrbll","Sat Mar 25 2023 21:29:29 GMT-0700 (Pacific Daylight Time)","450585","3","1","","431","","","","choice","","img/2to1/1.png","1","209","414","0.5","0.5","2","1","",""
"animation","37","86771","0.0-5.0-2.16","63ecff07b619306f41db42fa","bdp_cybrbll","Sat Mar 25 2023 21:29:29 GMT-0700 (Pacific Daylight Time)","450585","3","1","","","","","","","","","","209","","","","2","1","[{""stimulus"":""img/2to1/1.png"",""time"":100},{""stimulus"":""img/2to1/2.png"",""time"":200},{""stimulus"":""img/2to1/3.png"",""time"":298},{""stimulus"":""img/2to1/4.png"",""time"":398},{""stimulus"":""img/2to1/5.png"",""time"":496},{""stimulus"":""img/2to1/6.png"",""time"":594},{""stimulus"":""img/2to1/7.png"",""time"":693},{""stimulus"":""img/2to1/8.png"",""time"":793},{""stimulus"":""img/2to1/9.png"",""time"":892},{""stimulus"":""img/2to1/10.png"",""time"":991},{""stimulus"":""img/2to1/11.png"",""time"":1090},{""stimulus"":""img/2to1/12.png"",""time"":1189}]","[]"
"image-keyboard-response","38","87037","0.0-5.0-1.17","63ecff07b619306f41db42fa","bdp_cybrbll","Sat Mar 25 2023 21:29:29 GMT-0700 (Pacific Daylight Time)","450585","3","1","","null","","","","observe","","img/1to3/1.png","null","208","264","0.5","0.5","1","2","",""
"animation","39","88324","0.0-5.0-2.17","63ecff07b619306f41db42fa","bdp_cybrbll","Sat Mar 25 2023 21:29:29 GMT-0700 (Pacific Daylight Time)","450585","3","1","","","","","","","","","","208","","","","1","2","[{""stimulus"":""img/1to2/1.png"",""time"":100},{""stimulus"":""img/1to2/2.png"",""time"":199},{""stimulus"":""img/1to2/3.png"",""time"":297},{""stimulus"":""img/1to2/4.png"",""time"":397},{""stimulus"":""img/1to2/5.png"",""time"":496},{""stimulus"":""img/1to2/6.png"",""time"":595},{""stimulus"":""img/1to2/7.png"",""time"":693},{""stimulus"":""img/1to2/8.png"",""time"":792},{""stimulus"":""img/1to2/9.png"",""time"":892},{""stimulus"":""img/1to2/10.png"",""time"":992},{""stimulus"":""img/1to2/11.png"",""time"":1090},{""stimulus"":""img/1to2/12.png"",""time"":1188}]","[]"
"image-keyboard-response","40","88544","0.0-5.0-1.18","63ecff07b619306f41db42fa","bdp_cybrbll","Sat Mar 25 2023 21:29:29 GMT-0700 (Pacific Daylight Time)","450585","3","1","","220","","","","choice","","img/2to1/1.png","2","207","363","0.5","0.5","2","3","",""
"animation","41","89832","0.0-5.0-2.18","63ecff07b619306f41db42fa","bdp_cybrbll","Sat Mar 25 2023 21:29:29 GMT-0700 (Pacific Daylight Time)","450585","3","1","","","","","","","","","","207","","","","2","3","[{""stimulus"":""img/2to3/1.png"",""time"":100},{""stimulus"":""img/2to3/2.png"",""time"":199},{""stimulus"":""img/2to3/3.png"",""time"":299},{""stimulus"":""img/2to3/4.png"",""time"":397},{""stimulus"":""img/2to3/5.png"",""time"":496},{""stimulus"":""img/2to3/6.png"",""time"":595},{""stimulus"":""img/2to3/7.png"",""time"":694},{""stimulus"":""img/2to3/8.png"",""time"":793},{""stimulus"":""img/2to3/9.png"",""time"":892},{""stimulus"":""img/2to3/10.png"",""time"":991},{""stimulus"":""img/2to3/11.png"",""time"":1090},{""stimulus"":""img/2to3/12.png"",""time"":1189}]","[]"
"image-keyboard-response","42","90331","0.0-5.0-1.19","63ecff07b619306f41db42fa","bdp_cybrbll","Sat Mar 25 2023 21:29:29 GMT-0700 (Pacific Daylight Time)","450585","3","1","","null","","","","observe","","img/3to2/1.png","null","206","498","0.5","0.5","3","1","",""
"animation","43","91619","0.0-5.0-2.19","63ecff07b619306f41db42fa","bdp_cybrbll","Sat Mar 25 2023 21:29:29 GMT-0700 (Pacific Daylight Time)","450585","3","1","","","","","","","","","","206","","","","3","1","[{""stimulus"":""img/3to1/1.png"",""time"":100},{""stimulus"":""img/3to1/2.png"",""time"":200},{""stimulus"":""img/3to1/3.png"",""time"":298},{""stimulus"":""img/3to1/4.png"",""time"":398},{""stimulus"":""img/3to1/5.png"",""time"":496},{""stimulus"":""img/3to1/6.png"",""time"":595},{""stimulus"":""img/3to1/7.png"",""time"":694},{""stimulus"":""img/3to1/8.png"",""time"":793},{""stimulus"":""img/3to1/9.png"",""time"":892},{""stimulus"":""img/3to1/10.png"",""time"":991},{""stimulus"":""img/3to1/11.png"",""time"":1091},{""stimulus"":""img/3to1/12.png"",""time"":1189}]","[]"
"image-keyboard-response","44","91937","0.0-5.0-1.20","63ecff07b619306f41db42fa","bdp_cybrbll","Sat Mar 25 2023 21:29:29 GMT-0700 (Pacific Daylight Time)","450585","3","1","","null","","","","observe","","img/1to3/1.png","null","205","317","0.5","0.5","1","3","",""
"animation","45","93225","0.0-5.0-2.20","63ecff07b619306f41db42fa","bdp_cybrbll","Sat Mar 25 2023 21:29:29 GMT-0700 (Pacific Daylight Time)","450585","3","1","","","","","","","","","","205","","","","1","3","[{""stimulus"":""img/1to3/1.png"",""time"":101},{""stimulus"":""img/1to3/2.png"",""time"":198},{""stimulus"":""img/1to3/3.png"",""time"":297},{""stimulus"":""img/1to3/4.png"",""time"":396},{""stimulus"":""img/1to3/5.png"",""time"":495},{""stimulus"":""img/1to3/6.png"",""time"":594},{""stimulus"":""img/1to3/7.png"",""time"":693},{""stimulus"":""img/1to3/8.png"",""time"":792},{""stimulus"":""img/1to3/9.png"",""time"":892},{""stimulus"":""img/1to3/10.png"",""time"":991},{""stimulus"":""img/1to3/11.png"",""time"":1089},{""stimulus"":""img/1to3/12.png"",""time"":1189}]","[]"
"image-keyboard-response","46","93669","0.0-5.0-1.21","63ecff07b619306f41db42fa","bdp_cybrbll","Sat Mar 25 2023 21:29:29 GMT-0700 (Pacific Daylight Time)","450585","3","1","","null","","","","observe","","img/3to2/1.png","null","204","443","0.5","0.5","3","2","",""
"animation","47","94957","0.0-5.0-2.21","63ecff07b619306f41db42fa","bdp_cybrbll","Sat Mar 25 2023 21:29:29 GMT-0700 (Pacific Daylight Time)","450585","3","1","","","","","","","","","","204","","","","3","2","[{""stimulus"":""img/3to2/1.png"",""time"":100},{""stimulus"":""img/3to2/2.png"",""time"":198},{""stimulus"":""img/3to2/3.png"",""time"":298},{""stimulus"":""img/3to2/4.png"",""time"":397},{""stimulus"":""img/3to2/5.png"",""time"":495},{""stimulus"":""img/3to2/6.png"",""time"":595},{""stimulus"":""img/3to2/7.png"",""time"":695},{""stimulus"":""img/3to2/8.png"",""time"":793},{""stimulus"":""img/3to2/9.png"",""time"":893},{""stimulus"":""img/3to2/10.png"",""time"":991},{""stimulus"":""img/3to2/11.png"",""time"":1090},{""stimulus"":""img/3to2/12.png"",""time"":1189}]","[]"
"image-keyboard-response","48","95301","0.0-5.0-1.22","63ecff07b619306f41db42fa","bdp_cybrbll","Sat Mar 25 2023 21:29:29 GMT-0700 (Pacific Daylight Time)","450585","3","1","","344","","","","choice","","img/2to1/1.png","1","203","373","0.5","0.5","2","1","",""
"animation","49","96589","0.0-5.0-2.22","63ecff07b619306f41db42fa","bdp_cybrbll","Sat Mar 25 2023 21:29:29 GMT-0700 (Pacific Daylight Time)","450585","3","1","","","","","","","","","","203","","","","2","1","[{""stimulus"":""img/2to1/1.png"",""time"":100},{""stimulus"":""img/2to1/2.png"",""time"":199},{""stimulus"":""img/2to1/3.png"",""time"":298},{""stimulus"":""img/2to1/4.png"",""time"":397},{""stimulus"":""img/2to1/5.png"",""time"":496},{""stimulus"":""img/2to1/6.png"",""time"":596},{""stimulus"":""img/2to1/7.png"",""time"":694},{""stimulus"":""img/2to1/8.png"",""time"":794},{""stimulus"":""img/2to1/9.png"",""time"":892},{""stimulus"":""img/2to1/10.png"",""time"":991},{""stimulus"":""img/2to1/11.png"",""time"":1090},{""stimulus"":""img/2to1/12.png"",""time"":1189}]","[]"
"image-keyboard-response","50","96756","0.0-5.0-1.23","63ecff07b619306f41db42fa","bdp_cybrbll","Sat Mar 25 2023 21:29:29 GMT-0700 (Pacific Daylight Time)","450585","3","1","","null","","","","observe","","img/1to3/1.png","null","202","165","0.5","0.5","1","3","",""
"animation","51","98043","0.0-5.0-2.23","63ecff07b619306f41db42fa","bdp_cybrbll","Sat Mar 25 2023 21:29:29 GMT-0700 (Pacific Daylight Time)","450585","3","1","","","","","","","","","","202","","","","1","3","[{""stimulus"":""img/1to3/1.png"",""time"":100},{""stimulus"":""img/1to3/2.png"",""time"":199},{""stimulus"":""img/1to3/3.png"",""time"":298},{""stimulus"":""img/1to3/4.png"",""time"":396},{""stimulus"":""img/1to3/5.png"",""time"":495},{""stimulus"":""img/1to3/6.png"",""time"":595},{""stimulus"":""img/1to3/7.png"",""time"":694},{""stimulus"":""img/1to3/8.png"",""time"":792},{""stimulus"":""img/1to3/9.png"",""time"":892},{""stimulus"":""img/1to3/10.png"",""time"":991},{""stimulus"":""img/1to3/11.png"",""time"":1091},{""stimulus"":""img/1to3/12.png"",""time"":1189}]","[]"
"image-keyboard-response","52","99031","0.0-5.0-1.24","63ecff07b619306f41db42fa","bdp_cybrbll","Sat Mar 25 2023 21:29:29 GMT-0700 (Pacific Daylight Time)","450585","3","1","","null","","","","observe","","img/3to2/1.png","null","201","986","0.5","0.5","3","1","",""
"animation","53","100318","0.0-5.0-2.24","63ecff07b619306f41db42fa","bdp_cybrbll","Sat Mar 25 2023 21:29:29 GMT-0700 (Pacific Daylight Time)","450585","3","1","","","","","","","","","","201","","","","3","1","[{""stimulus"":""img/3to1/1.png"",""time"":100},{""stimulus"":""img/3to1/2.png"",""time"":199},{""stimulus"":""img/3to1/3.png"",""time"":298},{""stimulus"":""img/3to1/4.png"",""time"":397},{""stimulus"":""img/3to1/5.png"",""time"":496},{""stimulus"":""img/3to1/6.png"",""time"":595},{""stimulus"":""img/3to1/7.png"",""time"":694},{""stimulus"":""img/3to1/8.png"",""time"":793},{""stimulus"":""img/3to1/9.png"",""time"":892},{""stimulus"":""img/3to1/10.png"",""time"":991},{""stimulus"":""img/3to1/11.png"",""time"":1089},{""stimulus"":""img/3to1/12.png"",""time"":1188}]","[]"
"image-keyboard-response","54","101230","0.0-5.0-1.25","63ecff07b619306f41db42fa","bdp_cybrbll","Sat Mar 25 2023 21:29:29 GMT-0700 (Pacific Daylight Time)","450585","3","1","","null","","","","observe","","img/1to3/1.png","null","200","911","0.5","0.5","1","3","",""
"animation","55","102518","0.0-5.0-2.25","63ecff07b619306f41db42fa","bdp_cybrbll","Sat Mar 25 2023 21:29:29 GMT-0700 (Pacific Daylight Time)","450585","3","1","","","","","","","","","","200","","","","1","3","[{""stimulus"":""img/1to3/1.png"",""time"":101},{""stimulus"":""img/1to3/2.png"",""time"":199},{""stimulus"":""img/1to3/3.png"",""time"":299},{""stimulus"":""img/1to3/4.png"",""time"":397},{""stimulus"":""img/1to3/5.png"",""time"":497},{""stimulus"":""img/1to3/6.png"",""time"":595},{""stimulus"":""img/1to3/7.png"",""time"":694},{""stimulus"":""img/1to3/8.png"",""time"":793},{""stimulus"":""img/1to3/9.png"",""time"":893},{""stimulus"":""img/1to3/10.png"",""time"":992},{""stimulus"":""img/1to3/11.png"",""time"":1090},{""stimulus"":""img/1to3/12.png"",""time"":1189}]","[]"
"image-keyboard-response","56","103071","0.0-5.0-1.26","63ecff07b619306f41db42fa","bdp_cybrbll","Sat Mar 25 2023 21:29:29 GMT-0700 (Pacific Daylight Time)","450585","3","1","","null","","","","observe","","img/3to2/1.png","null","199","550","0.5","0.5","3","1","",""
"animation","57","104358","0.0-5.0-2.26","63ecff07b619306f41db42fa","bdp_cybrbll","Sat Mar 25 2023 21:29:29 GMT-0700 (Pacific Daylight Time)","450585","3","1","","","","","","","","","","199","","","","3","1","[{""stimulus"":""img/3to1/1.png"",""time"":99},{""stimulus"":""img/3to1/2.png"",""time"":199},{""stimulus"":""img/3to1/3.png"",""time"":297},{""stimulus"":""img/3to1/4.png"",""time"":398},{""stimulus"":""img/3to1/5.png"",""time"":496},{""stimulus"":""img/3to1/6.png"",""time"":595},{""stimulus"":""img/3to1/7.png"",""time"":693},{""stimulus"":""img/3to1/8.png"",""time"":793},{""stimulus"":""img/3to1/9.png"",""time"":891},{""stimulus"":""img/3to1/10.png"",""time"":990},{""stimulus"":""img/3to1/11.png"",""time"":1090},{""stimulus"":""img/3to1/12.png"",""time"":1188}]","[]"
"image-keyboard-response","58","105179","0.0-5.0-1.27","63ecff07b619306f41db42fa","bdp_cybrbll","Sat Mar 25 2023 21:29:29 GMT-0700 (Pacific Daylight Time)","450585","3","1","","null","","","","observe","","img/1to3/1.png","null","198","819","0.5","0.5","1","2","",""
"animation","59","106467","0.0-5.0-2.27","63ecff07b619306f41db42fa","bdp_cybrbll","Sat Mar 25 2023 21:29:29 GMT-0700 (Pacific Daylight Time)","450585","3","1","","","","","","","","","","198","","","","1","2","[{""stimulus"":""img/1to2/1.png"",""time"":101},{""stimulus"":""img/1to2/2.png"",""time"":199},{""stimulus"":""img/1to2/3.png"",""time"":298},{""stimulus"":""img/1to2/4.png"",""time"":397},{""stimulus"":""img/1to2/5.png"",""time"":495},{""stimulus"":""img/1to2/6.png"",""time"":594},{""stimulus"":""img/1to2/7.png"",""time"":693},{""stimulus"":""img/1to2/8.png"",""time"":792},{""stimulus"":""img/1to2/9.png"",""time"":891},{""stimulus"":""img/1to2/10.png"",""time"":991},{""stimulus"":""img/1to2/11.png"",""time"":1089},{""stimulus"":""img/1to2/12.png"",""time"":1188}]","[]"
"image-keyboard-response","60","106859","0.0-5.0-1.28","63ecff07b619306f41db42fa","bdp_cybrbll","Sat Mar 25 2023 21:29:29 GMT-0700 (Pacific Daylight Time)","450585","3","1","","392","","","","choice","","img/2to1/1.png","1","197","293","0.5","0.5","2","1","",""
"animation","61","108147","0.0-5.0-2.28","63ecff07b619306f41db42fa","bdp_cybrbll","Sat Mar 25 2023 21:29:29 GMT-0700 (Pacific Daylight Time)","450585","3","1","","","","","","","","","","197","","","","2","1","[{""stimulus"":""img/2to1/1.png"",""time"":100},{""stimulus"":""img/2to1/2.png"",""time"":199},{""stimulus"":""img/2to1/3.png"",""time"":310},{""stimulus"":""img/2to1/4.png"",""time"":398},{""stimulus"":""img/2to1/5.png"",""time"":497},{""stimulus"":""img/2to1/6.png"",""time"":595},{""stimulus"":""img/2to1/7.png"",""time"":694},{""stimulus"":""img/2to1/8.png"",""time"":793},{""stimulus"":""img/2to1/9.png"",""time"":892},{""stimulus"":""img/2to1/10.png"",""time"":991},{""stimulus"":""img/2to1/11.png"",""time"":1089},{""stimulus"":""img/2to1/12.png"",""time"":1189}]","[]"
"image-keyboard-response","62","108550","0.0-5.0-1.29","63ecff07b619306f41db42fa","bdp_cybrbll","Sat Mar 25 2023 21:29:29 GMT-0700 (Pacific Daylight Time)","450585","3","1","","null","","","","observe","","img/1to3/1.png","null","196","402","0.5","0.5","1","3","",""
"animation","63","109838","0.0-5.0-2.29","63ecff07b619306f41db42fa","bdp_cybrbll","Sat Mar 25 2023 21:29:29 GMT-0700 (Pacific Daylight Time)","450585","3","1","","","","","","","","","","196","","","","1","3","[{""stimulus"":""img/1to3/1.png"",""time"":100},{""stimulus"":""img/1to3/2.png"",""time"":199},{""stimulus"":""img/1to3/3.png"",""time"":298},{""stimulus"":""img/1to3/4.png"",""time"":397},{""stimulus"":""img/1to3/5.png"",""time"":496},{""stimulus"":""img/1to3/6.png"",""time"":595},{""stimulus"":""img/1to3/7.png"",""time"":693},{""stimulus"":""img/1to3/8.png"",""time"":793},{""stimulus"":""img/1to3/9.png"",""time"":892},{""stimulus"":""img/1to3/10.png"",""time"":991},{""stimulus"":""img/1to3/11.png"",""time"":1090},{""stimulus"":""img/1to3/12.png"",""time"":1189}]","[]"
"image-keyboard-response","64","110078","0.0-5.0-1.30","63ecff07b619306f41db42fa","bdp_cybrbll","Sat Mar 25 2023 21:29:29 GMT-0700 (Pacific Daylight Time)","450585","3","1","","null","","","","observe","","img/3to2/1.png","null","195","239","0.5","0.5","3","2","",""
"animation","65","111366","0.0-5.0-2.30","63ecff07b619306f41db42fa","bdp_cybrbll","Sat Mar 25 2023 21:29:29 GMT-0700 (Pacific Daylight Time)","450585","3","1","","","","","","","","","","195","","","","3","2","[{""stimulus"":""img/3to2/1.png"",""time"":101},{""stimulus"":""img/3to2/2.png"",""time"":199},{""stimulus"":""img/3to2/3.png"",""time"":299},{""stimulus"":""img/3to2/4.png"",""time"":398},{""stimulus"":""img/3to2/5.png"",""time"":496},{""stimulus"":""img/3to2/6.png"",""time"":595},{""stimulus"":""img/3to2/7.png"",""time"":694},{""stimulus"":""img/3to2/8.png"",""time"":793},{""stimulus"":""img/3to2/9.png"",""time"":893},{""stimulus"":""img/3to2/10.png"",""time"":991},{""stimulus"":""img/3to2/11.png"",""time"":1091},{""stimulus"":""img/3to2/12.png"",""time"":1189}]","[]"
"image-keyboard-response","66","111495","0.0-5.0-1.31","63ecff07b619306f41db42fa","bdp_cybrbll","Sat Mar 25 2023 21:29:29 GMT-0700 (Pacific Daylight Time)","450585","3","1","","129","","","","choice","","img/2to1/1.png","2","194","408","0.5","0.5","2","3","",""
"animation","67","112783","0.0-5.0-2.31","63ecff07b619306f41db42fa","bdp_cybrbll","Sat Mar 25 2023 21:29:29 GMT-0700 (Pacific Daylight Time)","450585","3","1","","","","","","","","","","194","","","","2","3","[{""stimulus"":""img/2to3/1.png"",""time"":100},{""stimulus"":""img/2to3/2.png"",""time"":199},{""stimulus"":""img/2to3/3.png"",""time"":298},{""stimulus"":""img/2to3/4.png"",""time"":398},{""stimulus"":""img/2to3/5.png"",""time"":496},{""stimulus"":""img/2to3/6.png"",""time"":596},{""stimulus"":""img/2to3/7.png"",""time"":694},{""stimulus"":""img/2to3/8.png"",""time"":793},{""stimulus"":""img/2to3/9.png"",""time"":892},{""stimulus"":""img/2to3/10.png"",""time"":993},{""stimulus"":""img/2to3/11.png"",""time"":1091},{""stimulus"":""img/2to3/12.png"",""time"":1189}]","[]"
"image-keyboard-response","68","113189","0.0-5.0-1.32","63ecff07b619306f41db42fa","bdp_cybrbll","Sat Mar 25 2023 21:29:29 GMT-0700 (Pacific Daylight Time)","450585","3","1","","null","","","","observe","","img/3to2/1.png","null","193","404","0.5","0.5","3","2","",""
"animation","69","114477","0.0-5.0-2.32","63ecff07b619306f41db42fa","bdp_cybrbll","Sat Mar 25 2023 21:29:29 GMT-0700 (Pacific Daylight Time)","450585","3","1","","","","","","","","","","193","","","","3","2","[{""stimulus"":""img/3to2/1.png"",""time"":100},{""stimulus"":""img/3to2/2.png"",""time"":199},{""stimulus"":""img/3to2/3.png"",""time"":298},{""stimulus"":""img/3to2/4.png"",""time"":397},{""stimulus"":""img/3to2/5.png"",""time"":496},{""stimulus"":""img/3to2/6.png"",""time"":595},{""stimulus"":""img/3to2/7.png"",""time"":693},{""stimulus"":""img/3to2/8.png"",""time"":793},{""stimulus"":""img/3to2/9.png"",""time"":905},{""stimulus"":""img/3to2/10.png"",""time"":991},{""stimulus"":""img/3to2/11.png"",""time"":1089},{""stimulus"":""img/3to2/12.png"",""time"":1189}]","[]"
"image-keyboard-response","70","114910","0.0-5.0-1.33","63ecff07b619306f41db42fa","bdp_cybrbll","Sat Mar 25 2023 21:29:29 GMT-0700 (Pacific Daylight Time)","450585","3","1","","433","","","","choice","","img/2to1/1.png","2","192","252","0.5","0.5","2","3","",""
"animation","71","116198","0.0-5.0-2.33","63ecff07b619306f41db42fa","bdp_cybrbll","Sat Mar 25 2023 21:29:29 GMT-0700 (Pacific Daylight Time)","450585","3","1","","","","","","","","","","192","","","","2","3","[{""stimulus"":""img/2to3/1.png"",""time"":100},{""stimulus"":""img/2to3/2.png"",""time"":198},{""stimulus"":""img/2to3/3.png"",""time"":298},{""stimulus"":""img/2to3/4.png"",""time"":397},{""stimulus"":""img/2to3/5.png"",""time"":496},{""stimulus"":""img/2to3/6.png"",""time"":595},{""stimulus"":""img/2to3/7.png"",""time"":694},{""stimulus"":""img/2to3/8.png"",""time"":793},{""stimulus"":""img/2to3/9.png"",""time"":892},{""stimulus"":""img/2to3/10.png"",""time"":991},{""stimulus"":""img/2to3/11.png"",""time"":1090},{""stimulus"":""img/2to3/12.png"",""time"":1189}]","[]"
"image-keyboard-response","72","116768","0.0-5.0-1.34","63ecff07b619306f41db42fa","bdp_cybrbll","Sat Mar 25 2023 21:29:29 GMT-0700 (Pacific Daylight Time)","450585","3","1","","null","","","","observe","","img/3to2/1.png","null","191","569","0.5","0.5","3","1","",""
"animation","73","118055","0.0-5.0-2.34","63ecff07b619306f41db42fa","bdp_cybrbll","Sat Mar 25 2023 21:29:29 GMT-0700 (Pacific Daylight Time)","450585","3","1","","","","","","","","","","191","","","","3","1","[{""stimulus"":""img/3to1/1.png"",""time"":100},{""stimulus"":""img/3to1/2.png"",""time"":199},{""stimulus"":""img/3to1/3.png"",""time"":298},{""stimulus"":""img/3to1/4.png"",""time"":396},{""stimulus"":""img/3to1/5.png"",""time"":495},{""stimulus"":""img/3to1/6.png"",""time"":594},{""stimulus"":""img/3to1/7.png"",""time"":694},{""stimulus"":""img/3to1/8.png"",""time"":793},{""stimulus"":""img/3to1/9.png"",""time"":892},{""stimulus"":""img/3to1/10.png"",""time"":991},{""stimulus"":""img/3to1/11.png"",""time"":1090},{""stimulus"":""img/3to1/12.png"",""time"":1189}]","[]"
"image-keyboard-response","74","118377","0.0-5.0-1.35","63ecff07b619306f41db42fa","bdp_cybrbll","Sat Mar 25 2023 21:29:29 GMT-0700 (Pacific Daylight Time)","450585","3","1","","null","","","","observe","","img/1to3/1.png","null","190","319","0.5","0.5","1","3","",""
"animation","75","119664","0.0-5.0-2.35","63ecff07b619306f41db42fa","bdp_cybrbll","Sat Mar 25 2023 21:29:29 GMT-0700 (Pacific Daylight Time)","450585","3","1","","","","","","","","","","190","","","","1","3","[{""stimulus"":""img/1to3/1.png"",""time"":100},{""stimulus"":""img/1to3/2.png"",""time"":198},{""stimulus"":""img/1to3/3.png"",""time"":298},{""stimulus"":""img/1to3/4.png"",""time"":397},{""stimulus"":""img/1to3/5.png"",""time"":496},{""stimulus"":""img/1to3/6.png"",""time"":595},{""stimulus"":""img/1to3/7.png"",""time"":693},{""stimulus"":""img/1to3/8.png"",""time"":793},{""stimulus"":""img/1to3/9.png"",""time"":891},{""stimulus"":""img/1to3/10.png"",""time"":991},{""stimulus"":""img/1to3/11.png"",""time"":1090},{""stimulus"":""img/1to3/12.png"",""time"":1189}]","[]"
"image-keyboard-response","76","120418","0.0-5.0-1.36","63ecff07b619306f41db42fa","bdp_cybrbll","Sat Mar 25 2023 21:29:29 GMT-0700 (Pacific Daylight Time)","450585","3","1","","null","","","","observe","","img/3to2/1.png","null","189","753","0.5","0.5","3","2","",""
"animation","77","121705","0.0-5.0-2.36","63ecff07b619306f41db42fa","bdp_cybrbll","Sat Mar 25 2023 21:29:29 GMT-0700 (Pacific Daylight Time)","450585","3","1","","","","","","","","","","189","","","","3","2","[{""stimulus"":""img/3to2/1.png"",""time"":101},{""stimulus"":""img/3to2/2.png"",""time"":199},{""stimulus"":""img/3to2/3.png"",""time"":299},{""stimulus"":""img/3to2/4.png"",""time"":397},{""stimulus"":""img/3to2/5.png"",""time"":496},{""stimulus"":""img/3to2/6.png"",""time"":594},{""stimulus"":""img/3to2/7.png"",""time"":694},{""stimulus"":""img/3to2/8.png"",""time"":792},{""stimulus"":""img/3to2/9.png"",""time"":892},{""stimulus"":""img/3to2/10.png"",""time"":990},{""stimulus"":""img/3to2/11.png"",""time"":1091},{""stimulus"":""img/3to2/12.png"",""time"":1189}]","[]"
"image-keyboard-response","78","121895","0.0-5.0-1.37","63ecff07b619306f41db42fa","bdp_cybrbll","Sat Mar 25 2023 21:29:29 GMT-0700 (Pacific Daylight Time)","450585","3","1","","189","","","","choice","","img/2to1/1.png","2","188","272","0.5","0.5","2","3","",""
"animation","79","123183","0.0-5.0-2.37","63ecff07b619306f41db42fa","bdp_cybrbll","Sat Mar 25 2023 21:29:29 GMT-0700 (Pacific Daylight Time)","450585","3","1","","","","","","","","","","188","","","","2","3","[{""stimulus"":""img/2to3/1.png"",""time"":101},{""stimulus"":""img/2to3/2.png"",""time"":199},{""stimulus"":""img/2to3/3.png"",""time"":299},{""stimulus"":""img/2to3/4.png"",""time"":397},{""stimulus"":""img/2to3/5.png"",""time"":497},{""stimulus"":""img/2to3/6.png"",""time"":595},{""stimulus"":""img/2to3/7.png"",""time"":694},{""stimulus"":""img/2to3/8.png"",""time"":794},{""stimulus"":""img/2to3/9.png"",""time"":892},{""stimulus"":""img/2to3/10.png"",""time"":991},{""stimulus"":""img/2to3/11.png"",""time"":1090},{""stimulus"":""img/2to3/12.png"",""time"":1189}]","[]"
"image-keyboard-response","80","123928","0.0-5.0-1.38","63ecff07b619306f41db42fa","bdp_cybrbll","Sat Mar 25 2023 21:29:29 GMT-0700 (Pacific Daylight Time)","450585","3","1","","null","","","","observe","","img/3to2/1.png","null","187","744","0.5","0.5","3","2","",""
"animation","81","125216","0.0-5.0-2.38","63ecff07b619306f41db42fa","bdp_cybrbll","Sat Mar 25 2023 21:29:29 GMT-0700 (Pacific Daylight Time)","450585","3","1","","","","","","","","","","187","","","","3","2","[{""stimulus"":""img/3to2/1.png"",""time"":100},{""stimulus"":""img/3to2/2.png"",""time"":199},{""stimulus"":""img/3to2/3.png"",""time"":299},{""stimulus"":""img/3to2/4.png"",""time"":397},{""stimulus"":""img/3to2/5.png"",""time"":496},{""stimulus"":""img/3to2/6.png"",""time"":595},{""stimulus"":""img/3to2/7.png"",""time"":694},{""stimulus"":""img/3to2/8.png"",""time"":794},{""stimulus"":""img/3to2/9.png"",""time"":892},{""stimulus"":""img/3to2/10.png"",""time"":992},{""stimulus"":""img/3to2/11.png"",""time"":1090},{""stimulus"":""img/3to2/12.png"",""time"":1189}]","[]"
"image-keyboard-response","82","125230","0.0-5.0-1.39","63ecff07b619306f41db42fa","bdp_cybrbll","Sat Mar 25 2023 21:29:29 GMT-0700 (Pacific Daylight Time)","450585","3","1","","14","","","","choice","","img/2to1/1.png","1","186","480","0.5","0.5","2","1","",""
"animation","83","126517","0.0-5.0-2.39","63ecff07b619306f41db42fa","bdp_cybrbll","Sat Mar 25 2023 21:29:29 GMT-0700 (Pacific Daylight Time)","450585","3","1","","","","","","","","","","186","","","","2","1","[{""stimulus"":""img/2to1/1.png"",""time"":100},{""stimulus"":""img/2to1/2.png"",""time"":198},{""stimulus"":""img/2to1/3.png"",""time"":298},{""stimulus"":""img/2to1/4.png"",""time"":397},{""stimulus"":""img/2to1/5.png"",""time"":496},{""stimulus"":""img/2to1/6.png"",""time"":596},{""stimulus"":""img/2to1/7.png"",""time"":693},{""stimulus"":""img/2to1/8.png"",""time"":793},{""stimulus"":""img/2to1/9.png"",""time"":892},{""stimulus"":""img/2to1/10.png"",""time"":992},{""stimulus"":""img/2to1/11.png"",""time"":1090},{""stimulus"":""img/2to1/12.png"",""time"":1189}]","[]"
"image-keyboard-response","84","126933","0.0-5.0-1.40","63ecff07b619306f41db42fa","bdp_cybrbll","Sat Mar 25 2023 21:29:29 GMT-0700 (Pacific Daylight Time)","450585","3","1","","null","","","","observe","","img/1to3/1.png","null","185","414","0.5","0.5","1","2","",""
"animation","85","128221","0.0-5.0-2.40","63ecff07b619306f41db42fa","bdp_cybrbll","Sat Mar 25 2023 21:29:29 GMT-0700 (Pacific Daylight Time)","450585","3","1","","","","","","","","","","185","","","","1","2","[{""stimulus"":""img/1to2/1.png"",""time"":100},{""stimulus"":""img/1to2/2.png"",""time"":198},{""stimulus"":""img/1to2/3.png"",""time"":297},{""stimulus"":""img/1to2/4.png"",""time"":396},{""stimulus"":""img/1to2/5.png"",""time"":495},{""stimulus"":""img/1to2/6.png"",""time"":595},{""stimulus"":""img/1to2/7.png"",""time"":693},{""stimulus"":""img/1to2/8.png"",""time"":793},{""stimulus"":""img/1to2/9.png"",""time"":892},{""stimulus"":""img/1to2/10.png"",""time"":991},{""stimulus"":""img/1to2/11.png"",""time"":1089},{""stimulus"":""img/1to2/12.png"",""time"":1188}]","[]"
"image-keyboard-response","86","128765","0.0-5.0-1.41","63ecff07b619306f41db42fa","bdp_cybrbll","Sat Mar 25 2023 21:29:29 GMT-0700 (Pacific Daylight Time)","450585","3","1","","543","","","","choice","","img/2to1/1.png","1","184","261","0.5","0.5","2","1","",""
"animation","87","130053","0.0-5.0-2.41","63ecff07b619306f41db42fa","bdp_cybrbll","Sat Mar 25 2023 21:29:29 GMT-0700 (Pacific Daylight Time)","450585","3","1","","","","","","","","","","184","","","","2","1","[{""stimulus"":""img/2to1/1.png"",""time"":101},{""stimulus"":""img/2to1/2.png"",""time"":200},{""stimulus"":""img/2to1/3.png"",""time"":299},{""stimulus"":""img/2to1/4.png"",""time"":397},{""stimulus"":""img/2to1/5.png"",""time"":496},{""stimulus"":""img/2to1/6.png"",""time"":595},{""stimulus"":""img/2to1/7.png"",""time"":694},{""stimulus"":""img/2to1/8.png"",""time"":793},{""stimulus"":""img/2to1/9.png"",""time"":892},{""stimulus"":""img/2to1/10.png"",""time"":991},{""stimulus"":""img/2to1/11.png"",""time"":1090},{""stimulus"":""img/2to1/12.png"",""time"":1189}]","[]"
"image-keyboard-response","88","130437","0.0-5.0-1.42","63ecff07b619306f41db42fa","bdp_cybrbll","Sat Mar 25 2023 21:29:29 GMT-0700 (Pacific Daylight Time)","450585","3","1","","null","","","","observe","","img/1to3/1.png","null","183","382","0.5","0.5","1","2","",""
"animation","89","131725","0.0-5.0-2.42","63ecff07b619306f41db42fa","bdp_cybrbll","Sat Mar 25 2023 21:29:29 GMT-0700 (Pacific Daylight Time)","450585","3","1","","","","","","","","","","183","","","","1","2","[{""stimulus"":""img/1to2/1.png"",""time"":101},{""stimulus"":""img/1to2/2.png"",""time"":200},{""stimulus"":""img/1to2/3.png"",""time"":298},{""stimulus"":""img/1to2/4.png"",""time"":398},{""stimulus"":""img/1to2/5.png"",""time"":497},{""stimulus"":""img/1to2/6.png"",""time"":595},{""stimulus"":""img/1to2/7.png"",""time"":695},{""stimulus"":""img/1to2/8.png"",""time"":793},{""stimulus"":""img/1to2/9.png"",""time"":892},{""stimulus"":""img/1to2/10.png"",""time"":992},{""stimulus"":""img/1to2/11.png"",""time"":1091},{""stimulus"":""img/1to2/12.png"",""time"":1189}]","[]"
"image-keyboard-response","90","131782","0.0-5.0-1.43","63ecff07b619306f41db42fa","bdp_cybrbll","Sat Mar 25 2023 21:29:29 GMT-0700 (Pacific Daylight Time)","450585","3","1","","57","","","","choice","","img/2to1/1.png","2","182","412","0.5","0.5","2","3","",""
"animation","91","133070","0.0-5.0-2.43","63ecff07b619306f41db42fa","bdp_cybrbll","Sat Mar 25 2023 21:29:29 GMT-0700 (Pacific Daylight Time)","450585","3","1","","","","","","","","","","182","","","","2","3","[{""stimulus"":""img/2to3/1.png"",""time"":101},{""stimulus"":""img/2to3/2.png"",""time"":199},{""stimulus"":""img/2to3/3.png"",""time"":298},{""stimulus"":""img/2to3/4.png"",""time"":398},{""stimulus"":""img/2to3/5.png"",""time"":496},{""stimulus"":""img/2to3/6.png"",""time"":595},{""stimulus"":""img/2to3/7.png"",""time"":695},{""stimulus"":""img/2to3/8.png"",""time"":793},{""stimulus"":""img/2to3/9.png"",""time"":892},{""stimulus"":""img/2to3/10.png"",""time"":991},{""stimulus"":""img/2to3/11.png"",""time"":1091},{""stimulus"":""img/2to3/12.png"",""time"":1190}]","[]"
"image-keyboard-response","92","133338","0.0-5.0-1.44","63ecff07b619306f41db42fa","bdp_cybrbll","Sat Mar 25 2023 21:29:29 GMT-0700 (Pacific Daylight Time)","450585","3","1","","null","","","","observe","","img/3to2/1.png","null","181","266","0.5","0.5","3","1","",""
"animation","93","134626","0.0-5.0-2.44","63ecff07b619306f41db42fa","bdp_cybrbll","Sat Mar 25 2023 21:29:29 GMT-0700 (Pacific Daylight Time)","450585","3","1","","","","","","","","","","181","","","","3","1","[{""stimulus"":""img/3to1/1.png"",""time"":99},{""stimulus"":""img/3to1/2.png"",""time"":199},{""stimulus"":""img/3to1/3.png"",""time"":298},{""stimulus"":""img/3to1/4.png"",""time"":397},{""stimulus"":""img/3to1/5.png"",""time"":496},{""stimulus"":""img/3to1/6.png"",""time"":594},{""stimulus"":""img/3to1/7.png"",""time"":694},{""stimulus"":""img/3to1/8.png"",""time"":793},{""stimulus"":""img/3to1/9.png"",""time"":892},{""stimulus"":""img/3to1/10.png"",""time"":991},{""stimulus"":""img/3to1/11.png"",""time"":1090},{""stimulus"":""img/3to1/12.png"",""time"":1190}]","[]"
"image-keyboard-response","94","135137","0.0-5.0-1.45","63ecff07b619306f41db42fa","bdp_cybrbll","Sat Mar 25 2023 21:29:29 GMT-0700 (Pacific Daylight Time)","450585","3","1","","null","","","","observe","","img/1to3/1.png","null","180","510","0.5","0.5","1","3","",""
"animation","95","136425","0.0-5.0-2.45","63ecff07b619306f41db42fa","bdp_cybrbll","Sat Mar 25 2023 21:29:29 GMT-0700 (Pacific Daylight Time)","450585","3","1","","","","","","","","","","180","","","","1","3","[{""stimulus"":""img/1to3/1.png"",""time"":100},{""stimulus"":""img/1to3/2.png"",""time"":199},{""stimulus"":""img/1to3/3.png"",""time"":298},{""stimulus"":""img/1to3/4.png"",""time"":397},{""stimulus"":""img/1to3/5.png"",""time"":497},{""stimulus"":""img/1to3/6.png"",""time"":596},{""stimulus"":""img/1to3/7.png"",""time"":694},{""stimulus"":""img/1to3/8.png"",""time"":793},{""stimulus"":""img/1to3/9.png"",""time"":896},{""stimulus"":""img/1to3/10.png"",""time"":991},{""stimulus"":""img/1to3/11.png"",""time"":1091},{""stimulus"":""img/1to3/12.png"",""time"":1189}]","[]"
"image-keyboard-response","96","136867","0.0-5.0-1.46","63ecff07b619306f41db42fa","bdp_cybrbll","Sat Mar 25 2023 21:29:29 GMT-0700 (Pacific Daylight Time)","450585","3","1","","null","","","","observe","","img/3to2/1.png","null","179","440","0.5","0.5","3","2","",""
"animation","97","138155","0.0-5.0-2.46","63ecff07b619306f41db42fa","bdp_cybrbll","Sat Mar 25 2023 21:29:29 GMT-0700 (Pacific Daylight Time)","450585","3","1","","","","","","","","","","179","","","","3","2","[{""stimulus"":""img/3to2/1.png"",""time"":100},{""stimulus"":""img/3to2/2.png"",""time"":199},{""stimulus"":""img/3to2/3.png"",""time"":297},{""stimulus"":""img/3to2/4.png"",""time"":396},{""stimulus"":""img/3to2/5.png"",""time"":496},{""stimulus"":""img/3to2/6.png"",""time"":594},{""stimulus"":""img/3to2/7.png"",""time"":694},{""stimulus"":""img/3to2/8.png"",""time"":793},{""stimulus"":""img/3to2/9.png"",""time"":891},{""stimulus"":""img/3to2/10.png"",""time"":991},{""stimulus"":""img/3to2/11.png"",""time"":1089},{""stimulus"":""img/3to2/12.png"",""time"":1188}]","[]"
"image-keyboard-response","98","138275","0.0-5.0-1.47","63ecff07b619306f41db42fa","bdp_cybrbll","Sat Mar 25 2023 21:29:29 GMT-0700 (Pacific Daylight Time)","450585","3","1","","119","","","","choice","","img/2to1/1.png","2","178","293","0.5","0.5","2","3","",""
"animation","99","139563","0.0-5.0-2.47","63ecff07b619306f41db42fa","bdp_cybrbll","Sat Mar 25 2023 21:29:29 GMT-0700 (Pacific Daylight Time)","450585","3","1","","","","","","","","","","178","","","","2","3","[{""stimulus"":""img/2to3/1.png"",""time"":100},{""stimulus"":""img/2to3/2.png"",""time"":199},{""stimulus"":""img/2to3/3.png"",""time"":298},{""stimulus"":""img/2to3/4.png"",""time"":397},{""stimulus"":""img/2to3/5.png"",""time"":496},{""stimulus"":""img/2to3/6.png"",""time"":595},{""stimulus"":""img/2to3/7.png"",""time"":695},{""stimulus"":""img/2to3/8.png"",""time"":793},{""stimulus"":""img/2to3/9.png"",""time"":892},{""stimulus"":""img/2to3/10.png"",""time"":991},{""stimulus"":""img/2to3/11.png"",""time"":1090},{""stimulus"":""img/2to3/12.png"",""time"":1189}]","[]"
"image-keyboard-response","100","139873","0.0-5.0-1.48","63ecff07b619306f41db42fa","bdp_cybrbll","Sat Mar 25 2023 21:29:29 GMT-0700 (Pacific Daylight Time)","450585","3","1","","null","","","","observe","","img/3to2/1.png","null","177","308","0.5","0.5","3","1","",""
"animation","101","141161","0.0-5.0-2.48","63ecff07b619306f41db42fa","bdp_cybrbll","Sat Mar 25 2023 21:29:29 GMT-0700 (Pacific Daylight Time)","450585","3","1","","","","","","","","","","177","","","","3","1","[{""stimulus"":""img/3to1/1.png"",""time"":100},{""stimulus"":""img/3to1/2.png"",""time"":199},{""stimulus"":""img/3to1/3.png"",""time"":297},{""stimulus"":""img/3to1/4.png"",""time"":397},{""stimulus"":""img/3to1/5.png"",""time"":496},{""stimulus"":""img/3to1/6.png"",""time"":595},{""stimulus"":""img/3to1/7.png"",""time"":694},{""stimulus"":""img/3to1/8.png"",""time"":792},{""stimulus"":""img/3to1/9.png"",""time"":892},{""stimulus"":""img/3to1/10.png"",""time"":990},{""stimulus"":""img/3to1/11.png"",""time"":1089},{""stimulus"":""img/3to1/12.png"",""time"":1189}]","[]"
"image-keyboard-response","102","141475","0.0-5.0-1.49","63ecff07b619306f41db42fa","bdp_cybrbll","Sat Mar 25 2023 21:29:29 GMT-0700 (Pacific Daylight Time)","450585","3","1","","null","","","","observe","","img/1to3/1.png","null","176","312","0.5","0.5","1","3","",""
"animation","103","142762","0.0-5.0-2.49","63ecff07b619306f41db42fa","bdp_cybrbll","Sat Mar 25 2023 21:29:29 GMT-0700 (Pacific Daylight Time)","450585","3","1","","","","","","","","","","176","","","","1","3","[{""stimulus"":""img/1to3/1.png"",""time"":99},{""stimulus"":""img/1to3/2.png"",""time"":199},{""stimulus"":""img/1to3/3.png"",""time"":298},{""stimulus"":""img/1to3/4.png"",""time"":396},{""stimulus"":""img/1to3/5.png"",""time"":496},{""stimulus"":""img/1to3/6.png"",""time"":594},{""stimulus"":""img/1to3/7.png"",""time"":694},{""stimulus"":""img/1to3/8.png"",""time"":792},{""stimulus"":""img/1to3/9.png"",""time"":892},{""stimulus"":""img/1to3/10.png"",""time"":991},{""stimulus"":""img/1to3/11.png"",""time"":1090},{""stimulus"":""img/1to3/12.png"",""time"":1188}]","[]"
"image-keyboard-response","104","143099","0.0-5.0-1.50","63ecff07b619306f41db42fa","bdp_cybrbll","Sat Mar 25 2023 21:29:29 GMT-0700 (Pacific Daylight Time)","450585","3","1","","null","","","","observe","","img/3to2/1.png","null","175","335","0.5","0.5","3","1","",""
"animation","105","144401","0.0-5.0-2.50","63ecff07b619306f41db42fa","bdp_cybrbll","Sat Mar 25 2023 21:29:29 GMT-0700 (Pacific Daylight Time)","450585","3","1","","","","","","","","","","175","","","","3","1","[{""stimulus"":""img/3to1/1.png"",""time"":100},{""stimulus"":""img/3to1/2.png"",""time"":199},{""stimulus"":""img/3to1/3.png"",""time"":298},{""stimulus"":""img/3to1/4.png"",""time"":397},{""stimulus"":""img/3to1/5.png"",""time"":495},{""stimulus"":""img/3to1/6.png"",""time"":594},{""stimulus"":""img/3to1/7.png"",""time"":694},{""stimulus"":""img/3to1/8.png"",""time"":794},{""stimulus"":""img/3to1/9.png"",""time"":891},{""stimulus"":""img/3to1/10.png"",""time"":992},{""stimulus"":""img/3to1/11.png"",""time"":1090},{""stimulus"":""img/3to1/12.png"",""time"":1188}]","[]"
"image-keyboard-response","106","144959","0.0-5.0-1.51","63ecff07b619306f41db42fa","bdp_cybrbll","Sat Mar 25 2023 21:29:29 GMT-0700 (Pacific Daylight Time)","450585","3","1","","null","","","","observe","","img/1to3/1.png","null","174","556","0.5","0.5","1","3","",""
"animation","107","146247","0.0-5.0-2.51","63ecff07b619306f41db42fa","bdp_cybrbll","Sat Mar 25 2023 21:29:29 GMT-0700 (Pacific Daylight Time)","450585","3","1","","","","","","","","","","174","","","","1","3","[{""stimulus"":""img/1to3/1.png"",""time"":100},{""stimulus"":""img/1to3/2.png"",""time"":199},{""stimulus"":""img/1to3/3.png"",""time"":298},{""stimulus"":""img/1to3/4.png"",""time"":397},{""stimulus"":""img/1to3/5.png"",""time"":496},{""stimulus"":""img/1to3/6.png"",""time"":595},{""stimulus"":""img/1to3/7.png"",""time"":694},{""stimulus"":""img/1to3/8.png"",""time"":794},{""stimulus"":""img/1to3/9.png"",""time"":892},{""stimulus"":""img/1to3/10.png"",""time"":992},{""stimulus"":""img/1to3/11.png"",""time"":1090},{""stimulus"":""img/1to3/12.png"",""time"":1189}]","[]"
"image-keyboard-response","108","146575","0.0-5.0-1.52","63ecff07b619306f41db42fa","bdp_cybrbll","Sat Mar 25 2023 21:29:29 GMT-0700 (Pacific Daylight Time)","450585","3","1","","null","","","","observe","","img/3to2/1.png","null","173","326","0.5","0.5","3","1","",""
"animation","109","147863","0.0-5.0-2.52","63ecff07b619306f41db42fa","bdp_cybrbll","Sat Mar 25 2023 21:29:29 GMT-0700 (Pacific Daylight Time)","450585","3","1","","","","","","","","","","173","","","","3","1","[{""stimulus"":""img/3to1/1.png"",""time"":100},{""stimulus"":""img/3to1/2.png"",""time"":199},{""stimulus"":""img/3to1/3.png"",""time"":298},{""stimulus"":""img/3to1/4.png"",""time"":397},{""stimulus"":""img/3to1/5.png"",""time"":501},{""stimulus"":""img/3to1/6.png"",""time"":596},{""stimulus"":""img/3to1/7.png"",""time"":695},{""stimulus"":""img/3to1/8.png"",""time"":793},{""stimulus"":""img/3to1/9.png"",""time"":892},{""stimulus"":""img/3to1/10.png"",""time"":992},{""stimulus"":""img/3to1/11.png"",""time"":1090},{""stimulus"":""img/3to1/12.png"",""time"":1190}]","[]"
"image-keyboard-response","110","148278","0.0-5.0-1.53","63ecff07b619306f41db42fa","bdp_cybrbll","Sat Mar 25 2023 21:29:29 GMT-0700 (Pacific Daylight Time)","450585","3","1","","null","","","","observe","","img/1to3/1.png","null","172","413","0.5","0.5","1","3","",""
"animation","111","149565","0.0-5.0-2.53","63ecff07b619306f41db42fa","bdp_cybrbll","Sat Mar 25 2023 21:29:29 GMT-0700 (Pacific Daylight Time)","450585","3","1","","","","","","","","","","172","","","","1","3","[{""stimulus"":""img/1to3/1.png"",""time"":100},{""stimulus"":""img/1to3/2.png"",""time"":199},{""stimulus"":""img/1to3/3.png"",""time"":299},{""stimulus"":""img/1to3/4.png"",""time"":397},{""stimulus"":""img/1to3/5.png"",""time"":495},{""stimulus"":""img/1to3/6.png"",""time"":595},{""stimulus"":""img/1to3/7.png"",""time"":694},{""stimulus"":""img/1to3/8.png"",""time"":792},{""stimulus"":""img/1to3/9.png"",""time"":891},{""stimulus"":""img/1to3/10.png"",""time"":990},{""stimulus"":""img/1to3/11.png"",""time"":1089},{""stimulus"":""img/1to3/12.png"",""time"":1189}]","[]"
"image-keyboard-response","112","149842","0.0-5.0-1.54","63ecff07b619306f41db42fa","bdp_cybrbll","Sat Mar 25 2023 21:29:29 GMT-0700 (Pacific Daylight Time)","450585","3","1","","null","","","","observe","","img/3to2/1.png","null","171","276","0.5","0.5","3","1","",""
"animation","113","151130","0.0-5.0-2.54","63ecff07b619306f41db42fa","bdp_cybrbll","Sat Mar 25 2023 21:29:29 GMT-0700 (Pacific Daylight Time)","450585","3","1","","","","","","","","","","171","","","","3","1","[{""stimulus"":""img/3to1/1.png"",""time"":101},{""stimulus"":""img/3to1/2.png"",""time"":199},{""stimulus"":""img/3to1/3.png"",""time"":298},{""stimulus"":""img/3to1/4.png"",""time"":398},{""stimulus"":""img/3to1/5.png"",""time"":496},{""stimulus"":""img/3to1/6.png"",""time"":595},{""stimulus"":""img/3to1/7.png"",""time"":695},{""stimulus"":""img/3to1/8.png"",""time"":793},{""stimulus"":""img/3to1/9.png"",""time"":892},{""stimulus"":""img/3to1/10.png"",""time"":991},{""stimulus"":""img/3to1/11.png"",""time"":1089},{""stimulus"":""img/3to1/12.png"",""time"":1188}]","[]"
"image-keyboard-response","114","151366","0.0-5.0-1.55","63ecff07b619306f41db42fa","bdp_cybrbll","Sat Mar 25 2023 21:29:29 GMT-0700 (Pacific Daylight Time)","450585","3","1","","null","","","","observe","","img/1to3/1.png","null","170","236","0.5","0.5","1","2","",""
"animation","115","152655","0.0-5.0-2.55","63ecff07b619306f41db42fa","bdp_cybrbll","Sat Mar 25 2023 21:29:29 GMT-0700 (Pacific Daylight Time)","450585","3","1","","","","","","","","","","170","","","","1","2","[{""stimulus"":""img/1to2/1.png"",""time"":100},{""stimulus"":""img/1to2/2.png"",""time"":199},{""stimulus"":""img/1to2/3.png"",""time"":297},{""stimulus"":""img/1to2/4.png"",""time"":396},{""stimulus"":""img/1to2/5.png"",""time"":496},{""stimulus"":""img/1to2/6.png"",""time"":594},{""stimulus"":""img/1to2/7.png"",""time"":694},{""stimulus"":""img/1to2/8.png"",""time"":792},{""stimulus"":""img/1to2/9.png"",""time"":891},{""stimulus"":""img/1to2/10.png"",""time"":991},{""stimulus"":""img/1to2/11.png"",""time"":1089},{""stimulus"":""img/1to2/12.png"",""time"":1188}]","[]"
"image-keyboard-response","116","153104","0.0-5.0-1.56","63ecff07b619306f41db42fa","bdp_cybrbll","Sat Mar 25 2023 21:29:29 GMT-0700 (Pacific Daylight Time)","450585","3","1","","449","","","","choice","","img/2to1/1.png","1","169","262","0.5","0.5","2","1","",""
"animation","117","154392","0.0-5.0-2.56","63ecff07b619306f41db42fa","bdp_cybrbll","Sat Mar 25 2023 21:29:29 GMT-0700 (Pacific Daylight Time)","450585","3","1","","","","","","","","","","169","","","","2","1","[{""stimulus"":""img/2to1/1.png"",""time"":100},{""stimulus"":""img/2to1/2.png"",""time"":199},{""stimulus"":""img/2to1/3.png"",""time"":297},{""stimulus"":""img/2to1/4.png"",""time"":397},{""stimulus"":""img/2to1/5.png"",""time"":497},{""stimulus"":""img/2to1/6.png"",""time"":595},{""stimulus"":""img/2to1/7.png"",""time"":694},{""stimulus"":""img/2to1/8.png"",""time"":792},{""stimulus"":""img/2to1/9.png"",""time"":892},{""stimulus"":""img/2to1/10.png"",""time"":990},{""stimulus"":""img/2to1/11.png"",""time"":1090},{""stimulus"":""img/2to1/12.png"",""time"":1188}]","[]"
"image-keyboard-response","118","154849","0.0-5.0-1.57","63ecff07b619306f41db42fa","bdp_cybrbll","Sat Mar 25 2023 21:29:29 GMT-0700 (Pacific Daylight Time)","450585","3","1","","null","","","","observe","","img/1to3/1.png","null","168","456","0.5","0.5","1","2","",""
"animation","119","156137","0.0-5.0-2.57","63ecff07b619306f41db42fa","bdp_cybrbll","Sat Mar 25 2023 21:29:29 GMT-0700 (Pacific Daylight Time)","450585","3","1","","","","","","","","","","168","","","","1","2","[{""stimulus"":""img/1to2/1.png"",""time"":101},{""stimulus"":""img/1to2/2.png"",""time"":199},{""stimulus"":""img/1to2/3.png"",""time"":298},{""stimulus"":""img/1to2/4.png"",""time"":397},{""stimulus"":""img/1to2/5.png"",""time"":496},{""stimulus"":""img/1to2/6.png"",""time"":595},{""stimulus"":""img/1to2/7.png"",""time"":694},{""stimulus"":""img/1to2/8.png"",""time"":794},{""stimulus"":""img/1to2/9.png"",""time"":892},{""stimulus"":""img/1to2/10.png"",""time"":991},{""stimulus"":""img/1to2/11.png"",""time"":1090},{""stimulus"":""img/1to2/12.png"",""time"":1189}]","[]"
"image-keyboard-response","120","156216","0.0-5.0-1.58","63ecff07b619306f41db42fa","bdp_cybrbll","Sat Mar 25 2023 21:29:29 GMT-0700 (Pacific Daylight Time)","450585","3","1","","78","","","","choice","","img/2to1/1.png","2","167","521","0.5","0.5","2","3","",""
"animation","121","157503","0.0-5.0-2.58","63ecff07b619306f41db42fa","bdp_cybrbll","Sat Mar 25 2023 21:29:29 GMT-0700 (Pacific Daylight Time)","450585","3","1","","","","","","","","","","167","","","","2","3","[{""stimulus"":""img/2to3/1.png"",""time"":100},{""stimulus"":""img/2to3/2.png"",""time"":199},{""stimulus"":""img/2to3/3.png"",""time"":298},{""stimulus"":""img/2to3/4.png"",""time"":397},{""stimulus"":""img/2to3/5.png"",""time"":496},{""stimulus"":""img/2to3/6.png"",""time"":595},{""stimulus"":""img/2to3/7.png"",""time"":694},{""stimulus"":""img/2to3/8.png"",""time"":793},{""stimulus"":""img/2to3/9.png"",""time"":892},{""stimulus"":""img/2to3/10.png"",""time"":992},{""stimulus"":""img/2to3/11.png"",""time"":1090},{""stimulus"":""img/2to3/12.png"",""time"":1188}]","[]"
"image-keyboard-response","122","157767","0.0-5.0-1.59","63ecff07b619306f41db42fa","bdp_cybrbll","Sat Mar 25 2023 21:29:29 GMT-0700 (Pacific Daylight Time)","450585","3","1","","null","","","","observe","","img/3to2/1.png","null","166","262","0.5","0.5","3","1","",""
"animation","123","159055","0.0-5.0-2.59","63ecff07b619306f41db42fa","bdp_cybrbll","Sat Mar 25 2023 21:29:29 GMT-0700 (Pacific Daylight Time)","450585","3","1","","","","","","","","","","166","","","","3","1","[{""stimulus"":""img/3to1/1.png"",""time"":100},{""stimulus"":""img/3to1/2.png"",""time"":199},{""stimulus"":""img/3to1/3.png"",""time"":297},{""stimulus"":""img/3to1/4.png"",""time"":396},{""stimulus"":""img/3to1/5.png"",""time"":495},{""stimulus"":""img/3to1/6.png"",""time"":595},{""stimulus"":""img/3to1/7.png"",""time"":694},{""stimulus"":""img/3to1/8.png"",""time"":794},{""stimulus"":""img/3to1/9.png"",""time"":891},{""stimulus"":""img/3to1/10.png"",""time"":992},{""stimulus"":""img/3to1/11.png"",""time"":1090},{""stimulus"":""img/3to1/12.png"",""time"":1190}]","[]"
"image-keyboard-response","124","160030","0.0-5.0-1.60","63ecff07b619306f41db42fa","bdp_cybrbll","Sat Mar 25 2023 21:29:29 GMT-0700 (Pacific Daylight Time)","450585","3","1","","null","","","","observe","","img/1to3/1.png","null","165","974","0.5","0.5","1","3","",""
"animation","125","161318","0.0-5.0-2.60","63ecff07b619306f41db42fa","bdp_cybrbll","Sat Mar 25 2023 21:29:29 GMT-0700 (Pacific Daylight Time)","450585","3","1","","","","","","","","","","165","","","","1","3","[{""stimulus"":""img/1to3/1.png"",""time"":100},{""stimulus"":""img/1to3/2.png"",""time"":199},{""stimulus"":""img/1to3/3.png"",""time"":298},{""stimulus"":""img/1to3/4.png"",""time"":396},{""stimulus"":""img/1to3/5.png"",""time"":497},{""stimulus"":""img/1to3/6.png"",""time"":595},{""stimulus"":""img/1to3/7.png"",""time"":694},{""stimulus"":""img/1to3/8.png"",""time"":793},{""stimulus"":""img/1to3/9.png"",""time"":892},{""stimulus"":""img/1to3/10.png"",""time"":991},{""stimulus"":""img/1to3/11.png"",""time"":1089},{""stimulus"":""img/1to3/12.png"",""time"":1189}]","[]"
"image-keyboard-response","126","161623","0.0-5.0-1.61","63ecff07b619306f41db42fa","bdp_cybrbll","Sat Mar 25 2023 21:29:29 GMT-0700 (Pacific Daylight Time)","450585","3","1","","null","","","","observe","","img/3to2/1.png","null","164","304","0.5","0.5","3","2","",""
"animation","127","162912","0.0-5.0-2.61","63ecff07b619306f41db42fa","bdp_cybrbll","Sat Mar 25 2023 21:29:29 GMT-0700 (Pacific Daylight Time)","450585","3","1","","","","","","","","","","164","","","","3","2","[{""stimulus"":""img/3to2/1.png"",""time"":100},{""stimulus"":""img/3to2/2.png"",""time"":198},{""stimulus"":""img/3to2/3.png"",""time"":297},{""stimulus"":""img/3to2/4.png"",""time"":396},{""stimulus"":""img/3to2/5.png"",""time"":495},{""stimulus"":""img/3to2/6.png"",""time"":594},{""stimulus"":""img/3to2/7.png"",""time"":694},{""stimulus"":""img/3to2/8.png"",""time"":793},{""stimulus"":""img/3to2/9.png"",""time"":892},{""stimulus"":""img/3to2/10.png"",""time"":990},{""stimulus"":""img/3to2/11.png"",""time"":1089},{""stimulus"":""img/3to2/12.png"",""time"":1189}]","[]"
"image-keyboard-response","128","163541","0.0-5.0-1.62","63ecff07b619306f41db42fa","bdp_cybrbll","Sat Mar 25 2023 21:29:29 GMT-0700 (Pacific Daylight Time)","450585","3","1","","628","","","","choice","","img/2to1/1.png","1","163","376","0.5","0.5","2","1","",""
"animation","129","164828","0.0-5.0-2.62","63ecff07b619306f41db42fa","bdp_cybrbll","Sat Mar 25 2023 21:29:29 GMT-0700 (Pacific Daylight Time)","450585","3","1","","","","","","","","","","163","","","","2","1","[{""stimulus"":""img/2to1/1.png"",""time"":100},{""stimulus"":""img/2to1/2.png"",""time"":199},{""stimulus"":""img/2to1/3.png"",""time"":298},{""stimulus"":""img/2to1/4.png"",""time"":397},{""stimulus"":""img/2to1/5.png"",""time"":496},{""stimulus"":""img/2to1/6.png"",""time"":595},{""stimulus"":""img/2to1/7.png"",""time"":694},{""stimulus"":""img/2to1/8.png"",""time"":793},{""stimulus"":""img/2to1/9.png"",""time"":893},{""stimulus"":""img/2to1/10.png"",""time"":991},{""stimulus"":""img/2to1/11.png"",""time"":1091},{""stimulus"":""img/2to1/12.png"",""time"":1189}]","[]"
"image-keyboard-response","130","165192","0.0-5.0-1.63","63ecff07b619306f41db42fa","bdp_cybrbll","Sat Mar 25 2023 21:29:29 GMT-0700 (Pacific Daylight Time)","450585","3","1","","null","","","","observe","","img/1to3/1.png","null","162","363","0.5","0.5","1","2","",""
"animation","131","166480","0.0-5.0-2.63","63ecff07b619306f41db42fa","bdp_cybrbll","Sat Mar 25 2023 21:29:29 GMT-0700 (Pacific Daylight Time)","450585","3","1","","","","","","","","","","162","","","","1","2","[{""stimulus"":""img/1to2/1.png"",""time"":100},{""stimulus"":""img/1to2/2.png"",""time"":199},{""stimulus"":""img/1to2/3.png"",""time"":298},{""stimulus"":""img/1to2/4.png"",""time"":398},{""stimulus"":""img/1to2/5.png"",""time"":496},{""stimulus"":""img/1to2/6.png"",""time"":595},{""stimulus"":""img/1to2/7.png"",""time"":695},{""stimulus"":""img/1to2/8.png"",""time"":793},{""stimulus"":""img/1to2/9.png"",""time"":892},{""stimulus"":""img/1to2/10.png"",""time"":991},{""stimulus"":""img/1to2/11.png"",""time"":1091},{""stimulus"":""img/1to2/12.png"",""time"":1189}]","[]"
"image-keyboard-response","132","166580","0.0-5.0-1.64","63ecff07b619306f41db42fa","bdp_cybrbll","Sat Mar 25 2023 21:29:29 GMT-0700 (Pacific Daylight Time)","450585","3","1","","99","","","","choice","","img/2to1/1.png","1","161","618","0.5","0.5","2","1","",""
"animation","133","167868","0.0-5.0-2.64","63ecff07b619306f41db42fa","bdp_cybrbll","Sat Mar 25 2023 21:29:29 GMT-0700 (Pacific Daylight Time)","450585","3","1","","","","","","","","","","161","","","","2","1","[{""stimulus"":""img/2to1/1.png"",""time"":100},{""stimulus"":""img/2to1/2.png"",""time"":199},{""stimulus"":""img/2to1/3.png"",""time"":298},{""stimulus"":""img/2to1/4.png"",""time"":396},{""stimulus"":""img/2to1/5.png"",""time"":497},{""stimulus"":""img/2to1/6.png"",""time"":595},{""stimulus"":""img/2to1/7.png"",""time"":694},{""stimulus"":""img/2to1/8.png"",""time"":792},{""stimulus"":""img/2to1/9.png"",""time"":892},{""stimulus"":""img/2to1/10.png"",""time"":991},{""stimulus"":""img/2to1/11.png"",""time"":1090},{""stimulus"":""img/2to1/12.png"",""time"":1189}]","[]"
"image-keyboard-response","134","168119","0.0-5.0-1.65","63ecff07b619306f41db42fa","bdp_cybrbll","Sat Mar 25 2023 21:29:29 GMT-0700 (Pacific Daylight Time)","450585","3","1","","null","","","","observe","","img/1to3/1.png","null","160","249","0.5","0.5","1","2","",""
"animation","135","169407","0.0-5.0-2.65","63ecff07b619306f41db42fa","bdp_cybrbll","Sat Mar 25 2023 21:29:29 GMT-0700 (Pacific Daylight Time)","450585","3","1","","","","","","","","","","160","","","","1","2","[{""stimulus"":""img/1to2/1.png"",""time"":100},{""stimulus"":""img/1to2/2.png"",""time"":199},{""stimulus"":""img/1to2/3.png"",""time"":298},{""stimulus"":""img/1to2/4.png"",""time"":397},{""stimulus"":""img/1to2/5.png"",""time"":496},{""stimulus"":""img/1to2/6.png"",""time"":595},{""stimulus"":""img/1to2/7.png"",""time"":694},{""stimulus"":""img/1to2/8.png"",""time"":793},{""stimulus"":""img/1to2/9.png"",""time"":892},{""stimulus"":""img/1to2/10.png"",""time"":991},{""stimulus"":""img/1to2/11.png"",""time"":1090},{""stimulus"":""img/1to2/12.png"",""time"":1188}]","[]"
"image-keyboard-response","136","170089","0.0-5.0-1.66","63ecff07b619306f41db42fa","bdp_cybrbll","Sat Mar 25 2023 21:29:29 GMT-0700 (Pacific Daylight Time)","450585","3","1","","682","","","","choice","","img/2to1/1.png","2","159","242","0.5","0.5","2","3","",""
"animation","137","171376","0.0-5.0-2.66","63ecff07b619306f41db42fa","bdp_cybrbll","Sat Mar 25 2023 21:29:29 GMT-0700 (Pacific Daylight Time)","450585","3","1","","","","","","","","","","159","","","","2","3","[{""stimulus"":""img/2to3/1.png"",""time"":100},{""stimulus"":""img/2to3/2.png"",""time"":199},{""stimulus"":""img/2to3/3.png"",""time"":298},{""stimulus"":""img/2to3/4.png"",""time"":398},{""stimulus"":""img/2to3/5.png"",""time"":497},{""stimulus"":""img/2to3/6.png"",""time"":595},{""stimulus"":""img/2to3/7.png"",""time"":694},{""stimulus"":""img/2to3/8.png"",""time"":793},{""stimulus"":""img/2to3/9.png"",""time"":892},{""stimulus"":""img/2to3/10.png"",""time"":990},{""stimulus"":""img/2to3/11.png"",""time"":1090},{""stimulus"":""img/2to3/12.png"",""time"":1188}]","[]"
"image-keyboard-response","138","172087","0.0-5.0-1.67","63ecff07b619306f41db42fa","bdp_cybrbll","Sat Mar 25 2023 21:29:29 GMT-0700 (Pacific Daylight Time)","450585","3","1","","null","","","","observe","","img/3to2/1.png","null","158","709","0.5","0.5","3","1","",""
"animation","139","173374","0.0-5.0-2.67","63ecff07b619306f41db42fa","bdp_cybrbll","Sat Mar 25 2023 21:29:29 GMT-0700 (Pacific Daylight Time)","450585","3","1","","","","","","","","","","158","","","","3","1","[{""stimulus"":""img/3to1/1.png"",""time"":101},{""stimulus"":""img/3to1/2.png"",""time"":199},{""stimulus"":""img/3to1/3.png"",""time"":297},{""stimulus"":""img/3to1/4.png"",""time"":396},{""stimulus"":""img/3to1/5.png"",""time"":496},{""stimulus"":""img/3to1/6.png"",""time"":594},{""stimulus"":""img/3to1/7.png"",""time"":693},{""stimulus"":""img/3to1/8.png"",""time"":792},{""stimulus"":""img/3to1/9.png"",""time"":892},{""stimulus"":""img/3to1/10.png"",""time"":991},{""stimulus"":""img/3to1/11.png"",""time"":1089},{""stimulus"":""img/3to1/12.png"",""time"":1188}]","[]"
"image-keyboard-response","140","173725","0.0-5.0-1.68","63ecff07b619306f41db42fa","bdp_cybrbll","Sat Mar 25 2023 21:29:29 GMT-0700 (Pacific Daylight Time)","450585","3","1","","null","","","","observe","","img/1to3/1.png","null","157","350","0.5","0.5","1","3","",""
"animation","141","175013","0.0-5.0-2.68","63ecff07b619306f41db42fa","bdp_cybrbll","Sat Mar 25 2023 21:29:29 GMT-0700 (Pacific Daylight Time)","450585","3","1","","","","","","","","","","157","","","","1","3","[{""stimulus"":""img/1to3/1.png"",""time"":101},{""stimulus"":""img/1to3/2.png"",""time"":199},{""stimulus"":""img/1to3/3.png"",""time"":298},{""stimulus"":""img/1to3/4.png"",""time"":397},{""stimulus"":""img/1to3/5.png"",""time"":496},{""stimulus"":""img/1to3/6.png"",""time"":595},{""stimulus"":""img/1to3/7.png"",""time"":694},{""stimulus"":""img/1to3/8.png"",""time"":793},{""stimulus"":""img/1to3/9.png"",""time"":892},{""stimulus"":""img/1to3/10.png"",""time"":991},{""stimulus"":""img/1to3/11.png"",""time"":1091},{""stimulus"":""img/1to3/12.png"",""time"":1189}]","[]"
"image-keyboard-response","142","175516","0.0-5.0-1.69","63ecff07b619306f41db42fa","bdp_cybrbll","Sat Mar 25 2023 21:29:29 GMT-0700 (Pacific Daylight Time)","450585","3","1","","null","","","","observe","","img/3to2/1.png","null","156","501","0.5","0.5","3","2","",""
"animation","143","176804","0.0-5.0-2.69","63ecff07b619306f41db42fa","bdp_cybrbll","Sat Mar 25 2023 21:29:29 GMT-0700 (Pacific Daylight Time)","450585","3","1","","","","","","","","","","156","","","","3","2","[{""stimulus"":""img/3to2/1.png"",""time"":101},{""stimulus"":""img/3to2/2.png"",""time"":199},{""stimulus"":""img/3to2/3.png"",""time"":298},{""stimulus"":""img/3to2/4.png"",""time"":397},{""stimulus"":""img/3to2/5.png"",""time"":496},{""stimulus"":""img/3to2/6.png"",""time"":595},{""stimulus"":""img/3to2/7.png"",""time"":695},{""stimulus"":""img/3to2/8.png"",""time"":793},{""stimulus"":""img/3to2/9.png"",""time"":892},{""stimulus"":""img/3to2/10.png"",""time"":992},{""stimulus"":""img/3to2/11.png"",""time"":1091},{""stimulus"":""img/3to2/12.png"",""time"":1190}]","[]"
"image-keyboard-response","144","177196","0.0-5.0-1.70","63ecff07b619306f41db42fa","bdp_cybrbll","Sat Mar 25 2023 21:29:29 GMT-0700 (Pacific Daylight Time)","450585","3","1","","392","","","","choice","","img/2to1/1.png","2","155","312","0.5","0.5","2","3","",""
"animation","145","178484","0.0-5.0-2.70","63ecff07b619306f41db42fa","bdp_cybrbll","Sat Mar 25 2023 21:29:29 GMT-0700 (Pacific Daylight Time)","450585","3","1","","","","","","","","","","155","","","","2","3","[{""stimulus"":""img/2to3/1.png"",""time"":100},{""stimulus"":""img/2to3/2.png"",""time"":199},{""stimulus"":""img/2to3/3.png"",""time"":299},{""stimulus"":""img/2to3/4.png"",""time"":398},{""stimulus"":""img/2to3/5.png"",""time"":496},{""stimulus"":""img/2to3/6.png"",""time"":595},{""stimulus"":""img/2to3/7.png"",""time"":694},{""stimulus"":""img/2to3/8.png"",""time"":793},{""stimulus"":""img/2to3/9.png"",""time"":892},{""stimulus"":""img/2to3/10.png"",""time"":991},{""stimulus"":""img/2to3/11.png"",""time"":1090},{""stimulus"":""img/2to3/12.png"",""time"":1190}]","[]"
"image-keyboard-response","146","178925","0.0-5.0-1.71","63ecff07b619306f41db42fa","bdp_cybrbll","Sat Mar 25 2023 21:29:29 GMT-0700 (Pacific Daylight Time)","450585","3","1","","null","","","","observe","","img/3to2/1.png","null","154","439","0.5","0.5","3","1","",""
"animation","147","180212","0.0-5.0-2.71","63ecff07b619306f41db42fa","bdp_cybrbll","Sat Mar 25 2023 21:29:29 GMT-0700 (Pacific Daylight Time)","450585","3","1","","","","","","","","","","154","","","","3","1","[{""stimulus"":""img/3to1/1.png"",""time"":100},{""stimulus"":""img/3to1/2.png"",""time"":198},{""stimulus"":""img/3to1/3.png"",""time"":298},{""stimulus"":""img/3to1/4.png"",""time"":396},{""stimulus"":""img/3to1/5.png"",""time"":496},{""stimulus"":""img/3to1/6.png"",""time"":594},{""stimulus"":""img/3to1/7.png"",""time"":694},{""stimulus"":""img/3to1/8.png"",""time"":792},{""stimulus"":""img/3to1/9.png"",""time"":891},{""stimulus"":""img/3to1/10.png"",""time"":990},{""stimulus"":""img/3to1/11.png"",""time"":1089},{""stimulus"":""img/3to1/12.png"",""time"":1189}]","[]"
"image-keyboard-response","148","180483","0.0-5.0-1.72","63ecff07b619306f41db42fa","bdp_cybrbll","Sat Mar 25 2023 21:29:29 GMT-0700 (Pacific Daylight Time)","450585","3","1","","null","","","","observe","","img/1to3/1.png","null","153","270","0.5","0.5","1","2","",""
"animation","149","181771","0.0-5.0-2.72","63ecff07b619306f41db42fa","bdp_cybrbll","Sat Mar 25 2023 21:29:29 GMT-0700 (Pacific Daylight Time)","450585","3","1","","","","","","","","","","153","","","","1","2","[{""stimulus"":""img/1to2/1.png"",""time"":100},{""stimulus"":""img/1to2/2.png"",""time"":198},{""stimulus"":""img/1to2/3.png"",""time"":298},{""stimulus"":""img/1to2/4.png"",""time"":396},{""stimulus"":""img/1to2/5.png"",""time"":495},{""stimulus"":""img/1to2/6.png"",""time"":595},{""stimulus"":""img/1to2/7.png"",""time"":694},{""stimulus"":""img/1to2/8.png"",""time"":793},{""stimulus"":""img/1to2/9.png"",""time"":892},{""stimulus"":""img/1to2/10.png"",""time"":990},{""stimulus"":""img/1to2/11.png"",""time"":1090},{""stimulus"":""img/1to2/12.png"",""time"":1188}]","[]"
"image-keyboard-response","150","182597","0.0-5.0-1.73","63ecff07b619306f41db42fa","bdp_cybrbll","Sat Mar 25 2023 21:29:29 GMT-0700 (Pacific Daylight Time)","450585","3","1","","826","","","","choice","","img/2to1/1.png","1","152","495","0.5","0.5","2","1","",""
"animation","151","183885","0.0-5.0-2.73","63ecff07b619306f41db42fa","bdp_cybrbll","Sat Mar 25 2023 21:29:29 GMT-0700 (Pacific Daylight Time)","450585","3","1","","","","","","","","","","152","","","","2","1","[{""stimulus"":""img/2to1/1.png"",""time"":99},{""stimulus"":""img/2to1/2.png"",""time"":198},{""stimulus"":""img/2to1/3.png"",""time"":298},{""stimulus"":""img/2to1/4.png"",""time"":396},{""stimulus"":""img/2to1/5.png"",""time"":496},{""stimulus"":""img/2to1/6.png"",""time"":594},{""stimulus"":""img/2to1/7.png"",""time"":694},{""stimulus"":""img/2to1/8.png"",""time"":792},{""stimulus"":""img/2to1/9.png"",""time"":891},{""stimulus"":""img/2to1/10.png"",""time"":990},{""stimulus"":""img/2to1/11.png"",""time"":1090},{""stimulus"":""img/2to1/12.png"",""time"":1189}]","[]"
"image-keyboard-response","152","184202","0.0-5.0-1.74","63ecff07b619306f41db42fa","bdp_cybrbll","Sat Mar 25 2023 21:29:29 GMT-0700 (Pacific Daylight Time)","450585","3","1","","null","","","","observe","","img/1to3/1.png","null","151","314","0.5","0.5","1","3","",""
"animation","153","185489","0.0-5.0-2.74","63ecff07b619306f41db42fa","bdp_cybrbll","Sat Mar 25 2023 21:29:29 GMT-0700 (Pacific Daylight Time)","450585","3","1","","","","","","","","","","151","","","","1","3","[{""stimulus"":""img/1to3/1.png"",""time"":100},{""stimulus"":""img/1to3/2.png"",""time"":199},{""stimulus"":""img/1to3/3.png"",""time"":298},{""stimulus"":""img/1to3/4.png"",""time"":397},{""stimulus"":""img/1to3/5.png"",""time"":496},{""stimulus"":""img/1to3/6.png"",""time"":596},{""stimulus"":""img/1to3/7.png"",""time"":695},{""stimulus"":""img/1to3/8.png"",""time"":793},{""stimulus"":""img/1to3/9.png"",""time"":892},{""stimulus"":""img/1to3/10.png"",""time"":991},{""stimulus"":""img/1to3/11.png"",""time"":1090},{""stimulus"":""img/1to3/12.png"",""time"":1189}]","[]"
"image-keyboard-response","154","185830","0.0-5.0-1.75","63ecff07b619306f41db42fa","bdp_cybrbll","Sat Mar 25 2023 21:29:29 GMT-0700 (Pacific Daylight Time)","450585","3","1","","null","","","","observe","","img/3to2/1.png","null","150","339","0.5","0.5","3","1","",""
"animation","155","187118","0.0-5.0-2.75","63ecff07b619306f41db42fa","bdp_cybrbll","Sat Mar 25 2023 21:29:29 GMT-0700 (Pacific Daylight Time)","450585","3","1","","","","","","","","","","150","","","","3","1","[{""stimulus"":""img/3to1/1.png"",""time"":100},{""stimulus"":""img/3to1/2.png"",""time"":199},{""stimulus"":""img/3to1/3.png"",""time"":298},{""stimulus"":""img/3to1/4.png"",""time"":398},{""stimulus"":""img/3to1/5.png"",""time"":497},{""stimulus"":""img/3to1/6.png"",""time"":596},{""stimulus"":""img/3to1/7.png"",""time"":694},{""stimulus"":""img/3to1/8.png"",""time"":793},{""stimulus"":""img/3to1/9.png"",""time"":892},{""stimulus"":""img/3to1/10.png"",""time"":991},{""stimulus"":""img/3to1/11.png"",""time"":1090},{""stimulus"":""img/3to1/12.png"",""time"":1189}]","[]"
"image-keyboard-response","156","188586","0.0-5.0-1.76","63ecff07b619306f41db42fa","bdp_cybrbll","Sat Mar 25 2023 21:29:29 GMT-0700 (Pacific Daylight Time)","450585","3","1","","null","","","","observe","","img/1to3/1.png","null","149","1466","0.5","0.1","1","2","",""
"animation","157","189875","0.0-5.0-2.76","63ecff07b619306f41db42fa","bdp_cybrbll","Sat Mar 25 2023 21:29:29 GMT-0700 (Pacific Daylight Time)","450585","3","1","","","","","","","","","","149","","","","1","2","[{""stimulus"":""img/1to2/1.png"",""time"":100},{""stimulus"":""img/1to2/2.png"",""time"":200},{""stimulus"":""img/1to2/3.png"",""time"":298},{""stimulus"":""img/1to2/4.png"",""time"":397},{""stimulus"":""img/1to2/5.png"",""time"":496},{""stimulus"":""img/1to2/6.png"",""time"":595},{""stimulus"":""img/1to2/7.png"",""time"":694},{""stimulus"":""img/1to2/8.png"",""time"":793},{""stimulus"":""img/1to2/9.png"",""time"":892},{""stimulus"":""img/1to2/10.png"",""time"":991},{""stimulus"":""img/1to2/11.png"",""time"":1091},{""stimulus"":""img/1to2/12.png"",""time"":1189}]","[]"
"image-keyboard-response","158","189982","0.0-5.0-1.77","63ecff07b619306f41db42fa","bdp_cybrbll","Sat Mar 25 2023 21:29:29 GMT-0700 (Pacific Daylight Time)","450585","3","1","","107","","","","choice","","img/2to1/1.png","2","148","1066","0.5","0.1","2","3","",""
"animation","159","191270","0.0-5.0-2.77","63ecff07b619306f41db42fa","bdp_cybrbll","Sat Mar 25 2023 21:29:29 GMT-0700 (Pacific Daylight Time)","450585","3","1","","","","","","","","","","148","","","","2","3","[{""stimulus"":""img/2to3/1.png"",""time"":100},{""stimulus"":""img/2to3/2.png"",""time"":199},{""stimulus"":""img/2to3/3.png"",""time"":297},{""stimulus"":""img/2to3/4.png"",""time"":397},{""stimulus"":""img/2to3/5.png"",""time"":495},{""stimulus"":""img/2to3/6.png"",""time"":594},{""stimulus"":""img/2to3/7.png"",""time"":693},{""stimulus"":""img/2to3/8.png"",""time"":792},{""stimulus"":""img/2to3/9.png"",""time"":891},{""stimulus"":""img/2to3/10.png"",""time"":991},{""stimulus"":""img/2to3/11.png"",""time"":1089},{""stimulus"":""img/2to3/12.png"",""time"":1187}]","[]"
"image-keyboard-response","160","191718","0.0-5.0-1.78","63ecff07b619306f41db42fa","bdp_cybrbll","Sat Mar 25 2023 21:29:29 GMT-0700 (Pacific Daylight Time)","450585","3","1","","null","","","","observe","","img/3to2/1.png","null","147","446","0.5","0.1","3","1","",""
"animation","161","193006","0.0-5.0-2.78","63ecff07b619306f41db42fa","bdp_cybrbll","Sat Mar 25 2023 21:29:29 GMT-0700 (Pacific Daylight Time)","450585","3","1","","","","","","","","","","147","","","","3","1","[{""stimulus"":""img/3to1/1.png"",""time"":100},{""stimulus"":""img/3to1/2.png"",""time"":199},{""stimulus"":""img/3to1/3.png"",""time"":298},{""stimulus"":""img/3to1/4.png"",""time"":397},{""stimulus"":""img/3to1/5.png"",""time"":496},{""stimulus"":""img/3to1/6.png"",""time"":595},{""stimulus"":""img/3to1/7.png"",""time"":694},{""stimulus"":""img/3to1/8.png"",""time"":793},{""stimulus"":""img/3to1/9.png"",""time"":893},{""stimulus"":""img/3to1/10.png"",""time"":992},{""stimulus"":""img/3to1/11.png"",""time"":1091},{""stimulus"":""img/3to1/12.png"",""time"":1189}]","[]"
"image-keyboard-response","162","193272","0.0-5.0-1.79","63ecff07b619306f41db42fa","bdp_cybrbll","Sat Mar 25 2023 21:29:29 GMT-0700 (Pacific Daylight Time)","450585","3","1","","null","","","","observe","","img/1to3/1.png","null","146","265","0.5","0.1","1","3","",""
"animation","163","194560","0.0-5.0-2.79","63ecff07b619306f41db42fa","bdp_cybrbll","Sat Mar 25 2023 21:29:29 GMT-0700 (Pacific Daylight Time)","450585","3","1","","","","","","","","","","146","","","","1","3","[{""stimulus"":""img/1to3/1.png"",""time"":100},{""stimulus"":""img/1to3/2.png"",""time"":199},{""stimulus"":""img/1to3/3.png"",""time"":298},{""stimulus"":""img/1to3/4.png"",""time"":397},{""stimulus"":""img/1to3/5.png"",""time"":496},{""stimulus"":""img/1to3/6.png"",""time"":594},{""stimulus"":""img/1to3/7.png"",""time"":694},{""stimulus"":""img/1to3/8.png"",""time"":793},{""stimulus"":""img/1to3/9.png"",""time"":892},{""stimulus"":""img/1to3/10.png"",""time"":991},{""stimulus"":""img/1to3/11.png"",""time"":1090},{""stimulus"":""img/1to3/12.png"",""time"":1189}]","[]"
"image-keyboard-response","164","195005","0.0-5.0-1.80","63ecff07b619306f41db42fa","bdp_cybrbll","Sat Mar 25 2023 21:29:29 GMT-0700 (Pacific Daylight Time)","450585","3","1","","null","","","","observe","","img/3to2/1.png","null","145","443","0.5","0.1","3","1","",""
"animation","165","196293","0.0-5.0-2.80","63ecff07b619306f41db42fa","bdp_cybrbll","Sat Mar 25 2023 21:29:29 GMT-0700 (Pacific Daylight Time)","450585","3","1","","","","","","","","","","145","","","","3","1","[{""stimulus"":""img/3to1/1.png"",""time"":99},{""stimulus"":""img/3to1/2.png"",""time"":198},{""stimulus"":""img/3to1/3.png"",""time"":298},{""stimulus"":""img/3to1/4.png"",""time"":398},{""stimulus"":""img/3to1/5.png"",""time"":495},{""stimulus"":""img/3to1/6.png"",""time"":595},{""stimulus"":""img/3to1/7.png"",""time"":694},{""stimulus"":""img/3to1/8.png"",""time"":792},{""stimulus"":""img/3to1/9.png"",""time"":892},{""stimulus"":""img/3to1/10.png"",""time"":990},{""stimulus"":""img/3to1/11.png"",""time"":1089},{""stimulus"":""img/3to1/12.png"",""time"":1188}]","[]"
"image-keyboard-response","166","197751","0.0-5.0-1.81","63ecff07b619306f41db42fa","bdp_cybrbll","Sat Mar 25 2023 21:29:29 GMT-0700 (Pacific Daylight Time)","450585","3","1","","null","","","","observe","","img/1to3/1.png","null","144","1458","0.5","0.1","1","3","",""
"animation","167","199039","0.0-5.0-2.81","63ecff07b619306f41db42fa","bdp_cybrbll","Sat Mar 25 2023 21:29:29 GMT-0700 (Pacific Daylight Time)","450585","3","1","","","","","","","","","","144","","","","1","3","[{""stimulus"":""img/1to3/1.png"",""time"":100},{""stimulus"":""img/1to3/2.png"",""time"":198},{""stimulus"":""img/1to3/3.png"",""time"":298},{""stimulus"":""img/1to3/4.png"",""time"":397},{""stimulus"":""img/1to3/5.png"",""time"":495},{""stimulus"":""img/1to3/6.png"",""time"":595},{""stimulus"":""img/1to3/7.png"",""time"":694},{""stimulus"":""img/1to3/8.png"",""time"":792},{""stimulus"":""img/1to3/9.png"",""time"":891},{""stimulus"":""img/1to3/10.png"",""time"":991},{""stimulus"":""img/1to3/11.png"",""time"":1090},{""stimulus"":""img/1to3/12.png"",""time"":1188}]","[]"
"image-keyboard-response","168","200027","0.0-5.0-1.82","63ecff07b619306f41db42fa","bdp_cybrbll","Sat Mar 25 2023 21:29:29 GMT-0700 (Pacific Daylight Time)","450585","3","1","","null","","","","observe","","img/3to2/1.png","null","143","987","0.5","0.1","3","2","",""
"animation","169","201315","0.0-5.0-2.82","63ecff07b619306f41db42fa","bdp_cybrbll","Sat Mar 25 2023 21:29:29 GMT-0700 (Pacific Daylight Time)","450585","3","1","","","","","","","","","","143","","","","3","2","[{""stimulus"":""img/3to2/1.png"",""time"":100},{""stimulus"":""img/3to2/2.png"",""time"":200},{""stimulus"":""img/3to2/3.png"",""time"":298},{""stimulus"":""img/3to2/4.png"",""time"":397},{""stimulus"":""img/3to2/5.png"",""time"":496},{""stimulus"":""img/3to2/6.png"",""time"":596},{""stimulus"":""img/3to2/7.png"",""time"":695},{""stimulus"":""img/3to2/8.png"",""time"":794},{""stimulus"":""img/3to2/9.png"",""time"":892},{""stimulus"":""img/3to2/10.png"",""time"":992},{""stimulus"":""img/3to2/11.png"",""time"":1091},{""stimulus"":""img/3to2/12.png"",""time"":1189}]","[]"
"image-keyboard-response","170","201383","0.0-5.0-1.83","63ecff07b619306f41db42fa","bdp_cybrbll","Sat Mar 25 2023 21:29:29 GMT-0700 (Pacific Daylight Time)","450585","3","1","","68","","","","choice","","img/2to1/1.png","1","142","921","0.5","0.1","2","1","",""
"animation","171","202671","0.0-5.0-2.83","63ecff07b619306f41db42fa","bdp_cybrbll","Sat Mar 25 2023 21:29:29 GMT-0700 (Pacific Daylight Time)","450585","3","1","","","","","","","","","","142","","","","2","1","[{""stimulus"":""img/2to1/1.png"",""time"":100},{""stimulus"":""img/2to1/2.png"",""time"":199},{""stimulus"":""img/2to1/3.png"",""time"":298},{""stimulus"":""img/2to1/4.png"",""time"":397},{""stimulus"":""img/2to1/5.png"",""time"":496},{""stimulus"":""img/2to1/6.png"",""time"":595},{""stimulus"":""img/2to1/7.png"",""time"":694},{""stimulus"":""img/2to1/8.png"",""time"":793},{""stimulus"":""img/2to1/9.png"",""time"":892},{""stimulus"":""img/2to1/10.png"",""time"":992},{""stimulus"":""img/2to1/11.png"",""time"":1090},{""stimulus"":""img/2to1/12.png"",""time"":1189}]","[]"
"image-keyboard-response","172","203996","0.0-5.0-1.84","63ecff07b619306f41db42fa","bdp_cybrbll","Sat Mar 25 2023 21:29:29 GMT-0700 (Pacific Daylight Time)","450585","3","1","","null","","","","observe","","img/1to3/1.png","null","141","1324","0.5","0.1","1","3","",""
"animation","173","205283","0.0-5.0-2.84","63ecff07b619306f41db42fa","bdp_cybrbll","Sat Mar 25 2023 21:29:29 GMT-0700 (Pacific Daylight Time)","450585","3","1","","","","","","","","","","141","","","","1","3","[{""stimulus"":""img/1to3/1.png"",""time"":100},{""stimulus"":""img/1to3/2.png"",""time"":199},{""stimulus"":""img/1to3/3.png"",""time"":298},{""stimulus"":""img/1to3/4.png"",""time"":398},{""stimulus"":""img/1to3/5.png"",""time"":496},{""stimulus"":""img/1to3/6.png"",""time"":595},{""stimulus"":""img/1to3/7.png"",""time"":694},{""stimulus"":""img/1to3/8.png"",""time"":793},{""stimulus"":""img/1to3/9.png"",""time"":892},{""stimulus"":""img/1to3/10.png"",""time"":991},{""stimulus"":""img/1to3/11.png"",""time"":1090},{""stimulus"":""img/1to3/12.png"",""time"":1189}]","[]"
"image-keyboard-response","174","205729","0.0-5.0-1.85","63ecff07b619306f41db42fa","bdp_cybrbll","Sat Mar 25 2023 21:29:29 GMT-0700 (Pacific Daylight Time)","450585","3","1","","null","","","","observe","","img/3to2/1.png","null","140","444","0.5","0.1","3","1","",""
"animation","175","207018","0.0-5.0-2.85","63ecff07b619306f41db42fa","bdp_cybrbll","Sat Mar 25 2023 21:29:29 GMT-0700 (Pacific Daylight Time)","450585","3","1","","","","","","","","","","140","","","","3","1","[{""stimulus"":""img/3to1/1.png"",""time"":101},{""stimulus"":""img/3to1/2.png"",""time"":200},{""stimulus"":""img/3to1/3.png"",""time"":298},{""stimulus"":""img/3to1/4.png"",""time"":398},{""stimulus"":""img/3to1/5.png"",""time"":497},{""stimulus"":""img/3to1/6.png"",""time"":595},{""stimulus"":""img/3to1/7.png"",""time"":694},{""stimulus"":""img/3to1/8.png"",""time"":793},{""stimulus"":""img/3to1/9.png"",""time"":892},{""stimulus"":""img/3to1/10.png"",""time"":992},{""stimulus"":""img/3to1/11.png"",""time"":1091},{""stimulus"":""img/3to1/12.png"",""time"":1202}]","[]"
"image-keyboard-response","176","207310","0.0-5.0-1.86","63ecff07b619306f41db42fa","bdp_cybrbll","Sat Mar 25 2023 21:29:29 GMT-0700 (Pacific Daylight Time)","450585","3","1","","null","","","","observe","","img/1to3/1.png","null","139","291","0.5","0.1","1","3","",""
"animation","177","208598","0.0-5.0-2.86","63ecff07b619306f41db42fa","bdp_cybrbll","Sat Mar 25 2023 21:29:29 GMT-0700 (Pacific Daylight Time)","450585","3","1","","","","","","","","","","139","","","","1","3","[{""stimulus"":""img/1to3/1.png"",""time"":100},{""stimulus"":""img/1to3/2.png"",""time"":199},{""stimulus"":""img/1to3/3.png"",""time"":297},{""stimulus"":""img/1to3/4.png"",""time"":397},{""stimulus"":""img/1to3/5.png"",""time"":496},{""stimulus"":""img/1to3/6.png"",""time"":595},{""stimulus"":""img/1to3/7.png"",""time"":694},{""stimulus"":""img/1to3/8.png"",""time"":794},{""stimulus"":""img/1to3/9.png"",""time"":892},{""stimulus"":""img/1to3/10.png"",""time"":991},{""stimulus"":""img/1to3/11.png"",""time"":1091},{""stimulus"":""img/1to3/12.png"",""time"":1189}]","[]"
"image-keyboard-response","178","208953","0.0-5.0-1.87","63ecff07b619306f41db42fa","bdp_cybrbll","Sat Mar 25 2023 21:29:29 GMT-0700 (Pacific Daylight Time)","450585","3","1","","null","","","","observe","","img/3to2/1.png","null","138","354","0.5","0.1","3","2","",""
"animation","179","210241","0.0-5.0-2.87","63ecff07b619306f41db42fa","bdp_cybrbll","Sat Mar 25 2023 21:29:29 GMT-0700 (Pacific Daylight Time)","450585","3","1","","","","","","","","","","138","","","","3","2","[{""stimulus"":""img/3to2/1.png"",""time"":100},{""stimulus"":""img/3to2/2.png"",""time"":199},{""stimulus"":""img/3to2/3.png"",""time"":298},{""stimulus"":""img/3to2/4.png"",""time"":398},{""stimulus"":""img/3to2/5.png"",""time"":497},{""stimulus"":""img/3to2/6.png"",""time"":595},{""stimulus"":""img/3to2/7.png"",""time"":695},{""stimulus"":""img/3to2/8.png"",""time"":793},{""stimulus"":""img/3to2/9.png"",""time"":892},{""stimulus"":""img/3to2/10.png"",""time"":991},{""stimulus"":""img/3to2/11.png"",""time"":1090},{""stimulus"":""img/3to2/12.png"",""time"":1189}]","[]"
"image-keyboard-response","180","210339","0.0-5.0-1.88","63ecff07b619306f41db42fa","bdp_cybrbll","Sat Mar 25 2023 21:29:29 GMT-0700 (Pacific Daylight Time)","450585","3","1","","96","","","","choice","","img/2to1/1.png","1","137","393","0.5","0.1","2","1","",""
"animation","181","211626","0.0-5.0-2.88","63ecff07b619306f41db42fa","bdp_cybrbll","Sat Mar 25 2023 21:29:29 GMT-0700 (Pacific Daylight Time)","450585","3","1","","","","","","","","","","137","","","","2","1","[{""stimulus"":""img/2to1/1.png"",""time"":99},{""stimulus"":""img/2to1/2.png"",""time"":199},{""stimulus"":""img/2to1/3.png"",""time"":298},{""stimulus"":""img/2to1/4.png"",""time"":397},{""stimulus"":""img/2to1/5.png"",""time"":496},{""stimulus"":""img/2to1/6.png"",""time"":594},{""stimulus"":""img/2to1/7.png"",""time"":694},{""stimulus"":""img/2to1/8.png"",""time"":792},{""stimulus"":""img/2to1/9.png"",""time"":891},{""stimulus"":""img/2to1/10.png"",""time"":990},{""stimulus"":""img/2to1/11.png"",""time"":1090},{""stimulus"":""img/2to1/12.png"",""time"":1189}]","[]"
"image-keyboard-response","182","212385","0.0-5.0-1.89","63ecff07b619306f41db42fa","bdp_cybrbll","Sat Mar 25 2023 21:29:29 GMT-0700 (Pacific Daylight Time)","450585","3","1","","null","","","","observe","","img/1to3/1.png","null","136","757","0.5","0.1","1","3","",""
"animation","183","213672","0.0-5.0-2.89","63ecff07b619306f41db42fa","bdp_cybrbll","Sat Mar 25 2023 21:29:29 GMT-0700 (Pacific Daylight Time)","450585","3","1","","","","","","","","","","136","","","","1","3","[{""stimulus"":""img/1to3/1.png"",""time"":100},{""stimulus"":""img/1to3/2.png"",""time"":199},{""stimulus"":""img/1to3/3.png"",""time"":298},{""stimulus"":""img/1to3/4.png"",""time"":396},{""stimulus"":""img/1to3/5.png"",""time"":495},{""stimulus"":""img/1to3/6.png"",""time"":594},{""stimulus"":""img/1to3/7.png"",""time"":693},{""stimulus"":""img/1to3/8.png"",""time"":792},{""stimulus"":""img/1to3/9.png"",""time"":892},{""stimulus"":""img/1to3/10.png"",""time"":991},{""stimulus"":""img/1to3/11.png"",""time"":1090},{""stimulus"":""img/1to3/12.png"",""time"":1189}]","[]"
"image-keyboard-response","184","214032","0.0-5.0-1.90","63ecff07b619306f41db42fa","bdp_cybrbll","Sat Mar 25 2023 21:29:29 GMT-0700 (Pacific Daylight Time)","450585","3","1","","null","","","","observe","","img/3to2/1.png","null","135","359","0.5","0.1","3","2","",""
"animation","185","215321","0.0-5.0-2.90","63ecff07b619306f41db42fa","bdp_cybrbll","Sat Mar 25 2023 21:29:29 GMT-0700 (Pacific Daylight Time)","450585","3","1","","","","","","","","","","135","","","","3","2","[{""stimulus"":""img/3to2/1.png"",""time"":101},{""stimulus"":""img/3to2/2.png"",""time"":199},{""stimulus"":""img/3to2/3.png"",""time"":298},{""stimulus"":""img/3to2/4.png"",""time"":397},{""stimulus"":""img/3to2/5.png"",""time"":496},{""stimulus"":""img/3to2/6.png"",""time"":595},{""stimulus"":""img/3to2/7.png"",""time"":695},{""stimulus"":""img/3to2/8.png"",""time"":793},{""stimulus"":""img/3to2/9.png"",""time"":892},{""stimulus"":""img/3to2/10.png"",""time"":991},{""stimulus"":""img/3to2/11.png"",""time"":1090},{""stimulus"":""img/3to2/12.png"",""time"":1189}]","[]"
"image-keyboard-response","186","215747","0.0-5.0-1.91","63ecff07b619306f41db42fa","bdp_cybrbll","Sat Mar 25 2023 21:29:29 GMT-0700 (Pacific Daylight Time)","450585","3","1","","425","","","","choice","","img/2to1/1.png","2","134","158","0.5","0.1","2","3","",""
"animation","187","217035","0.0-5.0-2.91","63ecff07b619306f41db42fa","bdp_cybrbll","Sat Mar 25 2023 21:29:29 GMT-0700 (Pacific Daylight Time)","450585","3","1","","","","","","","","","","134","","","","2","3","[{""stimulus"":""img/2to3/1.png"",""time"":100},{""stimulus"":""img/2to3/2.png"",""time"":198},{""stimulus"":""img/2to3/3.png"",""time"":298},{""stimulus"":""img/2to3/4.png"",""time"":397},{""stimulus"":""img/2to3/5.png"",""time"":496},{""stimulus"":""img/2to3/6.png"",""time"":594},{""stimulus"":""img/2to3/7.png"",""time"":695},{""stimulus"":""img/2to3/8.png"",""time"":792},{""stimulus"":""img/2to3/9.png"",""time"":891},{""stimulus"":""img/2to3/10.png"",""time"":991},{""stimulus"":""img/2to3/11.png"",""time"":1090},{""stimulus"":""img/2to3/12.png"",""time"":1188}]","[]"
"image-keyboard-response","188","217718","0.0-5.0-1.92","63ecff07b619306f41db42fa","bdp_cybrbll","Sat Mar 25 2023 21:29:29 GMT-0700 (Pacific Daylight Time)","450585","3","1","","null","","","","observe","","img/3to2/1.png","null","133","680","0.5","0.1","3","2","",""
"animation","189","219006","0.0-5.0-2.92","63ecff07b619306f41db42fa","bdp_cybrbll","Sat Mar 25 2023 21:29:29 GMT-0700 (Pacific Daylight Time)","450585","3","1","","","","","","","","","","133","","","","3","2","[{""stimulus"":""img/3to2/1.png"",""time"":100},{""stimulus"":""img/3to2/2.png"",""time"":198},{""stimulus"":""img/3to2/3.png"",""time"":298},{""stimulus"":""img/3to2/4.png"",""time"":397},{""stimulus"":""img/3to2/5.png"",""time"":495},{""stimulus"":""img/3to2/6.png"",""time"":594},{""stimulus"":""img/3to2/7.png"",""time"":694},{""stimulus"":""img/3to2/8.png"",""time"":793},{""stimulus"":""img/3to2/9.png"",""time"":892},{""stimulus"":""img/3to2/10.png"",""time"":992},{""stimulus"":""img/3to2/11.png"",""time"":1090},{""stimulus"":""img/3to2/12.png"",""time"":1189}]","[]"
"image-keyboard-response","190","219168","0.0-5.0-1.93","63ecff07b619306f41db42fa","bdp_cybrbll","Sat Mar 25 2023 21:29:29 GMT-0700 (Pacific Daylight Time)","450585","3","1","","161","","","","choice","","img/2to1/1.png","2","132","513","0.5","0.1","2","3","",""
