"trial_type","trial_index","time_elapsed","internal_node_id","subject_id","task","startTime","totalTime","fairPartner","unfairPartner","view_history","rt","event","trial","time","trialtype","success","stimulus","key_press","throwsLeft","rtDur","pFair","pUnfair","holder","receiver","animation_sequence","responses"
"pavlovia","0","2","0.0-0.0","63d2bc12a843f8466a8f83e0","bdp_cybrbll","Sun Apr 09 2023 21:04:21 GMT-0400 (Eastern Daylight Time)","434952","3","1","","","","","","","","","","","","","","","","",""
"instructions","1","1152","0.0-1.0","63d2bc12a843f8466a8f83e0","bdp_cybrbll","Sun Apr 09 2023 21:04:21 GMT-0400 (Eastern Daylight Time)","434952","3","1","[{""page_index"":0,""viewing_time"":1150}]","1150","","","","","","","","","","","","","","",""
"","","","","63d2bc12a843f8466a8f83e0","bdp_cybrbll","Sun Apr 09 2023 21:04:21 GMT-0400 (Eastern Daylight Time)","434952","3","1","","","fullscreenenter","2","2957","fullscreenenter","","","","","","","","","","",""
"fullscreen","2","3953","0.0-2.0","63d2bc12a843f8466a8f83e0","bdp_cybrbll","Sun Apr 09 2023 21:04:21 GMT-0400 (Eastern Daylight Time)","434952","3","1","","","","","","","true","","","","","","","","","",""
"instructions","3","45159","0.0-4.0","63d2bc12a843f8466a8f83e0","bdp_cybrbll","Sun Apr 09 2023 21:04:21 GMT-0400 (Eastern Daylight Time)","434952","3","1","[{""page_index"":0,""viewing_time"":41206}]","41206","","","","","","","","","","","","","","",""
"image-keyboard-response","4","46474","0.0-5.0-1.0","63d2bc12a843f8466a8f83e0","bdp_cybrbll","Sun Apr 09 2023 21:04:21 GMT-0400 (Eastern Daylight Time)","434952","3","1","","1314","","","","choice","","img/2to1/1.png","1","225","589","0.5","0.5","2","1","",""
"animation","5","47762","0.0-5.0-2.0","63d2bc12a843f8466a8f83e0","bdp_cybrbll","Sun Apr 09 2023 21:04:21 GMT-0400 (Eastern Daylight Time)","434952","3","1","","","","","","","","","","225","","","","2","1","[{""stimulus"":""img/2to1/1.png"",""time"":100},{""stimulus"":""img/2to1/2.png"",""time"":199},{""stimulus"":""img/2to1/3.png"",""time"":298},{""stimulus"":""img/2to1/4.png"",""time"":397},{""stimulus"":""img/2to1/5.png"",""time"":496},{""stimulus"":""img/2to1/6.png"",""time"":595},{""stimulus"":""img/2to1/7.png"",""time"":694},{""stimulus"":""img/2to1/8.png"",""time"":793},{""stimulus"":""img/2to1/9.png"",""time"":892},{""stimulus"":""img/2to1/10.png"",""time"":991},{""stimulus"":""img/2to1/11.png"",""time"":1090},{""stimulus"":""img/2to1/12.png"",""time"":1189}]","[]"
"image-keyboard-response","6","48046","0.0-5.0-1.1","63d2bc12a843f8466a8f83e0","bdp_cybrbll","Sun Apr 09 2023 21:04:21 GMT-0400 (Eastern Daylight Time)","434952","3","1","","null","","","","observe","","img/1to3/1.png","null","224","283","0.5","0.5","1","2","",""
"animation","7","49333","0.0-5.0-2.1","63d2bc12a843f8466a8f83e0","bdp_cybrbll","Sun Apr 09 2023 21:04:21 GMT-0400 (Eastern Daylight Time)","434952","3","1","","","","","","","","","","224","","","","1","2","[{""stimulus"":""img/1to2/1.png"",""time"":100},{""stimulus"":""img/1to2/2.png"",""time"":200},{""stimulus"":""img/1to2/3.png"",""time"":298},{""stimulus"":""img/1to2/4.png"",""time"":397},{""stimulus"":""img/1to2/5.png"",""time"":496},{""stimulus"":""img/1to2/6.png"",""time"":595},{""stimulus"":""img/1to2/7.png"",""time"":694},{""stimulus"":""img/1to2/8.png"",""time"":793},{""stimulus"":""img/1to2/9.png"",""time"":892},{""stimulus"":""img/1to2/10.png"",""time"":992},{""stimulus"":""img/1to2/11.png"",""time"":1091},{""stimulus"":""img/1to2/12.png"",""time"":1188}]","[]"
"image-keyboard-response","8","49376","0.0-5.0-1.2","63d2bc12a843f8466a8f83e0","bdp_cybrbll","Sun Apr 09 2023 21:04:21 GMT-0400 (Eastern Daylight Time)","434952","3","1","","42","","","","choice","","img/2to1/1.png","2","223","276","0.5","0.5","2","3","",""
"animation","9","50664","0.0-5.0-2.2","63d2bc12a843f8466a8f83e0","bdp_cybrbll","Sun Apr 09 2023 21:04:21 GMT-0400 (Eastern Daylight Time)","434952","3","1","","","","","","","","","","223","","","","2","3","[{""stimulus"":""img/2to3/1.png"",""time"":99},{""stimulus"":""img/2to3/2.png"",""time"":198},{""stimulus"":""img/2to3/3.png"",""time"":298},{""stimulus"":""img/2to3/4.png"",""time"":397},{""stimulus"":""img/2to3/5.png"",""time"":496},{""stimulus"":""img/2to3/6.png"",""time"":595},{""stimulus"":""img/2to3/7.png"",""time"":694},{""stimulus"":""img/2to3/8.png"",""time"":793},{""stimulus"":""img/2to3/9.png"",""time"":892},{""stimulus"":""img/2to3/10.png"",""time"":991},{""stimulus"":""img/2to3/11.png"",""time"":1090},{""stimulus"":""img/2to3/12.png"",""time"":1189}]","[]"
"image-keyboard-response","10","51013","0.0-5.0-1.3","63d2bc12a843f8466a8f83e0","bdp_cybrbll","Sun Apr 09 2023 21:04:21 GMT-0400 (Eastern Daylight Time)","434952","3","1","","null","","","","observe","","img/3to2/1.png","null","222","348","0.5","0.5","3","2","",""
"animation","11","52300","0.0-5.0-2.3","63d2bc12a843f8466a8f83e0","bdp_cybrbll","Sun Apr 09 2023 21:04:21 GMT-0400 (Eastern Daylight Time)","434952","3","1","","","","","","","","","","222","","","","3","2","[{""stimulus"":""img/3to2/1.png"",""time"":100},{""stimulus"":""img/3to2/2.png"",""time"":199},{""stimulus"":""img/3to2/3.png"",""time"":298},{""stimulus"":""img/3to2/4.png"",""time"":397},{""stimulus"":""img/3to2/5.png"",""time"":496},{""stimulus"":""img/3to2/6.png"",""time"":595},{""stimulus"":""img/3to2/7.png"",""time"":694},{""stimulus"":""img/3to2/8.png"",""time"":793},{""stimulus"":""img/3to2/9.png"",""time"":891},{""stimulus"":""img/3to2/10.png"",""time"":990},{""stimulus"":""img/3to2/11.png"",""time"":1089},{""stimulus"":""img/3to2/12.png"",""time"":1188}]","[]"
"image-keyboard-response","12","52951","0.0-5.0-1.4","63d2bc12a843f8466a8f83e0","bdp_cybrbll","Sun Apr 09 2023 21:04:21 GMT-0400 (Eastern Daylight Time)","434952","3","1","","651","","","","choice","","img/2to1/1.png","1","221","761","0.5","0.5","2","1","",""
"animation","13","54239","0.0-5.0-2.4","63d2bc12a843f8466a8f83e0","bdp_cybrbll","Sun Apr 09 2023 21:04:21 GMT-0400 (Eastern Daylight Time)","434952","3","1","","","","","","","","","","221","","","","2","1","[{""stimulus"":""img/2to1/1.png"",""time"":101},{""stimulus"":""img/2to1/2.png"",""time"":199},{""stimulus"":""img/2to1/3.png"",""time"":298},{""stimulus"":""img/2to1/4.png"",""time"":397},{""stimulus"":""img/2to1/5.png"",""time"":496},{""stimulus"":""img/2to1/6.png"",""time"":595},{""stimulus"":""img/2to1/7.png"",""time"":694},{""stimulus"":""img/2to1/8.png"",""time"":793},{""stimulus"":""img/2to1/9.png"",""time"":892},{""stimulus"":""img/2to1/10.png"",""time"":991},{""stimulus"":""img/2to1/11.png"",""time"":1090},{""stimulus"":""img/2to1/12.png"",""time"":1189}]","[]"
"image-keyboard-response","14","54446","0.0-5.0-1.5","63d2bc12a843f8466a8f83e0","bdp_cybrbll","Sun Apr 09 2023 21:04:21 GMT-0400 (Eastern Daylight Time)","434952","3","1","","null","","","","observe","","img/1to3/1.png","null","220","206","0.5","0.5","1","3","",""
"animation","15","55733","0.0-5.0-2.5","63d2bc12a843f8466a8f83e0","bdp_cybrbll","Sun Apr 09 2023 21:04:21 GMT-0400 (Eastern Daylight Time)","434952","3","1","","","","","","","","","","220","","","","1","3","[{""stimulus"":""img/1to3/1.png"",""time"":100},{""stimulus"":""img/1to3/2.png"",""time"":199},{""stimulus"":""img/1to3/3.png"",""time"":298},{""stimulus"":""img/1to3/4.png"",""time"":397},{""stimulus"":""img/1to3/5.png"",""time"":496},{""stimulus"":""img/1to3/6.png"",""time"":595},{""stimulus"":""img/1to3/7.png"",""time"":694},{""stimulus"":""img/1to3/8.png"",""time"":799},{""stimulus"":""img/1to3/9.png"",""time"":891},{""stimulus"":""img/1to3/10.png"",""time"":990},{""stimulus"":""img/1to3/11.png"",""time"":1089},{""stimulus"":""img/1to3/12.png"",""time"":1188}]","[]"
"image-keyboard-response","16","56053","0.0-5.0-1.6","63d2bc12a843f8466a8f83e0","bdp_cybrbll","Sun Apr 09 2023 21:04:21 GMT-0400 (Eastern Daylight Time)","434952","3","1","","null","","","","observe","","img/3to2/1.png","null","219","319","0.5","0.5","3","2","",""
"animation","17","57341","0.0-5.0-2.6","63d2bc12a843f8466a8f83e0","bdp_cybrbll","Sun Apr 09 2023 21:04:21 GMT-0400 (Eastern Daylight Time)","434952","3","1","","","","","","","","","","219","","","","3","2","[{""stimulus"":""img/3to2/1.png"",""time"":101},{""stimulus"":""img/3to2/2.png"",""time"":200},{""stimulus"":""img/3to2/3.png"",""time"":298},{""stimulus"":""img/3to2/4.png"",""time"":397},{""stimulus"":""img/3to2/5.png"",""time"":496},{""stimulus"":""img/3to2/6.png"",""time"":595},{""stimulus"":""img/3to2/7.png"",""time"":694},{""stimulus"":""img/3to2/8.png"",""time"":793},{""stimulus"":""img/3to2/9.png"",""time"":892},{""stimulus"":""img/3to2/10.png"",""time"":991},{""stimulus"":""img/3to2/11.png"",""time"":1090},{""stimulus"":""img/3to2/12.png"",""time"":1189}]","[]"
"image-keyboard-response","18","57662","0.0-5.0-1.7","63d2bc12a843f8466a8f83e0","bdp_cybrbll","Sun Apr 09 2023 21:04:21 GMT-0400 (Eastern Daylight Time)","434952","3","1","","319","","","","choice","","img/2to1/1.png","2","218","284","0.5","0.5","2","3","",""
"animation","19","58950","0.0-5.0-2.7","63d2bc12a843f8466a8f83e0","bdp_cybrbll","Sun Apr 09 2023 21:04:21 GMT-0400 (Eastern Daylight Time)","434952","3","1","","","","","","","","","","218","","","","2","3","[{""stimulus"":""img/2to3/1.png"",""time"":100},{""stimulus"":""img/2to3/2.png"",""time"":198},{""stimulus"":""img/2to3/3.png"",""time"":299},{""stimulus"":""img/2to3/4.png"",""time"":397},{""stimulus"":""img/2to3/5.png"",""time"":496},{""stimulus"":""img/2to3/6.png"",""time"":595},{""stimulus"":""img/2to3/7.png"",""time"":694},{""stimulus"":""img/2to3/8.png"",""time"":794},{""stimulus"":""img/2to3/9.png"",""time"":892},{""stimulus"":""img/2to3/10.png"",""time"":991},{""stimulus"":""img/2to3/11.png"",""time"":1090},{""stimulus"":""img/2to3/12.png"",""time"":1189}]","[]"
"image-keyboard-response","20","59879","0.0-5.0-1.8","63d2bc12a843f8466a8f83e0","bdp_cybrbll","Sun Apr 09 2023 21:04:21 GMT-0400 (Eastern Daylight Time)","434952","3","1","","null","","","","observe","","img/3to2/1.png","null","217","928","0.5","0.5","3","1","",""
"animation","21","61166","0.0-5.0-2.8","63d2bc12a843f8466a8f83e0","bdp_cybrbll","Sun Apr 09 2023 21:04:21 GMT-0400 (Eastern Daylight Time)","434952","3","1","","","","","","","","","","217","","","","3","1","[{""stimulus"":""img/3to1/1.png"",""time"":100},{""stimulus"":""img/3to1/2.png"",""time"":199},{""stimulus"":""img/3to1/3.png"",""time"":298},{""stimulus"":""img/3to1/4.png"",""time"":397},{""stimulus"":""img/3to1/5.png"",""time"":496},{""stimulus"":""img/3to1/6.png"",""time"":595},{""stimulus"":""img/3to1/7.png"",""time"":694},{""stimulus"":""img/3to1/8.png"",""time"":792},{""stimulus"":""img/3to1/9.png"",""time"":891},{""stimulus"":""img/3to1/10.png"",""time"":990},{""stimulus"":""img/3to1/11.png"",""time"":1089},{""stimulus"":""img/3to1/12.png"",""time"":1188}]","[]"
"image-keyboard-response","22","61345","0.0-5.0-1.9","63d2bc12a843f8466a8f83e0","bdp_cybrbll","Sun Apr 09 2023 21:04:21 GMT-0400 (Eastern Daylight Time)","434952","3","1","","null","","","","observe","","img/1to3/1.png","null","216","178","0.5","0.5","1","2","",""
"animation","23","62632","0.0-5.0-2.9","63d2bc12a843f8466a8f83e0","bdp_cybrbll","Sun Apr 09 2023 21:04:21 GMT-0400 (Eastern Daylight Time)","434952","3","1","","","","","","","","","","216","","","","1","2","[{""stimulus"":""img/1to2/1.png"",""time"":100},{""stimulus"":""img/1to2/2.png"",""time"":199},{""stimulus"":""img/1to2/3.png"",""time"":298},{""stimulus"":""img/1to2/4.png"",""time"":397},{""stimulus"":""img/1to2/5.png"",""time"":496},{""stimulus"":""img/1to2/6.png"",""time"":595},{""stimulus"":""img/1to2/7.png"",""time"":694},{""stimulus"":""img/1to2/8.png"",""time"":793},{""stimulus"":""img/1to2/9.png"",""time"":892},{""stimulus"":""img/1to2/10.png"",""time"":992},{""stimulus"":""img/1to2/11.png"",""time"":1091},{""stimulus"":""img/1to2/12.png"",""time"":1189}]","[]"
"image-keyboard-response","24","62715","0.0-5.0-1.10","63d2bc12a843f8466a8f83e0","bdp_cybrbll","Sun Apr 09 2023 21:04:21 GMT-0400 (Eastern Daylight Time)","434952","3","1","","82","","","","choice","","img/2to1/1.png","2","215","529","0.5","0.5","2","3","",""
"animation","25","64004","0.0-5.0-2.10","63d2bc12a843f8466a8f83e0","bdp_cybrbll","Sun Apr 09 2023 21:04:21 GMT-0400 (Eastern Daylight Time)","434952","3","1","","","","","","","","","","215","","","","2","3","[{""stimulus"":""img/2to3/1.png"",""time"":100},{""stimulus"":""img/2to3/2.png"",""time"":199},{""stimulus"":""img/2to3/3.png"",""time"":298},{""stimulus"":""img/2to3/4.png"",""time"":397},{""stimulus"":""img/2to3/5.png"",""time"":496},{""stimulus"":""img/2to3/6.png"",""time"":595},{""stimulus"":""img/2to3/7.png"",""time"":694},{""stimulus"":""img/2to3/8.png"",""time"":793},{""stimulus"":""img/2to3/9.png"",""time"":892},{""stimulus"":""img/2to3/10.png"",""time"":991},{""stimulus"":""img/2to3/11.png"",""time"":1090},{""stimulus"":""img/2to3/12.png"",""time"":1189}]","[]"
"image-keyboard-response","26","64306","0.0-5.0-1.11","63d2bc12a843f8466a8f83e0","bdp_cybrbll","Sun Apr 09 2023 21:04:21 GMT-0400 (Eastern Daylight Time)","434952","3","1","","null","","","","observe","","img/3to2/1.png","null","214","301","0.5","0.5","3","2","",""
"animation","27","65594","0.0-5.0-2.11","63d2bc12a843f8466a8f83e0","bdp_cybrbll","Sun Apr 09 2023 21:04:21 GMT-0400 (Eastern Daylight Time)","434952","3","1","","","","","","","","","","214","","","","3","2","[{""stimulus"":""img/3to2/1.png"",""time"":101},{""stimulus"":""img/3to2/2.png"",""time"":200},{""stimulus"":""img/3to2/3.png"",""time"":299},{""stimulus"":""img/3to2/4.png"",""time"":398},{""stimulus"":""img/3to2/5.png"",""time"":497},{""stimulus"":""img/3to2/6.png"",""time"":596},{""stimulus"":""img/3to2/7.png"",""time"":695},{""stimulus"":""img/3to2/8.png"",""time"":794},{""stimulus"":""img/3to2/9.png"",""time"":892},{""stimulus"":""img/3to2/10.png"",""time"":991},{""stimulus"":""img/3to2/11.png"",""time"":1090},{""stimulus"":""img/3to2/12.png"",""time"":1189}]","[]"
"image-keyboard-response","28","65636","0.0-5.0-1.12","63d2bc12a843f8466a8f83e0","bdp_cybrbll","Sun Apr 09 2023 21:04:21 GMT-0400 (Eastern Daylight Time)","434952","3","1","","42","","","","choice","","img/2to1/1.png","1","213","415","0.5","0.5","2","1","",""
"animation","29","66924","0.0-5.0-2.12","63d2bc12a843f8466a8f83e0","bdp_cybrbll","Sun Apr 09 2023 21:04:21 GMT-0400 (Eastern Daylight Time)","434952","3","1","","","","","","","","","","213","","","","2","1","[{""stimulus"":""img/2to1/1.png"",""time"":100},{""stimulus"":""img/2to1/2.png"",""time"":200},{""stimulus"":""img/2to1/3.png"",""time"":298},{""stimulus"":""img/2to1/4.png"",""time"":397},{""stimulus"":""img/2to1/5.png"",""time"":496},{""stimulus"":""img/2to1/6.png"",""time"":595},{""stimulus"":""img/2to1/7.png"",""time"":694},{""stimulus"":""img/2to1/8.png"",""time"":793},{""stimulus"":""img/2to1/9.png"",""time"":892},{""stimulus"":""img/2to1/10.png"",""time"":991},{""stimulus"":""img/2to1/11.png"",""time"":1090},{""stimulus"":""img/2to1/12.png"",""time"":1190}]","[]"
"image-keyboard-response","30","67477","0.0-5.0-1.13","63d2bc12a843f8466a8f83e0","bdp_cybrbll","Sun Apr 09 2023 21:04:21 GMT-0400 (Eastern Daylight Time)","434952","3","1","","null","","","","observe","","img/1to3/1.png","null","212","552","0.5","0.5","1","2","",""
"animation","31","68765","0.0-5.0-2.13","63d2bc12a843f8466a8f83e0","bdp_cybrbll","Sun Apr 09 2023 21:04:21 GMT-0400 (Eastern Daylight Time)","434952","3","1","","","","","","","","","","212","","","","1","2","[{""stimulus"":""img/1to2/1.png"",""time"":100},{""stimulus"":""img/1to2/2.png"",""time"":199},{""stimulus"":""img/1to2/3.png"",""time"":298},{""stimulus"":""img/1to2/4.png"",""time"":397},{""stimulus"":""img/1to2/5.png"",""time"":496},{""stimulus"":""img/1to2/6.png"",""time"":595},{""stimulus"":""img/1to2/7.png"",""time"":693},{""stimulus"":""img/1to2/8.png"",""time"":792},{""stimulus"":""img/1to2/9.png"",""time"":891},{""stimulus"":""img/1to2/10.png"",""time"":991},{""stimulus"":""img/1to2/11.png"",""time"":1091},{""stimulus"":""img/1to2/12.png"",""time"":1189}]","[]"
"image-keyboard-response","32","68773","0.0-5.0-1.14","63d2bc12a843f8466a8f83e0","bdp_cybrbll","Sun Apr 09 2023 21:04:21 GMT-0400 (Eastern Daylight Time)","434952","3","1","","8","","","","choice","","img/2to1/1.png","2","211","682","0.5","0.5","2","3","",""
"animation","33","70060","0.0-5.0-2.14","63d2bc12a843f8466a8f83e0","bdp_cybrbll","Sun Apr 09 2023 21:04:21 GMT-0400 (Eastern Daylight Time)","434952","3","1","","","","","","","","","","211","","","","2","3","[{""stimulus"":""img/2to3/1.png"",""time"":99},{""stimulus"":""img/2to3/2.png"",""time"":198},{""stimulus"":""img/2to3/3.png"",""time"":297},{""stimulus"":""img/2to3/4.png"",""time"":396},{""stimulus"":""img/2to3/5.png"",""time"":496},{""stimulus"":""img/2to3/6.png"",""time"":594},{""stimulus"":""img/2to3/7.png"",""time"":693},{""stimulus"":""img/2to3/8.png"",""time"":792},{""stimulus"":""img/2to3/9.png"",""time"":891},{""stimulus"":""img/2to3/10.png"",""time"":990},{""stimulus"":""img/2to3/11.png"",""time"":1089},{""stimulus"":""img/2to3/12.png"",""time"":1188}]","[]"
"image-keyboard-response","34","70571","0.0-5.0-1.15","63d2bc12a843f8466a8f83e0","bdp_cybrbll","Sun Apr 09 2023 21:04:21 GMT-0400 (Eastern Daylight Time)","434952","3","1","","null","","","","observe","","img/3to2/1.png","null","210","510","0.5","0.5","3","1","",""
"animation","35","71859","0.0-5.0-2.15","63d2bc12a843f8466a8f83e0","bdp_cybrbll","Sun Apr 09 2023 21:04:21 GMT-0400 (Eastern Daylight Time)","434952","3","1","","","","","","","","","","210","","","","3","1","[{""stimulus"":""img/3to1/1.png"",""time"":101},{""stimulus"":""img/3to1/2.png"",""time"":200},{""stimulus"":""img/3to1/3.png"",""time"":299},{""stimulus"":""img/3to1/4.png"",""time"":398},{""stimulus"":""img/3to1/5.png"",""time"":497},{""stimulus"":""img/3to1/6.png"",""time"":596},{""stimulus"":""img/3to1/7.png"",""time"":695},{""stimulus"":""img/3to1/8.png"",""time"":794},{""stimulus"":""img/3to1/9.png"",""time"":892},{""stimulus"":""img/3to1/10.png"",""time"":991},{""stimulus"":""img/3to1/11.png"",""time"":1090},{""stimulus"":""img/3to1/12.png"",""time"":1189}]","[]"
"image-keyboard-response","36","72201","0.0-5.0-1.16","63d2bc12a843f8466a8f83e0","bdp_cybrbll","Sun Apr 09 2023 21:04:21 GMT-0400 (Eastern Daylight Time)","434952","3","1","","null","","","","observe","","img/1to3/1.png","null","209","341","0.5","0.5","1","2","",""
"animation","37","73488","0.0-5.0-2.16","63d2bc12a843f8466a8f83e0","bdp_cybrbll","Sun Apr 09 2023 21:04:21 GMT-0400 (Eastern Daylight Time)","434952","3","1","","","","","","","","","","209","","","","1","2","[{""stimulus"":""img/1to2/1.png"",""time"":100},{""stimulus"":""img/1to2/2.png"",""time"":200},{""stimulus"":""img/1to2/3.png"",""time"":298},{""stimulus"":""img/1to2/4.png"",""time"":397},{""stimulus"":""img/1to2/5.png"",""time"":496},{""stimulus"":""img/1to2/6.png"",""time"":595},{""stimulus"":""img/1to2/7.png"",""time"":694},{""stimulus"":""img/1to2/8.png"",""time"":793},{""stimulus"":""img/1to2/9.png"",""time"":891},{""stimulus"":""img/1to2/10.png"",""time"":990},{""stimulus"":""img/1to2/11.png"",""time"":1089},{""stimulus"":""img/1to2/12.png"",""time"":1188}]","[]"
"image-keyboard-response","38","73937","0.0-5.0-1.17","63d2bc12a843f8466a8f83e0","bdp_cybrbll","Sun Apr 09 2023 21:04:21 GMT-0400 (Eastern Daylight Time)","434952","3","1","","449","","","","choice","","img/2to1/1.png","1","208","281","0.5","0.5","2","1","",""
"animation","39","75224","0.0-5.0-2.17","63d2bc12a843f8466a8f83e0","bdp_cybrbll","Sun Apr 09 2023 21:04:21 GMT-0400 (Eastern Daylight Time)","434952","3","1","","","","","","","","","","208","","","","2","1","[{""stimulus"":""img/2to1/1.png"",""time"":101},{""stimulus"":""img/2to1/2.png"",""time"":199},{""stimulus"":""img/2to1/3.png"",""time"":298},{""stimulus"":""img/2to1/4.png"",""time"":397},{""stimulus"":""img/2to1/5.png"",""time"":496},{""stimulus"":""img/2to1/6.png"",""time"":595},{""stimulus"":""img/2to1/7.png"",""time"":693},{""stimulus"":""img/2to1/8.png"",""time"":792},{""stimulus"":""img/2to1/9.png"",""time"":891},{""stimulus"":""img/2to1/10.png"",""time"":990},{""stimulus"":""img/2to1/11.png"",""time"":1090},{""stimulus"":""img/2to1/12.png"",""time"":1189}]","[]"
"image-keyboard-response","40","75758","0.0-5.0-1.18","63d2bc12a843f8466a8f83e0","bdp_cybrbll","Sun Apr 09 2023 21:04:21 GMT-0400 (Eastern Daylight Time)","434952","3","1","","null","","","","observe","","img/1to3/1.png","null","207","532","0.5","0.5","1","2","",""
"animation","41","77045","0.0-5.0-2.18","63d2bc12a843f8466a8f83e0","bdp_cybrbll","Sun Apr 09 2023 21:04:21 GMT-0400 (Eastern Daylight Time)","434952","3","1","","","","","","","","","","207","","","","1","2","[{""stimulus"":""img/1to2/1.png"",""time"":100},{""stimulus"":""img/1to2/2.png"",""time"":199},{""stimulus"":""img/1to2/3.png"",""time"":298},{""stimulus"":""img/1to2/4.png"",""time"":397},{""stimulus"":""img/1to2/5.png"",""time"":496},{""stimulus"":""img/1to2/6.png"",""time"":595},{""stimulus"":""img/1to2/7.png"",""time"":694},{""stimulus"":""img/1to2/8.png"",""time"":793},{""stimulus"":""img/1to2/9.png"",""time"":904},{""stimulus"":""img/1to2/10.png"",""time"":990},{""stimulus"":""img/1to2/11.png"",""time"":1089},{""stimulus"":""img/1to2/12.png"",""time"":1188}]","[]"
"image-keyboard-response","42","77305","0.0-5.0-1.19","63d2bc12a843f8466a8f83e0","bdp_cybrbll","Sun Apr 09 2023 21:04:21 GMT-0400 (Eastern Daylight Time)","434952","3","1","","260","","","","choice","","img/2to1/1.png","1","206","1257","0.5","0.5","2","1","",""
"animation","43","78593","0.0-5.0-2.19","63d2bc12a843f8466a8f83e0","bdp_cybrbll","Sun Apr 09 2023 21:04:21 GMT-0400 (Eastern Daylight Time)","434952","3","1","","","","","","","","","","206","","","","2","1","[{""stimulus"":""img/2to1/1.png"",""time"":100},{""stimulus"":""img/2to1/2.png"",""time"":199},{""stimulus"":""img/2to1/3.png"",""time"":298},{""stimulus"":""img/2to1/4.png"",""time"":397},{""stimulus"":""img/2to1/5.png"",""time"":496},{""stimulus"":""img/2to1/6.png"",""time"":595},{""stimulus"":""img/2to1/7.png"",""time"":694},{""stimulus"":""img/2to1/8.png"",""time"":793},{""stimulus"":""img/2to1/9.png"",""time"":892},{""stimulus"":""img/2to1/10.png"",""time"":991},{""stimulus"":""img/2to1/11.png"",""time"":1090},{""stimulus"":""img/2to1/12.png"",""time"":1189}]","[]"
"image-keyboard-response","44","79435","0.0-5.0-1.20","63d2bc12a843f8466a8f83e0","bdp_cybrbll","Sun Apr 09 2023 21:04:21 GMT-0400 (Eastern Daylight Time)","434952","3","1","","null","","","","observe","","img/1to3/1.png","null","205","841","0.5","0.5","1","3","",""
"animation","45","80723","0.0-5.0-2.20","63d2bc12a843f8466a8f83e0","bdp_cybrbll","Sun Apr 09 2023 21:04:21 GMT-0400 (Eastern Daylight Time)","434952","3","1","","","","","","","","","","205","","","","1","3","[{""stimulus"":""img/1to3/1.png"",""time"":101},{""stimulus"":""img/1to3/2.png"",""time"":201},{""stimulus"":""img/1to3/3.png"",""time"":299},{""stimulus"":""img/1to3/4.png"",""time"":398},{""stimulus"":""img/1to3/5.png"",""time"":497},{""stimulus"":""img/1to3/6.png"",""time"":596},{""stimulus"":""img/1to3/7.png"",""time"":695},{""stimulus"":""img/1to3/8.png"",""time"":793},{""stimulus"":""img/1to3/9.png"",""time"":892},{""stimulus"":""img/1to3/10.png"",""time"":991},{""stimulus"":""img/1to3/11.png"",""time"":1090},{""stimulus"":""img/1to3/12.png"",""time"":1189}]","[]"
"image-keyboard-response","46","81666","0.0-5.0-1.21","63d2bc12a843f8466a8f83e0","bdp_cybrbll","Sun Apr 09 2023 21:04:21 GMT-0400 (Eastern Daylight Time)","434952","3","1","","null","","","","observe","","img/3to2/1.png","null","204","943","0.5","0.5","3","2","",""
"animation","47","82954","0.0-5.0-2.21","63d2bc12a843f8466a8f83e0","bdp_cybrbll","Sun Apr 09 2023 21:04:21 GMT-0400 (Eastern Daylight Time)","434952","3","1","","","","","","","","","","204","","","","3","2","[{""stimulus"":""img/3to2/1.png"",""time"":100},{""stimulus"":""img/3to2/2.png"",""time"":199},{""stimulus"":""img/3to2/3.png"",""time"":298},{""stimulus"":""img/3to2/4.png"",""time"":397},{""stimulus"":""img/3to2/5.png"",""time"":497},{""stimulus"":""img/3to2/6.png"",""time"":599},{""stimulus"":""img/3to2/7.png"",""time"":694},{""stimulus"":""img/3to2/8.png"",""time"":792},{""stimulus"":""img/3to2/9.png"",""time"":891},{""stimulus"":""img/3to2/10.png"",""time"":990},{""stimulus"":""img/3to2/11.png"",""time"":1089},{""stimulus"":""img/3to2/12.png"",""time"":1188}]","[]"
"image-keyboard-response","48","83162","0.0-5.0-1.22","63d2bc12a843f8466a8f83e0","bdp_cybrbll","Sun Apr 09 2023 21:04:21 GMT-0400 (Eastern Daylight Time)","434952","3","1","","208","","","","choice","","img/2to1/1.png","2","203","741","0.5","0.5","2","3","",""
"animation","49","84450","0.0-5.0-2.22","63d2bc12a843f8466a8f83e0","bdp_cybrbll","Sun Apr 09 2023 21:04:21 GMT-0400 (Eastern Daylight Time)","434952","3","1","","","","","","","","","","203","","","","2","3","[{""stimulus"":""img/2to3/1.png"",""time"":100},{""stimulus"":""img/2to3/2.png"",""time"":198},{""stimulus"":""img/2to3/3.png"",""time"":297},{""stimulus"":""img/2to3/4.png"",""time"":396},{""stimulus"":""img/2to3/5.png"",""time"":495},{""stimulus"":""img/2to3/6.png"",""time"":594},{""stimulus"":""img/2to3/7.png"",""time"":693},{""stimulus"":""img/2to3/8.png"",""time"":792},{""stimulus"":""img/2to3/9.png"",""time"":891},{""stimulus"":""img/2to3/10.png"",""time"":990},{""stimulus"":""img/2to3/11.png"",""time"":1098},{""stimulus"":""img/2to3/12.png"",""time"":1188}]","[]"
"image-keyboard-response","50","84867","0.0-5.0-1.23","63d2bc12a843f8466a8f83e0","bdp_cybrbll","Sun Apr 09 2023 21:04:21 GMT-0400 (Eastern Daylight Time)","434952","3","1","","null","","","","observe","","img/3to2/1.png","null","202","416","0.5","0.5","3","1","",""
"animation","51","86154","0.0-5.0-2.23","63d2bc12a843f8466a8f83e0","bdp_cybrbll","Sun Apr 09 2023 21:04:21 GMT-0400 (Eastern Daylight Time)","434952","3","1","","","","","","","","","","202","","","","3","1","[{""stimulus"":""img/3to1/1.png"",""time"":100},{""stimulus"":""img/3to1/2.png"",""time"":200},{""stimulus"":""img/3to1/3.png"",""time"":298},{""stimulus"":""img/3to1/4.png"",""time"":397},{""stimulus"":""img/3to1/5.png"",""time"":496},{""stimulus"":""img/3to1/6.png"",""time"":595},{""stimulus"":""img/3to1/7.png"",""time"":694},{""stimulus"":""img/3to1/8.png"",""time"":792},{""stimulus"":""img/3to1/9.png"",""time"":892},{""stimulus"":""img/3to1/10.png"",""time"":990},{""stimulus"":""img/3to1/11.png"",""time"":1090},{""stimulus"":""img/3to1/12.png"",""time"":1189}]","[]"
"image-keyboard-response","52","86378","0.0-5.0-1.24","63d2bc12a843f8466a8f83e0","bdp_cybrbll","Sun Apr 09 2023 21:04:21 GMT-0400 (Eastern Daylight Time)","434952","3","1","","null","","","","observe","","img/1to3/1.png","null","201","222","0.5","0.5","1","3","",""
"animation","53","87665","0.0-5.0-2.24","63d2bc12a843f8466a8f83e0","bdp_cybrbll","Sun Apr 09 2023 21:04:21 GMT-0400 (Eastern Daylight Time)","434952","3","1","","","","","","","","","","201","","","","1","3","[{""stimulus"":""img/1to3/1.png"",""time"":100},{""stimulus"":""img/1to3/2.png"",""time"":199},{""stimulus"":""img/1to3/3.png"",""time"":298},{""stimulus"":""img/1to3/4.png"",""time"":397},{""stimulus"":""img/1to3/5.png"",""time"":496},{""stimulus"":""img/1to3/6.png"",""time"":595},{""stimulus"":""img/1to3/7.png"",""time"":694},{""stimulus"":""img/1to3/8.png"",""time"":793},{""stimulus"":""img/1to3/9.png"",""time"":892},{""stimulus"":""img/1to3/10.png"",""time"":991},{""stimulus"":""img/1to3/11.png"",""time"":1089},{""stimulus"":""img/1to3/12.png"",""time"":1188}]","[]"
"image-keyboard-response","54","88138","0.0-5.0-1.25","63d2bc12a843f8466a8f83e0","bdp_cybrbll","Sun Apr 09 2023 21:04:21 GMT-0400 (Eastern Daylight Time)","434952","3","1","","null","","","","observe","","img/3to2/1.png","null","200","472","0.5","0.5","3","1","",""
"animation","55","89425","0.0-5.0-2.25","63d2bc12a843f8466a8f83e0","bdp_cybrbll","Sun Apr 09 2023 21:04:21 GMT-0400 (Eastern Daylight Time)","434952","3","1","","","","","","","","","","200","","","","3","1","[{""stimulus"":""img/3to1/1.png"",""time"":100},{""stimulus"":""img/3to1/2.png"",""time"":199},{""stimulus"":""img/3to1/3.png"",""time"":299},{""stimulus"":""img/3to1/4.png"",""time"":397},{""stimulus"":""img/3to1/5.png"",""time"":496},{""stimulus"":""img/3to1/6.png"",""time"":595},{""stimulus"":""img/3to1/7.png"",""time"":694},{""stimulus"":""img/3to1/8.png"",""time"":792},{""stimulus"":""img/3to1/9.png"",""time"":891},{""stimulus"":""img/3to1/10.png"",""time"":990},{""stimulus"":""img/3to1/11.png"",""time"":1089},{""stimulus"":""img/3to1/12.png"",""time"":1188}]","[]"
"image-keyboard-response","56","89817","0.0-5.0-1.26","63d2bc12a843f8466a8f83e0","bdp_cybrbll","Sun Apr 09 2023 21:04:21 GMT-0400 (Eastern Daylight Time)","434952","3","1","","null","","","","observe","","img/1to3/1.png","null","199","391","0.5","0.5","1","3","",""
"animation","57","91105","0.0-5.0-2.26","63d2bc12a843f8466a8f83e0","bdp_cybrbll","Sun Apr 09 2023 21:04:21 GMT-0400 (Eastern Daylight Time)","434952","3","1","","","","","","","","","","199","","","","1","3","[{""stimulus"":""img/1to3/1.png"",""time"":100},{""stimulus"":""img/1to3/2.png"",""time"":199},{""stimulus"":""img/1to3/3.png"",""time"":298},{""stimulus"":""img/1to3/4.png"",""time"":397},{""stimulus"":""img/1to3/5.png"",""time"":497},{""stimulus"":""img/1to3/6.png"",""time"":597},{""stimulus"":""img/1to3/7.png"",""time"":694},{""stimulus"":""img/1to3/8.png"",""time"":793},{""stimulus"":""img/1to3/9.png"",""time"":893},{""stimulus"":""img/1to3/10.png"",""time"":991},{""stimulus"":""img/1to3/11.png"",""time"":1090},{""stimulus"":""img/1to3/12.png"",""time"":1189}]","[]"
"image-keyboard-response","58","91785","0.0-5.0-1.27","63d2bc12a843f8466a8f83e0","bdp_cybrbll","Sun Apr 09 2023 21:04:21 GMT-0400 (Eastern Daylight Time)","434952","3","1","","null","","","","observe","","img/3to2/1.png","null","198","680","0.5","0.5","3","2","",""
"animation","59","93073","0.0-5.0-2.27","63d2bc12a843f8466a8f83e0","bdp_cybrbll","Sun Apr 09 2023 21:04:21 GMT-0400 (Eastern Daylight Time)","434952","3","1","","","","","","","","","","198","","","","3","2","[{""stimulus"":""img/3to2/1.png"",""time"":100},{""stimulus"":""img/3to2/2.png"",""time"":199},{""stimulus"":""img/3to2/3.png"",""time"":298},{""stimulus"":""img/3to2/4.png"",""time"":398},{""stimulus"":""img/3to2/5.png"",""time"":497},{""stimulus"":""img/3to2/6.png"",""time"":597},{""stimulus"":""img/3to2/7.png"",""time"":695},{""stimulus"":""img/3to2/8.png"",""time"":793},{""stimulus"":""img/3to2/9.png"",""time"":892},{""stimulus"":""img/3to2/10.png"",""time"":991},{""stimulus"":""img/3to2/11.png"",""time"":1090},{""stimulus"":""img/3to2/12.png"",""time"":1189}]","[]"
"image-keyboard-response","60","93168","0.0-5.0-1.28","63d2bc12a843f8466a8f83e0","bdp_cybrbll","Sun Apr 09 2023 21:04:21 GMT-0400 (Eastern Daylight Time)","434952","3","1","","95","","","","choice","","img/2to1/1.png","1","197","549","0.5","0.5","2","1","",""
"animation","61","94456","0.0-5.0-2.28","63d2bc12a843f8466a8f83e0","bdp_cybrbll","Sun Apr 09 2023 21:04:21 GMT-0400 (Eastern Daylight Time)","434952","3","1","","","","","","","","","","197","","","","2","1","[{""stimulus"":""img/2to1/1.png"",""time"":100},{""stimulus"":""img/2to1/2.png"",""time"":200},{""stimulus"":""img/2to1/3.png"",""time"":299},{""stimulus"":""img/2to1/4.png"",""time"":397},{""stimulus"":""img/2to1/5.png"",""time"":496},{""stimulus"":""img/2to1/6.png"",""time"":595},{""stimulus"":""img/2to1/7.png"",""time"":694},{""stimulus"":""img/2to1/8.png"",""time"":794},{""stimulus"":""img/2to1/9.png"",""time"":893},{""stimulus"":""img/2to1/10.png"",""time"":991},{""stimulus"":""img/2to1/11.png"",""time"":1090},{""stimulus"":""img/2to1/12.png"",""time"":1189}]","[]"
"image-keyboard-response","62","94828","0.0-5.0-1.29","63d2bc12a843f8466a8f83e0","bdp_cybrbll","Sun Apr 09 2023 21:04:21 GMT-0400 (Eastern Daylight Time)","434952","3","1","","null","","","","observe","","img/1to3/1.png","null","196","371","0.5","0.5","1","2","",""
"animation","63","96115","0.0-5.0-2.29","63d2bc12a843f8466a8f83e0","bdp_cybrbll","Sun Apr 09 2023 21:04:21 GMT-0400 (Eastern Daylight Time)","434952","3","1","","","","","","","","","","196","","","","1","2","[{""stimulus"":""img/1to2/1.png"",""time"":100},{""stimulus"":""img/1to2/2.png"",""time"":199},{""stimulus"":""img/1to2/3.png"",""time"":298},{""stimulus"":""img/1to2/4.png"",""time"":397},{""stimulus"":""img/1to2/5.png"",""time"":496},{""stimulus"":""img/1to2/6.png"",""time"":596},{""stimulus"":""img/1to2/7.png"",""time"":694},{""stimulus"":""img/1to2/8.png"",""time"":792},{""stimulus"":""img/1to2/9.png"",""time"":891},{""stimulus"":""img/1to2/10.png"",""time"":990},{""stimulus"":""img/1to2/11.png"",""time"":1089},{""stimulus"":""img/1to2/12.png"",""time"":1188}]","[]"
"image-keyboard-response","64","96282","0.0-5.0-1.30","63d2bc12a843f8466a8f83e0","bdp_cybrbll","Sun Apr 09 2023 21:04:21 GMT-0400 (Eastern Daylight Time)","434952","3","1","","166","","","","choice","","img/2to1/1.png","2","195","356","0.5","0.5","2","3","",""
"animation","65","97571","0.0-5.0-2.30","63d2bc12a843f8466a8f83e0","bdp_cybrbll","Sun Apr 09 2023 21:04:21 GMT-0400 (Eastern Daylight Time)","434952","3","1","","","","","","","","","","195","","","","2","3","[{""stimulus"":""img/2to3/1.png"",""time"":100},{""stimulus"":""img/2to3/2.png"",""time"":198},{""stimulus"":""img/2to3/3.png"",""time"":299},{""stimulus"":""img/2to3/4.png"",""time"":397},{""stimulus"":""img/2to3/5.png"",""time"":496},{""stimulus"":""img/2to3/6.png"",""time"":595},{""stimulus"":""img/2to3/7.png"",""time"":694},{""stimulus"":""img/2to3/8.png"",""time"":793},{""stimulus"":""img/2to3/9.png"",""time"":893},{""stimulus"":""img/2to3/10.png"",""time"":991},{""stimulus"":""img/2to3/11.png"",""time"":1090},{""stimulus"":""img/2to3/12.png"",""time"":1190}]","[]"
"image-keyboard-response","66","97781","0.0-5.0-1.31","63d2bc12a843f8466a8f83e0","bdp_cybrbll","Sun Apr 09 2023 21:04:21 GMT-0400 (Eastern Daylight Time)","434952","3","1","","null","","","","observe","","img/3to2/1.png","null","194","209","0.5","0.5","3","2","",""
"animation","67","99068","0.0-5.0-2.31","63d2bc12a843f8466a8f83e0","bdp_cybrbll","Sun Apr 09 2023 21:04:21 GMT-0400 (Eastern Daylight Time)","434952","3","1","","","","","","","","","","194","","","","3","2","[{""stimulus"":""img/3to2/1.png"",""time"":100},{""stimulus"":""img/3to2/2.png"",""time"":199},{""stimulus"":""img/3to2/3.png"",""time"":298},{""stimulus"":""img/3to2/4.png"",""time"":397},{""stimulus"":""img/3to2/5.png"",""time"":496},{""stimulus"":""img/3to2/6.png"",""time"":595},{""stimulus"":""img/3to2/7.png"",""time"":694},{""stimulus"":""img/3to2/8.png"",""time"":792},{""stimulus"":""img/3to2/9.png"",""time"":891},{""stimulus"":""img/3to2/10.png"",""time"":990},{""stimulus"":""img/3to2/11.png"",""time"":1089},{""stimulus"":""img/3to2/12.png"",""time"":1188}]","[]"
"image-keyboard-response","68","99641","0.0-5.0-1.32","63d2bc12a843f8466a8f83e0","bdp_cybrbll","Sun Apr 09 2023 21:04:21 GMT-0400 (Eastern Daylight Time)","434952","3","1","","573","","","","choice","","img/2to1/1.png","1","193","269","0.5","0.5","2","1","",""
"animation","69","100928","0.0-5.0-2.32","63d2bc12a843f8466a8f83e0","bdp_cybrbll","Sun Apr 09 2023 21:04:21 GMT-0400 (Eastern Daylight Time)","434952","3","1","","","","","","","","","","193","","","","2","1","[{""stimulus"":""img/2to1/1.png"",""time"":100},{""stimulus"":""img/2to1/2.png"",""time"":200},{""stimulus"":""img/2to1/3.png"",""time"":298},{""stimulus"":""img/2to1/4.png"",""time"":397},{""stimulus"":""img/2to1/5.png"",""time"":496},{""stimulus"":""img/2to1/6.png"",""time"":595},{""stimulus"":""img/2to1/7.png"",""time"":694},{""stimulus"":""img/2to1/8.png"",""time"":793},{""stimulus"":""img/2to1/9.png"",""time"":892},{""stimulus"":""img/2to1/10.png"",""time"":991},{""stimulus"":""img/2to1/11.png"",""time"":1089},{""stimulus"":""img/2to1/12.png"",""time"":1188}]","[]"
"image-keyboard-response","70","101429","0.0-5.0-1.33","63d2bc12a843f8466a8f83e0","bdp_cybrbll","Sun Apr 09 2023 21:04:21 GMT-0400 (Eastern Daylight Time)","434952","3","1","","null","","","","observe","","img/1to3/1.png","null","192","500","0.5","0.5","1","2","",""
"animation","71","102717","0.0-5.0-2.33","63d2bc12a843f8466a8f83e0","bdp_cybrbll","Sun Apr 09 2023 21:04:21 GMT-0400 (Eastern Daylight Time)","434952","3","1","","","","","","","","","","192","","","","1","2","[{""stimulus"":""img/1to2/1.png"",""time"":100},{""stimulus"":""img/1to2/2.png"",""time"":199},{""stimulus"":""img/1to2/3.png"",""time"":298},{""stimulus"":""img/1to2/4.png"",""time"":397},{""stimulus"":""img/1to2/5.png"",""time"":496},{""stimulus"":""img/1to2/6.png"",""time"":596},{""stimulus"":""img/1to2/7.png"",""time"":694},{""stimulus"":""img/1to2/8.png"",""time"":792},{""stimulus"":""img/1to2/9.png"",""time"":891},{""stimulus"":""img/1to2/10.png"",""time"":990},{""stimulus"":""img/1to2/11.png"",""time"":1089},{""stimulus"":""img/1to2/12.png"",""time"":1188}]","[]"
"image-keyboard-response","72","103060","0.0-5.0-1.34","63d2bc12a843f8466a8f83e0","bdp_cybrbll","Sun Apr 09 2023 21:04:21 GMT-0400 (Eastern Daylight Time)","434952","3","1","","343","","","","choice","","img/2to1/1.png","1","191","333","0.5","0.5","2","1","",""
"animation","73","104348","0.0-5.0-2.34","63d2bc12a843f8466a8f83e0","bdp_cybrbll","Sun Apr 09 2023 21:04:21 GMT-0400 (Eastern Daylight Time)","434952","3","1","","","","","","","","","","191","","","","2","1","[{""stimulus"":""img/2to1/1.png"",""time"":100},{""stimulus"":""img/2to1/2.png"",""time"":199},{""stimulus"":""img/2to1/3.png"",""time"":298},{""stimulus"":""img/2to1/4.png"",""time"":397},{""stimulus"":""img/2to1/5.png"",""time"":496},{""stimulus"":""img/2to1/6.png"",""time"":595},{""stimulus"":""img/2to1/7.png"",""time"":694},{""stimulus"":""img/2to1/8.png"",""time"":793},{""stimulus"":""img/2to1/9.png"",""time"":892},{""stimulus"":""img/2to1/10.png"",""time"":991},{""stimulus"":""img/2to1/11.png"",""time"":1090},{""stimulus"":""img/2to1/12.png"",""time"":1189}]","[]"
"image-keyboard-response","74","104864","0.0-5.0-1.35","63d2bc12a843f8466a8f83e0","bdp_cybrbll","Sun Apr 09 2023 21:04:21 GMT-0400 (Eastern Daylight Time)","434952","3","1","","null","","","","observe","","img/1to3/1.png","null","190","515","0.5","0.5","1","2","",""
"animation","75","106152","0.0-5.0-2.35","63d2bc12a843f8466a8f83e0","bdp_cybrbll","Sun Apr 09 2023 21:04:21 GMT-0400 (Eastern Daylight Time)","434952","3","1","","","","","","","","","","190","","","","1","2","[{""stimulus"":""img/1to2/1.png"",""time"":100},{""stimulus"":""img/1to2/2.png"",""time"":199},{""stimulus"":""img/1to2/3.png"",""time"":298},{""stimulus"":""img/1to2/4.png"",""time"":397},{""stimulus"":""img/1to2/5.png"",""time"":496},{""stimulus"":""img/1to2/6.png"",""time"":596},{""stimulus"":""img/1to2/7.png"",""time"":694},{""stimulus"":""img/1to2/8.png"",""time"":793},{""stimulus"":""img/1to2/9.png"",""time"":892},{""stimulus"":""img/1to2/10.png"",""time"":991},{""stimulus"":""img/1to2/11.png"",""time"":1090},{""stimulus"":""img/1to2/12.png"",""time"":1189}]","[]"
"image-keyboard-response","76","106340","0.0-5.0-1.36","63d2bc12a843f8466a8f83e0","bdp_cybrbll","Sun Apr 09 2023 21:04:21 GMT-0400 (Eastern Daylight Time)","434952","3","1","","188","","","","choice","","img/2to1/1.png","2","189","349","0.5","0.5","2","3","",""
"animation","77","107628","0.0-5.0-2.36","63d2bc12a843f8466a8f83e0","bdp_cybrbll","Sun Apr 09 2023 21:04:21 GMT-0400 (Eastern Daylight Time)","434952","3","1","","","","","","","","","","189","","","","2","3","[{""stimulus"":""img/2to3/1.png"",""time"":99},{""stimulus"":""img/2to3/2.png"",""time"":198},{""stimulus"":""img/2to3/3.png"",""time"":297},{""stimulus"":""img/2to3/4.png"",""time"":396},{""stimulus"":""img/2to3/5.png"",""time"":495},{""stimulus"":""img/2to3/6.png"",""time"":594},{""stimulus"":""img/2to3/7.png"",""time"":693},{""stimulus"":""img/2to3/8.png"",""time"":792},{""stimulus"":""img/2to3/9.png"",""time"":891},{""stimulus"":""img/2to3/10.png"",""time"":990},{""stimulus"":""img/2to3/11.png"",""time"":1090},{""stimulus"":""img/2to3/12.png"",""time"":1189}]","[]"
"image-keyboard-response","78","108892","0.0-5.0-1.37","63d2bc12a843f8466a8f83e0","bdp_cybrbll","Sun Apr 09 2023 21:04:21 GMT-0400 (Eastern Daylight Time)","434952","3","1","","null","","","","observe","","img/3to2/1.png","null","188","1262","0.5","0.5","3","1","",""
"animation","79","110179","0.0-5.0-2.37","63d2bc12a843f8466a8f83e0","bdp_cybrbll","Sun Apr 09 2023 21:04:21 GMT-0400 (Eastern Daylight Time)","434952","3","1","","","","","","","","","","188","","","","3","1","[{""stimulus"":""img/3to1/1.png"",""time"":100},{""stimulus"":""img/3to1/2.png"",""time"":199},{""stimulus"":""img/3to1/3.png"",""time"":298},{""stimulus"":""img/3to1/4.png"",""time"":397},{""stimulus"":""img/3to1/5.png"",""time"":496},{""stimulus"":""img/3to1/6.png"",""time"":595},{""stimulus"":""img/3to1/7.png"",""time"":694},{""stimulus"":""img/3to1/8.png"",""time"":792},{""stimulus"":""img/3to1/9.png"",""time"":891},{""stimulus"":""img/3to1/10.png"",""time"":990},{""stimulus"":""img/3to1/11.png"",""time"":1089},{""stimulus"":""img/3to1/12.png"",""time"":1188}]","[]"
"image-keyboard-response","80","110466","0.0-5.0-1.38","63d2bc12a843f8466a8f83e0","bdp_cybrbll","Sun Apr 09 2023 21:04:21 GMT-0400 (Eastern Daylight Time)","434952","3","1","","null","","","","observe","","img/1to3/1.png","null","187","286","0.5","0.5","1","2","",""
"animation","81","111753","0.0-5.0-2.38","63d2bc12a843f8466a8f83e0","bdp_cybrbll","Sun Apr 09 2023 21:04:21 GMT-0400 (Eastern Daylight Time)","434952","3","1","","","","","","","","","","187","","","","1","2","[{""stimulus"":""img/1to2/1.png"",""time"":100},{""stimulus"":""img/1to2/2.png"",""time"":199},{""stimulus"":""img/1to2/3.png"",""time"":298},{""stimulus"":""img/1to2/4.png"",""time"":397},{""stimulus"":""img/1to2/5.png"",""time"":496},{""stimulus"":""img/1to2/6.png"",""time"":595},{""stimulus"":""img/1to2/7.png"",""time"":694},{""stimulus"":""img/1to2/8.png"",""time"":793},{""stimulus"":""img/1to2/9.png"",""time"":892},{""stimulus"":""img/1to2/10.png"",""time"":990},{""stimulus"":""img/1to2/11.png"",""time"":1089},{""stimulus"":""img/1to2/12.png"",""time"":1188}]","[]"
"image-keyboard-response","82","111920","0.0-5.0-1.39","63d2bc12a843f8466a8f83e0","bdp_cybrbll","Sun Apr 09 2023 21:04:21 GMT-0400 (Eastern Daylight Time)","434952","3","1","","166","","","","choice","","img/2to1/1.png","2","186","408","0.5","0.5","2","3","",""
"animation","83","113208","0.0-5.0-2.39","63d2bc12a843f8466a8f83e0","bdp_cybrbll","Sun Apr 09 2023 21:04:21 GMT-0400 (Eastern Daylight Time)","434952","3","1","","","","","","","","","","186","","","","2","3","[{""stimulus"":""img/2to3/1.png"",""time"":100},{""stimulus"":""img/2to3/2.png"",""time"":199},{""stimulus"":""img/2to3/3.png"",""time"":298},{""stimulus"":""img/2to3/4.png"",""time"":397},{""stimulus"":""img/2to3/5.png"",""time"":496},{""stimulus"":""img/2to3/6.png"",""time"":595},{""stimulus"":""img/2to3/7.png"",""time"":694},{""stimulus"":""img/2to3/8.png"",""time"":793},{""stimulus"":""img/2to3/9.png"",""time"":892},{""stimulus"":""img/2to3/10.png"",""time"":991},{""stimulus"":""img/2to3/11.png"",""time"":1090},{""stimulus"":""img/2to3/12.png"",""time"":1189}]","[]"
"image-keyboard-response","84","113757","0.0-5.0-1.40","63d2bc12a843f8466a8f83e0","bdp_cybrbll","Sun Apr 09 2023 21:04:21 GMT-0400 (Eastern Daylight Time)","434952","3","1","","null","","","","observe","","img/3to2/1.png","null","185","548","0.5","0.5","3","2","",""
"animation","85","115044","0.0-5.0-2.40","63d2bc12a843f8466a8f83e0","bdp_cybrbll","Sun Apr 09 2023 21:04:21 GMT-0400 (Eastern Daylight Time)","434952","3","1","","","","","","","","","","185","","","","3","2","[{""stimulus"":""img/3to2/1.png"",""time"":100},{""stimulus"":""img/3to2/2.png"",""time"":199},{""stimulus"":""img/3to2/3.png"",""time"":298},{""stimulus"":""img/3to2/4.png"",""time"":397},{""stimulus"":""img/3to2/5.png"",""time"":496},{""stimulus"":""img/3to2/6.png"",""time"":595},{""stimulus"":""img/3to2/7.png"",""time"":695},{""stimulus"":""img/3to2/8.png"",""time"":793},{""stimulus"":""img/3to2/9.png"",""time"":891},{""stimulus"":""img/3to2/10.png"",""time"":990},{""stimulus"":""img/3to2/11.png"",""time"":1089},{""stimulus"":""img/3to2/12.png"",""time"":1188}]","[]"
"image-keyboard-response","86","115145","0.0-5.0-1.41","63d2bc12a843f8466a8f83e0","bdp_cybrbll","Sun Apr 09 2023 21:04:21 GMT-0400 (Eastern Daylight Time)","434952","3","1","","101","","","","choice","","img/2to1/1.png","1","184","431","0.5","0.5","2","1","",""
"animation","87","116432","0.0-5.0-2.41","63d2bc12a843f8466a8f83e0","bdp_cybrbll","Sun Apr 09 2023 21:04:21 GMT-0400 (Eastern Daylight Time)","434952","3","1","","","","","","","","","","184","","","","2","1","[{""stimulus"":""img/2to1/1.png"",""time"":100},{""stimulus"":""img/2to1/2.png"",""time"":199},{""stimulus"":""img/2to1/3.png"",""time"":297},{""stimulus"":""img/2to1/4.png"",""time"":396},{""stimulus"":""img/2to1/5.png"",""time"":495},{""stimulus"":""img/2to1/6.png"",""time"":594},{""stimulus"":""img/2to1/7.png"",""time"":693},{""stimulus"":""img/2to1/8.png"",""time"":792},{""stimulus"":""img/2to1/9.png"",""time"":892},{""stimulus"":""img/2to1/10.png"",""time"":990},{""stimulus"":""img/2to1/11.png"",""time"":1090},{""stimulus"":""img/2to1/12.png"",""time"":1189}]","[]"
"image-keyboard-response","88","117031","0.0-5.0-1.42","63d2bc12a843f8466a8f83e0","bdp_cybrbll","Sun Apr 09 2023 21:04:21 GMT-0400 (Eastern Daylight Time)","434952","3","1","","null","","","","observe","","img/1to3/1.png","null","183","598","0.5","0.5","1","3","",""
"animation","89","118319","0.0-5.0-2.42","63d2bc12a843f8466a8f83e0","bdp_cybrbll","Sun Apr 09 2023 21:04:21 GMT-0400 (Eastern Daylight Time)","434952","3","1","","","","","","","","","","183","","","","1","3","[{""stimulus"":""img/1to3/1.png"",""time"":100},{""stimulus"":""img/1to3/2.png"",""time"":199},{""stimulus"":""img/1to3/3.png"",""time"":298},{""stimulus"":""img/1to3/4.png"",""time"":397},{""stimulus"":""img/1to3/5.png"",""time"":496},{""stimulus"":""img/1to3/6.png"",""time"":595},{""stimulus"":""img/1to3/7.png"",""time"":693},{""stimulus"":""img/1to3/8.png"",""time"":792},{""stimulus"":""img/1to3/9.png"",""time"":891},{""stimulus"":""img/1to3/10.png"",""time"":990},{""stimulus"":""img/1to3/11.png"",""time"":1089},{""stimulus"":""img/1to3/12.png"",""time"":1198}]","[]"
"image-keyboard-response","90","118806","0.0-5.0-1.43","63d2bc12a843f8466a8f83e0","bdp_cybrbll","Sun Apr 09 2023 21:04:21 GMT-0400 (Eastern Daylight Time)","434952","3","1","","null","","","","observe","","img/3to2/1.png","null","182","487","0.5","0.5","3","1","",""
"animation","91","120094","0.0-5.0-2.43","63d2bc12a843f8466a8f83e0","bdp_cybrbll","Sun Apr 09 2023 21:04:21 GMT-0400 (Eastern Daylight Time)","434952","3","1","","","","","","","","","","182","","","","3","1","[{""stimulus"":""img/3to1/1.png"",""time"":100},{""stimulus"":""img/3to1/2.png"",""time"":199},{""stimulus"":""img/3to1/3.png"",""time"":298},{""stimulus"":""img/3to1/4.png"",""time"":397},{""stimulus"":""img/3to1/5.png"",""time"":496},{""stimulus"":""img/3to1/6.png"",""time"":595},{""stimulus"":""img/3to1/7.png"",""time"":694},{""stimulus"":""img/3to1/8.png"",""time"":792},{""stimulus"":""img/3to1/9.png"",""time"":891},{""stimulus"":""img/3to1/10.png"",""time"":990},{""stimulus"":""img/3to1/11.png"",""time"":1089},{""stimulus"":""img/3to1/12.png"",""time"":1188}]","[]"
"image-keyboard-response","92","120914","0.0-5.0-1.44","63d2bc12a843f8466a8f83e0","bdp_cybrbll","Sun Apr 09 2023 21:04:21 GMT-0400 (Eastern Daylight Time)","434952","3","1","","null","","","","observe","","img/1to3/1.png","null","181","819","0.5","0.5","1","2","",""
"animation","93","122202","0.0-5.0-2.44","63d2bc12a843f8466a8f83e0","bdp_cybrbll","Sun Apr 09 2023 21:04:21 GMT-0400 (Eastern Daylight Time)","434952","3","1","","","","","","","","","","181","","","","1","2","[{""stimulus"":""img/1to2/1.png"",""time"":100},{""stimulus"":""img/1to2/2.png"",""time"":199},{""stimulus"":""img/1to2/3.png"",""time"":298},{""stimulus"":""img/1to2/4.png"",""time"":397},{""stimulus"":""img/1to2/5.png"",""time"":496},{""stimulus"":""img/1to2/6.png"",""time"":595},{""stimulus"":""img/1to2/7.png"",""time"":695},{""stimulus"":""img/1to2/8.png"",""time"":793},{""stimulus"":""img/1to2/9.png"",""time"":892},{""stimulus"":""img/1to2/10.png"",""time"":991},{""stimulus"":""img/1to2/11.png"",""time"":1090},{""stimulus"":""img/1to2/12.png"",""time"":1189}]","[]"
"image-keyboard-response","94","122261","0.0-5.0-1.45","63d2bc12a843f8466a8f83e0","bdp_cybrbll","Sun Apr 09 2023 21:04:21 GMT-0400 (Eastern Daylight Time)","434952","3","1","","59","","","","choice","","img/2to1/1.png","2","180","759","0.5","0.5","2","3","",""
"animation","95","123548","0.0-5.0-2.45","63d2bc12a843f8466a8f83e0","bdp_cybrbll","Sun Apr 09 2023 21:04:21 GMT-0400 (Eastern Daylight Time)","434952","3","1","","","","","","","","","","180","","","","2","3","[{""stimulus"":""img/2to3/1.png"",""time"":99},{""stimulus"":""img/2to3/2.png"",""time"":198},{""stimulus"":""img/2to3/3.png"",""time"":297},{""stimulus"":""img/2to3/4.png"",""time"":396},{""stimulus"":""img/2to3/5.png"",""time"":495},{""stimulus"":""img/2to3/6.png"",""time"":594},{""stimulus"":""img/2to3/7.png"",""time"":693},{""stimulus"":""img/2to3/8.png"",""time"":793},{""stimulus"":""img/2to3/9.png"",""time"":891},{""stimulus"":""img/2to3/10.png"",""time"":990},{""stimulus"":""img/2to3/11.png"",""time"":1089},{""stimulus"":""img/2to3/12.png"",""time"":1188}]","[]"
"image-keyboard-response","96","124253","0.0-5.0-1.46","63d2bc12a843f8466a8f83e0","bdp_cybrbll","Sun Apr 09 2023 21:04:21 GMT-0400 (Eastern Daylight Time)","434952","3","1","","null","","","","observe","","img/3to2/1.png","null","179","704","0.5","0.5","3","2","",""
"animation","97","125541","0.0-5.0-2.46","63d2bc12a843f8466a8f83e0","bdp_cybrbll","Sun Apr 09 2023 21:04:21 GMT-0400 (Eastern Daylight Time)","434952","3","1","","","","","","","","","","179","","","","3","2","[{""stimulus"":""img/3to2/1.png"",""time"":101},{""stimulus"":""img/3to2/2.png"",""time"":200},{""stimulus"":""img/3to2/3.png"",""time"":299},{""stimulus"":""img/3to2/4.png"",""time"":398},{""stimulus"":""img/3to2/5.png"",""time"":497},{""stimulus"":""img/3to2/6.png"",""time"":596},{""stimulus"":""img/3to2/7.png"",""time"":695},{""stimulus"":""img/3to2/8.png"",""time"":793},{""stimulus"":""img/3to2/9.png"",""time"":892},{""stimulus"":""img/3to2/10.png"",""time"":991},{""stimulus"":""img/3to2/11.png"",""time"":1090},{""stimulus"":""img/3to2/12.png"",""time"":1189}]","[]"
"image-keyboard-response","98","125695","0.0-5.0-1.47","63d2bc12a843f8466a8f83e0","bdp_cybrbll","Sun Apr 09 2023 21:04:21 GMT-0400 (Eastern Daylight Time)","434952","3","1","","154","","","","choice","","img/2to1/1.png","1","178","256","0.5","0.5","2","1","",""
"animation","99","126984","0.0-5.0-2.47","63d2bc12a843f8466a8f83e0","bdp_cybrbll","Sun Apr 09 2023 21:04:21 GMT-0400 (Eastern Daylight Time)","434952","3","1","","","","","","","","","","178","","","","2","1","[{""stimulus"":""img/2to1/1.png"",""time"":100},{""stimulus"":""img/2to1/2.png"",""time"":199},{""stimulus"":""img/2to1/3.png"",""time"":298},{""stimulus"":""img/2to1/4.png"",""time"":397},{""stimulus"":""img/2to1/5.png"",""time"":496},{""stimulus"":""img/2to1/6.png"",""time"":595},{""stimulus"":""img/2to1/7.png"",""time"":694},{""stimulus"":""img/2to1/8.png"",""time"":793},{""stimulus"":""img/2to1/9.png"",""time"":892},{""stimulus"":""img/2to1/10.png"",""time"":991},{""stimulus"":""img/2to1/11.png"",""time"":1090},{""stimulus"":""img/2to1/12.png"",""time"":1189}]","[]"
"image-keyboard-response","100","127447","0.0-5.0-1.48","63d2bc12a843f8466a8f83e0","bdp_cybrbll","Sun Apr 09 2023 21:04:21 GMT-0400 (Eastern Daylight Time)","434952","3","1","","null","","","","observe","","img/1to3/1.png","null","177","462","0.5","0.5","1","2","",""
"animation","101","128734","0.0-5.0-2.48","63d2bc12a843f8466a8f83e0","bdp_cybrbll","Sun Apr 09 2023 21:04:21 GMT-0400 (Eastern Daylight Time)","434952","3","1","","","","","","","","","","177","","","","1","2","[{""stimulus"":""img/1to2/1.png"",""time"":100},{""stimulus"":""img/1to2/2.png"",""time"":199},{""stimulus"":""img/1to2/3.png"",""time"":298},{""stimulus"":""img/1to2/4.png"",""time"":397},{""stimulus"":""img/1to2/5.png"",""time"":496},{""stimulus"":""img/1to2/6.png"",""time"":595},{""stimulus"":""img/1to2/7.png"",""time"":694},{""stimulus"":""img/1to2/8.png"",""time"":793},{""stimulus"":""img/1to2/9.png"",""time"":891},{""stimulus"":""img/1to2/10.png"",""time"":990},{""stimulus"":""img/1to2/11.png"",""time"":1089},{""stimulus"":""img/1to2/12.png"",""time"":1188}]","[]"
"image-keyboard-response","102","129138","0.0-5.0-1.49","63d2bc12a843f8466a8f83e0","bdp_cybrbll","Sun Apr 09 2023 21:04:21 GMT-0400 (Eastern Daylight Time)","434952","3","1","","403","","","","choice","","img/2to1/1.png","2","176","413","0.5","0.5","2","3","",""
"animation","103","130426","0.0-5.0-2.49","63d2bc12a843f8466a8f83e0","bdp_cybrbll","Sun Apr 09 2023 21:04:21 GMT-0400 (Eastern Daylight Time)","434952","3","1","","","","","","","","","","176","","","","2","3","[{""stimulus"":""img/2to3/1.png"",""time"":100},{""stimulus"":""img/2to3/2.png"",""time"":199},{""stimulus"":""img/2to3/3.png"",""time"":298},{""stimulus"":""img/2to3/4.png"",""time"":397},{""stimulus"":""img/2to3/5.png"",""time"":496},{""stimulus"":""img/2to3/6.png"",""time"":595},{""stimulus"":""img/2to3/7.png"",""time"":694},{""stimulus"":""img/2to3/8.png"",""time"":793},{""stimulus"":""img/2to3/9.png"",""time"":893},{""stimulus"":""img/2to3/10.png"",""time"":991},{""stimulus"":""img/2to3/11.png"",""time"":1090},{""stimulus"":""img/2to3/12.png"",""time"":1189}]","[]"
"image-keyboard-response","104","131291","0.0-5.0-1.50","63d2bc12a843f8466a8f83e0","bdp_cybrbll","Sun Apr 09 2023 21:04:21 GMT-0400 (Eastern Daylight Time)","434952","3","1","","null","","","","observe","","img/3to2/1.png","null","175","864","0.5","0.5","3","1","",""
"animation","105","132579","0.0-5.0-2.50","63d2bc12a843f8466a8f83e0","bdp_cybrbll","Sun Apr 09 2023 21:04:21 GMT-0400 (Eastern Daylight Time)","434952","3","1","","","","","","","","","","175","","","","3","1","[{""stimulus"":""img/3to1/1.png"",""time"":100},{""stimulus"":""img/3to1/2.png"",""time"":199},{""stimulus"":""img/3to1/3.png"",""time"":298},{""stimulus"":""img/3to1/4.png"",""time"":397},{""stimulus"":""img/3to1/5.png"",""time"":496},{""stimulus"":""img/3to1/6.png"",""time"":595},{""stimulus"":""img/3to1/7.png"",""time"":694},{""stimulus"":""img/3to1/8.png"",""time"":793},{""stimulus"":""img/3to1/9.png"",""time"":892},{""stimulus"":""img/3to1/10.png"",""time"":991},{""stimulus"":""img/3to1/11.png"",""time"":1091},{""stimulus"":""img/3to1/12.png"",""time"":1189}]","[]"
"image-keyboard-response","106","133501","0.0-5.0-1.51","63d2bc12a843f8466a8f83e0","bdp_cybrbll","Sun Apr 09 2023 21:04:21 GMT-0400 (Eastern Daylight Time)","434952","3","1","","null","","","","observe","","img/1to3/1.png","null","174","921","0.5","0.5","1","3","",""
"animation","107","134788","0.0-5.0-2.51","63d2bc12a843f8466a8f83e0","bdp_cybrbll","Sun Apr 09 2023 21:04:21 GMT-0400 (Eastern Daylight Time)","434952","3","1","","","","","","","","","","174","","","","1","3","[{""stimulus"":""img/1to3/1.png"",""time"":100},{""stimulus"":""img/1to3/2.png"",""time"":199},{""stimulus"":""img/1to3/3.png"",""time"":298},{""stimulus"":""img/1to3/4.png"",""time"":397},{""stimulus"":""img/1to3/5.png"",""time"":496},{""stimulus"":""img/1to3/6.png"",""time"":595},{""stimulus"":""img/1to3/7.png"",""time"":694},{""stimulus"":""img/1to3/8.png"",""time"":793},{""stimulus"":""img/1to3/9.png"",""time"":891},{""stimulus"":""img/1to3/10.png"",""time"":990},{""stimulus"":""img/1to3/11.png"",""time"":1089},{""stimulus"":""img/1to3/12.png"",""time"":1188}]","[]"
"image-keyboard-response","108","134986","0.0-5.0-1.52","63d2bc12a843f8466a8f83e0","bdp_cybrbll","Sun Apr 09 2023 21:04:21 GMT-0400 (Eastern Daylight Time)","434952","3","1","","null","","","","observe","","img/3to2/1.png","null","173","197","0.5","0.5","3","1","",""
"animation","109","136274","0.0-5.0-2.52","63d2bc12a843f8466a8f83e0","bdp_cybrbll","Sun Apr 09 2023 21:04:21 GMT-0400 (Eastern Daylight Time)","434952","3","1","","","","","","","","","","173","","","","3","1","[{""stimulus"":""img/3to1/1.png"",""time"":101},{""stimulus"":""img/3to1/2.png"",""time"":200},{""stimulus"":""img/3to1/3.png"",""time"":299},{""stimulus"":""img/3to1/4.png"",""time"":398},{""stimulus"":""img/3to1/5.png"",""time"":497},{""stimulus"":""img/3to1/6.png"",""time"":596},{""stimulus"":""img/3to1/7.png"",""time"":695},{""stimulus"":""img/3to1/8.png"",""time"":793},{""stimulus"":""img/3to1/9.png"",""time"":892},{""stimulus"":""img/3to1/10.png"",""time"":991},{""stimulus"":""img/3to1/11.png"",""time"":1090},{""stimulus"":""img/3to1/12.png"",""time"":1189}]","[]"
"image-keyboard-response","110","136775","0.0-5.0-1.53","63d2bc12a843f8466a8f83e0","bdp_cybrbll","Sun Apr 09 2023 21:04:21 GMT-0400 (Eastern Daylight Time)","434952","3","1","","null","","","","observe","","img/1to3/1.png","null","172","500","0.5","0.5","1","3","",""
"animation","111","138062","0.0-5.0-2.53","63d2bc12a843f8466a8f83e0","bdp_cybrbll","Sun Apr 09 2023 21:04:21 GMT-0400 (Eastern Daylight Time)","434952","3","1","","","","","","","","","","172","","","","1","3","[{""stimulus"":""img/1to3/1.png"",""time"":100},{""stimulus"":""img/1to3/2.png"",""time"":199},{""stimulus"":""img/1to3/3.png"",""time"":298},{""stimulus"":""img/1to3/4.png"",""time"":397},{""stimulus"":""img/1to3/5.png"",""time"":496},{""stimulus"":""img/1to3/6.png"",""time"":596},{""stimulus"":""img/1to3/7.png"",""time"":694},{""stimulus"":""img/1to3/8.png"",""time"":792},{""stimulus"":""img/1to3/9.png"",""time"":891},{""stimulus"":""img/1to3/10.png"",""time"":990},{""stimulus"":""img/1to3/11.png"",""time"":1089},{""stimulus"":""img/1to3/12.png"",""time"":1188}]","[]"
"image-keyboard-response","112","138446","0.0-5.0-1.54","63d2bc12a843f8466a8f83e0","bdp_cybrbll","Sun Apr 09 2023 21:04:21 GMT-0400 (Eastern Daylight Time)","434952","3","1","","null","","","","observe","","img/3to2/1.png","null","171","382","0.5","0.5","3","2","",""
"animation","113","139733","0.0-5.0-2.54","63d2bc12a843f8466a8f83e0","bdp_cybrbll","Sun Apr 09 2023 21:04:21 GMT-0400 (Eastern Daylight Time)","434952","3","1","","","","","","","","","","171","","","","3","2","[{""stimulus"":""img/3to2/1.png"",""time"":100},{""stimulus"":""img/3to2/2.png"",""time"":200},{""stimulus"":""img/3to2/3.png"",""time"":298},{""stimulus"":""img/3to2/4.png"",""time"":397},{""stimulus"":""img/3to2/5.png"",""time"":496},{""stimulus"":""img/3to2/6.png"",""time"":595},{""stimulus"":""img/3to2/7.png"",""time"":694},{""stimulus"":""img/3to2/8.png"",""time"":792},{""stimulus"":""img/3to2/9.png"",""time"":891},{""stimulus"":""img/3to2/10.png"",""time"":990},{""stimulus"":""img/3to2/11.png"",""time"":1089},{""stimulus"":""img/3to2/12.png"",""time"":1188}]","[]"
"image-keyboard-response","114","140286","0.0-5.0-1.55","63d2bc12a843f8466a8f83e0","bdp_cybrbll","Sun Apr 09 2023 21:04:21 GMT-0400 (Eastern Daylight Time)","434952","3","1","","553","","","","choice","","img/2to1/1.png","1","170","159","0.5","0.5","2","1","",""
"animation","115","141575","0.0-5.0-2.55","63d2bc12a843f8466a8f83e0","bdp_cybrbll","Sun Apr 09 2023 21:04:21 GMT-0400 (Eastern Daylight Time)","434952","3","1","","","","","","","","","","170","","","","2","1","[{""stimulus"":""img/2to1/1.png"",""time"":100},{""stimulus"":""img/2to1/2.png"",""time"":199},{""stimulus"":""img/2to1/3.png"",""time"":298},{""stimulus"":""img/2to1/4.png"",""time"":397},{""stimulus"":""img/2to1/5.png"",""time"":496},{""stimulus"":""img/2to1/6.png"",""time"":595},{""stimulus"":""img/2to1/7.png"",""time"":694},{""stimulus"":""img/2to1/8.png"",""time"":792},{""stimulus"":""img/2to1/9.png"",""time"":891},{""stimulus"":""img/2to1/10.png"",""time"":991},{""stimulus"":""img/2to1/11.png"",""time"":1089},{""stimulus"":""img/2to1/12.png"",""time"":1189}]","[]"
"image-keyboard-response","116","142131","0.0-5.0-1.56","63d2bc12a843f8466a8f83e0","bdp_cybrbll","Sun Apr 09 2023 21:04:21 GMT-0400 (Eastern Daylight Time)","434952","3","1","","null","","","","observe","","img/1to3/1.png","null","169","555","0.5","0.5","1","3","",""
"animation","117","143418","0.0-5.0-2.56","63d2bc12a843f8466a8f83e0","bdp_cybrbll","Sun Apr 09 2023 21:04:21 GMT-0400 (Eastern Daylight Time)","434952","3","1","","","","","","","","","","169","","","","1","3","[{""stimulus"":""img/1to3/1.png"",""time"":100},{""stimulus"":""img/1to3/2.png"",""time"":199},{""stimulus"":""img/1to3/3.png"",""time"":299},{""stimulus"":""img/1to3/4.png"",""time"":397},{""stimulus"":""img/1to3/5.png"",""time"":497},{""stimulus"":""img/1to3/6.png"",""time"":595},{""stimulus"":""img/1to3/7.png"",""time"":695},{""stimulus"":""img/1to3/8.png"",""time"":792},{""stimulus"":""img/1to3/9.png"",""time"":891},{""stimulus"":""img/1to3/10.png"",""time"":991},{""stimulus"":""img/1to3/11.png"",""time"":1089},{""stimulus"":""img/1to3/12.png"",""time"":1188}]","[]"
"image-keyboard-response","118","144578","0.0-5.0-1.57","63d2bc12a843f8466a8f83e0","bdp_cybrbll","Sun Apr 09 2023 21:04:21 GMT-0400 (Eastern Daylight Time)","434952","3","1","","null","","","","observe","","img/3to2/1.png","null","168","1158","0.5","0.5","3","2","",""
"animation","119","145865","0.0-5.0-2.57","63d2bc12a843f8466a8f83e0","bdp_cybrbll","Sun Apr 09 2023 21:04:21 GMT-0400 (Eastern Daylight Time)","434952","3","1","","","","","","","","","","168","","","","3","2","[{""stimulus"":""img/3to2/1.png"",""time"":100},{""stimulus"":""img/3to2/2.png"",""time"":199},{""stimulus"":""img/3to2/3.png"",""time"":299},{""stimulus"":""img/3to2/4.png"",""time"":397},{""stimulus"":""img/3to2/5.png"",""time"":496},{""stimulus"":""img/3to2/6.png"",""time"":595},{""stimulus"":""img/3to2/7.png"",""time"":694},{""stimulus"":""img/3to2/8.png"",""time"":792},{""stimulus"":""img/3to2/9.png"",""time"":891},{""stimulus"":""img/3to2/10.png"",""time"":990},{""stimulus"":""img/3to2/11.png"",""time"":1089},{""stimulus"":""img/3to2/12.png"",""time"":1188}]","[]"
"image-keyboard-response","120","146062","0.0-5.0-1.58","63d2bc12a843f8466a8f83e0","bdp_cybrbll","Sun Apr 09 2023 21:04:21 GMT-0400 (Eastern Daylight Time)","434952","3","1","","197","","","","choice","","img/2to1/1.png","2","167","761","0.5","0.5","2","3","",""
"animation","121","147349","0.0-5.0-2.58","63d2bc12a843f8466a8f83e0","bdp_cybrbll","Sun Apr 09 2023 21:04:21 GMT-0400 (Eastern Daylight Time)","434952","3","1","","","","","","","","","","167","","","","2","3","[{""stimulus"":""img/2to3/1.png"",""time"":100},{""stimulus"":""img/2to3/2.png"",""time"":199},{""stimulus"":""img/2to3/3.png"",""time"":299},{""stimulus"":""img/2to3/4.png"",""time"":397},{""stimulus"":""img/2to3/5.png"",""time"":496},{""stimulus"":""img/2to3/6.png"",""time"":595},{""stimulus"":""img/2to3/7.png"",""time"":694},{""stimulus"":""img/2to3/8.png"",""time"":793},{""stimulus"":""img/2to3/9.png"",""time"":892},{""stimulus"":""img/2to3/10.png"",""time"":990},{""stimulus"":""img/2to3/11.png"",""time"":1089},{""stimulus"":""img/2to3/12.png"",""time"":1188}]","[]"
"image-keyboard-response","122","148412","0.0-5.0-1.59","63d2bc12a843f8466a8f83e0","bdp_cybrbll","Sun Apr 09 2023 21:04:21 GMT-0400 (Eastern Daylight Time)","434952","3","1","","null","","","","observe","","img/3to2/1.png","null","166","1062","0.5","0.5","3","1","",""
"animation","123","149700","0.0-5.0-2.59","63d2bc12a843f8466a8f83e0","bdp_cybrbll","Sun Apr 09 2023 21:04:21 GMT-0400 (Eastern Daylight Time)","434952","3","1","","","","","","","","","","166","","","","3","1","[{""stimulus"":""img/3to1/1.png"",""time"":100},{""stimulus"":""img/3to1/2.png"",""time"":199},{""stimulus"":""img/3to1/3.png"",""time"":298},{""stimulus"":""img/3to1/4.png"",""time"":397},{""stimulus"":""img/3to1/5.png"",""time"":496},{""stimulus"":""img/3to1/6.png"",""time"":595},{""stimulus"":""img/3to1/7.png"",""time"":694},{""stimulus"":""img/3to1/8.png"",""time"":793},{""stimulus"":""img/3to1/9.png"",""time"":891},{""stimulus"":""img/3to1/10.png"",""time"":990},{""stimulus"":""img/3to1/11.png"",""time"":1089},{""stimulus"":""img/3to1/12.png"",""time"":1188}]","[]"
"image-keyboard-response","124","150119","0.0-5.0-1.60","63d2bc12a843f8466a8f83e0","bdp_cybrbll","Sun Apr 09 2023 21:04:21 GMT-0400 (Eastern Daylight Time)","434952","3","1","","null","","","","observe","","img/1to3/1.png","null","165","418","0.5","0.5","1","2","",""
"animation","125","151407","0.0-5.0-2.60","63d2bc12a843f8466a8f83e0","bdp_cybrbll","Sun Apr 09 2023 21:04:21 GMT-0400 (Eastern Daylight Time)","434952","3","1","","","","","","","","","","165","","","","1","2","[{""stimulus"":""img/1to2/1.png"",""time"":100},{""stimulus"":""img/1to2/2.png"",""time"":199},{""stimulus"":""img/1to2/3.png"",""time"":298},{""stimulus"":""img/1to2/4.png"",""time"":397},{""stimulus"":""img/1to2/5.png"",""time"":496},{""stimulus"":""img/1to2/6.png"",""time"":595},{""stimulus"":""img/1to2/7.png"",""time"":694},{""stimulus"":""img/1to2/8.png"",""time"":793},{""stimulus"":""img/1to2/9.png"",""time"":891},{""stimulus"":""img/1to2/10.png"",""time"":990},{""stimulus"":""img/1to2/11.png"",""time"":1089},{""stimulus"":""img/1to2/12.png"",""time"":1188}]","[]"
"image-keyboard-response","126","151871","0.0-5.0-1.61","63d2bc12a843f8466a8f83e0","bdp_cybrbll","Sun Apr 09 2023 21:04:21 GMT-0400 (Eastern Daylight Time)","434952","3","1","","464","","","","choice","","img/2to1/1.png","1","164","310","0.5","0.5","2","1","",""
"animation","127","153159","0.0-5.0-2.61","63d2bc12a843f8466a8f83e0","bdp_cybrbll","Sun Apr 09 2023 21:04:21 GMT-0400 (Eastern Daylight Time)","434952","3","1","","","","","","","","","","164","","","","2","1","[{""stimulus"":""img/2to1/1.png"",""time"":99},{""stimulus"":""img/2to1/2.png"",""time"":198},{""stimulus"":""img/2to1/3.png"",""time"":297},{""stimulus"":""img/2to1/4.png"",""time"":396},{""stimulus"":""img/2to1/5.png"",""time"":495},{""stimulus"":""img/2to1/6.png"",""time"":594},{""stimulus"":""img/2to1/7.png"",""time"":693},{""stimulus"":""img/2to1/8.png"",""time"":792},{""stimulus"":""img/2to1/9.png"",""time"":891},{""stimulus"":""img/2to1/10.png"",""time"":990},{""stimulus"":""img/2to1/11.png"",""time"":1089},{""stimulus"":""img/2to1/12.png"",""time"":1188}]","[]"
"image-keyboard-response","128","153526","0.0-5.0-1.62","63d2bc12a843f8466a8f83e0","bdp_cybrbll","Sun Apr 09 2023 21:04:21 GMT-0400 (Eastern Daylight Time)","434952","3","1","","null","","","","observe","","img/1to3/1.png","null","163","366","0.5","0.5","1","2","",""
"animation","129","154814","0.0-5.0-2.62","63d2bc12a843f8466a8f83e0","bdp_cybrbll","Sun Apr 09 2023 21:04:21 GMT-0400 (Eastern Daylight Time)","434952","3","1","","","","","","","","","","163","","","","1","2","[{""stimulus"":""img/1to2/1.png"",""time"":100},{""stimulus"":""img/1to2/2.png"",""time"":199},{""stimulus"":""img/1to2/3.png"",""time"":299},{""stimulus"":""img/1to2/4.png"",""time"":397},{""stimulus"":""img/1to2/5.png"",""time"":496},{""stimulus"":""img/1to2/6.png"",""time"":596},{""stimulus"":""img/1to2/7.png"",""time"":695},{""stimulus"":""img/1to2/8.png"",""time"":793},{""stimulus"":""img/1to2/9.png"",""time"":892},{""stimulus"":""img/1to2/10.png"",""time"":991},{""stimulus"":""img/1to2/11.png"",""time"":1090},{""stimulus"":""img/1to2/12.png"",""time"":1189}]","[]"
"image-keyboard-response","130","154956","0.0-5.0-1.63","63d2bc12a843f8466a8f83e0","bdp_cybrbll","Sun Apr 09 2023 21:04:21 GMT-0400 (Eastern Daylight Time)","434952","3","1","","142","","","","choice","","img/2to1/1.png","2","162","585","0.5","0.5","2","3","",""
"animation","131","156244","0.0-5.0-2.63","63d2bc12a843f8466a8f83e0","bdp_cybrbll","Sun Apr 09 2023 21:04:21 GMT-0400 (Eastern Daylight Time)","434952","3","1","","","","","","","","","","162","","","","2","3","[{""stimulus"":""img/2to3/1.png"",""time"":100},{""stimulus"":""img/2to3/2.png"",""time"":199},{""stimulus"":""img/2to3/3.png"",""time"":298},{""stimulus"":""img/2to3/4.png"",""time"":397},{""stimulus"":""img/2to3/5.png"",""time"":496},{""stimulus"":""img/2to3/6.png"",""time"":595},{""stimulus"":""img/2to3/7.png"",""time"":694},{""stimulus"":""img/2to3/8.png"",""time"":793},{""stimulus"":""img/2to3/9.png"",""time"":892},{""stimulus"":""img/2to3/10.png"",""time"":991},{""stimulus"":""img/2to3/11.png"",""time"":1090},{""stimulus"":""img/2to3/12.png"",""time"":1189}]","[]"
"image-keyboard-response","132","156517","0.0-5.0-1.64","63d2bc12a843f8466a8f83e0","bdp_cybrbll","Sun Apr 09 2023 21:04:21 GMT-0400 (Eastern Daylight Time)","434952","3","1","","null","","","","observe","","img/3to2/1.png","null","161","272","0.5","0.5","3","2","",""
"animation","133","157804","0.0-5.0-2.64","63d2bc12a843f8466a8f83e0","bdp_cybrbll","Sun Apr 09 2023 21:04:21 GMT-0400 (Eastern Daylight Time)","434952","3","1","","","","","","","","","","161","","","","3","2","[{""stimulus"":""img/3to2/1.png"",""time"":101},{""stimulus"":""img/3to2/2.png"",""time"":199},{""stimulus"":""img/3to2/3.png"",""time"":298},{""stimulus"":""img/3to2/4.png"",""time"":397},{""stimulus"":""img/3to2/5.png"",""time"":496},{""stimulus"":""img/3to2/6.png"",""time"":595},{""stimulus"":""img/3to2/7.png"",""time"":694},{""stimulus"":""img/3to2/8.png"",""time"":793},{""stimulus"":""img/3to2/9.png"",""time"":892},{""stimulus"":""img/3to2/10.png"",""time"":990},{""stimulus"":""img/3to2/11.png"",""time"":1089},{""stimulus"":""img/3to2/12.png"",""time"":1188}]","[]"
"image-keyboard-response","134","157957","0.0-5.0-1.65","63d2bc12a843f8466a8f83e0","bdp_cybrbll","Sun Apr 09 2023 21:04:21 GMT-0400 (Eastern Daylight Time)","434952","3","1","","152","","","","choice","","img/2to1/1.png","2","160","303","0.5","0.5","2","3","",""
"animation","135","159245","0.0-5.0-2.65","63d2bc12a843f8466a8f83e0","bdp_cybrbll","Sun Apr 09 2023 21:04:21 GMT-0400 (Eastern Daylight Time)","434952","3","1","","","","","","","","","","160","","","","2","3","[{""stimulus"":""img/2to3/1.png"",""time"":99},{""stimulus"":""img/2to3/2.png"",""time"":198},{""stimulus"":""img/2to3/3.png"",""time"":297},{""stimulus"":""img/2to3/4.png"",""time"":396},{""stimulus"":""img/2to3/5.png"",""time"":496},{""stimulus"":""img/2to3/6.png"",""time"":595},{""stimulus"":""img/2to3/7.png"",""time"":694},{""stimulus"":""img/2to3/8.png"",""time"":793},{""stimulus"":""img/2to3/9.png"",""time"":892},{""stimulus"":""img/2to3/10.png"",""time"":991},{""stimulus"":""img/2to3/11.png"",""time"":1090},{""stimulus"":""img/2to3/12.png"",""time"":1189}]","[]"
"image-keyboard-response","136","160025","0.0-5.0-1.66","63d2bc12a843f8466a8f83e0","bdp_cybrbll","Sun Apr 09 2023 21:04:21 GMT-0400 (Eastern Daylight Time)","434952","3","1","","null","","","","observe","","img/3to2/1.png","null","159","779","0.5","0.5","3","2","",""
"animation","137","161312","0.0-5.0-2.66","63d2bc12a843f8466a8f83e0","bdp_cybrbll","Sun Apr 09 2023 21:04:21 GMT-0400 (Eastern Daylight Time)","434952","3","1","","","","","","","","","","159","","","","3","2","[{""stimulus"":""img/3to2/1.png"",""time"":100},{""stimulus"":""img/3to2/2.png"",""time"":199},{""stimulus"":""img/3to2/3.png"",""time"":298},{""stimulus"":""img/3to2/4.png"",""time"":398},{""stimulus"":""img/3to2/5.png"",""time"":496},{""stimulus"":""img/3to2/6.png"",""time"":595},{""stimulus"":""img/3to2/7.png"",""time"":694},{""stimulus"":""img/3to2/8.png"",""time"":793},{""stimulus"":""img/3to2/9.png"",""time"":893},{""stimulus"":""img/3to2/10.png"",""time"":990},{""stimulus"":""img/3to2/11.png"",""time"":1089},{""stimulus"":""img/3to2/12.png"",""time"":1188}]","[]"
"image-keyboard-response","138","161784","0.0-5.0-1.67","63d2bc12a843f8466a8f83e0","bdp_cybrbll","Sun Apr 09 2023 21:04:21 GMT-0400 (Eastern Daylight Time)","434952","3","1","","472","","","","choice","","img/2to1/1.png","1","158","385","0.5","0.5","2","1","",""
"animation","139","163072","0.0-5.0-2.67","63d2bc12a843f8466a8f83e0","bdp_cybrbll","Sun Apr 09 2023 21:04:21 GMT-0400 (Eastern Daylight Time)","434952","3","1","","","","","","","","","","158","","","","2","1","[{""stimulus"":""img/2to1/1.png"",""time"":100},{""stimulus"":""img/2to1/2.png"",""time"":199},{""stimulus"":""img/2to1/3.png"",""time"":297},{""stimulus"":""img/2to1/4.png"",""time"":396},{""stimulus"":""img/2to1/5.png"",""time"":495},{""stimulus"":""img/2to1/6.png"",""time"":594},{""stimulus"":""img/2to1/7.png"",""time"":693},{""stimulus"":""img/2to1/8.png"",""time"":793},{""stimulus"":""img/2to1/9.png"",""time"":892},{""stimulus"":""img/2to1/10.png"",""time"":990},{""stimulus"":""img/2to1/11.png"",""time"":1089},{""stimulus"":""img/2to1/12.png"",""time"":1189}]","[]"
"image-keyboard-response","140","163723","0.0-5.0-1.68","63d2bc12a843f8466a8f83e0","bdp_cybrbll","Sun Apr 09 2023 21:04:21 GMT-0400 (Eastern Daylight Time)","434952","3","1","","null","","","","observe","","img/1to3/1.png","null","157","650","0.5","0.5","1","3","",""
"animation","141","165010","0.0-5.0-2.68","63d2bc12a843f8466a8f83e0","bdp_cybrbll","Sun Apr 09 2023 21:04:21 GMT-0400 (Eastern Daylight Time)","434952","3","1","","","","","","","","","","157","","","","1","3","[{""stimulus"":""img/1to3/1.png"",""time"":100},{""stimulus"":""img/1to3/2.png"",""time"":199},{""stimulus"":""img/1to3/3.png"",""time"":298},{""stimulus"":""img/1to3/4.png"",""time"":397},{""stimulus"":""img/1to3/5.png"",""time"":496},{""stimulus"":""img/1to3/6.png"",""time"":595},{""stimulus"":""img/1to3/7.png"",""time"":694},{""stimulus"":""img/1to3/8.png"",""time"":793},{""stimulus"":""img/1to3/9.png"",""time"":892},{""stimulus"":""img/1to3/10.png"",""time"":990},{""stimulus"":""img/1to3/11.png"",""time"":1090},{""stimulus"":""img/1to3/12.png"",""time"":1189}]","[]"
"image-keyboard-response","142","165257","0.0-5.0-1.69","63d2bc12a843f8466a8f83e0","bdp_cybrbll","Sun Apr 09 2023 21:04:21 GMT-0400 (Eastern Daylight Time)","434952","3","1","","null","","","","observe","","img/3to2/1.png","null","156","245","0.5","0.5","3","2","",""
"animation","143","166544","0.0-5.0-2.69","63d2bc12a843f8466a8f83e0","bdp_cybrbll","Sun Apr 09 2023 21:04:21 GMT-0400 (Eastern Daylight Time)","434952","3","1","","","","","","","","","","156","","","","3","2","[{""stimulus"":""img/3to2/1.png"",""time"":100},{""stimulus"":""img/3to2/2.png"",""time"":200},{""stimulus"":""img/3to2/3.png"",""time"":298},{""stimulus"":""img/3to2/4.png"",""time"":397},{""stimulus"":""img/3to2/5.png"",""time"":496},{""stimulus"":""img/3to2/6.png"",""time"":595},{""stimulus"":""img/3to2/7.png"",""time"":694},{""stimulus"":""img/3to2/8.png"",""time"":794},{""stimulus"":""img/3to2/9.png"",""time"":891},{""stimulus"":""img/3to2/10.png"",""time"":990},{""stimulus"":""img/3to2/11.png"",""time"":1089},{""stimulus"":""img/3to2/12.png"",""time"":1188}]","[]"
"image-keyboard-response","144","166736","0.0-5.0-1.70","63d2bc12a843f8466a8f83e0","bdp_cybrbll","Sun Apr 09 2023 21:04:21 GMT-0400 (Eastern Daylight Time)","434952","3","1","","191","","","","choice","","img/2to1/1.png","1","155","372","0.5","0.5","2","1","",""
"animation","145","168023","0.0-5.0-2.70","63d2bc12a843f8466a8f83e0","bdp_cybrbll","Sun Apr 09 2023 21:04:21 GMT-0400 (Eastern Daylight Time)","434952","3","1","","","","","","","","","","155","","","","2","1","[{""stimulus"":""img/2to1/1.png"",""time"":99},{""stimulus"":""img/2to1/2.png"",""time"":198},{""stimulus"":""img/2to1/3.png"",""time"":297},{""stimulus"":""img/2to1/4.png"",""time"":396},{""stimulus"":""img/2to1/5.png"",""time"":495},{""stimulus"":""img/2to1/6.png"",""time"":594},{""stimulus"":""img/2to1/7.png"",""time"":693},{""stimulus"":""img/2to1/8.png"",""time"":792},{""stimulus"":""img/2to1/9.png"",""time"":891},{""stimulus"":""img/2to1/10.png"",""time"":990},{""stimulus"":""img/2to1/11.png"",""time"":1089},{""stimulus"":""img/2to1/12.png"",""time"":1188}]","[]"
"image-keyboard-response","146","168209","0.0-5.0-1.71","63d2bc12a843f8466a8f83e0","bdp_cybrbll","Sun Apr 09 2023 21:04:21 GMT-0400 (Eastern Daylight Time)","434952","3","1","","null","","","","observe","","img/1to3/1.png","null","154","185","0.5","0.5","1","2","",""
"animation","147","169497","0.0-5.0-2.71","63d2bc12a843f8466a8f83e0","bdp_cybrbll","Sun Apr 09 2023 21:04:21 GMT-0400 (Eastern Daylight Time)","434952","3","1","","","","","","","","","","154","","","","1","2","[{""stimulus"":""img/1to2/1.png"",""time"":101},{""stimulus"":""img/1to2/2.png"",""time"":200},{""stimulus"":""img/1to2/3.png"",""time"":298},{""stimulus"":""img/1to2/4.png"",""time"":397},{""stimulus"":""img/1to2/5.png"",""time"":496},{""stimulus"":""img/1to2/6.png"",""time"":596},{""stimulus"":""img/1to2/7.png"",""time"":694},{""stimulus"":""img/1to2/8.png"",""time"":793},{""stimulus"":""img/1to2/9.png"",""time"":892},{""stimulus"":""img/1to2/10.png"",""time"":991},{""stimulus"":""img/1to2/11.png"",""time"":1090},{""stimulus"":""img/1to2/12.png"",""time"":1189}]","[]"
"image-keyboard-response","148","169715","0.0-5.0-1.72","63d2bc12a843f8466a8f83e0","bdp_cybrbll","Sun Apr 09 2023 21:04:21 GMT-0400 (Eastern Daylight Time)","434952","3","1","","217","","","","choice","","img/2to1/1.png","2","153","527","0.5","0.5","2","3","",""
"animation","149","171003","0.0-5.0-2.72","63d2bc12a843f8466a8f83e0","bdp_cybrbll","Sun Apr 09 2023 21:04:21 GMT-0400 (Eastern Daylight Time)","434952","3","1","","","","","","","","","","153","","","","2","3","[{""stimulus"":""img/2to3/1.png"",""time"":100},{""stimulus"":""img/2to3/2.png"",""time"":200},{""stimulus"":""img/2to3/3.png"",""time"":299},{""stimulus"":""img/2to3/4.png"",""time"":398},{""stimulus"":""img/2to3/5.png"",""time"":495},{""stimulus"":""img/2to3/6.png"",""time"":595},{""stimulus"":""img/2to3/7.png"",""time"":694},{""stimulus"":""img/2to3/8.png"",""time"":793},{""stimulus"":""img/2to3/9.png"",""time"":892},{""stimulus"":""img/2to3/10.png"",""time"":991},{""stimulus"":""img/2to3/11.png"",""time"":1090},{""stimulus"":""img/2to3/12.png"",""time"":1189}]","[]"
"image-keyboard-response","150","171670","0.0-5.0-1.73","63d2bc12a843f8466a8f83e0","bdp_cybrbll","Sun Apr 09 2023 21:04:21 GMT-0400 (Eastern Daylight Time)","434952","3","1","","null","","","","observe","","img/3to2/1.png","null","152","666","0.5","0.5","3","2","",""
"animation","151","172957","0.0-5.0-2.73","63d2bc12a843f8466a8f83e0","bdp_cybrbll","Sun Apr 09 2023 21:04:21 GMT-0400 (Eastern Daylight Time)","434952","3","1","","","","","","","","","","152","","","","3","2","[{""stimulus"":""img/3to2/1.png"",""time"":100},{""stimulus"":""img/3to2/2.png"",""time"":199},{""stimulus"":""img/3to2/3.png"",""time"":298},{""stimulus"":""img/3to2/4.png"",""time"":397},{""stimulus"":""img/3to2/5.png"",""time"":497},{""stimulus"":""img/3to2/6.png"",""time"":595},{""stimulus"":""img/3to2/7.png"",""time"":694},{""stimulus"":""img/3to2/8.png"",""time"":792},{""stimulus"":""img/3to2/9.png"",""time"":891},{""stimulus"":""img/3to2/10.png"",""time"":990},{""stimulus"":""img/3to2/11.png"",""time"":1089},{""stimulus"":""img/3to2/12.png"",""time"":1188}]","[]"
"image-keyboard-response","152","173094","0.0-5.0-1.74","63d2bc12a843f8466a8f83e0","bdp_cybrbll","Sun Apr 09 2023 21:04:21 GMT-0400 (Eastern Daylight Time)","434952","3","1","","137","","","","choice","","img/2to1/1.png","1","151","420","0.5","0.5","2","1","",""
"animation","153","174383","0.0-5.0-2.74","63d2bc12a843f8466a8f83e0","bdp_cybrbll","Sun Apr 09 2023 21:04:21 GMT-0400 (Eastern Daylight Time)","434952","3","1","","","","","","","","","","151","","","","2","1","[{""stimulus"":""img/2to1/1.png"",""time"":100},{""stimulus"":""img/2to1/2.png"",""time"":200},{""stimulus"":""img/2to1/3.png"",""time"":298},{""stimulus"":""img/2to1/4.png"",""time"":397},{""stimulus"":""img/2to1/5.png"",""time"":496},{""stimulus"":""img/2to1/6.png"",""time"":595},{""stimulus"":""img/2to1/7.png"",""time"":694},{""stimulus"":""img/2to1/8.png"",""time"":793},{""stimulus"":""img/2to1/9.png"",""time"":892},{""stimulus"":""img/2to1/10.png"",""time"":991},{""stimulus"":""img/2to1/11.png"",""time"":1090},{""stimulus"":""img/2to1/12.png"",""time"":1189}]","[]"
"image-keyboard-response","154","174841","0.0-5.0-1.75","63d2bc12a843f8466a8f83e0","bdp_cybrbll","Sun Apr 09 2023 21:04:21 GMT-0400 (Eastern Daylight Time)","434952","3","1","","null","","","","observe","","img/1to3/1.png","null","150","457","0.5","0.5","1","2","",""
"animation","155","176128","0.0-5.0-2.75","63d2bc12a843f8466a8f83e0","bdp_cybrbll","Sun Apr 09 2023 21:04:21 GMT-0400 (Eastern Daylight Time)","434952","3","1","","","","","","","","","","150","","","","1","2","[{""stimulus"":""img/1to2/1.png"",""time"":100},{""stimulus"":""img/1to2/2.png"",""time"":199},{""stimulus"":""img/1to2/3.png"",""time"":298},{""stimulus"":""img/1to2/4.png"",""time"":397},{""stimulus"":""img/1to2/5.png"",""time"":496},{""stimulus"":""img/1to2/6.png"",""time"":595},{""stimulus"":""img/1to2/7.png"",""time"":694},{""stimulus"":""img/1to2/8.png"",""time"":793},{""stimulus"":""img/1to2/9.png"",""time"":891},{""stimulus"":""img/1to2/10.png"",""time"":990},{""stimulus"":""img/1to2/11.png"",""time"":1089},{""stimulus"":""img/1to2/12.png"",""time"":1188}]","[]"
"image-keyboard-response","156","176290","0.0-5.0-1.76","63d2bc12a843f8466a8f83e0","bdp_cybrbll","Sun Apr 09 2023 21:04:21 GMT-0400 (Eastern Daylight Time)","434952","3","1","","161","","","","choice","","img/2to1/1.png","2","149","474","0.5","0.1","2","3","",""
"animation","157","177578","0.0-5.0-2.76","63d2bc12a843f8466a8f83e0","bdp_cybrbll","Sun Apr 09 2023 21:04:21 GMT-0400 (Eastern Daylight Time)","434952","3","1","","","","","","","","","","149","","","","2","3","[{""stimulus"":""img/2to3/1.png"",""time"":101},{""stimulus"":""img/2to3/2.png"",""time"":199},{""stimulus"":""img/2to3/3.png"",""time"":299},{""stimulus"":""img/2to3/4.png"",""time"":398},{""stimulus"":""img/2to3/5.png"",""time"":497},{""stimulus"":""img/2to3/6.png"",""time"":596},{""stimulus"":""img/2to3/7.png"",""time"":695},{""stimulus"":""img/2to3/8.png"",""time"":793},{""stimulus"":""img/2to3/9.png"",""time"":892},{""stimulus"":""img/2to3/10.png"",""time"":991},{""stimulus"":""img/2to3/11.png"",""time"":1090},{""stimulus"":""img/2to3/12.png"",""time"":1189}]","[]"
"image-keyboard-response","158","177871","0.0-5.0-1.77","63d2bc12a843f8466a8f83e0","bdp_cybrbll","Sun Apr 09 2023 21:04:21 GMT-0400 (Eastern Daylight Time)","434952","3","1","","null","","","","observe","","img/3to2/1.png","null","148","292","0.5","0.1","3","2","",""
"animation","159","179158","0.0-5.0-2.77","63d2bc12a843f8466a8f83e0","bdp_cybrbll","Sun Apr 09 2023 21:04:21 GMT-0400 (Eastern Daylight Time)","434952","3","1","","","","","","","","","","148","","","","3","2","[{""stimulus"":""img/3to2/1.png"",""time"":100},{""stimulus"":""img/3to2/2.png"",""time"":199},{""stimulus"":""img/3to2/3.png"",""time"":298},{""stimulus"":""img/3to2/4.png"",""time"":397},{""stimulus"":""img/3to2/5.png"",""time"":496},{""stimulus"":""img/3to2/6.png"",""time"":596},{""stimulus"":""img/3to2/7.png"",""time"":694},{""stimulus"":""img/3to2/8.png"",""time"":793},{""stimulus"":""img/3to2/9.png"",""time"":891},{""stimulus"":""img/3to2/10.png"",""time"":990},{""stimulus"":""img/3to2/11.png"",""time"":1089},{""stimulus"":""img/3to2/12.png"",""time"":1188}]","[]"
"image-keyboard-response","160","179255","0.0-5.0-1.78","63d2bc12a843f8466a8f83e0","bdp_cybrbll","Sun Apr 09 2023 21:04:21 GMT-0400 (Eastern Daylight Time)","434952","3","1","","97","","","","choice","","img/2to1/1.png","2","147","530","0.5","0.1","2","3","",""
"animation","161","180542","0.0-5.0-2.78","63d2bc12a843f8466a8f83e0","bdp_cybrbll","Sun Apr 09 2023 21:04:21 GMT-0400 (Eastern Daylight Time)","434952","3","1","","","","","","","","","","147","","","","2","3","[{""stimulus"":""img/2to3/1.png"",""time"":100},{""stimulus"":""img/2to3/2.png"",""time"":198},{""stimulus"":""img/2to3/3.png"",""time"":297},{""stimulus"":""img/2to3/4.png"",""time"":396},{""stimulus"":""img/2to3/5.png"",""time"":495},{""stimulus"":""img/2to3/6.png"",""time"":594},{""stimulus"":""img/2to3/7.png"",""time"":693},{""stimulus"":""img/2to3/8.png"",""time"":792},{""stimulus"":""img/2to3/9.png"",""time"":891},{""stimulus"":""img/2to3/10.png"",""time"":990},{""stimulus"":""img/2to3/11.png"",""time"":1089},{""stimulus"":""img/2to3/12.png"",""time"":1188}]","[]"
"image-keyboard-response","162","180911","0.0-5.0-1.79","63d2bc12a843f8466a8f83e0","bdp_cybrbll","Sun Apr 09 2023 21:04:21 GMT-0400 (Eastern Daylight Time)","434952","3","1","","null","","","","observe","","img/3to2/1.png","null","146","368","0.5","0.1","3","2","",""
"animation","163","182199","0.0-5.0-2.79","63d2bc12a843f8466a8f83e0","bdp_cybrbll","Sun Apr 09 2023 21:04:21 GMT-0400 (Eastern Daylight Time)","434952","3","1","","","","","","","","","","146","","","","3","2","[{""stimulus"":""img/3to2/1.png"",""time"":101},{""stimulus"":""img/3to2/2.png"",""time"":200},{""stimulus"":""img/3to2/3.png"",""time"":299},{""stimulus"":""img/3to2/4.png"",""time"":398},{""stimulus"":""img/3to2/5.png"",""time"":497},{""stimulus"":""img/3to2/6.png"",""time"":596},{""stimulus"":""img/3to2/7.png"",""time"":695},{""stimulus"":""img/3to2/8.png"",""time"":793},{""stimulus"":""img/3to2/9.png"",""time"":892},{""stimulus"":""img/3to2/10.png"",""time"":991},{""stimulus"":""img/3to2/11.png"",""time"":1090},{""stimulus"":""img/3to2/12.png"",""time"":1189}]","[]"
"image-keyboard-response","164","182399","0.0-5.0-1.80","63d2bc12a843f8466a8f83e0","bdp_cybrbll","Sun Apr 09 2023 21:04:21 GMT-0400 (Eastern Daylight Time)","434952","3","1","","199","","","","choice","","img/2to1/1.png","2","145","444","0.5","0.1","2","3","",""
"animation","165","183687","0.0-5.0-2.80","63d2bc12a843f8466a8f83e0","bdp_cybrbll","Sun Apr 09 2023 21:04:21 GMT-0400 (Eastern Daylight Time)","434952","3","1","","","","","","","","","","145","","","","2","3","[{""stimulus"":""img/2to3/1.png"",""time"":100},{""stimulus"":""img/2to3/2.png"",""time"":199},{""stimulus"":""img/2to3/3.png"",""time"":297},{""stimulus"":""img/2to3/4.png"",""time"":396},{""stimulus"":""img/2to3/5.png"",""time"":496},{""stimulus"":""img/2to3/6.png"",""time"":595},{""stimulus"":""img/2to3/7.png"",""time"":694},{""stimulus"":""img/2to3/8.png"",""time"":793},{""stimulus"":""img/2to3/9.png"",""time"":892},{""stimulus"":""img/2to3/10.png"",""time"":991},{""stimulus"":""img/2to3/11.png"",""time"":1090},{""stimulus"":""img/2to3/12.png"",""time"":1189}]","[]"
"image-keyboard-response","166","184074","0.0-5.0-1.81","63d2bc12a843f8466a8f83e0","bdp_cybrbll","Sun Apr 09 2023 21:04:21 GMT-0400 (Eastern Daylight Time)","434952","3","1","","null","","","","observe","","img/3to2/1.png","null","144","386","0.5","0.1","3","2","",""
"animation","167","185361","0.0-5.0-2.81","63d2bc12a843f8466a8f83e0","bdp_cybrbll","Sun Apr 09 2023 21:04:21 GMT-0400 (Eastern Daylight Time)","434952","3","1","","","","","","","","","","144","","","","3","2","[{""stimulus"":""img/3to2/1.png"",""time"":100},{""stimulus"":""img/3to2/2.png"",""time"":199},{""stimulus"":""img/3to2/3.png"",""time"":298},{""stimulus"":""img/3to2/4.png"",""time"":397},{""stimulus"":""img/3to2/5.png"",""time"":496},{""stimulus"":""img/3to2/6.png"",""time"":595},{""stimulus"":""img/3to2/7.png"",""time"":694},{""stimulus"":""img/3to2/8.png"",""time"":793},{""stimulus"":""img/3to2/9.png"",""time"":891},{""stimulus"":""img/3to2/10.png"",""time"":990},{""stimulus"":""img/3to2/11.png"",""time"":1089},{""stimulus"":""img/3to2/12.png"",""time"":1188}]","[]"
"image-keyboard-response","168","185608","0.0-5.0-1.82","63d2bc12a843f8466a8f83e0","bdp_cybrbll","Sun Apr 09 2023 21:04:21 GMT-0400 (Eastern Daylight Time)","434952","3","1","","247","","","","choice","","img/2to1/1.png","2","143","616","0.5","0.1","2","3","",""
"animation","169","186897","0.0-5.0-2.82","63d2bc12a843f8466a8f83e0","bdp_cybrbll","Sun Apr 09 2023 21:04:21 GMT-0400 (Eastern Daylight Time)","434952","3","1","","","","","","","","","","143","","","","2","3","[{""stimulus"":""img/2to3/1.png"",""time"":100},{""stimulus"":""img/2to3/2.png"",""time"":199},{""stimulus"":""img/2to3/3.png"",""time"":298},{""stimulus"":""img/2to3/4.png"",""time"":398},{""stimulus"":""img/2to3/5.png"",""time"":496},{""stimulus"":""img/2to3/6.png"",""time"":595},{""stimulus"":""img/2to3/7.png"",""time"":694},{""stimulus"":""img/2to3/8.png"",""time"":793},{""stimulus"":""img/2to3/9.png"",""time"":892},{""stimulus"":""img/2to3/10.png"",""time"":991},{""stimulus"":""img/2to3/11.png"",""time"":1090},{""stimulus"":""img/2to3/12.png"",""time"":1189}]","[]"
"image-keyboard-response","170","187397","0.0-5.0-1.83","63d2bc12a843f8466a8f83e0","bdp_cybrbll","Sun Apr 09 2023 21:04:21 GMT-0400 (Eastern Daylight Time)","434952","3","1","","null","","","","observe","","img/3to2/1.png","null","142","499","0.5","0.1","3","2","",""
"animation","171","188689","0.0-5.0-2.83","63d2bc12a843f8466a8f83e0","bdp_cybrbll","Sun Apr 09 2023 21:04:21 GMT-0400 (Eastern Daylight Time)","434952","3","1","","","","","","","","","","142","","","","3","2","[{""stimulus"":""img/3to2/1.png"",""time"":101},{""stimulus"":""img/3to2/2.png"",""time"":200},{""stimulus"":""img/3to2/3.png"",""time"":299},{""stimulus"":""img/3to2/4.png"",""time"":398},{""stimulus"":""img/3to2/5.png"",""time"":497},{""stimulus"":""img/3to2/6.png"",""time"":596},{""stimulus"":""img/3to2/7.png"",""time"":696},{""stimulus"":""img/3to2/8.png"",""time"":794},{""stimulus"":""img/3to2/9.png"",""time"":892},{""stimulus"":""img/3to2/10.png"",""time"":991},{""stimulus"":""img/3to2/11.png"",""time"":1090},{""stimulus"":""img/3to2/12.png"",""time"":1189}]","[]"
"image-keyboard-response","172","188785","0.0-5.0-1.84","63d2bc12a843f8466a8f83e0","bdp_cybrbll","Sun Apr 09 2023 21:04:21 GMT-0400 (Eastern Daylight Time)","434952","3","1","","95","","","","choice","","img/2to1/1.png","2","141","324","0.5","0.1","2","3","",""
"animation","173","190073","0.0-5.0-2.84","63d2bc12a843f8466a8f83e0","bdp_cybrbll","Sun Apr 09 2023 21:04:21 GMT-0400 (Eastern Daylight Time)","434952","3","1","","","","","","","","","","141","","","","2","3","[{""stimulus"":""img/2to3/1.png"",""time"":102},{""stimulus"":""img/2to3/2.png"",""time"":198},{""stimulus"":""img/2to3/3.png"",""time"":297},{""stimulus"":""img/2to3/4.png"",""time"":397},{""stimulus"":""img/2to3/5.png"",""time"":495},{""stimulus"":""img/2to3/6.png"",""time"":595},{""stimulus"":""img/2to3/7.png"",""time"":694},{""stimulus"":""img/2to3/8.png"",""time"":793},{""stimulus"":""img/2to3/9.png"",""time"":892},{""stimulus"":""img/2to3/10.png"",""time"":991},{""stimulus"":""img/2to3/11.png"",""time"":1090},{""stimulus"":""img/2to3/12.png"",""time"":1189}]","[]"
"image-keyboard-response","174","190388","0.0-5.0-1.85","63d2bc12a843f8466a8f83e0","bdp_cybrbll","Sun Apr 09 2023 21:04:21 GMT-0400 (Eastern Daylight Time)","434952","3","1","","null","","","","observe","","img/3to2/1.png","null","140","314","0.5","0.1","3","1","",""
"animation","175","191676","0.0-5.0-2.85","63d2bc12a843f8466a8f83e0","bdp_cybrbll","Sun Apr 09 2023 21:04:21 GMT-0400 (Eastern Daylight Time)","434952","3","1","","","","","","","","","","140","","","","3","1","[{""stimulus"":""img/3to1/1.png"",""time"":100},{""stimulus"":""img/3to1/2.png"",""time"":199},{""stimulus"":""img/3to1/3.png"",""time"":298},{""stimulus"":""img/3to1/4.png"",""time"":397},{""stimulus"":""img/3to1/5.png"",""time"":496},{""stimulus"":""img/3to1/6.png"",""time"":595},{""stimulus"":""img/3to1/7.png"",""time"":694},{""stimulus"":""img/3to1/8.png"",""time"":793},{""stimulus"":""img/3to1/9.png"",""time"":891},{""stimulus"":""img/3to1/10.png"",""time"":990},{""stimulus"":""img/3to1/11.png"",""time"":1090},{""stimulus"":""img/3to1/12.png"",""time"":1188}]","[]"
"image-keyboard-response","176","192117","0.0-5.0-1.86","63d2bc12a843f8466a8f83e0","bdp_cybrbll","Sun Apr 09 2023 21:04:21 GMT-0400 (Eastern Daylight Time)","434952","3","1","","null","","","","observe","","img/1to3/1.png","null","139","440","0.5","0.1","1","3","",""
"animation","177","193404","0.0-5.0-2.86","63d2bc12a843f8466a8f83e0","bdp_cybrbll","Sun Apr 09 2023 21:04:21 GMT-0400 (Eastern Daylight Time)","434952","3","1","","","","","","","","","","139","","","","1","3","[{""stimulus"":""img/1to3/1.png"",""time"":100},{""stimulus"":""img/1to3/2.png"",""time"":199},{""stimulus"":""img/1to3/3.png"",""time"":299},{""stimulus"":""img/1to3/4.png"",""time"":397},{""stimulus"":""img/1to3/5.png"",""time"":496},{""stimulus"":""img/1to3/6.png"",""time"":595},{""stimulus"":""img/1to3/7.png"",""time"":694},{""stimulus"":""img/1to3/8.png"",""time"":793},{""stimulus"":""img/1to3/9.png"",""time"":891},{""stimulus"":""img/1to3/10.png"",""time"":990},{""stimulus"":""img/1to3/11.png"",""time"":1089},{""stimulus"":""img/1to3/12.png"",""time"":1188}]","[]"
"image-keyboard-response","178","193663","0.0-5.0-1.87","63d2bc12a843f8466a8f83e0","bdp_cybrbll","Sun Apr 09 2023 21:04:21 GMT-0400 (Eastern Daylight Time)","434952","3","1","","null","","","","observe","","img/3to2/1.png","null","138","258","0.5","0.1","3","2","",""
"animation","179","194951","0.0-5.0-2.87","63d2bc12a843f8466a8f83e0","bdp_cybrbll","Sun Apr 09 2023 21:04:21 GMT-0400 (Eastern Daylight Time)","434952","3","1","","","","","","","","","","138","","","","3","2","[{""stimulus"":""img/3to2/1.png"",""time"":101},{""stimulus"":""img/3to2/2.png"",""time"":200},{""stimulus"":""img/3to2/3.png"",""time"":299},{""stimulus"":""img/3to2/4.png"",""time"":398},{""stimulus"":""img/3to2/5.png"",""time"":498},{""stimulus"":""img/3to2/6.png"",""time"":596},{""stimulus"":""img/3to2/7.png"",""time"":695},{""stimulus"":""img/3to2/8.png"",""time"":794},{""stimulus"":""img/3to2/9.png"",""time"":892},{""stimulus"":""img/3to2/10.png"",""time"":991},{""stimulus"":""img/3to2/11.png"",""time"":1090},{""stimulus"":""img/3to2/12.png"",""time"":1189}]","[]"
"image-keyboard-response","180","195362","0.0-5.0-1.88","63d2bc12a843f8466a8f83e0","bdp_cybrbll","Sun Apr 09 2023 21:04:21 GMT-0400 (Eastern Daylight Time)","434952","3","1","","411","","","","choice","","img/2to1/1.png","1","137","435","0.5","0.1","2","1","",""
"animation","181","196650","0.0-5.0-2.88","63d2bc12a843f8466a8f83e0","bdp_cybrbll","Sun Apr 09 2023 21:04:21 GMT-0400 (Eastern Daylight Time)","434952","3","1","","","","","","","","","","137","","","","2","1","[{""stimulus"":""img/2to1/1.png"",""time"":101},{""stimulus"":""img/2to1/2.png"",""time"":199},{""stimulus"":""img/2to1/3.png"",""time"":298},{""stimulus"":""img/2to1/4.png"",""time"":397},{""stimulus"":""img/2to1/5.png"",""time"":496},{""stimulus"":""img/2to1/6.png"",""time"":595},{""stimulus"":""img/2to1/7.png"",""time"":694},{""stimulus"":""img/2to1/8.png"",""time"":793},{""stimulus"":""img/2to1/9.png"",""time"":892},{""stimulus"":""img/2to1/10.png"",""time"":991},{""stimulus"":""img/2to1/11.png"",""time"":1091},{""stimulus"":""img/2to1/12.png"",""time"":1189}]","[]"
"image-keyboard-response","182","197567","0.0-5.0-1.89","63d2bc12a843f8466a8f83e0","bdp_cybrbll","Sun Apr 09 2023 21:04:21 GMT-0400 (Eastern Daylight Time)","434952","3","1","","null","","","","observe","","img/1to3/1.png","null","136","916","0.5","0.1","1","3","",""
"animation","183","198855","0.0-5.0-2.89","63d2bc12a843f8466a8f83e0","bdp_cybrbll","Sun Apr 09 2023 21:04:21 GMT-0400 (Eastern Daylight Time)","434952","3","1","","","","","","","","","","136","","","","1","3","[{""stimulus"":""img/1to3/1.png"",""time"":100},{""stimulus"":""img/1to3/2.png"",""time"":199},{""stimulus"":""img/1to3/3.png"",""time"":298},{""stimulus"":""img/1to3/4.png"",""time"":397},{""stimulus"":""img/1to3/5.png"",""time"":498},{""stimulus"":""img/1to3/6.png"",""time"":596},{""stimulus"":""img/1to3/7.png"",""time"":695},{""stimulus"":""img/1to3/8.png"",""time"":794},{""stimulus"":""img/1to3/9.png"",""time"":892},{""stimulus"":""img/1to3/10.png"",""time"":991},{""stimulus"":""img/1to3/11.png"",""time"":1090},{""stimulus"":""img/1to3/12.png"",""time"":1189}]","[]"
"image-keyboard-response","184","199483","0.0-5.0-1.90","63d2bc12a843f8466a8f83e0","bdp_cybrbll","Sun Apr 09 2023 21:04:21 GMT-0400 (Eastern Daylight Time)","434952","3","1","","null","","","","observe","","img/3to2/1.png","null","135","627","0.5","0.1","3","1","",""
"animation","185","200771","0.0-5.0-2.90","63d2bc12a843f8466a8f83e0","bdp_cybrbll","Sun Apr 09 2023 21:04:21 GMT-0400 (Eastern Daylight Time)","434952","3","1","","","","","","","","","","135","","","","3","1","[{""stimulus"":""img/3to1/1.png"",""time"":100},{""stimulus"":""img/3to1/2.png"",""time"":199},{""stimulus"":""img/3to1/3.png"",""time"":298},{""stimulus"":""img/3to1/4.png"",""time"":397},{""stimulus"":""img/3to1/5.png"",""time"":497},{""stimulus"":""img/3to1/6.png"",""time"":596},{""stimulus"":""img/3to1/7.png"",""time"":695},{""stimulus"":""img/3to1/8.png"",""time"":793},{""stimulus"":""img/3to1/9.png"",""time"":892},{""stimulus"":""img/3to1/10.png"",""time"":991},{""stimulus"":""img/3to1/11.png"",""time"":1090},{""stimulus"":""img/3to1/12.png"",""time"":1189}]","[]"
"image-keyboard-response","186","201487","0.0-5.0-1.91","63d2bc12a843f8466a8f83e0","bdp_cybrbll","Sun Apr 09 2023 21:04:21 GMT-0400 (Eastern Daylight Time)","434952","3","1","","null","","","","observe","","img/1to3/1.png","null","134","715","0.5","0.1","1","3","",""
"animation","187","202775","0.0-5.0-2.91","63d2bc12a843f8466a8f83e0","bdp_cybrbll","Sun Apr 09 2023 21:04:21 GMT-0400 (Eastern Daylight Time)","434952","3","1","","","","","","","","","","134","","","","1","3","[{""stimulus"":""img/1to3/1.png"",""time"":100},{""stimulus"":""img/1to3/2.png"",""time"":199},{""stimulus"":""img/1to3/3.png"",""time"":298},{""stimulus"":""img/1to3/4.png"",""time"":397},{""stimulus"":""img/1to3/5.png"",""time"":496},{""stimulus"":""img/1to3/6.png"",""time"":595},{""stimulus"":""img/1to3/7.png"",""time"":695},{""stimulus"":""img/1to3/8.png"",""time"":793},{""stimulus"":""img/1to3/9.png"",""time"":892},{""stimulus"":""img/1to3/10.png"",""time"":991},{""stimulus"":""img/1to3/11.png"",""time"":1091},{""stimulus"":""img/1to3/12.png"",""time"":1189}]","[]"
"image-keyboard-response","188","203015","0.0-5.0-1.92","63d2bc12a843f8466a8f83e0","bdp_cybrbll","Sun Apr 09 2023 21:04:21 GMT-0400 (Eastern Daylight Time)","434952","3","1","","null","","","","observe","","img/3to2/1.png","null","133","239","0.5","0.1","3","1","",""
"animation","189","204302","0.0-5.0-2.92","63d2bc12a843f8466a8f83e0","bdp_cybrbll","Sun Apr 09 2023 21:04:21 GMT-0400 (Eastern Daylight Time)","434952","3","1","","","","","","","","","","133","","","","3","1","[{""stimulus"":""img/3to1/1.png"",""time"":100},{""stimulus"":""img/3to1/2.png"",""time"":199},{""stimulus"":""img/3to1/3.png"",""time"":298},{""stimulus"":""img/3to1/4.png"",""time"":398},{""stimulus"":""img/3to1/5.png"",""time"":496},{""stimulus"":""img/3to1/6.png"",""time"":595},{""stimulus"":""img/3to1/7.png"",""time"":695},{""stimulus"":""img/3to1/8.png"",""time"":794},{""stimulus"":""img/3to1/9.png"",""time"":891},{""stimulus"":""img/3to1/10.png"",""time"":990},{""stimulus"":""img/3to1/11.png"",""time"":1089},{""stimulus"":""img/3to1/12.png"",""time"":1188}]","[]"
"image-keyboard-response","190","204679","0.0-5.0-1.93","63d2bc12a843f8466a8f83e0","bdp_cybrbll","Sun Apr 09 2023 21:04:21 GMT-0400 (Eastern Daylight Time)","434952","3","1","","null","","","","observe","","img/1to3/1.png","null","132","376","0.5","0.1","1","3","",""
