"trial_type","trial_index","time_elapsed","internal_node_id","subject_id","task","startTime","totalTime","fairPartner","unfairPartner","view_history","rt","event","trial","time","trialtype","success","stimulus","key_press","throwsLeft","rtDur","pFair","pUnfair","holder","receiver","animation_sequence","responses"
"pavlovia","0","4","0.0-0.0","5f19fbbb7767270c32464eb5","bdp_cybrbll","Sun Mar 26 2023 11:54:57 GMT-0400 (Eastern Daylight Time)","412048","3","1","","","","","","","","","","","","","","","","",""
"instructions","1","1220","0.0-1.0","5f19fbbb7767270c32464eb5","bdp_cybrbll","Sun Mar 26 2023 11:54:57 GMT-0400 (Eastern Daylight Time)","412048","3","1","[{""page_index"":0,""viewing_time"":1215}]","1215","","","","","","","","","","","","","","",""
"","","","","5f19fbbb7767270c32464eb5","bdp_cybrbll","Sun Mar 26 2023 11:54:57 GMT-0400 (Eastern Daylight Time)","412048","3","1","","","fullscreenenter","2","2437","fullscreenenter","","","","","","","","","","",""
"fullscreen","2","3419","0.0-2.0","5f19fbbb7767270c32464eb5","bdp_cybrbll","Sun Mar 26 2023 11:54:57 GMT-0400 (Eastern Daylight Time)","412048","3","1","","","","","","","true","","","","","","","","","",""
"instructions","3","11024","0.0-4.0","5f19fbbb7767270c32464eb5","bdp_cybrbll","Sun Mar 26 2023 11:54:57 GMT-0400 (Eastern Daylight Time)","412048","3","1","[{""page_index"":0,""viewing_time"":7603}]","7603","","","","","","","","","","","","","","",""
"image-keyboard-response","4","14451","0.0-5.0-1.0","5f19fbbb7767270c32464eb5","bdp_cybrbll","Sun Mar 26 2023 11:54:57 GMT-0400 (Eastern Daylight Time)","412048","3","1","","3425","","","","choice","","img/2to1/1.png","1","225","554","0.5","0.5","2","1","",""
"animation","5","15745","0.0-5.0-2.0","5f19fbbb7767270c32464eb5","bdp_cybrbll","Sun Mar 26 2023 11:54:57 GMT-0400 (Eastern Daylight Time)","412048","3","1","","","","","","","","","","225","","","","2","1","[{""stimulus"":""img/2to1/1.png"",""time"":106},{""stimulus"":""img/2to1/2.png"",""time"":208},{""stimulus"":""img/2to1/3.png"",""time"":308},{""stimulus"":""img/2to1/4.png"",""time"":408},{""stimulus"":""img/2to1/5.png"",""time"":508},{""stimulus"":""img/2to1/6.png"",""time"":608},{""stimulus"":""img/2to1/7.png"",""time"":707},{""stimulus"":""img/2to1/8.png"",""time"":808},{""stimulus"":""img/2to1/9.png"",""time"":908},{""stimulus"":""img/2to1/10.png"",""time"":992},{""stimulus"":""img/2to1/11.png"",""time"":1092},{""stimulus"":""img/2to1/12.png"",""time"":1191}]","[]"
"image-keyboard-response","6","16129","0.0-5.0-1.1","5f19fbbb7767270c32464eb5","bdp_cybrbll","Sun Mar 26 2023 11:54:57 GMT-0400 (Eastern Daylight Time)","412048","3","1","","null","","","","observe","","img/1to3/1.png","null","224","378","0.5","0.5","1","2","",""
"animation","7","17427","0.0-5.0-2.1","5f19fbbb7767270c32464eb5","bdp_cybrbll","Sun Mar 26 2023 11:54:57 GMT-0400 (Eastern Daylight Time)","412048","3","1","","","","","","","","","","224","","","","1","2","[{""stimulus"":""img/1to2/1.png"",""time"":110},{""stimulus"":""img/1to2/2.png"",""time"":213},{""stimulus"":""img/1to2/3.png"",""time"":313},{""stimulus"":""img/1to2/4.png"",""time"":414},{""stimulus"":""img/1to2/5.png"",""time"":498},{""stimulus"":""img/1to2/6.png"",""time"":597},{""stimulus"":""img/1to2/7.png"",""time"":697},{""stimulus"":""img/1to2/8.png"",""time"":796},{""stimulus"":""img/1to2/9.png"",""time"":896},{""stimulus"":""img/1to2/10.png"",""time"":994},{""stimulus"":""img/1to2/11.png"",""time"":1097},{""stimulus"":""img/1to2/12.png"",""time"":1197}]","[]"
"image-keyboard-response","8","19298","0.0-5.0-1.2","5f19fbbb7767270c32464eb5","bdp_cybrbll","Sun Mar 26 2023 11:54:57 GMT-0400 (Eastern Daylight Time)","412048","3","1","","1869","","","","choice","","img/2to1/1.png","2","223","230","0.5","0.5","2","3","",""
"animation","9","20591","0.0-5.0-2.2","5f19fbbb7767270c32464eb5","bdp_cybrbll","Sun Mar 26 2023 11:54:57 GMT-0400 (Eastern Daylight Time)","412048","3","1","","","","","","","","","","223","","","","2","3","[{""stimulus"":""img/2to3/1.png"",""time"":108},{""stimulus"":""img/2to3/2.png"",""time"":210},{""stimulus"":""img/2to3/3.png"",""time"":312},{""stimulus"":""img/2to3/4.png"",""time"":411},{""stimulus"":""img/2to3/5.png"",""time"":512},{""stimulus"":""img/2to3/6.png"",""time"":596},{""stimulus"":""img/2to3/7.png"",""time"":695},{""stimulus"":""img/2to3/8.png"",""time"":796},{""stimulus"":""img/2to3/9.png"",""time"":893},{""stimulus"":""img/2to3/10.png"",""time"":995},{""stimulus"":""img/2to3/11.png"",""time"":1091},{""stimulus"":""img/2to3/12.png"",""time"":1194}]","[]"
"image-keyboard-response","10","21474","0.0-5.0-1.3","5f19fbbb7767270c32464eb5","bdp_cybrbll","Sun Mar 26 2023 11:54:57 GMT-0400 (Eastern Daylight Time)","412048","3","1","","null","","","","observe","","img/3to2/1.png","null","222","872","0.5","0.5","3","1","",""
"animation","11","22775","0.0-5.0-2.3","5f19fbbb7767270c32464eb5","bdp_cybrbll","Sun Mar 26 2023 11:54:57 GMT-0400 (Eastern Daylight Time)","412048","3","1","","","","","","","","","","222","","","","3","1","[{""stimulus"":""img/3to1/1.png"",""time"":112},{""stimulus"":""img/3to1/2.png"",""time"":201},{""stimulus"":""img/3to1/3.png"",""time"":299},{""stimulus"":""img/3to1/4.png"",""time"":401},{""stimulus"":""img/3to1/5.png"",""time"":501},{""stimulus"":""img/3to1/6.png"",""time"":601},{""stimulus"":""img/3to1/7.png"",""time"":701},{""stimulus"":""img/3to1/8.png"",""time"":801},{""stimulus"":""img/3to1/9.png"",""time"":901},{""stimulus"":""img/3to1/10.png"",""time"":1001},{""stimulus"":""img/3to1/11.png"",""time"":1101},{""stimulus"":""img/3to1/12.png"",""time"":1201}]","[]"
"image-keyboard-response","12","23192","0.0-5.0-1.4","5f19fbbb7767270c32464eb5","bdp_cybrbll","Sun Mar 26 2023 11:54:57 GMT-0400 (Eastern Daylight Time)","412048","3","1","","null","","","","observe","","img/1to3/1.png","null","221","410","0.5","0.5","1","3","",""
"animation","13","24491","0.0-5.0-2.4","5f19fbbb7767270c32464eb5","bdp_cybrbll","Sun Mar 26 2023 11:54:57 GMT-0400 (Eastern Daylight Time)","412048","3","1","","","","","","","","","","221","","","","1","3","[{""stimulus"":""img/1to3/1.png"",""time"":110},{""stimulus"":""img/1to3/2.png"",""time"":199},{""stimulus"":""img/1to3/3.png"",""time"":299},{""stimulus"":""img/1to3/4.png"",""time"":399},{""stimulus"":""img/1to3/5.png"",""time"":498},{""stimulus"":""img/1to3/6.png"",""time"":598},{""stimulus"":""img/1to3/7.png"",""time"":702},{""stimulus"":""img/1to3/8.png"",""time"":799},{""stimulus"":""img/1to3/9.png"",""time"":899},{""stimulus"":""img/1to3/10.png"",""time"":998},{""stimulus"":""img/1to3/11.png"",""time"":1098},{""stimulus"":""img/1to3/12.png"",""time"":1199}]","[]"
"image-keyboard-response","14","24785","0.0-5.0-1.5","5f19fbbb7767270c32464eb5","bdp_cybrbll","Sun Mar 26 2023 11:54:57 GMT-0400 (Eastern Daylight Time)","412048","3","1","","null","","","","observe","","img/3to2/1.png","null","220","292","0.5","0.5","3","1","",""
"animation","15","26073","0.0-5.0-2.5","5f19fbbb7767270c32464eb5","bdp_cybrbll","Sun Mar 26 2023 11:54:57 GMT-0400 (Eastern Daylight Time)","412048","3","1","","","","","","","","","","220","","","","3","1","[{""stimulus"":""img/3to1/1.png"",""time"":113},{""stimulus"":""img/3to1/2.png"",""time"":207},{""stimulus"":""img/3to1/3.png"",""time"":308},{""stimulus"":""img/3to1/4.png"",""time"":407},{""stimulus"":""img/3to1/5.png"",""time"":504},{""stimulus"":""img/3to1/6.png"",""time"":605},{""stimulus"":""img/3to1/7.png"",""time"":706},{""stimulus"":""img/3to1/8.png"",""time"":806},{""stimulus"":""img/3to1/9.png"",""time"":905},{""stimulus"":""img/3to1/10.png"",""time"":1005},{""stimulus"":""img/3to1/11.png"",""time"":1105},{""stimulus"":""img/3to1/12.png"",""time"":1205}]","[]"
"image-keyboard-response","16","26492","0.0-5.0-1.6","5f19fbbb7767270c32464eb5","bdp_cybrbll","Sun Mar 26 2023 11:54:57 GMT-0400 (Eastern Daylight Time)","412048","3","1","","null","","","","observe","","img/1to3/1.png","null","219","403","0.5","0.5","1","3","",""
"animation","17","27780","0.0-5.0-2.6","5f19fbbb7767270c32464eb5","bdp_cybrbll","Sun Mar 26 2023 11:54:57 GMT-0400 (Eastern Daylight Time)","412048","3","1","","","","","","","","","","219","","","","1","3","[{""stimulus"":""img/1to3/1.png"",""time"":112},{""stimulus"":""img/1to3/2.png"",""time"":200},{""stimulus"":""img/1to3/3.png"",""time"":299},{""stimulus"":""img/1to3/4.png"",""time"":400},{""stimulus"":""img/1to3/5.png"",""time"":499},{""stimulus"":""img/1to3/6.png"",""time"":599},{""stimulus"":""img/1to3/7.png"",""time"":700},{""stimulus"":""img/1to3/8.png"",""time"":799},{""stimulus"":""img/1to3/9.png"",""time"":900},{""stimulus"":""img/1to3/10.png"",""time"":992},{""stimulus"":""img/1to3/11.png"",""time"":1091},{""stimulus"":""img/1to3/12.png"",""time"":1191}]","[]"
"image-keyboard-response","18","28317","0.0-5.0-1.7","5f19fbbb7767270c32464eb5","bdp_cybrbll","Sun Mar 26 2023 11:54:57 GMT-0400 (Eastern Daylight Time)","412048","3","1","","null","","","","observe","","img/3to2/1.png","null","218","529","0.5","0.5","3","1","",""
"animation","19","29605","0.0-5.0-2.7","5f19fbbb7767270c32464eb5","bdp_cybrbll","Sun Mar 26 2023 11:54:57 GMT-0400 (Eastern Daylight Time)","412048","3","1","","","","","","","","","","218","","","","3","1","[{""stimulus"":""img/3to1/1.png"",""time"":101},{""stimulus"":""img/3to1/2.png"",""time"":200},{""stimulus"":""img/3to1/3.png"",""time"":298},{""stimulus"":""img/3to1/4.png"",""time"":397},{""stimulus"":""img/3to1/5.png"",""time"":496},{""stimulus"":""img/3to1/6.png"",""time"":596},{""stimulus"":""img/3to1/7.png"",""time"":694},{""stimulus"":""img/3to1/8.png"",""time"":793},{""stimulus"":""img/3to1/9.png"",""time"":894},{""stimulus"":""img/3to1/10.png"",""time"":992},{""stimulus"":""img/3to1/11.png"",""time"":1091},{""stimulus"":""img/3to1/12.png"",""time"":1189}]","[]"
"image-keyboard-response","20","30275","0.0-5.0-1.8","5f19fbbb7767270c32464eb5","bdp_cybrbll","Sun Mar 26 2023 11:54:57 GMT-0400 (Eastern Daylight Time)","412048","3","1","","null","","","","observe","","img/1to3/1.png","null","217","668","0.5","0.5","1","2","",""
"animation","21","31563","0.0-5.0-2.8","5f19fbbb7767270c32464eb5","bdp_cybrbll","Sun Mar 26 2023 11:54:57 GMT-0400 (Eastern Daylight Time)","412048","3","1","","","","","","","","","","217","","","","1","2","[{""stimulus"":""img/1to2/1.png"",""time"":101},{""stimulus"":""img/1to2/2.png"",""time"":200},{""stimulus"":""img/1to2/3.png"",""time"":298},{""stimulus"":""img/1to2/4.png"",""time"":398},{""stimulus"":""img/1to2/5.png"",""time"":496},{""stimulus"":""img/1to2/6.png"",""time"":595},{""stimulus"":""img/1to2/7.png"",""time"":695},{""stimulus"":""img/1to2/8.png"",""time"":793},{""stimulus"":""img/1to2/9.png"",""time"":893},{""stimulus"":""img/1to2/10.png"",""time"":992},{""stimulus"":""img/1to2/11.png"",""time"":1091},{""stimulus"":""img/1to2/12.png"",""time"":1190}]","[]"
"image-keyboard-response","22","31702","0.0-5.0-1.9","5f19fbbb7767270c32464eb5","bdp_cybrbll","Sun Mar 26 2023 11:54:57 GMT-0400 (Eastern Daylight Time)","412048","3","1","","137","","","","choice","","img/2to1/1.png","1","216","350","0.5","0.5","2","1","",""
"animation","23","32989","0.0-5.0-2.9","5f19fbbb7767270c32464eb5","bdp_cybrbll","Sun Mar 26 2023 11:54:57 GMT-0400 (Eastern Daylight Time)","412048","3","1","","","","","","","","","","216","","","","2","1","[{""stimulus"":""img/2to1/1.png"",""time"":101},{""stimulus"":""img/2to1/2.png"",""time"":200},{""stimulus"":""img/2to1/3.png"",""time"":298},{""stimulus"":""img/2to1/4.png"",""time"":397},{""stimulus"":""img/2to1/5.png"",""time"":496},{""stimulus"":""img/2to1/6.png"",""time"":595},{""stimulus"":""img/2to1/7.png"",""time"":695},{""stimulus"":""img/2to1/8.png"",""time"":793},{""stimulus"":""img/2to1/9.png"",""time"":892},{""stimulus"":""img/2to1/10.png"",""time"":992},{""stimulus"":""img/2to1/11.png"",""time"":1090},{""stimulus"":""img/2to1/12.png"",""time"":1189}]","[]"
"image-keyboard-response","24","33373","0.0-5.0-1.10","5f19fbbb7767270c32464eb5","bdp_cybrbll","Sun Mar 26 2023 11:54:57 GMT-0400 (Eastern Daylight Time)","412048","3","1","","null","","","","observe","","img/1to3/1.png","null","215","382","0.5","0.5","1","3","",""
"animation","25","34660","0.0-5.0-2.10","5f19fbbb7767270c32464eb5","bdp_cybrbll","Sun Mar 26 2023 11:54:57 GMT-0400 (Eastern Daylight Time)","412048","3","1","","","","","","","","","","215","","","","1","3","[{""stimulus"":""img/1to3/1.png"",""time"":100},{""stimulus"":""img/1to3/2.png"",""time"":200},{""stimulus"":""img/1to3/3.png"",""time"":298},{""stimulus"":""img/1to3/4.png"",""time"":397},{""stimulus"":""img/1to3/5.png"",""time"":497},{""stimulus"":""img/1to3/6.png"",""time"":595},{""stimulus"":""img/1to3/7.png"",""time"":694},{""stimulus"":""img/1to3/8.png"",""time"":794},{""stimulus"":""img/1to3/9.png"",""time"":892},{""stimulus"":""img/1to3/10.png"",""time"":991},{""stimulus"":""img/1to3/11.png"",""time"":1090},{""stimulus"":""img/1to3/12.png"",""time"":1190}]","[]"
"image-keyboard-response","26","35246","0.0-5.0-1.11","5f19fbbb7767270c32464eb5","bdp_cybrbll","Sun Mar 26 2023 11:54:57 GMT-0400 (Eastern Daylight Time)","412048","3","1","","null","","","","observe","","img/3to2/1.png","null","214","584","0.5","0.5","3","1","",""
"animation","27","36534","0.0-5.0-2.11","5f19fbbb7767270c32464eb5","bdp_cybrbll","Sun Mar 26 2023 11:54:57 GMT-0400 (Eastern Daylight Time)","412048","3","1","","","","","","","","","","214","","","","3","1","[{""stimulus"":""img/3to1/1.png"",""time"":101},{""stimulus"":""img/3to1/2.png"",""time"":199},{""stimulus"":""img/3to1/3.png"",""time"":299},{""stimulus"":""img/3to1/4.png"",""time"":398},{""stimulus"":""img/3to1/5.png"",""time"":496},{""stimulus"":""img/3to1/6.png"",""time"":596},{""stimulus"":""img/3to1/7.png"",""time"":694},{""stimulus"":""img/3to1/8.png"",""time"":794},{""stimulus"":""img/3to1/9.png"",""time"":893},{""stimulus"":""img/3to1/10.png"",""time"":992},{""stimulus"":""img/3to1/11.png"",""time"":1090},{""stimulus"":""img/3to1/12.png"",""time"":1190}]","[]"
"image-keyboard-response","28","37501","0.0-5.0-1.12","5f19fbbb7767270c32464eb5","bdp_cybrbll","Sun Mar 26 2023 11:54:57 GMT-0400 (Eastern Daylight Time)","412048","3","1","","null","","","","observe","","img/1to3/1.png","null","213","965","0.5","0.5","1","3","",""
"animation","29","38789","0.0-5.0-2.12","5f19fbbb7767270c32464eb5","bdp_cybrbll","Sun Mar 26 2023 11:54:57 GMT-0400 (Eastern Daylight Time)","412048","3","1","","","","","","","","","","213","","","","1","3","[{""stimulus"":""img/1to3/1.png"",""time"":101},{""stimulus"":""img/1to3/2.png"",""time"":199},{""stimulus"":""img/1to3/3.png"",""time"":299},{""stimulus"":""img/1to3/4.png"",""time"":398},{""stimulus"":""img/1to3/5.png"",""time"":496},{""stimulus"":""img/1to3/6.png"",""time"":596},{""stimulus"":""img/1to3/7.png"",""time"":695},{""stimulus"":""img/1to3/8.png"",""time"":794},{""stimulus"":""img/1to3/9.png"",""time"":892},{""stimulus"":""img/1to3/10.png"",""time"":993},{""stimulus"":""img/1to3/11.png"",""time"":1091},{""stimulus"":""img/1to3/12.png"",""time"":1190}]","[]"
"image-keyboard-response","30","39662","0.0-5.0-1.13","5f19fbbb7767270c32464eb5","bdp_cybrbll","Sun Mar 26 2023 11:54:57 GMT-0400 (Eastern Daylight Time)","412048","3","1","","null","","","","observe","","img/3to2/1.png","null","212","871","0.5","0.5","3","1","",""
"animation","31","40950","0.0-5.0-2.13","5f19fbbb7767270c32464eb5","bdp_cybrbll","Sun Mar 26 2023 11:54:57 GMT-0400 (Eastern Daylight Time)","412048","3","1","","","","","","","","","","212","","","","3","1","[{""stimulus"":""img/3to1/1.png"",""time"":101},{""stimulus"":""img/3to1/2.png"",""time"":199},{""stimulus"":""img/3to1/3.png"",""time"":298},{""stimulus"":""img/3to1/4.png"",""time"":397},{""stimulus"":""img/3to1/5.png"",""time"":496},{""stimulus"":""img/3to1/6.png"",""time"":595},{""stimulus"":""img/3to1/7.png"",""time"":694},{""stimulus"":""img/3to1/8.png"",""time"":793},{""stimulus"":""img/3to1/9.png"",""time"":893},{""stimulus"":""img/3to1/10.png"",""time"":991},{""stimulus"":""img/3to1/11.png"",""time"":1090},{""stimulus"":""img/3to1/12.png"",""time"":1189}]","[]"
"image-keyboard-response","32","41571","0.0-5.0-1.14","5f19fbbb7767270c32464eb5","bdp_cybrbll","Sun Mar 26 2023 11:54:57 GMT-0400 (Eastern Daylight Time)","412048","3","1","","null","","","","observe","","img/1to3/1.png","null","211","620","0.5","0.5","1","2","",""
"animation","33","42859","0.0-5.0-2.14","5f19fbbb7767270c32464eb5","bdp_cybrbll","Sun Mar 26 2023 11:54:57 GMT-0400 (Eastern Daylight Time)","412048","3","1","","","","","","","","","","211","","","","1","2","[{""stimulus"":""img/1to2/1.png"",""time"":99},{""stimulus"":""img/1to2/2.png"",""time"":198},{""stimulus"":""img/1to2/3.png"",""time"":298},{""stimulus"":""img/1to2/4.png"",""time"":396},{""stimulus"":""img/1to2/5.png"",""time"":504},{""stimulus"":""img/1to2/6.png"",""time"":594},{""stimulus"":""img/1to2/7.png"",""time"":694},{""stimulus"":""img/1to2/8.png"",""time"":792},{""stimulus"":""img/1to2/9.png"",""time"":892},{""stimulus"":""img/1to2/10.png"",""time"":991},{""stimulus"":""img/1to2/11.png"",""time"":1090},{""stimulus"":""img/1to2/12.png"",""time"":1189}]","[]"
"image-keyboard-response","34","42871","0.0-5.0-1.15","5f19fbbb7767270c32464eb5","bdp_cybrbll","Sun Mar 26 2023 11:54:57 GMT-0400 (Eastern Daylight Time)","412048","3","1","","10","","","","choice","","img/2to1/1.png","1","210","1131","0.5","0.5","2","1","",""
"animation","35","44158","0.0-5.0-2.15","5f19fbbb7767270c32464eb5","bdp_cybrbll","Sun Mar 26 2023 11:54:57 GMT-0400 (Eastern Daylight Time)","412048","3","1","","","","","","","","","","210","","","","2","1","[{""stimulus"":""img/2to1/1.png"",""time"":100},{""stimulus"":""img/2to1/2.png"",""time"":199},{""stimulus"":""img/2to1/3.png"",""time"":298},{""stimulus"":""img/2to1/4.png"",""time"":397},{""stimulus"":""img/2to1/5.png"",""time"":497},{""stimulus"":""img/2to1/6.png"",""time"":595},{""stimulus"":""img/2to1/7.png"",""time"":694},{""stimulus"":""img/2to1/8.png"",""time"":793},{""stimulus"":""img/2to1/9.png"",""time"":893},{""stimulus"":""img/2to1/10.png"",""time"":992},{""stimulus"":""img/2to1/11.png"",""time"":1090},{""stimulus"":""img/2to1/12.png"",""time"":1189}]","[]"
"image-keyboard-response","36","44483","0.0-5.0-1.16","5f19fbbb7767270c32464eb5","bdp_cybrbll","Sun Mar 26 2023 11:54:57 GMT-0400 (Eastern Daylight Time)","412048","3","1","","null","","","","observe","","img/1to3/1.png","null","209","322","0.5","0.5","1","2","",""
"animation","37","45770","0.0-5.0-2.16","5f19fbbb7767270c32464eb5","bdp_cybrbll","Sun Mar 26 2023 11:54:57 GMT-0400 (Eastern Daylight Time)","412048","3","1","","","","","","","","","","209","","","","1","2","[{""stimulus"":""img/1to2/1.png"",""time"":100},{""stimulus"":""img/1to2/2.png"",""time"":200},{""stimulus"":""img/1to2/3.png"",""time"":298},{""stimulus"":""img/1to2/4.png"",""time"":397},{""stimulus"":""img/1to2/5.png"",""time"":496},{""stimulus"":""img/1to2/6.png"",""time"":595},{""stimulus"":""img/1to2/7.png"",""time"":694},{""stimulus"":""img/1to2/8.png"",""time"":793},{""stimulus"":""img/1to2/9.png"",""time"":893},{""stimulus"":""img/1to2/10.png"",""time"":991},{""stimulus"":""img/1to2/11.png"",""time"":1091},{""stimulus"":""img/1to2/12.png"",""time"":1190}]","[]"
"image-keyboard-response","38","45892","0.0-5.0-1.17","5f19fbbb7767270c32464eb5","bdp_cybrbll","Sun Mar 26 2023 11:54:57 GMT-0400 (Eastern Daylight Time)","412048","3","1","","121","","","","choice","","img/2to1/1.png","1","208","1057","0.5","0.5","2","1","",""
"animation","39","47181","0.0-5.0-2.17","5f19fbbb7767270c32464eb5","bdp_cybrbll","Sun Mar 26 2023 11:54:57 GMT-0400 (Eastern Daylight Time)","412048","3","1","","","","","","","","","","208","","","","2","1","[{""stimulus"":""img/2to1/1.png"",""time"":101},{""stimulus"":""img/2to1/2.png"",""time"":199},{""stimulus"":""img/2to1/3.png"",""time"":299},{""stimulus"":""img/2to1/4.png"",""time"":397},{""stimulus"":""img/2to1/5.png"",""time"":496},{""stimulus"":""img/2to1/6.png"",""time"":594},{""stimulus"":""img/2to1/7.png"",""time"":694},{""stimulus"":""img/2to1/8.png"",""time"":792},{""stimulus"":""img/2to1/9.png"",""time"":892},{""stimulus"":""img/2to1/10.png"",""time"":991},{""stimulus"":""img/2to1/11.png"",""time"":1090},{""stimulus"":""img/2to1/12.png"",""time"":1190}]","[]"
"image-keyboard-response","40","47421","0.0-5.0-1.18","5f19fbbb7767270c32464eb5","bdp_cybrbll","Sun Mar 26 2023 11:54:57 GMT-0400 (Eastern Daylight Time)","412048","3","1","","null","","","","observe","","img/1to3/1.png","null","207","238","0.5","0.5","1","3","",""
"animation","41","48709","0.0-5.0-2.18","5f19fbbb7767270c32464eb5","bdp_cybrbll","Sun Mar 26 2023 11:54:57 GMT-0400 (Eastern Daylight Time)","412048","3","1","","","","","","","","","","207","","","","1","3","[{""stimulus"":""img/1to3/1.png"",""time"":100},{""stimulus"":""img/1to3/2.png"",""time"":199},{""stimulus"":""img/1to3/3.png"",""time"":299},{""stimulus"":""img/1to3/4.png"",""time"":397},{""stimulus"":""img/1to3/5.png"",""time"":496},{""stimulus"":""img/1to3/6.png"",""time"":595},{""stimulus"":""img/1to3/7.png"",""time"":695},{""stimulus"":""img/1to3/8.png"",""time"":793},{""stimulus"":""img/1to3/9.png"",""time"":892},{""stimulus"":""img/1to3/10.png"",""time"":991},{""stimulus"":""img/1to3/11.png"",""time"":1100},{""stimulus"":""img/1to3/12.png"",""time"":1189}]","[]"
"image-keyboard-response","42","49184","0.0-5.0-1.19","5f19fbbb7767270c32464eb5","bdp_cybrbll","Sun Mar 26 2023 11:54:57 GMT-0400 (Eastern Daylight Time)","412048","3","1","","null","","","","observe","","img/3to2/1.png","null","206","473","0.5","0.5","3","2","",""
"animation","43","50472","0.0-5.0-2.19","5f19fbbb7767270c32464eb5","bdp_cybrbll","Sun Mar 26 2023 11:54:57 GMT-0400 (Eastern Daylight Time)","412048","3","1","","","","","","","","","","206","","","","3","2","[{""stimulus"":""img/3to2/1.png"",""time"":100},{""stimulus"":""img/3to2/2.png"",""time"":199},{""stimulus"":""img/3to2/3.png"",""time"":299},{""stimulus"":""img/3to2/4.png"",""time"":397},{""stimulus"":""img/3to2/5.png"",""time"":496},{""stimulus"":""img/3to2/6.png"",""time"":595},{""stimulus"":""img/3to2/7.png"",""time"":694},{""stimulus"":""img/3to2/8.png"",""time"":793},{""stimulus"":""img/3to2/9.png"",""time"":892},{""stimulus"":""img/3to2/10.png"",""time"":991},{""stimulus"":""img/3to2/11.png"",""time"":1090},{""stimulus"":""img/3to2/12.png"",""time"":1190}]","[]"
"image-keyboard-response","44","50498","0.0-5.0-1.20","5f19fbbb7767270c32464eb5","bdp_cybrbll","Sun Mar 26 2023 11:54:57 GMT-0400 (Eastern Daylight Time)","412048","3","1","","26","","","","choice","","img/2to1/1.png","2","205","523","0.5","0.5","2","3","",""
"animation","45","51786","0.0-5.0-2.20","5f19fbbb7767270c32464eb5","bdp_cybrbll","Sun Mar 26 2023 11:54:57 GMT-0400 (Eastern Daylight Time)","412048","3","1","","","","","","","","","","205","","","","2","3","[{""stimulus"":""img/2to3/1.png"",""time"":100},{""stimulus"":""img/2to3/2.png"",""time"":199},{""stimulus"":""img/2to3/3.png"",""time"":299},{""stimulus"":""img/2to3/4.png"",""time"":397},{""stimulus"":""img/2to3/5.png"",""time"":496},{""stimulus"":""img/2to3/6.png"",""time"":595},{""stimulus"":""img/2to3/7.png"",""time"":694},{""stimulus"":""img/2to3/8.png"",""time"":794},{""stimulus"":""img/2to3/9.png"",""time"":892},{""stimulus"":""img/2to3/10.png"",""time"":991},{""stimulus"":""img/2to3/11.png"",""time"":1091},{""stimulus"":""img/2to3/12.png"",""time"":1189}]","[]"
"image-keyboard-response","46","52017","0.0-5.0-1.21","5f19fbbb7767270c32464eb5","bdp_cybrbll","Sun Mar 26 2023 11:54:57 GMT-0400 (Eastern Daylight Time)","412048","3","1","","null","","","","observe","","img/3to2/1.png","null","204","230","0.5","0.5","3","1","",""
"animation","47","53305","0.0-5.0-2.21","5f19fbbb7767270c32464eb5","bdp_cybrbll","Sun Mar 26 2023 11:54:57 GMT-0400 (Eastern Daylight Time)","412048","3","1","","","","","","","","","","204","","","","3","1","[{""stimulus"":""img/3to1/1.png"",""time"":101},{""stimulus"":""img/3to1/2.png"",""time"":200},{""stimulus"":""img/3to1/3.png"",""time"":299},{""stimulus"":""img/3to1/4.png"",""time"":398},{""stimulus"":""img/3to1/5.png"",""time"":497},{""stimulus"":""img/3to1/6.png"",""time"":596},{""stimulus"":""img/3to1/7.png"",""time"":696},{""stimulus"":""img/3to1/8.png"",""time"":794},{""stimulus"":""img/3to1/9.png"",""time"":893},{""stimulus"":""img/3to1/10.png"",""time"":991},{""stimulus"":""img/3to1/11.png"",""time"":1091},{""stimulus"":""img/3to1/12.png"",""time"":1190}]","[]"
"image-keyboard-response","48","53574","0.0-5.0-1.22","5f19fbbb7767270c32464eb5","bdp_cybrbll","Sun Mar 26 2023 11:54:57 GMT-0400 (Eastern Daylight Time)","412048","3","1","","null","","","","observe","","img/1to3/1.png","null","203","267","0.5","0.5","1","3","",""
"animation","49","54863","0.0-5.0-2.22","5f19fbbb7767270c32464eb5","bdp_cybrbll","Sun Mar 26 2023 11:54:57 GMT-0400 (Eastern Daylight Time)","412048","3","1","","","","","","","","","","203","","","","1","3","[{""stimulus"":""img/1to3/1.png"",""time"":101},{""stimulus"":""img/1to3/2.png"",""time"":199},{""stimulus"":""img/1to3/3.png"",""time"":300},{""stimulus"":""img/1to3/4.png"",""time"":397},{""stimulus"":""img/1to3/5.png"",""time"":497},{""stimulus"":""img/1to3/6.png"",""time"":596},{""stimulus"":""img/1to3/7.png"",""time"":695},{""stimulus"":""img/1to3/8.png"",""time"":794},{""stimulus"":""img/1to3/9.png"",""time"":892},{""stimulus"":""img/1to3/10.png"",""time"":991},{""stimulus"":""img/1to3/11.png"",""time"":1091},{""stimulus"":""img/1to3/12.png"",""time"":1190}]","[]"
"image-keyboard-response","50","55503","0.0-5.0-1.23","5f19fbbb7767270c32464eb5","bdp_cybrbll","Sun Mar 26 2023 11:54:57 GMT-0400 (Eastern Daylight Time)","412048","3","1","","null","","","","observe","","img/3to2/1.png","null","202","639","0.5","0.5","3","2","",""
"animation","51","56792","0.0-5.0-2.23","5f19fbbb7767270c32464eb5","bdp_cybrbll","Sun Mar 26 2023 11:54:57 GMT-0400 (Eastern Daylight Time)","412048","3","1","","","","","","","","","","202","","","","3","2","[{""stimulus"":""img/3to2/1.png"",""time"":101},{""stimulus"":""img/3to2/2.png"",""time"":199},{""stimulus"":""img/3to2/3.png"",""time"":299},{""stimulus"":""img/3to2/4.png"",""time"":411},{""stimulus"":""img/3to2/5.png"",""time"":497},{""stimulus"":""img/3to2/6.png"",""time"":595},{""stimulus"":""img/3to2/7.png"",""time"":695},{""stimulus"":""img/3to2/8.png"",""time"":794},{""stimulus"":""img/3to2/9.png"",""time"":893},{""stimulus"":""img/3to2/10.png"",""time"":992},{""stimulus"":""img/3to2/11.png"",""time"":1091},{""stimulus"":""img/3to2/12.png"",""time"":1190}]","[]"
"image-keyboard-response","52","56920","0.0-5.0-1.24","5f19fbbb7767270c32464eb5","bdp_cybrbll","Sun Mar 26 2023 11:54:57 GMT-0400 (Eastern Daylight Time)","412048","3","1","","127","","","","choice","","img/2to1/1.png","2","201","1832","0.5","0.5","2","3","",""
"animation","53","58209","0.0-5.0-2.24","5f19fbbb7767270c32464eb5","bdp_cybrbll","Sun Mar 26 2023 11:54:57 GMT-0400 (Eastern Daylight Time)","412048","3","1","","","","","","","","","","201","","","","2","3","[{""stimulus"":""img/2to3/1.png"",""time"":100},{""stimulus"":""img/2to3/2.png"",""time"":199},{""stimulus"":""img/2to3/3.png"",""time"":299},{""stimulus"":""img/2to3/4.png"",""time"":397},{""stimulus"":""img/2to3/5.png"",""time"":496},{""stimulus"":""img/2to3/6.png"",""time"":595},{""stimulus"":""img/2to3/7.png"",""time"":694},{""stimulus"":""img/2to3/8.png"",""time"":793},{""stimulus"":""img/2to3/9.png"",""time"":891},{""stimulus"":""img/2to3/10.png"",""time"":991},{""stimulus"":""img/2to3/11.png"",""time"":1090},{""stimulus"":""img/2to3/12.png"",""time"":1189}]","[]"
"image-keyboard-response","54","58879","0.0-5.0-1.25","5f19fbbb7767270c32464eb5","bdp_cybrbll","Sun Mar 26 2023 11:54:57 GMT-0400 (Eastern Daylight Time)","412048","3","1","","null","","","","observe","","img/3to2/1.png","null","200","666","0.5","0.5","3","1","",""
"animation","55","60167","0.0-5.0-2.25","5f19fbbb7767270c32464eb5","bdp_cybrbll","Sun Mar 26 2023 11:54:57 GMT-0400 (Eastern Daylight Time)","412048","3","1","","","","","","","","","","200","","","","3","1","[{""stimulus"":""img/3to1/1.png"",""time"":101},{""stimulus"":""img/3to1/2.png"",""time"":201},{""stimulus"":""img/3to1/3.png"",""time"":299},{""stimulus"":""img/3to1/4.png"",""time"":398},{""stimulus"":""img/3to1/5.png"",""time"":497},{""stimulus"":""img/3to1/6.png"",""time"":596},{""stimulus"":""img/3to1/7.png"",""time"":695},{""stimulus"":""img/3to1/8.png"",""time"":795},{""stimulus"":""img/3to1/9.png"",""time"":893},{""stimulus"":""img/3to1/10.png"",""time"":992},{""stimulus"":""img/3to1/11.png"",""time"":1091},{""stimulus"":""img/3to1/12.png"",""time"":1190}]","[]"
"image-keyboard-response","56","61231","0.0-5.0-1.26","5f19fbbb7767270c32464eb5","bdp_cybrbll","Sun Mar 26 2023 11:54:57 GMT-0400 (Eastern Daylight Time)","412048","3","1","","null","","","","observe","","img/1to3/1.png","null","199","1062","0.5","0.5","1","2","",""
"animation","57","62519","0.0-5.0-2.26","5f19fbbb7767270c32464eb5","bdp_cybrbll","Sun Mar 26 2023 11:54:57 GMT-0400 (Eastern Daylight Time)","412048","3","1","","","","","","","","","","199","","","","1","2","[{""stimulus"":""img/1to2/1.png"",""time"":101},{""stimulus"":""img/1to2/2.png"",""time"":199},{""stimulus"":""img/1to2/3.png"",""time"":298},{""stimulus"":""img/1to2/4.png"",""time"":397},{""stimulus"":""img/1to2/5.png"",""time"":496},{""stimulus"":""img/1to2/6.png"",""time"":596},{""stimulus"":""img/1to2/7.png"",""time"":694},{""stimulus"":""img/1to2/8.png"",""time"":793},{""stimulus"":""img/1to2/9.png"",""time"":892},{""stimulus"":""img/1to2/10.png"",""time"":991},{""stimulus"":""img/1to2/11.png"",""time"":1091},{""stimulus"":""img/1to2/12.png"",""time"":1189}]","[]"
"image-keyboard-response","58","62648","0.0-5.0-1.27","5f19fbbb7767270c32464eb5","bdp_cybrbll","Sun Mar 26 2023 11:54:57 GMT-0400 (Eastern Daylight Time)","412048","3","1","","128","","","","choice","","img/2to1/1.png","1","198","197","0.5","0.5","2","1","",""
"animation","59","63937","0.0-5.0-2.27","5f19fbbb7767270c32464eb5","bdp_cybrbll","Sun Mar 26 2023 11:54:57 GMT-0400 (Eastern Daylight Time)","412048","3","1","","","","","","","","","","198","","","","2","1","[{""stimulus"":""img/2to1/1.png"",""time"":100},{""stimulus"":""img/2to1/2.png"",""time"":199},{""stimulus"":""img/2to1/3.png"",""time"":297},{""stimulus"":""img/2to1/4.png"",""time"":397},{""stimulus"":""img/2to1/5.png"",""time"":496},{""stimulus"":""img/2to1/6.png"",""time"":595},{""stimulus"":""img/2to1/7.png"",""time"":694},{""stimulus"":""img/2to1/8.png"",""time"":793},{""stimulus"":""img/2to1/9.png"",""time"":892},{""stimulus"":""img/2to1/10.png"",""time"":991},{""stimulus"":""img/2to1/11.png"",""time"":1090},{""stimulus"":""img/2to1/12.png"",""time"":1188}]","[]"
"image-keyboard-response","60","64271","0.0-5.0-1.28","5f19fbbb7767270c32464eb5","bdp_cybrbll","Sun Mar 26 2023 11:54:57 GMT-0400 (Eastern Daylight Time)","412048","3","1","","null","","","","observe","","img/1to3/1.png","null","197","333","0.5","0.5","1","3","",""
"animation","61","65559","0.0-5.0-2.28","5f19fbbb7767270c32464eb5","bdp_cybrbll","Sun Mar 26 2023 11:54:57 GMT-0400 (Eastern Daylight Time)","412048","3","1","","","","","","","","","","197","","","","1","3","[{""stimulus"":""img/1to3/1.png"",""time"":100},{""stimulus"":""img/1to3/2.png"",""time"":199},{""stimulus"":""img/1to3/3.png"",""time"":298},{""stimulus"":""img/1to3/4.png"",""time"":397},{""stimulus"":""img/1to3/5.png"",""time"":496},{""stimulus"":""img/1to3/6.png"",""time"":596},{""stimulus"":""img/1to3/7.png"",""time"":694},{""stimulus"":""img/1to3/8.png"",""time"":794},{""stimulus"":""img/1to3/9.png"",""time"":893},{""stimulus"":""img/1to3/10.png"",""time"":991},{""stimulus"":""img/1to3/11.png"",""time"":1091},{""stimulus"":""img/1to3/12.png"",""time"":1189}]","[]"
"image-keyboard-response","62","66015","0.0-5.0-1.29","5f19fbbb7767270c32464eb5","bdp_cybrbll","Sun Mar 26 2023 11:54:57 GMT-0400 (Eastern Daylight Time)","412048","3","1","","null","","","","observe","","img/3to2/1.png","null","196","454","0.5","0.5","3","1","",""
"animation","63","67304","0.0-5.0-2.29","5f19fbbb7767270c32464eb5","bdp_cybrbll","Sun Mar 26 2023 11:54:57 GMT-0400 (Eastern Daylight Time)","412048","3","1","","","","","","","","","","196","","","","3","1","[{""stimulus"":""img/3to1/1.png"",""time"":100},{""stimulus"":""img/3to1/2.png"",""time"":199},{""stimulus"":""img/3to1/3.png"",""time"":297},{""stimulus"":""img/3to1/4.png"",""time"":396},{""stimulus"":""img/3to1/5.png"",""time"":497},{""stimulus"":""img/3to1/6.png"",""time"":594},{""stimulus"":""img/3to1/7.png"",""time"":694},{""stimulus"":""img/3to1/8.png"",""time"":793},{""stimulus"":""img/3to1/9.png"",""time"":892},{""stimulus"":""img/3to1/10.png"",""time"":991},{""stimulus"":""img/3to1/11.png"",""time"":1090},{""stimulus"":""img/3to1/12.png"",""time"":1189}]","[]"
"image-keyboard-response","64","67636","0.0-5.0-1.30","5f19fbbb7767270c32464eb5","bdp_cybrbll","Sun Mar 26 2023 11:54:57 GMT-0400 (Eastern Daylight Time)","412048","3","1","","null","","","","observe","","img/1to3/1.png","null","195","331","0.5","0.5","1","3","",""
"animation","65","68923","0.0-5.0-2.30","5f19fbbb7767270c32464eb5","bdp_cybrbll","Sun Mar 26 2023 11:54:57 GMT-0400 (Eastern Daylight Time)","412048","3","1","","","","","","","","","","195","","","","1","3","[{""stimulus"":""img/1to3/1.png"",""time"":101},{""stimulus"":""img/1to3/2.png"",""time"":199},{""stimulus"":""img/1to3/3.png"",""time"":298},{""stimulus"":""img/1to3/4.png"",""time"":397},{""stimulus"":""img/1to3/5.png"",""time"":497},{""stimulus"":""img/1to3/6.png"",""time"":596},{""stimulus"":""img/1to3/7.png"",""time"":695},{""stimulus"":""img/1to3/8.png"",""time"":793},{""stimulus"":""img/1to3/9.png"",""time"":893},{""stimulus"":""img/1to3/10.png"",""time"":992},{""stimulus"":""img/1to3/11.png"",""time"":1090},{""stimulus"":""img/1to3/12.png"",""time"":1190}]","[]"
"image-keyboard-response","66","69055","0.0-5.0-1.31","5f19fbbb7767270c32464eb5","bdp_cybrbll","Sun Mar 26 2023 11:54:57 GMT-0400 (Eastern Daylight Time)","412048","3","1","","null","","","","observe","","img/3to2/1.png","null","194","130","0.5","0.5","3","1","",""
"animation","67","70343","0.0-5.0-2.31","5f19fbbb7767270c32464eb5","bdp_cybrbll","Sun Mar 26 2023 11:54:57 GMT-0400 (Eastern Daylight Time)","412048","3","1","","","","","","","","","","194","","","","3","1","[{""stimulus"":""img/3to1/1.png"",""time"":101},{""stimulus"":""img/3to1/2.png"",""time"":200},{""stimulus"":""img/3to1/3.png"",""time"":299},{""stimulus"":""img/3to1/4.png"",""time"":398},{""stimulus"":""img/3to1/5.png"",""time"":496},{""stimulus"":""img/3to1/6.png"",""time"":596},{""stimulus"":""img/3to1/7.png"",""time"":695},{""stimulus"":""img/3to1/8.png"",""time"":794},{""stimulus"":""img/3to1/9.png"",""time"":893},{""stimulus"":""img/3to1/10.png"",""time"":992},{""stimulus"":""img/3to1/11.png"",""time"":1094},{""stimulus"":""img/3to1/12.png"",""time"":1190}]","[]"
"image-keyboard-response","68","70634","0.0-5.0-1.32","5f19fbbb7767270c32464eb5","bdp_cybrbll","Sun Mar 26 2023 11:54:57 GMT-0400 (Eastern Daylight Time)","412048","3","1","","null","","","","observe","","img/1to3/1.png","null","193","289","0.5","0.5","1","3","",""
"animation","69","71923","0.0-5.0-2.32","5f19fbbb7767270c32464eb5","bdp_cybrbll","Sun Mar 26 2023 11:54:57 GMT-0400 (Eastern Daylight Time)","412048","3","1","","","","","","","","","","193","","","","1","3","[{""stimulus"":""img/1to3/1.png"",""time"":100},{""stimulus"":""img/1to3/2.png"",""time"":199},{""stimulus"":""img/1to3/3.png"",""time"":299},{""stimulus"":""img/1to3/4.png"",""time"":397},{""stimulus"":""img/1to3/5.png"",""time"":496},{""stimulus"":""img/1to3/6.png"",""time"":595},{""stimulus"":""img/1to3/7.png"",""time"":693},{""stimulus"":""img/1to3/8.png"",""time"":793},{""stimulus"":""img/1to3/9.png"",""time"":892},{""stimulus"":""img/1to3/10.png"",""time"":991},{""stimulus"":""img/1to3/11.png"",""time"":1090},{""stimulus"":""img/1to3/12.png"",""time"":1189}]","[]"
"image-keyboard-response","70","72609","0.0-5.0-1.33","5f19fbbb7767270c32464eb5","bdp_cybrbll","Sun Mar 26 2023 11:54:57 GMT-0400 (Eastern Daylight Time)","412048","3","1","","null","","","","observe","","img/3to2/1.png","null","192","685","0.5","0.5","3","1","",""
"animation","71","73898","0.0-5.0-2.33","5f19fbbb7767270c32464eb5","bdp_cybrbll","Sun Mar 26 2023 11:54:57 GMT-0400 (Eastern Daylight Time)","412048","3","1","","","","","","","","","","192","","","","3","1","[{""stimulus"":""img/3to1/1.png"",""time"":101},{""stimulus"":""img/3to1/2.png"",""time"":200},{""stimulus"":""img/3to1/3.png"",""time"":299},{""stimulus"":""img/3to1/4.png"",""time"":398},{""stimulus"":""img/3to1/5.png"",""time"":496},{""stimulus"":""img/3to1/6.png"",""time"":602},{""stimulus"":""img/3to1/7.png"",""time"":694},{""stimulus"":""img/3to1/8.png"",""time"":793},{""stimulus"":""img/3to1/9.png"",""time"":893},{""stimulus"":""img/3to1/10.png"",""time"":991},{""stimulus"":""img/3to1/11.png"",""time"":1091},{""stimulus"":""img/3to1/12.png"",""time"":1189}]","[]"
"image-keyboard-response","72","74735","0.0-5.0-1.34","5f19fbbb7767270c32464eb5","bdp_cybrbll","Sun Mar 26 2023 11:54:57 GMT-0400 (Eastern Daylight Time)","412048","3","1","","null","","","","observe","","img/1to3/1.png","null","191","836","0.5","0.5","1","2","",""
"animation","73","76023","0.0-5.0-2.34","5f19fbbb7767270c32464eb5","bdp_cybrbll","Sun Mar 26 2023 11:54:57 GMT-0400 (Eastern Daylight Time)","412048","3","1","","","","","","","","","","191","","","","1","2","[{""stimulus"":""img/1to2/1.png"",""time"":101},{""stimulus"":""img/1to2/2.png"",""time"":200},{""stimulus"":""img/1to2/3.png"",""time"":299},{""stimulus"":""img/1to2/4.png"",""time"":398},{""stimulus"":""img/1to2/5.png"",""time"":497},{""stimulus"":""img/1to2/6.png"",""time"":596},{""stimulus"":""img/1to2/7.png"",""time"":694},{""stimulus"":""img/1to2/8.png"",""time"":794},{""stimulus"":""img/1to2/9.png"",""time"":893},{""stimulus"":""img/1to2/10.png"",""time"":993},{""stimulus"":""img/1to2/11.png"",""time"":1090},{""stimulus"":""img/1to2/12.png"",""time"":1190}]","[]"
"image-keyboard-response","74","76076","0.0-5.0-1.35","5f19fbbb7767270c32464eb5","bdp_cybrbll","Sun Mar 26 2023 11:54:57 GMT-0400 (Eastern Daylight Time)","412048","3","1","","52","","","","choice","","img/2to1/1.png","1","190","1569","0.5","0.5","2","1","",""
"animation","75","77365","0.0-5.0-2.35","5f19fbbb7767270c32464eb5","bdp_cybrbll","Sun Mar 26 2023 11:54:57 GMT-0400 (Eastern Daylight Time)","412048","3","1","","","","","","","","","","190","","","","2","1","[{""stimulus"":""img/2to1/1.png"",""time"":100},{""stimulus"":""img/2to1/2.png"",""time"":198},{""stimulus"":""img/2to1/3.png"",""time"":298},{""stimulus"":""img/2to1/4.png"",""time"":397},{""stimulus"":""img/2to1/5.png"",""time"":496},{""stimulus"":""img/2to1/6.png"",""time"":595},{""stimulus"":""img/2to1/7.png"",""time"":694},{""stimulus"":""img/2to1/8.png"",""time"":793},{""stimulus"":""img/2to1/9.png"",""time"":892},{""stimulus"":""img/2to1/10.png"",""time"":990},{""stimulus"":""img/2to1/11.png"",""time"":1090},{""stimulus"":""img/2to1/12.png"",""time"":1189}]","[]"
"image-keyboard-response","76","77938","0.0-5.0-1.36","5f19fbbb7767270c32464eb5","bdp_cybrbll","Sun Mar 26 2023 11:54:57 GMT-0400 (Eastern Daylight Time)","412048","3","1","","null","","","","observe","","img/1to3/1.png","null","189","571","0.5","0.5","1","2","",""
"animation","77","79226","0.0-5.0-2.36","5f19fbbb7767270c32464eb5","bdp_cybrbll","Sun Mar 26 2023 11:54:57 GMT-0400 (Eastern Daylight Time)","412048","3","1","","","","","","","","","","189","","","","1","2","[{""stimulus"":""img/1to2/1.png"",""time"":100},{""stimulus"":""img/1to2/2.png"",""time"":200},{""stimulus"":""img/1to2/3.png"",""time"":298},{""stimulus"":""img/1to2/4.png"",""time"":397},{""stimulus"":""img/1to2/5.png"",""time"":496},{""stimulus"":""img/1to2/6.png"",""time"":596},{""stimulus"":""img/1to2/7.png"",""time"":695},{""stimulus"":""img/1to2/8.png"",""time"":793},{""stimulus"":""img/1to2/9.png"",""time"":892},{""stimulus"":""img/1to2/10.png"",""time"":991},{""stimulus"":""img/1to2/11.png"",""time"":1090},{""stimulus"":""img/1to2/12.png"",""time"":1189}]","[]"
"image-keyboard-response","78","79403","0.0-5.0-1.37","5f19fbbb7767270c32464eb5","bdp_cybrbll","Sun Mar 26 2023 11:54:57 GMT-0400 (Eastern Daylight Time)","412048","3","1","","177","","","","choice","","img/2to1/1.png","1","188","1474","0.5","0.5","2","1","",""
"animation","79","80691","0.0-5.0-2.37","5f19fbbb7767270c32464eb5","bdp_cybrbll","Sun Mar 26 2023 11:54:57 GMT-0400 (Eastern Daylight Time)","412048","3","1","","","","","","","","","","188","","","","2","1","[{""stimulus"":""img/2to1/1.png"",""time"":100},{""stimulus"":""img/2to1/2.png"",""time"":199},{""stimulus"":""img/2to1/3.png"",""time"":299},{""stimulus"":""img/2to1/4.png"",""time"":398},{""stimulus"":""img/2to1/5.png"",""time"":496},{""stimulus"":""img/2to1/6.png"",""time"":596},{""stimulus"":""img/2to1/7.png"",""time"":694},{""stimulus"":""img/2to1/8.png"",""time"":793},{""stimulus"":""img/2to1/9.png"",""time"":893},{""stimulus"":""img/2to1/10.png"",""time"":991},{""stimulus"":""img/2to1/11.png"",""time"":1090},{""stimulus"":""img/2to1/12.png"",""time"":1190}]","[]"
"image-keyboard-response","80","81193","0.0-5.0-1.38","5f19fbbb7767270c32464eb5","bdp_cybrbll","Sun Mar 26 2023 11:54:57 GMT-0400 (Eastern Daylight Time)","412048","3","1","","null","","","","observe","","img/1to3/1.png","null","187","499","0.5","0.5","1","3","",""
"animation","81","82482","0.0-5.0-2.38","5f19fbbb7767270c32464eb5","bdp_cybrbll","Sun Mar 26 2023 11:54:57 GMT-0400 (Eastern Daylight Time)","412048","3","1","","","","","","","","","","187","","","","1","3","[{""stimulus"":""img/1to3/1.png"",""time"":100},{""stimulus"":""img/1to3/2.png"",""time"":201},{""stimulus"":""img/1to3/3.png"",""time"":299},{""stimulus"":""img/1to3/4.png"",""time"":398},{""stimulus"":""img/1to3/5.png"",""time"":496},{""stimulus"":""img/1to3/6.png"",""time"":596},{""stimulus"":""img/1to3/7.png"",""time"":695},{""stimulus"":""img/1to3/8.png"",""time"":793},{""stimulus"":""img/1to3/9.png"",""time"":892},{""stimulus"":""img/1to3/10.png"",""time"":991},{""stimulus"":""img/1to3/11.png"",""time"":1090},{""stimulus"":""img/1to3/12.png"",""time"":1190}]","[]"
"image-keyboard-response","82","83416","0.0-5.0-1.39","5f19fbbb7767270c32464eb5","bdp_cybrbll","Sun Mar 26 2023 11:54:57 GMT-0400 (Eastern Daylight Time)","412048","3","1","","null","","","","observe","","img/3to2/1.png","null","186","923","0.5","0.5","3","1","",""
"animation","83","84703","0.0-5.0-2.39","5f19fbbb7767270c32464eb5","bdp_cybrbll","Sun Mar 26 2023 11:54:57 GMT-0400 (Eastern Daylight Time)","412048","3","1","","","","","","","","","","186","","","","3","1","[{""stimulus"":""img/3to1/1.png"",""time"":101},{""stimulus"":""img/3to1/2.png"",""time"":199},{""stimulus"":""img/3to1/3.png"",""time"":298},{""stimulus"":""img/3to1/4.png"",""time"":397},{""stimulus"":""img/3to1/5.png"",""time"":496},{""stimulus"":""img/3to1/6.png"",""time"":595},{""stimulus"":""img/3to1/7.png"",""time"":694},{""stimulus"":""img/3to1/8.png"",""time"":794},{""stimulus"":""img/3to1/9.png"",""time"":892},{""stimulus"":""img/3to1/10.png"",""time"":991},{""stimulus"":""img/3to1/11.png"",""time"":1090},{""stimulus"":""img/3to1/12.png"",""time"":1189}]","[]"
"image-keyboard-response","84","84977","0.0-5.0-1.40","5f19fbbb7767270c32464eb5","bdp_cybrbll","Sun Mar 26 2023 11:54:57 GMT-0400 (Eastern Daylight Time)","412048","3","1","","null","","","","observe","","img/1to3/1.png","null","185","273","0.5","0.5","1","3","",""
"animation","85","86265","0.0-5.0-2.40","5f19fbbb7767270c32464eb5","bdp_cybrbll","Sun Mar 26 2023 11:54:57 GMT-0400 (Eastern Daylight Time)","412048","3","1","","","","","","","","","","185","","","","1","3","[{""stimulus"":""img/1to3/1.png"",""time"":100},{""stimulus"":""img/1to3/2.png"",""time"":199},{""stimulus"":""img/1to3/3.png"",""time"":298},{""stimulus"":""img/1to3/4.png"",""time"":398},{""stimulus"":""img/1to3/5.png"",""time"":496},{""stimulus"":""img/1to3/6.png"",""time"":596},{""stimulus"":""img/1to3/7.png"",""time"":694},{""stimulus"":""img/1to3/8.png"",""time"":793},{""stimulus"":""img/1to3/9.png"",""time"":892},{""stimulus"":""img/1to3/10.png"",""time"":991},{""stimulus"":""img/1to3/11.png"",""time"":1090},{""stimulus"":""img/1to3/12.png"",""time"":1189}]","[]"
"image-keyboard-response","86","86856","0.0-5.0-1.41","5f19fbbb7767270c32464eb5","bdp_cybrbll","Sun Mar 26 2023 11:54:57 GMT-0400 (Eastern Daylight Time)","412048","3","1","","null","","","","observe","","img/3to2/1.png","null","184","589","0.5","0.5","3","1","",""
"animation","87","88143","0.0-5.0-2.41","5f19fbbb7767270c32464eb5","bdp_cybrbll","Sun Mar 26 2023 11:54:57 GMT-0400 (Eastern Daylight Time)","412048","3","1","","","","","","","","","","184","","","","3","1","[{""stimulus"":""img/3to1/1.png"",""time"":100},{""stimulus"":""img/3to1/2.png"",""time"":199},{""stimulus"":""img/3to1/3.png"",""time"":298},{""stimulus"":""img/3to1/4.png"",""time"":398},{""stimulus"":""img/3to1/5.png"",""time"":496},{""stimulus"":""img/3to1/6.png"",""time"":595},{""stimulus"":""img/3to1/7.png"",""time"":694},{""stimulus"":""img/3to1/8.png"",""time"":794},{""stimulus"":""img/3to1/9.png"",""time"":892},{""stimulus"":""img/3to1/10.png"",""time"":992},{""stimulus"":""img/3to1/11.png"",""time"":1091},{""stimulus"":""img/3to1/12.png"",""time"":1189}]","[]"
"image-keyboard-response","88","88411","0.0-5.0-1.42","5f19fbbb7767270c32464eb5","bdp_cybrbll","Sun Mar 26 2023 11:54:57 GMT-0400 (Eastern Daylight Time)","412048","3","1","","null","","","","observe","","img/1to3/1.png","null","183","266","0.5","0.5","1","2","",""
"animation","89","89699","0.0-5.0-2.42","5f19fbbb7767270c32464eb5","bdp_cybrbll","Sun Mar 26 2023 11:54:57 GMT-0400 (Eastern Daylight Time)","412048","3","1","","","","","","","","","","183","","","","1","2","[{""stimulus"":""img/1to2/1.png"",""time"":101},{""stimulus"":""img/1to2/2.png"",""time"":200},{""stimulus"":""img/1to2/3.png"",""time"":299},{""stimulus"":""img/1to2/4.png"",""time"":397},{""stimulus"":""img/1to2/5.png"",""time"":496},{""stimulus"":""img/1to2/6.png"",""time"":596},{""stimulus"":""img/1to2/7.png"",""time"":695},{""stimulus"":""img/1to2/8.png"",""time"":793},{""stimulus"":""img/1to2/9.png"",""time"":893},{""stimulus"":""img/1to2/10.png"",""time"":992},{""stimulus"":""img/1to2/11.png"",""time"":1091},{""stimulus"":""img/1to2/12.png"",""time"":1190}]","[]"
"image-keyboard-response","90","89891","0.0-5.0-1.43","5f19fbbb7767270c32464eb5","bdp_cybrbll","Sun Mar 26 2023 11:54:57 GMT-0400 (Eastern Daylight Time)","412048","3","1","","191","","","","choice","","img/2to1/1.png","1","182","1562","0.5","0.5","2","1","",""
"animation","91","91180","0.0-5.0-2.43","5f19fbbb7767270c32464eb5","bdp_cybrbll","Sun Mar 26 2023 11:54:57 GMT-0400 (Eastern Daylight Time)","412048","3","1","","","","","","","","","","182","","","","2","1","[{""stimulus"":""img/2to1/1.png"",""time"":101},{""stimulus"":""img/2to1/2.png"",""time"":199},{""stimulus"":""img/2to1/3.png"",""time"":298},{""stimulus"":""img/2to1/4.png"",""time"":397},{""stimulus"":""img/2to1/5.png"",""time"":496},{""stimulus"":""img/2to1/6.png"",""time"":595},{""stimulus"":""img/2to1/7.png"",""time"":694},{""stimulus"":""img/2to1/8.png"",""time"":793},{""stimulus"":""img/2to1/9.png"",""time"":892},{""stimulus"":""img/2to1/10.png"",""time"":991},{""stimulus"":""img/2to1/11.png"",""time"":1090},{""stimulus"":""img/2to1/12.png"",""time"":1189}]","[]"
"image-keyboard-response","92","91442","0.0-5.0-1.44","5f19fbbb7767270c32464eb5","bdp_cybrbll","Sun Mar 26 2023 11:54:57 GMT-0400 (Eastern Daylight Time)","412048","3","1","","null","","","","observe","","img/1to3/1.png","null","181","260","0.5","0.5","1","2","",""
"animation","93","92730","0.0-5.0-2.44","5f19fbbb7767270c32464eb5","bdp_cybrbll","Sun Mar 26 2023 11:54:57 GMT-0400 (Eastern Daylight Time)","412048","3","1","","","","","","","","","","181","","","","1","2","[{""stimulus"":""img/1to2/1.png"",""time"":100},{""stimulus"":""img/1to2/2.png"",""time"":199},{""stimulus"":""img/1to2/3.png"",""time"":298},{""stimulus"":""img/1to2/4.png"",""time"":397},{""stimulus"":""img/1to2/5.png"",""time"":496},{""stimulus"":""img/1to2/6.png"",""time"":595},{""stimulus"":""img/1to2/7.png"",""time"":695},{""stimulus"":""img/1to2/8.png"",""time"":794},{""stimulus"":""img/1to2/9.png"",""time"":892},{""stimulus"":""img/1to2/10.png"",""time"":992},{""stimulus"":""img/1to2/11.png"",""time"":1090},{""stimulus"":""img/1to2/12.png"",""time"":1198}]","[]"
"image-keyboard-response","94","92769","0.0-5.0-1.45","5f19fbbb7767270c32464eb5","bdp_cybrbll","Sun Mar 26 2023 11:54:57 GMT-0400 (Eastern Daylight Time)","412048","3","1","","38","","","","choice","","img/2to1/1.png","2","180","777","0.5","0.5","2","3","",""
"animation","95","94057","0.0-5.0-2.45","5f19fbbb7767270c32464eb5","bdp_cybrbll","Sun Mar 26 2023 11:54:57 GMT-0400 (Eastern Daylight Time)","412048","3","1","","","","","","","","","","180","","","","2","3","[{""stimulus"":""img/2to3/1.png"",""time"":100},{""stimulus"":""img/2to3/2.png"",""time"":200},{""stimulus"":""img/2to3/3.png"",""time"":298},{""stimulus"":""img/2to3/4.png"",""time"":397},{""stimulus"":""img/2to3/5.png"",""time"":497},{""stimulus"":""img/2to3/6.png"",""time"":595},{""stimulus"":""img/2to3/7.png"",""time"":695},{""stimulus"":""img/2to3/8.png"",""time"":794},{""stimulus"":""img/2to3/9.png"",""time"":893},{""stimulus"":""img/2to3/10.png"",""time"":992},{""stimulus"":""img/2to3/11.png"",""time"":1090},{""stimulus"":""img/2to3/12.png"",""time"":1190}]","[]"
"image-keyboard-response","96","94341","0.0-5.0-1.46","5f19fbbb7767270c32464eb5","bdp_cybrbll","Sun Mar 26 2023 11:54:57 GMT-0400 (Eastern Daylight Time)","412048","3","1","","null","","","","observe","","img/3to2/1.png","null","179","282","0.5","0.5","3","2","",""
"animation","97","95629","0.0-5.0-2.46","5f19fbbb7767270c32464eb5","bdp_cybrbll","Sun Mar 26 2023 11:54:57 GMT-0400 (Eastern Daylight Time)","412048","3","1","","","","","","","","","","179","","","","3","2","[{""stimulus"":""img/3to2/1.png"",""time"":101},{""stimulus"":""img/3to2/2.png"",""time"":199},{""stimulus"":""img/3to2/3.png"",""time"":299},{""stimulus"":""img/3to2/4.png"",""time"":397},{""stimulus"":""img/3to2/5.png"",""time"":497},{""stimulus"":""img/3to2/6.png"",""time"":595},{""stimulus"":""img/3to2/7.png"",""time"":694},{""stimulus"":""img/3to2/8.png"",""time"":794},{""stimulus"":""img/3to2/9.png"",""time"":893},{""stimulus"":""img/3to2/10.png"",""time"":992},{""stimulus"":""img/3to2/11.png"",""time"":1098},{""stimulus"":""img/3to2/12.png"",""time"":1189}]","[]"
"image-keyboard-response","98","97916","0.0-5.0-1.47","5f19fbbb7767270c32464eb5","bdp_cybrbll","Sun Mar 26 2023 11:54:57 GMT-0400 (Eastern Daylight Time)","412048","3","1","","2285","","","","choice","","img/2to1/1.png","1","178","289","0.5","0.5","2","1","",""
"animation","99","99204","0.0-5.0-2.47","5f19fbbb7767270c32464eb5","bdp_cybrbll","Sun Mar 26 2023 11:54:57 GMT-0400 (Eastern Daylight Time)","412048","3","1","","","","","","","","","","178","","","","2","1","[{""stimulus"":""img/2to1/1.png"",""time"":101},{""stimulus"":""img/2to1/2.png"",""time"":200},{""stimulus"":""img/2to1/3.png"",""time"":298},{""stimulus"":""img/2to1/4.png"",""time"":398},{""stimulus"":""img/2to1/5.png"",""time"":498},{""stimulus"":""img/2to1/6.png"",""time"":595},{""stimulus"":""img/2to1/7.png"",""time"":695},{""stimulus"":""img/2to1/8.png"",""time"":794},{""stimulus"":""img/2to1/9.png"",""time"":892},{""stimulus"":""img/2to1/10.png"",""time"":991},{""stimulus"":""img/2to1/11.png"",""time"":1090},{""stimulus"":""img/2to1/12.png"",""time"":1189}]","[]"
"image-keyboard-response","100","100408","0.0-5.0-1.48","5f19fbbb7767270c32464eb5","bdp_cybrbll","Sun Mar 26 2023 11:54:57 GMT-0400 (Eastern Daylight Time)","412048","3","1","","null","","","","observe","","img/1to3/1.png","null","177","1203","0.5","0.5","1","2","",""
"animation","101","101696","0.0-5.0-2.48","5f19fbbb7767270c32464eb5","bdp_cybrbll","Sun Mar 26 2023 11:54:57 GMT-0400 (Eastern Daylight Time)","412048","3","1","","","","","","","","","","177","","","","1","2","[{""stimulus"":""img/1to2/1.png"",""time"":101},{""stimulus"":""img/1to2/2.png"",""time"":200},{""stimulus"":""img/1to2/3.png"",""time"":298},{""stimulus"":""img/1to2/4.png"",""time"":397},{""stimulus"":""img/1to2/5.png"",""time"":496},{""stimulus"":""img/1to2/6.png"",""time"":595},{""stimulus"":""img/1to2/7.png"",""time"":694},{""stimulus"":""img/1to2/8.png"",""time"":794},{""stimulus"":""img/1to2/9.png"",""time"":892},{""stimulus"":""img/1to2/10.png"",""time"":992},{""stimulus"":""img/1to2/11.png"",""time"":1091},{""stimulus"":""img/1to2/12.png"",""time"":1190}]","[]"
"image-keyboard-response","102","101737","0.0-5.0-1.49","5f19fbbb7767270c32464eb5","bdp_cybrbll","Sun Mar 26 2023 11:54:57 GMT-0400 (Eastern Daylight Time)","412048","3","1","","40","","","","choice","","img/2to1/1.png","1","176","443","0.5","0.5","2","1","",""
"animation","103","103025","0.0-5.0-2.49","5f19fbbb7767270c32464eb5","bdp_cybrbll","Sun Mar 26 2023 11:54:57 GMT-0400 (Eastern Daylight Time)","412048","3","1","","","","","","","","","","176","","","","2","1","[{""stimulus"":""img/2to1/1.png"",""time"":100},{""stimulus"":""img/2to1/2.png"",""time"":199},{""stimulus"":""img/2to1/3.png"",""time"":298},{""stimulus"":""img/2to1/4.png"",""time"":397},{""stimulus"":""img/2to1/5.png"",""time"":496},{""stimulus"":""img/2to1/6.png"",""time"":596},{""stimulus"":""img/2to1/7.png"",""time"":694},{""stimulus"":""img/2to1/8.png"",""time"":792},{""stimulus"":""img/2to1/9.png"",""time"":892},{""stimulus"":""img/2to1/10.png"",""time"":990},{""stimulus"":""img/2to1/11.png"",""time"":1090},{""stimulus"":""img/2to1/12.png"",""time"":1188}]","[]"
"image-keyboard-response","104","103980","0.0-5.0-1.50","5f19fbbb7767270c32464eb5","bdp_cybrbll","Sun Mar 26 2023 11:54:57 GMT-0400 (Eastern Daylight Time)","412048","3","1","","null","","","","observe","","img/1to3/1.png","null","175","953","0.5","0.5","1","3","",""
"animation","105","105268","0.0-5.0-2.50","5f19fbbb7767270c32464eb5","bdp_cybrbll","Sun Mar 26 2023 11:54:57 GMT-0400 (Eastern Daylight Time)","412048","3","1","","","","","","","","","","175","","","","1","3","[{""stimulus"":""img/1to3/1.png"",""time"":101},{""stimulus"":""img/1to3/2.png"",""time"":199},{""stimulus"":""img/1to3/3.png"",""time"":298},{""stimulus"":""img/1to3/4.png"",""time"":397},{""stimulus"":""img/1to3/5.png"",""time"":497},{""stimulus"":""img/1to3/6.png"",""time"":596},{""stimulus"":""img/1to3/7.png"",""time"":694},{""stimulus"":""img/1to3/8.png"",""time"":794},{""stimulus"":""img/1to3/9.png"",""time"":893},{""stimulus"":""img/1to3/10.png"",""time"":992},{""stimulus"":""img/1to3/11.png"",""time"":1090},{""stimulus"":""img/1to3/12.png"",""time"":1191}]","[]"
"image-keyboard-response","106","105888","0.0-5.0-1.51","5f19fbbb7767270c32464eb5","bdp_cybrbll","Sun Mar 26 2023 11:54:57 GMT-0400 (Eastern Daylight Time)","412048","3","1","","null","","","","observe","","img/3to2/1.png","null","174","619","0.5","0.5","3","1","",""
"animation","107","107176","0.0-5.0-2.51","5f19fbbb7767270c32464eb5","bdp_cybrbll","Sun Mar 26 2023 11:54:57 GMT-0400 (Eastern Daylight Time)","412048","3","1","","","","","","","","","","174","","","","3","1","[{""stimulus"":""img/3to1/1.png"",""time"":101},{""stimulus"":""img/3to1/2.png"",""time"":200},{""stimulus"":""img/3to1/3.png"",""time"":299},{""stimulus"":""img/3to1/4.png"",""time"":398},{""stimulus"":""img/3to1/5.png"",""time"":496},{""stimulus"":""img/3to1/6.png"",""time"":596},{""stimulus"":""img/3to1/7.png"",""time"":694},{""stimulus"":""img/3to1/8.png"",""time"":794},{""stimulus"":""img/3to1/9.png"",""time"":892},{""stimulus"":""img/3to1/10.png"",""time"":991},{""stimulus"":""img/3to1/11.png"",""time"":1091},{""stimulus"":""img/3to1/12.png"",""time"":1190}]","[]"
"image-keyboard-response","108","107503","0.0-5.0-1.52","5f19fbbb7767270c32464eb5","bdp_cybrbll","Sun Mar 26 2023 11:54:57 GMT-0400 (Eastern Daylight Time)","412048","3","1","","null","","","","observe","","img/1to3/1.png","null","173","325","0.5","0.5","1","3","",""
"animation","109","108790","0.0-5.0-2.52","5f19fbbb7767270c32464eb5","bdp_cybrbll","Sun Mar 26 2023 11:54:57 GMT-0400 (Eastern Daylight Time)","412048","3","1","","","","","","","","","","173","","","","1","3","[{""stimulus"":""img/1to3/1.png"",""time"":101},{""stimulus"":""img/1to3/2.png"",""time"":199},{""stimulus"":""img/1to3/3.png"",""time"":298},{""stimulus"":""img/1to3/4.png"",""time"":407},{""stimulus"":""img/1to3/5.png"",""time"":496},{""stimulus"":""img/1to3/6.png"",""time"":595},{""stimulus"":""img/1to3/7.png"",""time"":694},{""stimulus"":""img/1to3/8.png"",""time"":794},{""stimulus"":""img/1to3/9.png"",""time"":893},{""stimulus"":""img/1to3/10.png"",""time"":991},{""stimulus"":""img/1to3/11.png"",""time"":1091},{""stimulus"":""img/1to3/12.png"",""time"":1190}]","[]"
"image-keyboard-response","110","109190","0.0-5.0-1.53","5f19fbbb7767270c32464eb5","bdp_cybrbll","Sun Mar 26 2023 11:54:57 GMT-0400 (Eastern Daylight Time)","412048","3","1","","null","","","","observe","","img/3to2/1.png","null","172","398","0.5","0.5","3","2","",""
"animation","111","110478","0.0-5.0-2.53","5f19fbbb7767270c32464eb5","bdp_cybrbll","Sun Mar 26 2023 11:54:57 GMT-0400 (Eastern Daylight Time)","412048","3","1","","","","","","","","","","172","","","","3","2","[{""stimulus"":""img/3to2/1.png"",""time"":101},{""stimulus"":""img/3to2/2.png"",""time"":200},{""stimulus"":""img/3to2/3.png"",""time"":299},{""stimulus"":""img/3to2/4.png"",""time"":398},{""stimulus"":""img/3to2/5.png"",""time"":496},{""stimulus"":""img/3to2/6.png"",""time"":596},{""stimulus"":""img/3to2/7.png"",""time"":695},{""stimulus"":""img/3to2/8.png"",""time"":794},{""stimulus"":""img/3to2/9.png"",""time"":894},{""stimulus"":""img/3to2/10.png"",""time"":992},{""stimulus"":""img/3to2/11.png"",""time"":1090},{""stimulus"":""img/3to2/12.png"",""time"":1190}]","[]"
"image-keyboard-response","112","110692","0.0-5.0-1.54","5f19fbbb7767270c32464eb5","bdp_cybrbll","Sun Mar 26 2023 11:54:57 GMT-0400 (Eastern Daylight Time)","412048","3","1","","212","","","","choice","","img/2to1/1.png","2","171","771","0.5","0.5","2","3","",""
"animation","113","111980","0.0-5.0-2.54","5f19fbbb7767270c32464eb5","bdp_cybrbll","Sun Mar 26 2023 11:54:57 GMT-0400 (Eastern Daylight Time)","412048","3","1","","","","","","","","","","171","","","","2","3","[{""stimulus"":""img/2to3/1.png"",""time"":102},{""stimulus"":""img/2to3/2.png"",""time"":200},{""stimulus"":""img/2to3/3.png"",""time"":298},{""stimulus"":""img/2to3/4.png"",""time"":397},{""stimulus"":""img/2to3/5.png"",""time"":497},{""stimulus"":""img/2to3/6.png"",""time"":595},{""stimulus"":""img/2to3/7.png"",""time"":694},{""stimulus"":""img/2to3/8.png"",""time"":793},{""stimulus"":""img/2to3/9.png"",""time"":893},{""stimulus"":""img/2to3/10.png"",""time"":992},{""stimulus"":""img/2to3/11.png"",""time"":1090},{""stimulus"":""img/2to3/12.png"",""time"":1190}]","[]"
"image-keyboard-response","114","112429","0.0-5.0-1.55","5f19fbbb7767270c32464eb5","bdp_cybrbll","Sun Mar 26 2023 11:54:57 GMT-0400 (Eastern Daylight Time)","412048","3","1","","null","","","","observe","","img/3to2/1.png","null","170","448","0.5","0.5","3","2","",""
"animation","115","113718","0.0-5.0-2.55","5f19fbbb7767270c32464eb5","bdp_cybrbll","Sun Mar 26 2023 11:54:57 GMT-0400 (Eastern Daylight Time)","412048","3","1","","","","","","","","","","170","","","","3","2","[{""stimulus"":""img/3to2/1.png"",""time"":100},{""stimulus"":""img/3to2/2.png"",""time"":199},{""stimulus"":""img/3to2/3.png"",""time"":299},{""stimulus"":""img/3to2/4.png"",""time"":397},{""stimulus"":""img/3to2/5.png"",""time"":496},{""stimulus"":""img/3to2/6.png"",""time"":596},{""stimulus"":""img/3to2/7.png"",""time"":695},{""stimulus"":""img/3to2/8.png"",""time"":793},{""stimulus"":""img/3to2/9.png"",""time"":892},{""stimulus"":""img/3to2/10.png"",""time"":992},{""stimulus"":""img/3to2/11.png"",""time"":1092},{""stimulus"":""img/3to2/12.png"",""time"":1190}]","[]"
"image-keyboard-response","116","115594","0.0-5.0-1.56","5f19fbbb7767270c32464eb5","bdp_cybrbll","Sun Mar 26 2023 11:54:57 GMT-0400 (Eastern Daylight Time)","412048","3","1","","1876","","","","choice","","img/2to1/1.png","1","169","1869","0.5","0.5","2","1","",""
"animation","117","116883","0.0-5.0-2.56","5f19fbbb7767270c32464eb5","bdp_cybrbll","Sun Mar 26 2023 11:54:57 GMT-0400 (Eastern Daylight Time)","412048","3","1","","","","","","","","","","169","","","","2","1","[{""stimulus"":""img/2to1/1.png"",""time"":100},{""stimulus"":""img/2to1/2.png"",""time"":199},{""stimulus"":""img/2to1/3.png"",""time"":299},{""stimulus"":""img/2to1/4.png"",""time"":397},{""stimulus"":""img/2to1/5.png"",""time"":496},{""stimulus"":""img/2to1/6.png"",""time"":595},{""stimulus"":""img/2to1/7.png"",""time"":694},{""stimulus"":""img/2to1/8.png"",""time"":793},{""stimulus"":""img/2to1/9.png"",""time"":892},{""stimulus"":""img/2to1/10.png"",""time"":991},{""stimulus"":""img/2to1/11.png"",""time"":1090},{""stimulus"":""img/2to1/12.png"",""time"":1189}]","[]"
"image-keyboard-response","118","117416","0.0-5.0-1.57","5f19fbbb7767270c32464eb5","bdp_cybrbll","Sun Mar 26 2023 11:54:57 GMT-0400 (Eastern Daylight Time)","412048","3","1","","null","","","","observe","","img/1to3/1.png","null","168","532","0.5","0.5","1","2","",""
"animation","119","118704","0.0-5.0-2.57","5f19fbbb7767270c32464eb5","bdp_cybrbll","Sun Mar 26 2023 11:54:57 GMT-0400 (Eastern Daylight Time)","412048","3","1","","","","","","","","","","168","","","","1","2","[{""stimulus"":""img/1to2/1.png"",""time"":100},{""stimulus"":""img/1to2/2.png"",""time"":199},{""stimulus"":""img/1to2/3.png"",""time"":298},{""stimulus"":""img/1to2/4.png"",""time"":397},{""stimulus"":""img/1to2/5.png"",""time"":496},{""stimulus"":""img/1to2/6.png"",""time"":594},{""stimulus"":""img/1to2/7.png"",""time"":693},{""stimulus"":""img/1to2/8.png"",""time"":792},{""stimulus"":""img/1to2/9.png"",""time"":892},{""stimulus"":""img/1to2/10.png"",""time"":991},{""stimulus"":""img/1to2/11.png"",""time"":1090},{""stimulus"":""img/1to2/12.png"",""time"":1189}]","[]"
"image-keyboard-response","120","118865","0.0-5.0-1.58","5f19fbbb7767270c32464eb5","bdp_cybrbll","Sun Mar 26 2023 11:54:57 GMT-0400 (Eastern Daylight Time)","412048","3","1","","160","","","","choice","","img/2to1/1.png","1","167","946","0.5","0.5","2","1","",""
"animation","121","120153","0.0-5.0-2.58","5f19fbbb7767270c32464eb5","bdp_cybrbll","Sun Mar 26 2023 11:54:57 GMT-0400 (Eastern Daylight Time)","412048","3","1","","","","","","","","","","167","","","","2","1","[{""stimulus"":""img/2to1/1.png"",""time"":100},{""stimulus"":""img/2to1/2.png"",""time"":200},{""stimulus"":""img/2to1/3.png"",""time"":298},{""stimulus"":""img/2to1/4.png"",""time"":398},{""stimulus"":""img/2to1/5.png"",""time"":496},{""stimulus"":""img/2to1/6.png"",""time"":595},{""stimulus"":""img/2to1/7.png"",""time"":694},{""stimulus"":""img/2to1/8.png"",""time"":794},{""stimulus"":""img/2to1/9.png"",""time"":892},{""stimulus"":""img/2to1/10.png"",""time"":991},{""stimulus"":""img/2to1/11.png"",""time"":1090},{""stimulus"":""img/2to1/12.png"",""time"":1189}]","[]"
"image-keyboard-response","122","120527","0.0-5.0-1.59","5f19fbbb7767270c32464eb5","bdp_cybrbll","Sun Mar 26 2023 11:54:57 GMT-0400 (Eastern Daylight Time)","412048","3","1","","null","","","","observe","","img/1to3/1.png","null","166","371","0.5","0.5","1","2","",""
"animation","123","121814","0.0-5.0-2.59","5f19fbbb7767270c32464eb5","bdp_cybrbll","Sun Mar 26 2023 11:54:57 GMT-0400 (Eastern Daylight Time)","412048","3","1","","","","","","","","","","166","","","","1","2","[{""stimulus"":""img/1to2/1.png"",""time"":100},{""stimulus"":""img/1to2/2.png"",""time"":199},{""stimulus"":""img/1to2/3.png"",""time"":298},{""stimulus"":""img/1to2/4.png"",""time"":397},{""stimulus"":""img/1to2/5.png"",""time"":497},{""stimulus"":""img/1to2/6.png"",""time"":596},{""stimulus"":""img/1to2/7.png"",""time"":694},{""stimulus"":""img/1to2/8.png"",""time"":793},{""stimulus"":""img/1to2/9.png"",""time"":892},{""stimulus"":""img/1to2/10.png"",""time"":992},{""stimulus"":""img/1to2/11.png"",""time"":1090},{""stimulus"":""img/1to2/12.png"",""time"":1189}]","[]"
"image-keyboard-response","124","121979","0.0-5.0-1.60","5f19fbbb7767270c32464eb5","bdp_cybrbll","Sun Mar 26 2023 11:54:57 GMT-0400 (Eastern Daylight Time)","412048","3","1","","163","","","","choice","","img/2to1/1.png","1","165","286","0.5","0.5","2","1","",""
"animation","125","123267","0.0-5.0-2.60","5f19fbbb7767270c32464eb5","bdp_cybrbll","Sun Mar 26 2023 11:54:57 GMT-0400 (Eastern Daylight Time)","412048","3","1","","","","","","","","","","165","","","","2","1","[{""stimulus"":""img/2to1/1.png"",""time"":100},{""stimulus"":""img/2to1/2.png"",""time"":199},{""stimulus"":""img/2to1/3.png"",""time"":298},{""stimulus"":""img/2to1/4.png"",""time"":397},{""stimulus"":""img/2to1/5.png"",""time"":496},{""stimulus"":""img/2to1/6.png"",""time"":595},{""stimulus"":""img/2to1/7.png"",""time"":695},{""stimulus"":""img/2to1/8.png"",""time"":793},{""stimulus"":""img/2to1/9.png"",""time"":892},{""stimulus"":""img/2to1/10.png"",""time"":992},{""stimulus"":""img/2to1/11.png"",""time"":1090},{""stimulus"":""img/2to1/12.png"",""time"":1190}]","[]"
"image-keyboard-response","126","123912","0.0-5.0-1.61","5f19fbbb7767270c32464eb5","bdp_cybrbll","Sun Mar 26 2023 11:54:57 GMT-0400 (Eastern Daylight Time)","412048","3","1","","null","","","","observe","","img/1to3/1.png","null","164","644","0.5","0.5","1","3","",""
"animation","127","125201","0.0-5.0-2.61","5f19fbbb7767270c32464eb5","bdp_cybrbll","Sun Mar 26 2023 11:54:57 GMT-0400 (Eastern Daylight Time)","412048","3","1","","","","","","","","","","164","","","","1","3","[{""stimulus"":""img/1to3/1.png"",""time"":100},{""stimulus"":""img/1to3/2.png"",""time"":200},{""stimulus"":""img/1to3/3.png"",""time"":298},{""stimulus"":""img/1to3/4.png"",""time"":397},{""stimulus"":""img/1to3/5.png"",""time"":496},{""stimulus"":""img/1to3/6.png"",""time"":595},{""stimulus"":""img/1to3/7.png"",""time"":695},{""stimulus"":""img/1to3/8.png"",""time"":793},{""stimulus"":""img/1to3/9.png"",""time"":892},{""stimulus"":""img/1to3/10.png"",""time"":991},{""stimulus"":""img/1to3/11.png"",""time"":1090},{""stimulus"":""img/1to3/12.png"",""time"":1189}]","[]"
"image-keyboard-response","128","126003","0.0-5.0-1.62","5f19fbbb7767270c32464eb5","bdp_cybrbll","Sun Mar 26 2023 11:54:57 GMT-0400 (Eastern Daylight Time)","412048","3","1","","null","","","","observe","","img/3to2/1.png","null","163","800","0.5","0.5","3","1","",""
"animation","129","127290","0.0-5.0-2.62","5f19fbbb7767270c32464eb5","bdp_cybrbll","Sun Mar 26 2023 11:54:57 GMT-0400 (Eastern Daylight Time)","412048","3","1","","","","","","","","","","163","","","","3","1","[{""stimulus"":""img/3to1/1.png"",""time"":101},{""stimulus"":""img/3to1/2.png"",""time"":199},{""stimulus"":""img/3to1/3.png"",""time"":298},{""stimulus"":""img/3to1/4.png"",""time"":397},{""stimulus"":""img/3to1/5.png"",""time"":496},{""stimulus"":""img/3to1/6.png"",""time"":595},{""stimulus"":""img/3to1/7.png"",""time"":695},{""stimulus"":""img/3to1/8.png"",""time"":793},{""stimulus"":""img/3to1/9.png"",""time"":898},{""stimulus"":""img/3to1/10.png"",""time"":991},{""stimulus"":""img/3to1/11.png"",""time"":1090},{""stimulus"":""img/3to1/12.png"",""time"":1191}]","[]"
"image-keyboard-response","130","128022","0.0-5.0-1.63","5f19fbbb7767270c32464eb5","bdp_cybrbll","Sun Mar 26 2023 11:54:57 GMT-0400 (Eastern Daylight Time)","412048","3","1","","null","","","","observe","","img/1to3/1.png","null","162","730","0.5","0.5","1","3","",""
"animation","131","129310","0.0-5.0-2.63","5f19fbbb7767270c32464eb5","bdp_cybrbll","Sun Mar 26 2023 11:54:57 GMT-0400 (Eastern Daylight Time)","412048","3","1","","","","","","","","","","162","","","","1","3","[{""stimulus"":""img/1to3/1.png"",""time"":100},{""stimulus"":""img/1to3/2.png"",""time"":199},{""stimulus"":""img/1to3/3.png"",""time"":298},{""stimulus"":""img/1to3/4.png"",""time"":397},{""stimulus"":""img/1to3/5.png"",""time"":496},{""stimulus"":""img/1to3/6.png"",""time"":595},{""stimulus"":""img/1to3/7.png"",""time"":694},{""stimulus"":""img/1to3/8.png"",""time"":793},{""stimulus"":""img/1to3/9.png"",""time"":892},{""stimulus"":""img/1to3/10.png"",""time"":991},{""stimulus"":""img/1to3/11.png"",""time"":1091},{""stimulus"":""img/1to3/12.png"",""time"":1205}]","[]"
"image-keyboard-response","132","129933","0.0-5.0-1.64","5f19fbbb7767270c32464eb5","bdp_cybrbll","Sun Mar 26 2023 11:54:57 GMT-0400 (Eastern Daylight Time)","412048","3","1","","null","","","","observe","","img/3to2/1.png","null","161","621","0.5","0.5","3","1","",""
"animation","133","131221","0.0-5.0-2.64","5f19fbbb7767270c32464eb5","bdp_cybrbll","Sun Mar 26 2023 11:54:57 GMT-0400 (Eastern Daylight Time)","412048","3","1","","","","","","","","","","161","","","","3","1","[{""stimulus"":""img/3to1/1.png"",""time"":100},{""stimulus"":""img/3to1/2.png"",""time"":200},{""stimulus"":""img/3to1/3.png"",""time"":299},{""stimulus"":""img/3to1/4.png"",""time"":397},{""stimulus"":""img/3to1/5.png"",""time"":497},{""stimulus"":""img/3to1/6.png"",""time"":596},{""stimulus"":""img/3to1/7.png"",""time"":695},{""stimulus"":""img/3to1/8.png"",""time"":794},{""stimulus"":""img/3to1/9.png"",""time"":892},{""stimulus"":""img/3to1/10.png"",""time"":992},{""stimulus"":""img/3to1/11.png"",""time"":1091},{""stimulus"":""img/3to1/12.png"",""time"":1191}]","[]"
"image-keyboard-response","134","131585","0.0-5.0-1.65","5f19fbbb7767270c32464eb5","bdp_cybrbll","Sun Mar 26 2023 11:54:57 GMT-0400 (Eastern Daylight Time)","412048","3","1","","null","","","","observe","","img/1to3/1.png","null","160","363","0.5","0.5","1","2","",""
"animation","135","132873","0.0-5.0-2.65","5f19fbbb7767270c32464eb5","bdp_cybrbll","Sun Mar 26 2023 11:54:57 GMT-0400 (Eastern Daylight Time)","412048","3","1","","","","","","","","","","160","","","","1","2","[{""stimulus"":""img/1to2/1.png"",""time"":101},{""stimulus"":""img/1to2/2.png"",""time"":200},{""stimulus"":""img/1to2/3.png"",""time"":300},{""stimulus"":""img/1to2/4.png"",""time"":398},{""stimulus"":""img/1to2/5.png"",""time"":496},{""stimulus"":""img/1to2/6.png"",""time"":596},{""stimulus"":""img/1to2/7.png"",""time"":695},{""stimulus"":""img/1to2/8.png"",""time"":793},{""stimulus"":""img/1to2/9.png"",""time"":893},{""stimulus"":""img/1to2/10.png"",""time"":992},{""stimulus"":""img/1to2/11.png"",""time"":1091},{""stimulus"":""img/1to2/12.png"",""time"":1190}]","[]"
"image-keyboard-response","136","133445","0.0-5.0-1.66","5f19fbbb7767270c32464eb5","bdp_cybrbll","Sun Mar 26 2023 11:54:57 GMT-0400 (Eastern Daylight Time)","412048","3","1","","572","","","","choice","","img/2to1/1.png","1","159","324","0.5","0.5","2","1","",""
"animation","137","134733","0.0-5.0-2.66","5f19fbbb7767270c32464eb5","bdp_cybrbll","Sun Mar 26 2023 11:54:57 GMT-0400 (Eastern Daylight Time)","412048","3","1","","","","","","","","","","159","","","","2","1","[{""stimulus"":""img/2to1/1.png"",""time"":99},{""stimulus"":""img/2to1/2.png"",""time"":199},{""stimulus"":""img/2to1/3.png"",""time"":298},{""stimulus"":""img/2to1/4.png"",""time"":397},{""stimulus"":""img/2to1/5.png"",""time"":497},{""stimulus"":""img/2to1/6.png"",""time"":595},{""stimulus"":""img/2to1/7.png"",""time"":694},{""stimulus"":""img/2to1/8.png"",""time"":792},{""stimulus"":""img/2to1/9.png"",""time"":892},{""stimulus"":""img/2to1/10.png"",""time"":991},{""stimulus"":""img/2to1/11.png"",""time"":1090},{""stimulus"":""img/2to1/12.png"",""time"":1189}]","[]"
"image-keyboard-response","138","135333","0.0-5.0-1.67","5f19fbbb7767270c32464eb5","bdp_cybrbll","Sun Mar 26 2023 11:54:57 GMT-0400 (Eastern Daylight Time)","412048","3","1","","null","","","","observe","","img/1to3/1.png","null","158","599","0.5","0.5","1","3","",""
"animation","139","136622","0.0-5.0-2.67","5f19fbbb7767270c32464eb5","bdp_cybrbll","Sun Mar 26 2023 11:54:57 GMT-0400 (Eastern Daylight Time)","412048","3","1","","","","","","","","","","158","","","","1","3","[{""stimulus"":""img/1to3/1.png"",""time"":100},{""stimulus"":""img/1to3/2.png"",""time"":199},{""stimulus"":""img/1to3/3.png"",""time"":298},{""stimulus"":""img/1to3/4.png"",""time"":397},{""stimulus"":""img/1to3/5.png"",""time"":496},{""stimulus"":""img/1to3/6.png"",""time"":595},{""stimulus"":""img/1to3/7.png"",""time"":694},{""stimulus"":""img/1to3/8.png"",""time"":793},{""stimulus"":""img/1to3/9.png"",""time"":892},{""stimulus"":""img/1to3/10.png"",""time"":991},{""stimulus"":""img/1to3/11.png"",""time"":1090},{""stimulus"":""img/1to3/12.png"",""time"":1190}]","[]"
"image-keyboard-response","140","136943","0.0-5.0-1.68","5f19fbbb7767270c32464eb5","bdp_cybrbll","Sun Mar 26 2023 11:54:57 GMT-0400 (Eastern Daylight Time)","412048","3","1","","null","","","","observe","","img/3to2/1.png","null","157","319","0.5","0.5","3","2","",""
"animation","141","138231","0.0-5.0-2.68","5f19fbbb7767270c32464eb5","bdp_cybrbll","Sun Mar 26 2023 11:54:57 GMT-0400 (Eastern Daylight Time)","412048","3","1","","","","","","","","","","157","","","","3","2","[{""stimulus"":""img/3to2/1.png"",""time"":100},{""stimulus"":""img/3to2/2.png"",""time"":200},{""stimulus"":""img/3to2/3.png"",""time"":298},{""stimulus"":""img/3to2/4.png"",""time"":397},{""stimulus"":""img/3to2/5.png"",""time"":504},{""stimulus"":""img/3to2/6.png"",""time"":595},{""stimulus"":""img/3to2/7.png"",""time"":694},{""stimulus"":""img/3to2/8.png"",""time"":793},{""stimulus"":""img/3to2/9.png"",""time"":893},{""stimulus"":""img/3to2/10.png"",""time"":992},{""stimulus"":""img/3to2/11.png"",""time"":1091},{""stimulus"":""img/3to2/12.png"",""time"":1190}]","[]"
"image-keyboard-response","142","138346","0.0-5.0-1.69","5f19fbbb7767270c32464eb5","bdp_cybrbll","Sun Mar 26 2023 11:54:57 GMT-0400 (Eastern Daylight Time)","412048","3","1","","114","","","","choice","","img/2to1/1.png","2","156","366","0.5","0.5","2","3","",""
"animation","143","139635","0.0-5.0-2.69","5f19fbbb7767270c32464eb5","bdp_cybrbll","Sun Mar 26 2023 11:54:57 GMT-0400 (Eastern Daylight Time)","412048","3","1","","","","","","","","","","156","","","","2","3","[{""stimulus"":""img/2to3/1.png"",""time"":100},{""stimulus"":""img/2to3/2.png"",""time"":199},{""stimulus"":""img/2to3/3.png"",""time"":299},{""stimulus"":""img/2to3/4.png"",""time"":397},{""stimulus"":""img/2to3/5.png"",""time"":496},{""stimulus"":""img/2to3/6.png"",""time"":595},{""stimulus"":""img/2to3/7.png"",""time"":694},{""stimulus"":""img/2to3/8.png"",""time"":794},{""stimulus"":""img/2to3/9.png"",""time"":892},{""stimulus"":""img/2to3/10.png"",""time"":992},{""stimulus"":""img/2to3/11.png"",""time"":1090},{""stimulus"":""img/2to3/12.png"",""time"":1189}]","[]"
"image-keyboard-response","144","140109","0.0-5.0-1.70","5f19fbbb7767270c32464eb5","bdp_cybrbll","Sun Mar 26 2023 11:54:57 GMT-0400 (Eastern Daylight Time)","412048","3","1","","null","","","","observe","","img/3to2/1.png","null","155","472","0.5","0.5","3","2","",""
"animation","145","141397","0.0-5.0-2.70","5f19fbbb7767270c32464eb5","bdp_cybrbll","Sun Mar 26 2023 11:54:57 GMT-0400 (Eastern Daylight Time)","412048","3","1","","","","","","","","","","155","","","","3","2","[{""stimulus"":""img/3to2/1.png"",""time"":100},{""stimulus"":""img/3to2/2.png"",""time"":200},{""stimulus"":""img/3to2/3.png"",""time"":299},{""stimulus"":""img/3to2/4.png"",""time"":397},{""stimulus"":""img/3to2/5.png"",""time"":497},{""stimulus"":""img/3to2/6.png"",""time"":596},{""stimulus"":""img/3to2/7.png"",""time"":694},{""stimulus"":""img/3to2/8.png"",""time"":794},{""stimulus"":""img/3to2/9.png"",""time"":893},{""stimulus"":""img/3to2/10.png"",""time"":991},{""stimulus"":""img/3to2/11.png"",""time"":1091},{""stimulus"":""img/3to2/12.png"",""time"":1189}]","[]"
"image-keyboard-response","146","142349","0.0-5.0-1.71","5f19fbbb7767270c32464eb5","bdp_cybrbll","Sun Mar 26 2023 11:54:57 GMT-0400 (Eastern Daylight Time)","412048","3","1","","951","","","","choice","","img/2to1/1.png","1","154","382","0.5","0.5","2","1","",""
"animation","147","143638","0.0-5.0-2.71","5f19fbbb7767270c32464eb5","bdp_cybrbll","Sun Mar 26 2023 11:54:57 GMT-0400 (Eastern Daylight Time)","412048","3","1","","","","","","","","","","154","","","","2","1","[{""stimulus"":""img/2to1/1.png"",""time"":100},{""stimulus"":""img/2to1/2.png"",""time"":199},{""stimulus"":""img/2to1/3.png"",""time"":298},{""stimulus"":""img/2to1/4.png"",""time"":398},{""stimulus"":""img/2to1/5.png"",""time"":496},{""stimulus"":""img/2to1/6.png"",""time"":595},{""stimulus"":""img/2to1/7.png"",""time"":694},{""stimulus"":""img/2to1/8.png"",""time"":794},{""stimulus"":""img/2to1/9.png"",""time"":894},{""stimulus"":""img/2to1/10.png"",""time"":991},{""stimulus"":""img/2to1/11.png"",""time"":1090},{""stimulus"":""img/2to1/12.png"",""time"":1190}]","[]"
"image-keyboard-response","148","144208","0.0-5.0-1.72","5f19fbbb7767270c32464eb5","bdp_cybrbll","Sun Mar 26 2023 11:54:57 GMT-0400 (Eastern Daylight Time)","412048","3","1","","null","","","","observe","","img/1to3/1.png","null","153","568","0.5","0.5","1","3","",""
"animation","149","145495","0.0-5.0-2.72","5f19fbbb7767270c32464eb5","bdp_cybrbll","Sun Mar 26 2023 11:54:57 GMT-0400 (Eastern Daylight Time)","412048","3","1","","","","","","","","","","153","","","","1","3","[{""stimulus"":""img/1to3/1.png"",""time"":100},{""stimulus"":""img/1to3/2.png"",""time"":200},{""stimulus"":""img/1to3/3.png"",""time"":299},{""stimulus"":""img/1to3/4.png"",""time"":397},{""stimulus"":""img/1to3/5.png"",""time"":496},{""stimulus"":""img/1to3/6.png"",""time"":596},{""stimulus"":""img/1to3/7.png"",""time"":698},{""stimulus"":""img/1to3/8.png"",""time"":793},{""stimulus"":""img/1to3/9.png"",""time"":892},{""stimulus"":""img/1to3/10.png"",""time"":991},{""stimulus"":""img/1to3/11.png"",""time"":1090},{""stimulus"":""img/1to3/12.png"",""time"":1190}]","[]"
"image-keyboard-response","150","146191","0.0-5.0-1.73","5f19fbbb7767270c32464eb5","bdp_cybrbll","Sun Mar 26 2023 11:54:57 GMT-0400 (Eastern Daylight Time)","412048","3","1","","null","","","","observe","","img/3to2/1.png","null","152","693","0.5","0.5","3","2","",""
"animation","151","147478","0.0-5.0-2.73","5f19fbbb7767270c32464eb5","bdp_cybrbll","Sun Mar 26 2023 11:54:57 GMT-0400 (Eastern Daylight Time)","412048","3","1","","","","","","","","","","152","","","","3","2","[{""stimulus"":""img/3to2/1.png"",""time"":100},{""stimulus"":""img/3to2/2.png"",""time"":200},{""stimulus"":""img/3to2/3.png"",""time"":298},{""stimulus"":""img/3to2/4.png"",""time"":397},{""stimulus"":""img/3to2/5.png"",""time"":497},{""stimulus"":""img/3to2/6.png"",""time"":595},{""stimulus"":""img/3to2/7.png"",""time"":694},{""stimulus"":""img/3to2/8.png"",""time"":794},{""stimulus"":""img/3to2/9.png"",""time"":893},{""stimulus"":""img/3to2/10.png"",""time"":992},{""stimulus"":""img/3to2/11.png"",""time"":1090},{""stimulus"":""img/3to2/12.png"",""time"":1189}]","[]"
"image-keyboard-response","152","147575","0.0-5.0-1.74","5f19fbbb7767270c32464eb5","bdp_cybrbll","Sun Mar 26 2023 11:54:57 GMT-0400 (Eastern Daylight Time)","412048","3","1","","95","","","","choice","","img/2to1/1.png","2","151","226","0.5","0.5","2","3","",""
"animation","153","148863","0.0-5.0-2.74","5f19fbbb7767270c32464eb5","bdp_cybrbll","Sun Mar 26 2023 11:54:57 GMT-0400 (Eastern Daylight Time)","412048","3","1","","","","","","","","","","151","","","","2","3","[{""stimulus"":""img/2to3/1.png"",""time"":100},{""stimulus"":""img/2to3/2.png"",""time"":200},{""stimulus"":""img/2to3/3.png"",""time"":298},{""stimulus"":""img/2to3/4.png"",""time"":397},{""stimulus"":""img/2to3/5.png"",""time"":496},{""stimulus"":""img/2to3/6.png"",""time"":595},{""stimulus"":""img/2to3/7.png"",""time"":695},{""stimulus"":""img/2to3/8.png"",""time"":794},{""stimulus"":""img/2to3/9.png"",""time"":893},{""stimulus"":""img/2to3/10.png"",""time"":991},{""stimulus"":""img/2to3/11.png"",""time"":1097},{""stimulus"":""img/2to3/12.png"",""time"":1189}]","[]"
"image-keyboard-response","154","150131","0.0-5.0-1.75","5f19fbbb7767270c32464eb5","bdp_cybrbll","Sun Mar 26 2023 11:54:57 GMT-0400 (Eastern Daylight Time)","412048","3","1","","null","","","","observe","","img/3to2/1.png","null","150","1267","0.5","0.5","3","2","",""
"animation","155","151418","0.0-5.0-2.75","5f19fbbb7767270c32464eb5","bdp_cybrbll","Sun Mar 26 2023 11:54:57 GMT-0400 (Eastern Daylight Time)","412048","3","1","","","","","","","","","","150","","","","3","2","[{""stimulus"":""img/3to2/1.png"",""time"":100},{""stimulus"":""img/3to2/2.png"",""time"":199},{""stimulus"":""img/3to2/3.png"",""time"":298},{""stimulus"":""img/3to2/4.png"",""time"":397},{""stimulus"":""img/3to2/5.png"",""time"":496},{""stimulus"":""img/3to2/6.png"",""time"":595},{""stimulus"":""img/3to2/7.png"",""time"":694},{""stimulus"":""img/3to2/8.png"",""time"":794},{""stimulus"":""img/3to2/9.png"",""time"":893},{""stimulus"":""img/3to2/10.png"",""time"":991},{""stimulus"":""img/3to2/11.png"",""time"":1090},{""stimulus"":""img/3to2/12.png"",""time"":1190}]","[]"
"image-keyboard-response","156","151462","0.0-5.0-1.76","5f19fbbb7767270c32464eb5","bdp_cybrbll","Sun Mar 26 2023 11:54:57 GMT-0400 (Eastern Daylight Time)","412048","3","1","","43","","","","choice","","img/2to1/1.png","2","149","348","0.5","0.1","2","3","",""
"animation","157","152750","0.0-5.0-2.76","5f19fbbb7767270c32464eb5","bdp_cybrbll","Sun Mar 26 2023 11:54:57 GMT-0400 (Eastern Daylight Time)","412048","3","1","","","","","","","","","","149","","","","2","3","[{""stimulus"":""img/2to3/1.png"",""time"":100},{""stimulus"":""img/2to3/2.png"",""time"":199},{""stimulus"":""img/2to3/3.png"",""time"":309},{""stimulus"":""img/2to3/4.png"",""time"":398},{""stimulus"":""img/2to3/5.png"",""time"":497},{""stimulus"":""img/2to3/6.png"",""time"":595},{""stimulus"":""img/2to3/7.png"",""time"":694},{""stimulus"":""img/2to3/8.png"",""time"":794},{""stimulus"":""img/2to3/9.png"",""time"":892},{""stimulus"":""img/2to3/10.png"",""time"":991},{""stimulus"":""img/2to3/11.png"",""time"":1090},{""stimulus"":""img/2to3/12.png"",""time"":1189}]","[]"
"image-keyboard-response","158","152961","0.0-5.0-1.77","5f19fbbb7767270c32464eb5","bdp_cybrbll","Sun Mar 26 2023 11:54:57 GMT-0400 (Eastern Daylight Time)","412048","3","1","","null","","","","observe","","img/3to2/1.png","null","148","209","0.5","0.1","3","1","",""
"animation","159","154249","0.0-5.0-2.77","5f19fbbb7767270c32464eb5","bdp_cybrbll","Sun Mar 26 2023 11:54:57 GMT-0400 (Eastern Daylight Time)","412048","3","1","","","","","","","","","","148","","","","3","1","[{""stimulus"":""img/3to1/1.png"",""time"":100},{""stimulus"":""img/3to1/2.png"",""time"":199},{""stimulus"":""img/3to1/3.png"",""time"":299},{""stimulus"":""img/3to1/4.png"",""time"":398},{""stimulus"":""img/3to1/5.png"",""time"":496},{""stimulus"":""img/3to1/6.png"",""time"":596},{""stimulus"":""img/3to1/7.png"",""time"":694},{""stimulus"":""img/3to1/8.png"",""time"":796},{""stimulus"":""img/3to1/9.png"",""time"":892},{""stimulus"":""img/3to1/10.png"",""time"":993},{""stimulus"":""img/3to1/11.png"",""time"":1091},{""stimulus"":""img/3to1/12.png"",""time"":1190}]","[]"
"image-keyboard-response","160","154740","0.0-5.0-1.78","5f19fbbb7767270c32464eb5","bdp_cybrbll","Sun Mar 26 2023 11:54:57 GMT-0400 (Eastern Daylight Time)","412048","3","1","","null","","","","observe","","img/1to3/1.png","null","147","489","0.5","0.1","1","3","",""
"animation","161","156028","0.0-5.0-2.78","5f19fbbb7767270c32464eb5","bdp_cybrbll","Sun Mar 26 2023 11:54:57 GMT-0400 (Eastern Daylight Time)","412048","3","1","","","","","","","","","","147","","","","1","3","[{""stimulus"":""img/1to3/1.png"",""time"":100},{""stimulus"":""img/1to3/2.png"",""time"":199},{""stimulus"":""img/1to3/3.png"",""time"":299},{""stimulus"":""img/1to3/4.png"",""time"":397},{""stimulus"":""img/1to3/5.png"",""time"":496},{""stimulus"":""img/1to3/6.png"",""time"":596},{""stimulus"":""img/1to3/7.png"",""time"":694},{""stimulus"":""img/1to3/8.png"",""time"":793},{""stimulus"":""img/1to3/9.png"",""time"":893},{""stimulus"":""img/1to3/10.png"",""time"":991},{""stimulus"":""img/1to3/11.png"",""time"":1090},{""stimulus"":""img/1to3/12.png"",""time"":1189}]","[]"
"image-keyboard-response","162","156585","0.0-5.0-1.79","5f19fbbb7767270c32464eb5","bdp_cybrbll","Sun Mar 26 2023 11:54:57 GMT-0400 (Eastern Daylight Time)","412048","3","1","","null","","","","observe","","img/3to2/1.png","null","146","556","0.5","0.1","3","1","",""
"animation","163","157873","0.0-5.0-2.79","5f19fbbb7767270c32464eb5","bdp_cybrbll","Sun Mar 26 2023 11:54:57 GMT-0400 (Eastern Daylight Time)","412048","3","1","","","","","","","","","","146","","","","3","1","[{""stimulus"":""img/3to1/1.png"",""time"":100},{""stimulus"":""img/3to1/2.png"",""time"":199},{""stimulus"":""img/3to1/3.png"",""time"":298},{""stimulus"":""img/3to1/4.png"",""time"":398},{""stimulus"":""img/3to1/5.png"",""time"":496},{""stimulus"":""img/3to1/6.png"",""time"":595},{""stimulus"":""img/3to1/7.png"",""time"":694},{""stimulus"":""img/3to1/8.png"",""time"":793},{""stimulus"":""img/3to1/9.png"",""time"":893},{""stimulus"":""img/3to1/10.png"",""time"":991},{""stimulus"":""img/3to1/11.png"",""time"":1089},{""stimulus"":""img/3to1/12.png"",""time"":1189}]","[]"
"image-keyboard-response","164","158147","0.0-5.0-1.80","5f19fbbb7767270c32464eb5","bdp_cybrbll","Sun Mar 26 2023 11:54:57 GMT-0400 (Eastern Daylight Time)","412048","3","1","","null","","","","observe","","img/1to3/1.png","null","145","273","0.5","0.1","1","3","",""
"animation","165","159435","0.0-5.0-2.80","5f19fbbb7767270c32464eb5","bdp_cybrbll","Sun Mar 26 2023 11:54:57 GMT-0400 (Eastern Daylight Time)","412048","3","1","","","","","","","","","","145","","","","1","3","[{""stimulus"":""img/1to3/1.png"",""time"":101},{""stimulus"":""img/1to3/2.png"",""time"":200},{""stimulus"":""img/1to3/3.png"",""time"":299},{""stimulus"":""img/1to3/4.png"",""time"":397},{""stimulus"":""img/1to3/5.png"",""time"":497},{""stimulus"":""img/1to3/6.png"",""time"":597},{""stimulus"":""img/1to3/7.png"",""time"":695},{""stimulus"":""img/1to3/8.png"",""time"":793},{""stimulus"":""img/1to3/9.png"",""time"":893},{""stimulus"":""img/1to3/10.png"",""time"":991},{""stimulus"":""img/1to3/11.png"",""time"":1090},{""stimulus"":""img/1to3/12.png"",""time"":1190}]","[]"
"image-keyboard-response","166","159846","0.0-5.0-1.81","5f19fbbb7767270c32464eb5","bdp_cybrbll","Sun Mar 26 2023 11:54:57 GMT-0400 (Eastern Daylight Time)","412048","3","1","","null","","","","observe","","img/3to2/1.png","null","144","410","0.5","0.1","3","2","",""
"animation","167","161135","0.0-5.0-2.81","5f19fbbb7767270c32464eb5","bdp_cybrbll","Sun Mar 26 2023 11:54:57 GMT-0400 (Eastern Daylight Time)","412048","3","1","","","","","","","","","","144","","","","3","2","[{""stimulus"":""img/3to2/1.png"",""time"":100},{""stimulus"":""img/3to2/2.png"",""time"":199},{""stimulus"":""img/3to2/3.png"",""time"":298},{""stimulus"":""img/3to2/4.png"",""time"":396},{""stimulus"":""img/3to2/5.png"",""time"":497},{""stimulus"":""img/3to2/6.png"",""time"":595},{""stimulus"":""img/3to2/7.png"",""time"":694},{""stimulus"":""img/3to2/8.png"",""time"":793},{""stimulus"":""img/3to2/9.png"",""time"":892},{""stimulus"":""img/3to2/10.png"",""time"":991},{""stimulus"":""img/3to2/11.png"",""time"":1090},{""stimulus"":""img/3to2/12.png"",""time"":1189}]","[]"
"image-keyboard-response","168","161140","0.0-5.0-1.82","5f19fbbb7767270c32464eb5","bdp_cybrbll","Sun Mar 26 2023 11:54:57 GMT-0400 (Eastern Daylight Time)","412048","3","1","","5","","","","choice","","img/2to1/1.png","2","143","165","0.5","0.1","2","3","",""
"animation","169","162428","0.0-5.0-2.82","5f19fbbb7767270c32464eb5","bdp_cybrbll","Sun Mar 26 2023 11:54:57 GMT-0400 (Eastern Daylight Time)","412048","3","1","","","","","","","","","","143","","","","2","3","[{""stimulus"":""img/2to3/1.png"",""time"":101},{""stimulus"":""img/2to3/2.png"",""time"":199},{""stimulus"":""img/2to3/3.png"",""time"":299},{""stimulus"":""img/2to3/4.png"",""time"":398},{""stimulus"":""img/2to3/5.png"",""time"":496},{""stimulus"":""img/2to3/6.png"",""time"":595},{""stimulus"":""img/2to3/7.png"",""time"":695},{""stimulus"":""img/2to3/8.png"",""time"":793},{""stimulus"":""img/2to3/9.png"",""time"":893},{""stimulus"":""img/2to3/10.png"",""time"":992},{""stimulus"":""img/2to3/11.png"",""time"":1091},{""stimulus"":""img/2to3/12.png"",""time"":1189}]","[]"
"image-keyboard-response","170","163122","0.0-5.0-1.83","5f19fbbb7767270c32464eb5","bdp_cybrbll","Sun Mar 26 2023 11:54:57 GMT-0400 (Eastern Daylight Time)","412048","3","1","","null","","","","observe","","img/3to2/1.png","null","142","693","0.5","0.1","3","2","",""
"animation","171","164419","0.0-5.0-2.83","5f19fbbb7767270c32464eb5","bdp_cybrbll","Sun Mar 26 2023 11:54:57 GMT-0400 (Eastern Daylight Time)","412048","3","1","","","","","","","","","","142","","","","3","2","[{""stimulus"":""img/3to2/1.png"",""time"":100},{""stimulus"":""img/3to2/2.png"",""time"":198},{""stimulus"":""img/3to2/3.png"",""time"":298},{""stimulus"":""img/3to2/4.png"",""time"":397},{""stimulus"":""img/3to2/5.png"",""time"":496},{""stimulus"":""img/3to2/6.png"",""time"":594},{""stimulus"":""img/3to2/7.png"",""time"":694},{""stimulus"":""img/3to2/8.png"",""time"":793},{""stimulus"":""img/3to2/9.png"",""time"":891},{""stimulus"":""img/3to2/10.png"",""time"":991},{""stimulus"":""img/3to2/11.png"",""time"":1090},{""stimulus"":""img/3to2/12.png"",""time"":1189}]","[]"
"image-keyboard-response","172","164478","0.0-5.0-1.84","5f19fbbb7767270c32464eb5","bdp_cybrbll","Sun Mar 26 2023 11:54:57 GMT-0400 (Eastern Daylight Time)","412048","3","1","","58","","","","choice","","img/2to1/1.png","2","141","286","0.5","0.1","2","3","",""
"animation","173","165767","0.0-5.0-2.84","5f19fbbb7767270c32464eb5","bdp_cybrbll","Sun Mar 26 2023 11:54:57 GMT-0400 (Eastern Daylight Time)","412048","3","1","","","","","","","","","","141","","","","2","3","[{""stimulus"":""img/2to3/1.png"",""time"":100},{""stimulus"":""img/2to3/2.png"",""time"":199},{""stimulus"":""img/2to3/3.png"",""time"":298},{""stimulus"":""img/2to3/4.png"",""time"":400},{""stimulus"":""img/2to3/5.png"",""time"":496},{""stimulus"":""img/2to3/6.png"",""time"":595},{""stimulus"":""img/2to3/7.png"",""time"":694},{""stimulus"":""img/2to3/8.png"",""time"":794},{""stimulus"":""img/2to3/9.png"",""time"":893},{""stimulus"":""img/2to3/10.png"",""time"":991},{""stimulus"":""img/2to3/11.png"",""time"":1091},{""stimulus"":""img/2to3/12.png"",""time"":1189}]","[]"
"image-keyboard-response","174","167401","0.0-5.0-1.85","5f19fbbb7767270c32464eb5","bdp_cybrbll","Sun Mar 26 2023 11:54:57 GMT-0400 (Eastern Daylight Time)","412048","3","1","","null","","","","observe","","img/3to2/1.png","null","140","1632","0.5","0.1","3","1","",""
"animation","175","168689","0.0-5.0-2.85","5f19fbbb7767270c32464eb5","bdp_cybrbll","Sun Mar 26 2023 11:54:57 GMT-0400 (Eastern Daylight Time)","412048","3","1","","","","","","","","","","140","","","","3","1","[{""stimulus"":""img/3to1/1.png"",""time"":100},{""stimulus"":""img/3to1/2.png"",""time"":199},{""stimulus"":""img/3to1/3.png"",""time"":298},{""stimulus"":""img/3to1/4.png"",""time"":398},{""stimulus"":""img/3to1/5.png"",""time"":496},{""stimulus"":""img/3to1/6.png"",""time"":596},{""stimulus"":""img/3to1/7.png"",""time"":694},{""stimulus"":""img/3to1/8.png"",""time"":793},{""stimulus"":""img/3to1/9.png"",""time"":892},{""stimulus"":""img/3to1/10.png"",""time"":991},{""stimulus"":""img/3to1/11.png"",""time"":1090},{""stimulus"":""img/3to1/12.png"",""time"":1190}]","[]"
"image-keyboard-response","176","169871","0.0-5.0-1.86","5f19fbbb7767270c32464eb5","bdp_cybrbll","Sun Mar 26 2023 11:54:57 GMT-0400 (Eastern Daylight Time)","412048","3","1","","null","","","","observe","","img/1to3/1.png","null","139","1180","0.5","0.1","1","3","",""
"animation","177","171160","0.0-5.0-2.86","5f19fbbb7767270c32464eb5","bdp_cybrbll","Sun Mar 26 2023 11:54:57 GMT-0400 (Eastern Daylight Time)","412048","3","1","","","","","","","","","","139","","","","1","3","[{""stimulus"":""img/1to3/1.png"",""time"":101},{""stimulus"":""img/1to3/2.png"",""time"":199},{""stimulus"":""img/1to3/3.png"",""time"":298},{""stimulus"":""img/1to3/4.png"",""time"":398},{""stimulus"":""img/1to3/5.png"",""time"":496},{""stimulus"":""img/1to3/6.png"",""time"":596},{""stimulus"":""img/1to3/7.png"",""time"":694},{""stimulus"":""img/1to3/8.png"",""time"":794},{""stimulus"":""img/1to3/9.png"",""time"":893},{""stimulus"":""img/1to3/10.png"",""time"":992},{""stimulus"":""img/1to3/11.png"",""time"":1090},{""stimulus"":""img/1to3/12.png"",""time"":1190}]","[]"
"image-keyboard-response","178","172400","0.0-5.0-1.87","5f19fbbb7767270c32464eb5","bdp_cybrbll","Sun Mar 26 2023 11:54:57 GMT-0400 (Eastern Daylight Time)","412048","3","1","","null","","","","observe","","img/3to2/1.png","null","138","1239","0.5","0.1","3","1","",""
"animation","179","173688","0.0-5.0-2.87","5f19fbbb7767270c32464eb5","bdp_cybrbll","Sun Mar 26 2023 11:54:57 GMT-0400 (Eastern Daylight Time)","412048","3","1","","","","","","","","","","138","","","","3","1","[{""stimulus"":""img/3to1/1.png"",""time"":99},{""stimulus"":""img/3to1/2.png"",""time"":199},{""stimulus"":""img/3to1/3.png"",""time"":297},{""stimulus"":""img/3to1/4.png"",""time"":397},{""stimulus"":""img/3to1/5.png"",""time"":496},{""stimulus"":""img/3to1/6.png"",""time"":595},{""stimulus"":""img/3to1/7.png"",""time"":694},{""stimulus"":""img/3to1/8.png"",""time"":793},{""stimulus"":""img/3to1/9.png"",""time"":892},{""stimulus"":""img/3to1/10.png"",""time"":991},{""stimulus"":""img/3to1/11.png"",""time"":1090},{""stimulus"":""img/3to1/12.png"",""time"":1189}]","[]"
"image-keyboard-response","180","174983","0.0-5.0-1.88","5f19fbbb7767270c32464eb5","bdp_cybrbll","Sun Mar 26 2023 11:54:57 GMT-0400 (Eastern Daylight Time)","412048","3","1","","null","","","","observe","","img/1to3/1.png","null","137","1293","0.5","0.1","1","3","",""
"animation","181","176270","0.0-5.0-2.88","5f19fbbb7767270c32464eb5","bdp_cybrbll","Sun Mar 26 2023 11:54:57 GMT-0400 (Eastern Daylight Time)","412048","3","1","","","","","","","","","","137","","","","1","3","[{""stimulus"":""img/1to3/1.png"",""time"":100},{""stimulus"":""img/1to3/2.png"",""time"":200},{""stimulus"":""img/1to3/3.png"",""time"":299},{""stimulus"":""img/1to3/4.png"",""time"":397},{""stimulus"":""img/1to3/5.png"",""time"":497},{""stimulus"":""img/1to3/6.png"",""time"":596},{""stimulus"":""img/1to3/7.png"",""time"":695},{""stimulus"":""img/1to3/8.png"",""time"":794},{""stimulus"":""img/1to3/9.png"",""time"":892},{""stimulus"":""img/1to3/10.png"",""time"":991},{""stimulus"":""img/1to3/11.png"",""time"":1091},{""stimulus"":""img/1to3/12.png"",""time"":1200}]","[]"
"image-keyboard-response","182","177541","0.0-5.0-1.89","5f19fbbb7767270c32464eb5","bdp_cybrbll","Sun Mar 26 2023 11:54:57 GMT-0400 (Eastern Daylight Time)","412048","3","1","","null","","","","observe","","img/3to2/1.png","null","136","1269","0.5","0.1","3","1","",""
"animation","183","178829","0.0-5.0-2.89","5f19fbbb7767270c32464eb5","bdp_cybrbll","Sun Mar 26 2023 11:54:57 GMT-0400 (Eastern Daylight Time)","412048","3","1","","","","","","","","","","136","","","","3","1","[{""stimulus"":""img/3to1/1.png"",""time"":100},{""stimulus"":""img/3to1/2.png"",""time"":199},{""stimulus"":""img/3to1/3.png"",""time"":298},{""stimulus"":""img/3to1/4.png"",""time"":397},{""stimulus"":""img/3to1/5.png"",""time"":497},{""stimulus"":""img/3to1/6.png"",""time"":596},{""stimulus"":""img/3to1/7.png"",""time"":695},{""stimulus"":""img/3to1/8.png"",""time"":793},{""stimulus"":""img/3to1/9.png"",""time"":893},{""stimulus"":""img/3to1/10.png"",""time"":992},{""stimulus"":""img/3to1/11.png"",""time"":1090},{""stimulus"":""img/3to1/12.png"",""time"":1189}]","[]"
"image-keyboard-response","184","179251","0.0-5.0-1.90","5f19fbbb7767270c32464eb5","bdp_cybrbll","Sun Mar 26 2023 11:54:57 GMT-0400 (Eastern Daylight Time)","412048","3","1","","null","","","","observe","","img/1to3/1.png","null","135","421","0.5","0.1","1","3","",""
"animation","185","180540","0.0-5.0-2.90","5f19fbbb7767270c32464eb5","bdp_cybrbll","Sun Mar 26 2023 11:54:57 GMT-0400 (Eastern Daylight Time)","412048","3","1","","","","","","","","","","135","","","","1","3","[{""stimulus"":""img/1to3/1.png"",""time"":101},{""stimulus"":""img/1to3/2.png"",""time"":201},{""stimulus"":""img/1to3/3.png"",""time"":299},{""stimulus"":""img/1to3/4.png"",""time"":398},{""stimulus"":""img/1to3/5.png"",""time"":497},{""stimulus"":""img/1to3/6.png"",""time"":596},{""stimulus"":""img/1to3/7.png"",""time"":695},{""stimulus"":""img/1to3/8.png"",""time"":794},{""stimulus"":""img/1to3/9.png"",""time"":893},{""stimulus"":""img/1to3/10.png"",""time"":993},{""stimulus"":""img/1to3/11.png"",""time"":1091},{""stimulus"":""img/1to3/12.png"",""time"":1189}]","[]"
"image-keyboard-response","186","180780","0.0-5.0-1.91","5f19fbbb7767270c32464eb5","bdp_cybrbll","Sun Mar 26 2023 11:54:57 GMT-0400 (Eastern Daylight Time)","412048","3","1","","null","","","","observe","","img/3to2/1.png","null","134","239","0.5","0.1","3","2","",""
"animation","187","182068","0.0-5.0-2.91","5f19fbbb7767270c32464eb5","bdp_cybrbll","Sun Mar 26 2023 11:54:57 GMT-0400 (Eastern Daylight Time)","412048","3","1","","","","","","","","","","134","","","","3","2","[{""stimulus"":""img/3to2/1.png"",""time"":101},{""stimulus"":""img/3to2/2.png"",""time"":199},{""stimulus"":""img/3to2/3.png"",""time"":299},{""stimulus"":""img/3to2/4.png"",""time"":398},{""stimulus"":""img/3to2/5.png"",""time"":496},{""stimulus"":""img/3to2/6.png"",""time"":596},{""stimulus"":""img/3to2/7.png"",""time"":700},{""stimulus"":""img/3to2/8.png"",""time"":794},{""stimulus"":""img/3to2/9.png"",""time"":893},{""stimulus"":""img/3to2/10.png"",""time"":992},{""stimulus"":""img/3to2/11.png"",""time"":1090},{""stimulus"":""img/3to2/12.png"",""time"":1190}]","[]"
"image-keyboard-response","188","182207","0.0-5.0-1.92","5f19fbbb7767270c32464eb5","bdp_cybrbll","Sun Mar 26 2023 11:54:57 GMT-0400 (Eastern Daylight Time)","412048","3","1","","138","","","","choice","","img/2to1/1.png","2","133","663","0.5","0.1","2","3","",""
"animation","189","183495","0.0-5.0-2.92","5f19fbbb7767270c32464eb5","bdp_cybrbll","Sun Mar 26 2023 11:54:57 GMT-0400 (Eastern Daylight Time)","412048","3","1","","","","","","","","","","133","","","","2","3","[{""stimulus"":""img/2to3/1.png"",""time"":100},{""stimulus"":""img/2to3/2.png"",""time"":199},{""stimulus"":""img/2to3/3.png"",""time"":298},{""stimulus"":""img/2to3/4.png"",""time"":397},{""stimulus"":""img/2to3/5.png"",""time"":496},{""stimulus"":""img/2to3/6.png"",""time"":595},{""stimulus"":""img/2to3/7.png"",""time"":694},{""stimulus"":""img/2to3/8.png"",""time"":793},{""stimulus"":""img/2to3/9.png"",""time"":892},{""stimulus"":""img/2to3/10.png"",""time"":991},{""stimulus"":""img/2to3/11.png"",""time"":1090},{""stimulus"":""img/2to3/12.png"",""time"":1189}]","[]"
"image-keyboard-response","190","183721","0.0-5.0-1.93","5f19fbbb7767270c32464eb5","bdp_cybrbll","Sun Mar 26 2023 11:54:57 GMT-0400 (Eastern Daylight Time)","412048","3","1","","null","","","","observe","","img/3to2/1.png","null","132","224","0.5","0.1","3","1","",""
