"trial_type","trial_index","time_elapsed","internal_node_id","subject_id","task","startTime","totalTime","fairPartner","unfairPartner","view_history","rt","event","trial","time","trialtype","numBlurs","success","stimulus","key_press","throwsLeft","rtDur","pFair","pUnfair","holder","receiver","animation_sequence","responses"
"pavlovia","0","3","0.0-0.0","6414cd5e294152ef610c1272","bdp_cybrbll","Sun Apr 09 2023 19:57:09 GMT-0500 (Central Daylight Time)","499776","3","1","","","","","","","","","","","","","","","","","",""
"instructions","1","3018","0.0-1.0","6414cd5e294152ef610c1272","bdp_cybrbll","Sun Apr 09 2023 19:57:09 GMT-0500 (Central Daylight Time)","499776","3","1","[{""page_index"":0,""viewing_time"":3014}]","3014","","","","","","","","","","","","","","","",""
"","","","","6414cd5e294152ef610c1272","bdp_cybrbll","Sun Apr 09 2023 19:57:09 GMT-0500 (Central Daylight Time)","499776","3","1","","","blur","2","6737","blurevent","1","","","","","","","","","","",""
"","","","","6414cd5e294152ef610c1272","bdp_cybrbll","Sun Apr 09 2023 19:57:09 GMT-0500 (Central Daylight Time)","499776","3","1","","","focus","2","8507","focusevent","","","","","","","","","","","",""
"","","","","6414cd5e294152ef610c1272","bdp_cybrbll","Sun Apr 09 2023 19:57:09 GMT-0500 (Central Daylight Time)","499776","3","1","","","blur","2","9819","blurevent","","","","","","","","","","","",""
"","","","","6414cd5e294152ef610c1272","bdp_cybrbll","Sun Apr 09 2023 19:57:09 GMT-0500 (Central Daylight Time)","499776","3","1","","","focus","2","11017","focusevent","","","","","","","","","","","",""
"","","","","6414cd5e294152ef610c1272","bdp_cybrbll","Sun Apr 09 2023 19:57:09 GMT-0500 (Central Daylight Time)","499776","3","1","","","fullscreenenter","2","13279","fullscreenenter","","","","","","","","","","","",""
"fullscreen","2","14254","0.0-2.0","6414cd5e294152ef610c1272","bdp_cybrbll","Sun Apr 09 2023 19:57:09 GMT-0500 (Central Daylight Time)","499776","3","1","","","","","","","","true","","","","","","","","","",""
"instructions","3","80876","0.0-4.0","6414cd5e294152ef610c1272","bdp_cybrbll","Sun Apr 09 2023 19:57:09 GMT-0500 (Central Daylight Time)","499776","3","1","[{""page_index"":0,""viewing_time"":66621}]","66621","","","","","","","","","","","","","","","",""
"image-keyboard-response","4","90773","0.0-5.0-0.0-0.0","6414cd5e294152ef610c1272","bdp_cybrbll","Sun Apr 09 2023 19:57:09 GMT-0500 (Central Daylight Time)","499776","3","1","","9895","","","","blurwarn","1","","","49","","","","","","","",""
"image-keyboard-response","5","93154","0.0-5.0-1.0","6414cd5e294152ef610c1272","bdp_cybrbll","Sun Apr 09 2023 19:57:09 GMT-0500 (Central Daylight Time)","499776","3","1","","2130","","","","choice","","","img/2to1/1.png","1","225","556","0.5","0.5","2","1","",""
"animation","6","94442","0.0-5.0-2.0","6414cd5e294152ef610c1272","bdp_cybrbll","Sun Apr 09 2023 19:57:09 GMT-0500 (Central Daylight Time)","499776","3","1","","","","","","","","","","","225","","","","2","1","[{""stimulus"":""img/2to1/1.png"",""time"":100},{""stimulus"":""img/2to1/2.png"",""time"":199},{""stimulus"":""img/2to1/3.png"",""time"":299},{""stimulus"":""img/2to1/4.png"",""time"":397},{""stimulus"":""img/2to1/5.png"",""time"":496},{""stimulus"":""img/2to1/6.png"",""time"":596},{""stimulus"":""img/2to1/7.png"",""time"":695},{""stimulus"":""img/2to1/8.png"",""time"":794},{""stimulus"":""img/2to1/9.png"",""time"":893},{""stimulus"":""img/2to1/10.png"",""time"":991},{""stimulus"":""img/2to1/11.png"",""time"":1090},{""stimulus"":""img/2to1/12.png"",""time"":1189}]","[]"
"image-keyboard-response","7","94708","0.0-5.0-1.1","6414cd5e294152ef610c1272","bdp_cybrbll","Sun Apr 09 2023 19:57:09 GMT-0500 (Central Daylight Time)","499776","3","1","","null","","","","observe","","","img/1to3/1.png","null","224","264","0.5","0.5","1","2","",""
"animation","8","95996","0.0-5.0-2.1","6414cd5e294152ef610c1272","bdp_cybrbll","Sun Apr 09 2023 19:57:09 GMT-0500 (Central Daylight Time)","499776","3","1","","","","","","","","","","","224","","","","1","2","[{""stimulus"":""img/1to2/1.png"",""time"":99},{""stimulus"":""img/1to2/2.png"",""time"":200},{""stimulus"":""img/1to2/3.png"",""time"":298},{""stimulus"":""img/1to2/4.png"",""time"":397},{""stimulus"":""img/1to2/5.png"",""time"":496},{""stimulus"":""img/1to2/6.png"",""time"":596},{""stimulus"":""img/1to2/7.png"",""time"":695},{""stimulus"":""img/1to2/8.png"",""time"":793},{""stimulus"":""img/1to2/9.png"",""time"":893},{""stimulus"":""img/1to2/10.png"",""time"":991},{""stimulus"":""img/1to2/11.png"",""time"":1090},{""stimulus"":""img/1to2/12.png"",""time"":1189}]","[]"
"image-keyboard-response","9","96314","0.0-5.0-1.2","6414cd5e294152ef610c1272","bdp_cybrbll","Sun Apr 09 2023 19:57:09 GMT-0500 (Central Daylight Time)","499776","3","1","","318","","","","choice","","","img/2to1/1.png","2","223","610","0.5","0.5","2","3","",""
"animation","10","97602","0.0-5.0-2.2","6414cd5e294152ef610c1272","bdp_cybrbll","Sun Apr 09 2023 19:57:09 GMT-0500 (Central Daylight Time)","499776","3","1","","","","","","","","","","","223","","","","2","3","[{""stimulus"":""img/2to3/1.png"",""time"":99},{""stimulus"":""img/2to3/2.png"",""time"":198},{""stimulus"":""img/2to3/3.png"",""time"":297},{""stimulus"":""img/2to3/4.png"",""time"":397},{""stimulus"":""img/2to3/5.png"",""time"":496},{""stimulus"":""img/2to3/6.png"",""time"":595},{""stimulus"":""img/2to3/7.png"",""time"":695},{""stimulus"":""img/2to3/8.png"",""time"":794},{""stimulus"":""img/2to3/9.png"",""time"":892},{""stimulus"":""img/2to3/10.png"",""time"":991},{""stimulus"":""img/2to3/11.png"",""time"":1089},{""stimulus"":""img/2to3/12.png"",""time"":1189}]","[]"
"image-keyboard-response","11","98310","0.0-5.0-1.3","6414cd5e294152ef610c1272","bdp_cybrbll","Sun Apr 09 2023 19:57:09 GMT-0500 (Central Daylight Time)","499776","3","1","","null","","","","observe","","","img/3to2/1.png","null","222","706","0.5","0.5","3","1","",""
"animation","12","99598","0.0-5.0-2.3","6414cd5e294152ef610c1272","bdp_cybrbll","Sun Apr 09 2023 19:57:09 GMT-0500 (Central Daylight Time)","499776","3","1","","","","","","","","","","","222","","","","3","1","[{""stimulus"":""img/3to1/1.png"",""time"":100},{""stimulus"":""img/3to1/2.png"",""time"":199},{""stimulus"":""img/3to1/3.png"",""time"":299},{""stimulus"":""img/3to1/4.png"",""time"":397},{""stimulus"":""img/3to1/5.png"",""time"":496},{""stimulus"":""img/3to1/6.png"",""time"":595},{""stimulus"":""img/3to1/7.png"",""time"":694},{""stimulus"":""img/3to1/8.png"",""time"":794},{""stimulus"":""img/3to1/9.png"",""time"":892},{""stimulus"":""img/3to1/10.png"",""time"":991},{""stimulus"":""img/3to1/11.png"",""time"":1090},{""stimulus"":""img/3to1/12.png"",""time"":1189}]","[]"
"image-keyboard-response","13","99993","0.0-5.0-1.4","6414cd5e294152ef610c1272","bdp_cybrbll","Sun Apr 09 2023 19:57:09 GMT-0500 (Central Daylight Time)","499776","3","1","","null","","","","observe","","","img/1to3/1.png","null","221","392","0.5","0.5","1","2","",""
"animation","14","101281","0.0-5.0-2.4","6414cd5e294152ef610c1272","bdp_cybrbll","Sun Apr 09 2023 19:57:09 GMT-0500 (Central Daylight Time)","499776","3","1","","","","","","","","","","","221","","","","1","2","[{""stimulus"":""img/1to2/1.png"",""time"":100},{""stimulus"":""img/1to2/2.png"",""time"":198},{""stimulus"":""img/1to2/3.png"",""time"":298},{""stimulus"":""img/1to2/4.png"",""time"":397},{""stimulus"":""img/1to2/5.png"",""time"":496},{""stimulus"":""img/1to2/6.png"",""time"":595},{""stimulus"":""img/1to2/7.png"",""time"":694},{""stimulus"":""img/1to2/8.png"",""time"":793},{""stimulus"":""img/1to2/9.png"",""time"":891},{""stimulus"":""img/1to2/10.png"",""time"":990},{""stimulus"":""img/1to2/11.png"",""time"":1089},{""stimulus"":""img/1to2/12.png"",""time"":1189}]","[]"
"image-keyboard-response","15","101545","0.0-5.0-1.5","6414cd5e294152ef610c1272","bdp_cybrbll","Sun Apr 09 2023 19:57:09 GMT-0500 (Central Daylight Time)","499776","3","1","","264","","","","choice","","","img/2to1/1.png","2","220","435","0.5","0.5","2","3","",""
"animation","16","102832","0.0-5.0-2.5","6414cd5e294152ef610c1272","bdp_cybrbll","Sun Apr 09 2023 19:57:09 GMT-0500 (Central Daylight Time)","499776","3","1","","","","","","","","","","","220","","","","2","3","[{""stimulus"":""img/2to3/1.png"",""time"":100},{""stimulus"":""img/2to3/2.png"",""time"":199},{""stimulus"":""img/2to3/3.png"",""time"":298},{""stimulus"":""img/2to3/4.png"",""time"":398},{""stimulus"":""img/2to3/5.png"",""time"":496},{""stimulus"":""img/2to3/6.png"",""time"":595},{""stimulus"":""img/2to3/7.png"",""time"":695},{""stimulus"":""img/2to3/8.png"",""time"":794},{""stimulus"":""img/2to3/9.png"",""time"":893},{""stimulus"":""img/2to3/10.png"",""time"":992},{""stimulus"":""img/2to3/11.png"",""time"":1090},{""stimulus"":""img/2to3/12.png"",""time"":1189}]","[]"
"image-keyboard-response","17","103089","0.0-5.0-1.6","6414cd5e294152ef610c1272","bdp_cybrbll","Sun Apr 09 2023 19:57:09 GMT-0500 (Central Daylight Time)","499776","3","1","","null","","","","observe","","","img/3to2/1.png","null","219","254","0.5","0.5","3","1","",""
"animation","18","104376","0.0-5.0-2.6","6414cd5e294152ef610c1272","bdp_cybrbll","Sun Apr 09 2023 19:57:09 GMT-0500 (Central Daylight Time)","499776","3","1","","","","","","","","","","","219","","","","3","1","[{""stimulus"":""img/3to1/1.png"",""time"":100},{""stimulus"":""img/3to1/2.png"",""time"":199},{""stimulus"":""img/3to1/3.png"",""time"":299},{""stimulus"":""img/3to1/4.png"",""time"":397},{""stimulus"":""img/3to1/5.png"",""time"":496},{""stimulus"":""img/3to1/6.png"",""time"":595},{""stimulus"":""img/3to1/7.png"",""time"":693},{""stimulus"":""img/3to1/8.png"",""time"":793},{""stimulus"":""img/3to1/9.png"",""time"":892},{""stimulus"":""img/3to1/10.png"",""time"":991},{""stimulus"":""img/3to1/11.png"",""time"":1090},{""stimulus"":""img/3to1/12.png"",""time"":1189}]","[]"
"image-keyboard-response","19","105228","0.0-5.0-1.7","6414cd5e294152ef610c1272","bdp_cybrbll","Sun Apr 09 2023 19:57:09 GMT-0500 (Central Daylight Time)","499776","3","1","","null","","","","observe","","","img/1to3/1.png","null","218","850","0.5","0.5","1","3","",""
"animation","20","106516","0.0-5.0-2.7","6414cd5e294152ef610c1272","bdp_cybrbll","Sun Apr 09 2023 19:57:09 GMT-0500 (Central Daylight Time)","499776","3","1","","","","","","","","","","","218","","","","1","3","[{""stimulus"":""img/1to3/1.png"",""time"":101},{""stimulus"":""img/1to3/2.png"",""time"":200},{""stimulus"":""img/1to3/3.png"",""time"":298},{""stimulus"":""img/1to3/4.png"",""time"":398},{""stimulus"":""img/1to3/5.png"",""time"":496},{""stimulus"":""img/1to3/6.png"",""time"":596},{""stimulus"":""img/1to3/7.png"",""time"":694},{""stimulus"":""img/1to3/8.png"",""time"":793},{""stimulus"":""img/1to3/9.png"",""time"":892},{""stimulus"":""img/1to3/10.png"",""time"":992},{""stimulus"":""img/1to3/11.png"",""time"":1091},{""stimulus"":""img/1to3/12.png"",""time"":1189}]","[]"
"image-keyboard-response","21","106836","0.0-5.0-1.8","6414cd5e294152ef610c1272","bdp_cybrbll","Sun Apr 09 2023 19:57:09 GMT-0500 (Central Daylight Time)","499776","3","1","","null","","","","observe","","","img/3to2/1.png","null","217","319","0.5","0.5","3","1","",""
"animation","22","108126","0.0-5.0-2.8","6414cd5e294152ef610c1272","bdp_cybrbll","Sun Apr 09 2023 19:57:09 GMT-0500 (Central Daylight Time)","499776","3","1","","","","","","","","","","","217","","","","3","1","[{""stimulus"":""img/3to1/1.png"",""time"":100},{""stimulus"":""img/3to1/2.png"",""time"":198},{""stimulus"":""img/3to1/3.png"",""time"":297},{""stimulus"":""img/3to1/4.png"",""time"":397},{""stimulus"":""img/3to1/5.png"",""time"":496},{""stimulus"":""img/3to1/6.png"",""time"":595},{""stimulus"":""img/3to1/7.png"",""time"":693},{""stimulus"":""img/3to1/8.png"",""time"":792},{""stimulus"":""img/3to1/9.png"",""time"":892},{""stimulus"":""img/3to1/10.png"",""time"":991},{""stimulus"":""img/3to1/11.png"",""time"":1090},{""stimulus"":""img/3to1/12.png"",""time"":1189}]","[]"
"image-keyboard-response","23","109996","0.0-5.0-1.9","6414cd5e294152ef610c1272","bdp_cybrbll","Sun Apr 09 2023 19:57:09 GMT-0500 (Central Daylight Time)","499776","3","1","","null","","","","observe","","","img/1to3/1.png","null","216","1869","0.5","0.5","1","2","",""
"animation","24","111285","0.0-5.0-2.9","6414cd5e294152ef610c1272","bdp_cybrbll","Sun Apr 09 2023 19:57:09 GMT-0500 (Central Daylight Time)","499776","3","1","","","","","","","","","","","216","","","","1","2","[{""stimulus"":""img/1to2/1.png"",""time"":100},{""stimulus"":""img/1to2/2.png"",""time"":199},{""stimulus"":""img/1to2/3.png"",""time"":298},{""stimulus"":""img/1to2/4.png"",""time"":397},{""stimulus"":""img/1to2/5.png"",""time"":496},{""stimulus"":""img/1to2/6.png"",""time"":595},{""stimulus"":""img/1to2/7.png"",""time"":694},{""stimulus"":""img/1to2/8.png"",""time"":793},{""stimulus"":""img/1to2/9.png"",""time"":892},{""stimulus"":""img/1to2/10.png"",""time"":991},{""stimulus"":""img/1to2/11.png"",""time"":1091},{""stimulus"":""img/1to2/12.png"",""time"":1190}]","[]"
"image-keyboard-response","25","111647","0.0-5.0-1.10","6414cd5e294152ef610c1272","bdp_cybrbll","Sun Apr 09 2023 19:57:09 GMT-0500 (Central Daylight Time)","499776","3","1","","362","","","","choice","","","img/2to1/1.png","1","215","530","0.5","0.5","2","1","",""
"animation","26","112935","0.0-5.0-2.10","6414cd5e294152ef610c1272","bdp_cybrbll","Sun Apr 09 2023 19:57:09 GMT-0500 (Central Daylight Time)","499776","3","1","","","","","","","","","","","215","","","","2","1","[{""stimulus"":""img/2to1/1.png"",""time"":100},{""stimulus"":""img/2to1/2.png"",""time"":199},{""stimulus"":""img/2to1/3.png"",""time"":298},{""stimulus"":""img/2to1/4.png"",""time"":411},{""stimulus"":""img/2to1/5.png"",""time"":496},{""stimulus"":""img/2to1/6.png"",""time"":594},{""stimulus"":""img/2to1/7.png"",""time"":694},{""stimulus"":""img/2to1/8.png"",""time"":793},{""stimulus"":""img/2to1/9.png"",""time"":892},{""stimulus"":""img/2to1/10.png"",""time"":991},{""stimulus"":""img/2to1/11.png"",""time"":1091},{""stimulus"":""img/2to1/12.png"",""time"":1190}]","[]"
"image-keyboard-response","27","113379","0.0-5.0-1.11","6414cd5e294152ef610c1272","bdp_cybrbll","Sun Apr 09 2023 19:57:09 GMT-0500 (Central Daylight Time)","499776","3","1","","null","","","","observe","","","img/1to3/1.png","null","214","443","0.5","0.5","1","3","",""
"animation","28","114667","0.0-5.0-2.11","6414cd5e294152ef610c1272","bdp_cybrbll","Sun Apr 09 2023 19:57:09 GMT-0500 (Central Daylight Time)","499776","3","1","","","","","","","","","","","214","","","","1","3","[{""stimulus"":""img/1to3/1.png"",""time"":100},{""stimulus"":""img/1to3/2.png"",""time"":199},{""stimulus"":""img/1to3/3.png"",""time"":298},{""stimulus"":""img/1to3/4.png"",""time"":397},{""stimulus"":""img/1to3/5.png"",""time"":496},{""stimulus"":""img/1to3/6.png"",""time"":595},{""stimulus"":""img/1to3/7.png"",""time"":694},{""stimulus"":""img/1to3/8.png"",""time"":793},{""stimulus"":""img/1to3/9.png"",""time"":893},{""stimulus"":""img/1to3/10.png"",""time"":991},{""stimulus"":""img/1to3/11.png"",""time"":1090},{""stimulus"":""img/1to3/12.png"",""time"":1189}]","[]"
"image-keyboard-response","29","115709","0.0-5.0-1.12","6414cd5e294152ef610c1272","bdp_cybrbll","Sun Apr 09 2023 19:57:09 GMT-0500 (Central Daylight Time)","499776","3","1","","null","","","","observe","","","img/3to2/1.png","null","213","1042","0.5","0.5","3","1","",""
"animation","30","116997","0.0-5.0-2.12","6414cd5e294152ef610c1272","bdp_cybrbll","Sun Apr 09 2023 19:57:09 GMT-0500 (Central Daylight Time)","499776","3","1","","","","","","","","","","","213","","","","3","1","[{""stimulus"":""img/3to1/1.png"",""time"":100},{""stimulus"":""img/3to1/2.png"",""time"":199},{""stimulus"":""img/3to1/3.png"",""time"":298},{""stimulus"":""img/3to1/4.png"",""time"":398},{""stimulus"":""img/3to1/5.png"",""time"":496},{""stimulus"":""img/3to1/6.png"",""time"":595},{""stimulus"":""img/3to1/7.png"",""time"":694},{""stimulus"":""img/3to1/8.png"",""time"":793},{""stimulus"":""img/3to1/9.png"",""time"":892},{""stimulus"":""img/3to1/10.png"",""time"":991},{""stimulus"":""img/3to1/11.png"",""time"":1090},{""stimulus"":""img/3to1/12.png"",""time"":1189}]","[]"
"image-keyboard-response","31","117585","0.0-5.0-1.13","6414cd5e294152ef610c1272","bdp_cybrbll","Sun Apr 09 2023 19:57:09 GMT-0500 (Central Daylight Time)","499776","3","1","","null","","","","observe","","","img/1to3/1.png","null","212","585","0.5","0.5","1","3","",""
"animation","32","118873","0.0-5.0-2.13","6414cd5e294152ef610c1272","bdp_cybrbll","Sun Apr 09 2023 19:57:09 GMT-0500 (Central Daylight Time)","499776","3","1","","","","","","","","","","","212","","","","1","3","[{""stimulus"":""img/1to3/1.png"",""time"":100},{""stimulus"":""img/1to3/2.png"",""time"":198},{""stimulus"":""img/1to3/3.png"",""time"":298},{""stimulus"":""img/1to3/4.png"",""time"":397},{""stimulus"":""img/1to3/5.png"",""time"":495},{""stimulus"":""img/1to3/6.png"",""time"":596},{""stimulus"":""img/1to3/7.png"",""time"":695},{""stimulus"":""img/1to3/8.png"",""time"":793},{""stimulus"":""img/1to3/9.png"",""time"":892},{""stimulus"":""img/1to3/10.png"",""time"":990},{""stimulus"":""img/1to3/11.png"",""time"":1089},{""stimulus"":""img/1to3/12.png"",""time"":1189}]","[]"
"image-keyboard-response","33","119615","0.0-5.0-1.14","6414cd5e294152ef610c1272","bdp_cybrbll","Sun Apr 09 2023 19:57:09 GMT-0500 (Central Daylight Time)","499776","3","1","","null","","","","observe","","","img/3to2/1.png","null","211","741","0.5","0.5","3","2","",""
"animation","34","120902","0.0-5.0-2.14","6414cd5e294152ef610c1272","bdp_cybrbll","Sun Apr 09 2023 19:57:09 GMT-0500 (Central Daylight Time)","499776","3","1","","","","","","","","","","","211","","","","3","2","[{""stimulus"":""img/3to2/1.png"",""time"":100},{""stimulus"":""img/3to2/2.png"",""time"":199},{""stimulus"":""img/3to2/3.png"",""time"":297},{""stimulus"":""img/3to2/4.png"",""time"":397},{""stimulus"":""img/3to2/5.png"",""time"":496},{""stimulus"":""img/3to2/6.png"",""time"":595},{""stimulus"":""img/3to2/7.png"",""time"":694},{""stimulus"":""img/3to2/8.png"",""time"":793},{""stimulus"":""img/3to2/9.png"",""time"":891},{""stimulus"":""img/3to2/10.png"",""time"":991},{""stimulus"":""img/3to2/11.png"",""time"":1090},{""stimulus"":""img/3to2/12.png"",""time"":1189}]","[]"
"image-keyboard-response","35","120963","0.0-5.0-1.15","6414cd5e294152ef610c1272","bdp_cybrbll","Sun Apr 09 2023 19:57:09 GMT-0500 (Central Daylight Time)","499776","3","1","","60","","","","choice","","","img/2to1/1.png","2","210","326","0.5","0.5","2","3","",""
"animation","36","122252","0.0-5.0-2.15","6414cd5e294152ef610c1272","bdp_cybrbll","Sun Apr 09 2023 19:57:09 GMT-0500 (Central Daylight Time)","499776","3","1","","","","","","","","","","","210","","","","2","3","[{""stimulus"":""img/2to3/1.png"",""time"":100},{""stimulus"":""img/2to3/2.png"",""time"":199},{""stimulus"":""img/2to3/3.png"",""time"":298},{""stimulus"":""img/2to3/4.png"",""time"":397},{""stimulus"":""img/2to3/5.png"",""time"":496},{""stimulus"":""img/2to3/6.png"",""time"":595},{""stimulus"":""img/2to3/7.png"",""time"":694},{""stimulus"":""img/2to3/8.png"",""time"":793},{""stimulus"":""img/2to3/9.png"",""time"":893},{""stimulus"":""img/2to3/10.png"",""time"":990},{""stimulus"":""img/2to3/11.png"",""time"":1090},{""stimulus"":""img/2to3/12.png"",""time"":1189}]","[]"
"image-keyboard-response","37","122833","0.0-5.0-1.16","6414cd5e294152ef610c1272","bdp_cybrbll","Sun Apr 09 2023 19:57:09 GMT-0500 (Central Daylight Time)","499776","3","1","","null","","","","observe","","","img/3to2/1.png","null","209","579","0.5","0.5","3","1","",""
"animation","38","124121","0.0-5.0-2.16","6414cd5e294152ef610c1272","bdp_cybrbll","Sun Apr 09 2023 19:57:09 GMT-0500 (Central Daylight Time)","499776","3","1","","","","","","","","","","","209","","","","3","1","[{""stimulus"":""img/3to1/1.png"",""time"":101},{""stimulus"":""img/3to1/2.png"",""time"":199},{""stimulus"":""img/3to1/3.png"",""time"":299},{""stimulus"":""img/3to1/4.png"",""time"":398},{""stimulus"":""img/3to1/5.png"",""time"":497},{""stimulus"":""img/3to1/6.png"",""time"":596},{""stimulus"":""img/3to1/7.png"",""time"":694},{""stimulus"":""img/3to1/8.png"",""time"":794},{""stimulus"":""img/3to1/9.png"",""time"":892},{""stimulus"":""img/3to1/10.png"",""time"":991},{""stimulus"":""img/3to1/11.png"",""time"":1091},{""stimulus"":""img/3to1/12.png"",""time"":1189}]","[]"
"image-keyboard-response","39","124556","0.0-5.0-1.17","6414cd5e294152ef610c1272","bdp_cybrbll","Sun Apr 09 2023 19:57:09 GMT-0500 (Central Daylight Time)","499776","3","1","","null","","","","observe","","","img/1to3/1.png","null","208","434","0.5","0.5","1","3","",""
"animation","40","125844","0.0-5.0-2.17","6414cd5e294152ef610c1272","bdp_cybrbll","Sun Apr 09 2023 19:57:09 GMT-0500 (Central Daylight Time)","499776","3","1","","","","","","","","","","","208","","","","1","3","[{""stimulus"":""img/1to3/1.png"",""time"":100},{""stimulus"":""img/1to3/2.png"",""time"":199},{""stimulus"":""img/1to3/3.png"",""time"":297},{""stimulus"":""img/1to3/4.png"",""time"":397},{""stimulus"":""img/1to3/5.png"",""time"":496},{""stimulus"":""img/1to3/6.png"",""time"":595},{""stimulus"":""img/1to3/7.png"",""time"":694},{""stimulus"":""img/1to3/8.png"",""time"":792},{""stimulus"":""img/1to3/9.png"",""time"":893},{""stimulus"":""img/1to3/10.png"",""time"":991},{""stimulus"":""img/1to3/11.png"",""time"":1090},{""stimulus"":""img/1to3/12.png"",""time"":1189}]","[]"
"image-keyboard-response","41","126032","0.0-5.0-1.18","6414cd5e294152ef610c1272","bdp_cybrbll","Sun Apr 09 2023 19:57:09 GMT-0500 (Central Daylight Time)","499776","3","1","","null","","","","observe","","","img/3to2/1.png","null","207","187","0.5","0.5","3","1","",""
"animation","42","127324","0.0-5.0-2.18","6414cd5e294152ef610c1272","bdp_cybrbll","Sun Apr 09 2023 19:57:09 GMT-0500 (Central Daylight Time)","499776","3","1","","","","","","","","","","","207","","","","3","1","[{""stimulus"":""img/3to1/1.png"",""time"":101},{""stimulus"":""img/3to1/2.png"",""time"":200},{""stimulus"":""img/3to1/3.png"",""time"":298},{""stimulus"":""img/3to1/4.png"",""time"":398},{""stimulus"":""img/3to1/5.png"",""time"":497},{""stimulus"":""img/3to1/6.png"",""time"":596},{""stimulus"":""img/3to1/7.png"",""time"":695},{""stimulus"":""img/3to1/8.png"",""time"":793},{""stimulus"":""img/3to1/9.png"",""time"":893},{""stimulus"":""img/3to1/10.png"",""time"":991},{""stimulus"":""img/3to1/11.png"",""time"":1090},{""stimulus"":""img/3to1/12.png"",""time"":1190}]","[]"
"image-keyboard-response","43","127522","0.0-5.0-1.19","6414cd5e294152ef610c1272","bdp_cybrbll","Sun Apr 09 2023 19:57:09 GMT-0500 (Central Daylight Time)","499776","3","1","","null","","","","observe","","","img/1to3/1.png","null","206","197","0.5","0.5","1","2","",""
"animation","44","128810","0.0-5.0-2.19","6414cd5e294152ef610c1272","bdp_cybrbll","Sun Apr 09 2023 19:57:09 GMT-0500 (Central Daylight Time)","499776","3","1","","","","","","","","","","","206","","","","1","2","[{""stimulus"":""img/1to2/1.png"",""time"":101},{""stimulus"":""img/1to2/2.png"",""time"":200},{""stimulus"":""img/1to2/3.png"",""time"":300},{""stimulus"":""img/1to2/4.png"",""time"":397},{""stimulus"":""img/1to2/5.png"",""time"":498},{""stimulus"":""img/1to2/6.png"",""time"":596},{""stimulus"":""img/1to2/7.png"",""time"":694},{""stimulus"":""img/1to2/8.png"",""time"":794},{""stimulus"":""img/1to2/9.png"",""time"":892},{""stimulus"":""img/1to2/10.png"",""time"":992},{""stimulus"":""img/1to2/11.png"",""time"":1090},{""stimulus"":""img/1to2/12.png"",""time"":1190}]","[]"
"image-keyboard-response","45","128924","0.0-5.0-1.20","6414cd5e294152ef610c1272","bdp_cybrbll","Sun Apr 09 2023 19:57:09 GMT-0500 (Central Daylight Time)","499776","3","1","","114","","","","choice","","","img/2to1/1.png","1","205","281","0.5","0.5","2","1","",""
"animation","46","130212","0.0-5.0-2.20","6414cd5e294152ef610c1272","bdp_cybrbll","Sun Apr 09 2023 19:57:09 GMT-0500 (Central Daylight Time)","499776","3","1","","","","","","","","","","","205","","","","2","1","[{""stimulus"":""img/2to1/1.png"",""time"":100},{""stimulus"":""img/2to1/2.png"",""time"":199},{""stimulus"":""img/2to1/3.png"",""time"":299},{""stimulus"":""img/2to1/4.png"",""time"":397},{""stimulus"":""img/2to1/5.png"",""time"":496},{""stimulus"":""img/2to1/6.png"",""time"":595},{""stimulus"":""img/2to1/7.png"",""time"":694},{""stimulus"":""img/2to1/8.png"",""time"":794},{""stimulus"":""img/2to1/9.png"",""time"":893},{""stimulus"":""img/2to1/10.png"",""time"":993},{""stimulus"":""img/2to1/11.png"",""time"":1090},{""stimulus"":""img/2to1/12.png"",""time"":1189}]","[]"
"image-keyboard-response","47","130583","0.0-5.0-1.21","6414cd5e294152ef610c1272","bdp_cybrbll","Sun Apr 09 2023 19:57:09 GMT-0500 (Central Daylight Time)","499776","3","1","","null","","","","observe","","","img/1to3/1.png","null","204","369","0.5","0.5","1","2","",""
"animation","48","131872","0.0-5.0-2.21","6414cd5e294152ef610c1272","bdp_cybrbll","Sun Apr 09 2023 19:57:09 GMT-0500 (Central Daylight Time)","499776","3","1","","","","","","","","","","","204","","","","1","2","[{""stimulus"":""img/1to2/1.png"",""time"":100},{""stimulus"":""img/1to2/2.png"",""time"":200},{""stimulus"":""img/1to2/3.png"",""time"":298},{""stimulus"":""img/1to2/4.png"",""time"":398},{""stimulus"":""img/1to2/5.png"",""time"":497},{""stimulus"":""img/1to2/6.png"",""time"":596},{""stimulus"":""img/1to2/7.png"",""time"":696},{""stimulus"":""img/1to2/8.png"",""time"":794},{""stimulus"":""img/1to2/9.png"",""time"":892},{""stimulus"":""img/1to2/10.png"",""time"":991},{""stimulus"":""img/1to2/11.png"",""time"":1090},{""stimulus"":""img/1to2/12.png"",""time"":1189}]","[]"
"image-keyboard-response","49","131966","0.0-5.0-1.22","6414cd5e294152ef610c1272","bdp_cybrbll","Sun Apr 09 2023 19:57:09 GMT-0500 (Central Daylight Time)","499776","3","1","","94","","","","choice","","","img/2to1/1.png","2","203","318","0.5","0.5","2","3","",""
"animation","50","133254","0.0-5.0-2.22","6414cd5e294152ef610c1272","bdp_cybrbll","Sun Apr 09 2023 19:57:09 GMT-0500 (Central Daylight Time)","499776","3","1","","","","","","","","","","","203","","","","2","3","[{""stimulus"":""img/2to3/1.png"",""time"":101},{""stimulus"":""img/2to3/2.png"",""time"":200},{""stimulus"":""img/2to3/3.png"",""time"":298},{""stimulus"":""img/2to3/4.png"",""time"":399},{""stimulus"":""img/2to3/5.png"",""time"":496},{""stimulus"":""img/2to3/6.png"",""time"":595},{""stimulus"":""img/2to3/7.png"",""time"":694},{""stimulus"":""img/2to3/8.png"",""time"":794},{""stimulus"":""img/2to3/9.png"",""time"":893},{""stimulus"":""img/2to3/10.png"",""time"":993},{""stimulus"":""img/2to3/11.png"",""time"":1091},{""stimulus"":""img/2to3/12.png"",""time"":1190}]","[]"
"image-keyboard-response","51","133615","0.0-5.0-1.23","6414cd5e294152ef610c1272","bdp_cybrbll","Sun Apr 09 2023 19:57:09 GMT-0500 (Central Daylight Time)","499776","3","1","","null","","","","observe","","","img/3to2/1.png","null","202","359","0.5","0.5","3","2","",""
"animation","52","134903","0.0-5.0-2.23","6414cd5e294152ef610c1272","bdp_cybrbll","Sun Apr 09 2023 19:57:09 GMT-0500 (Central Daylight Time)","499776","3","1","","","","","","","","","","","202","","","","3","2","[{""stimulus"":""img/3to2/1.png"",""time"":99},{""stimulus"":""img/3to2/2.png"",""time"":199},{""stimulus"":""img/3to2/3.png"",""time"":298},{""stimulus"":""img/3to2/4.png"",""time"":397},{""stimulus"":""img/3to2/5.png"",""time"":496},{""stimulus"":""img/3to2/6.png"",""time"":596},{""stimulus"":""img/3to2/7.png"",""time"":694},{""stimulus"":""img/3to2/8.png"",""time"":793},{""stimulus"":""img/3to2/9.png"",""time"":892},{""stimulus"":""img/3to2/10.png"",""time"":991},{""stimulus"":""img/3to2/11.png"",""time"":1091},{""stimulus"":""img/3to2/12.png"",""time"":1190}]","[]"
"image-keyboard-response","53","135303","0.0-5.0-1.24","6414cd5e294152ef610c1272","bdp_cybrbll","Sun Apr 09 2023 19:57:09 GMT-0500 (Central Daylight Time)","499776","3","1","","400","","","","choice","","","img/2to1/1.png","1","201","289","0.5","0.5","2","1","",""
"animation","54","136591","0.0-5.0-2.24","6414cd5e294152ef610c1272","bdp_cybrbll","Sun Apr 09 2023 19:57:09 GMT-0500 (Central Daylight Time)","499776","3","1","","","","","","","","","","","201","","","","2","1","[{""stimulus"":""img/2to1/1.png"",""time"":100},{""stimulus"":""img/2to1/2.png"",""time"":199},{""stimulus"":""img/2to1/3.png"",""time"":298},{""stimulus"":""img/2to1/4.png"",""time"":396},{""stimulus"":""img/2to1/5.png"",""time"":496},{""stimulus"":""img/2to1/6.png"",""time"":595},{""stimulus"":""img/2to1/7.png"",""time"":694},{""stimulus"":""img/2to1/8.png"",""time"":794},{""stimulus"":""img/2to1/9.png"",""time"":893},{""stimulus"":""img/2to1/10.png"",""time"":991},{""stimulus"":""img/2to1/11.png"",""time"":1090},{""stimulus"":""img/2to1/12.png"",""time"":1189}]","[]"
"image-keyboard-response","55","136857","0.0-5.0-1.25","6414cd5e294152ef610c1272","bdp_cybrbll","Sun Apr 09 2023 19:57:09 GMT-0500 (Central Daylight Time)","499776","3","1","","null","","","","observe","","","img/1to3/1.png","null","200","265","0.5","0.5","1","3","",""
"animation","56","138145","0.0-5.0-2.25","6414cd5e294152ef610c1272","bdp_cybrbll","Sun Apr 09 2023 19:57:09 GMT-0500 (Central Daylight Time)","499776","3","1","","","","","","","","","","","200","","","","1","3","[{""stimulus"":""img/1to3/1.png"",""time"":100},{""stimulus"":""img/1to3/2.png"",""time"":198},{""stimulus"":""img/1to3/3.png"",""time"":310},{""stimulus"":""img/1to3/4.png"",""time"":396},{""stimulus"":""img/1to3/5.png"",""time"":495},{""stimulus"":""img/1to3/6.png"",""time"":594},{""stimulus"":""img/1to3/7.png"",""time"":694},{""stimulus"":""img/1to3/8.png"",""time"":792},{""stimulus"":""img/1to3/9.png"",""time"":892},{""stimulus"":""img/1to3/10.png"",""time"":991},{""stimulus"":""img/1to3/11.png"",""time"":1091},{""stimulus"":""img/1to3/12.png"",""time"":1188}]","[]"
"image-keyboard-response","57","138948","0.0-5.0-1.26","6414cd5e294152ef610c1272","bdp_cybrbll","Sun Apr 09 2023 19:57:09 GMT-0500 (Central Daylight Time)","499776","3","1","","null","","","","observe","","","img/3to2/1.png","null","199","788","0.5","0.5","3","2","",""
"animation","58","140237","0.0-5.0-2.26","6414cd5e294152ef610c1272","bdp_cybrbll","Sun Apr 09 2023 19:57:09 GMT-0500 (Central Daylight Time)","499776","3","1","","","","","","","","","","","199","","","","3","2","[{""stimulus"":""img/3to2/1.png"",""time"":100},{""stimulus"":""img/3to2/2.png"",""time"":200},{""stimulus"":""img/3to2/3.png"",""time"":297},{""stimulus"":""img/3to2/4.png"",""time"":396},{""stimulus"":""img/3to2/5.png"",""time"":495},{""stimulus"":""img/3to2/6.png"",""time"":595},{""stimulus"":""img/3to2/7.png"",""time"":694},{""stimulus"":""img/3to2/8.png"",""time"":793},{""stimulus"":""img/3to2/9.png"",""time"":893},{""stimulus"":""img/3to2/10.png"",""time"":992},{""stimulus"":""img/3to2/11.png"",""time"":1091},{""stimulus"":""img/3to2/12.png"",""time"":1190}]","[]"
"image-keyboard-response","59","140576","0.0-5.0-1.27","6414cd5e294152ef610c1272","bdp_cybrbll","Sun Apr 09 2023 19:57:09 GMT-0500 (Central Daylight Time)","499776","3","1","","338","","","","choice","","","img/2to1/1.png","2","198","366","0.5","0.5","2","3","",""
"animation","60","141865","0.0-5.0-2.27","6414cd5e294152ef610c1272","bdp_cybrbll","Sun Apr 09 2023 19:57:09 GMT-0500 (Central Daylight Time)","499776","3","1","","","","","","","","","","","198","","","","2","3","[{""stimulus"":""img/2to3/1.png"",""time"":100},{""stimulus"":""img/2to3/2.png"",""time"":200},{""stimulus"":""img/2to3/3.png"",""time"":299},{""stimulus"":""img/2to3/4.png"",""time"":397},{""stimulus"":""img/2to3/5.png"",""time"":497},{""stimulus"":""img/2to3/6.png"",""time"":596},{""stimulus"":""img/2to3/7.png"",""time"":695},{""stimulus"":""img/2to3/8.png"",""time"":793},{""stimulus"":""img/2to3/9.png"",""time"":893},{""stimulus"":""img/2to3/10.png"",""time"":992},{""stimulus"":""img/2to3/11.png"",""time"":1091},{""stimulus"":""img/2to3/12.png"",""time"":1190}]","[]"
"image-keyboard-response","61","142360","0.0-5.0-1.28","6414cd5e294152ef610c1272","bdp_cybrbll","Sun Apr 09 2023 19:57:09 GMT-0500 (Central Daylight Time)","499776","3","1","","null","","","","observe","","","img/3to2/1.png","null","197","493","0.5","0.5","3","1","",""
"animation","62","143648","0.0-5.0-2.28","6414cd5e294152ef610c1272","bdp_cybrbll","Sun Apr 09 2023 19:57:09 GMT-0500 (Central Daylight Time)","499776","3","1","","","","","","","","","","","197","","","","3","1","[{""stimulus"":""img/3to1/1.png"",""time"":100},{""stimulus"":""img/3to1/2.png"",""time"":199},{""stimulus"":""img/3to1/3.png"",""time"":299},{""stimulus"":""img/3to1/4.png"",""time"":396},{""stimulus"":""img/3to1/5.png"",""time"":496},{""stimulus"":""img/3to1/6.png"",""time"":595},{""stimulus"":""img/3to1/7.png"",""time"":694},{""stimulus"":""img/3to1/8.png"",""time"":793},{""stimulus"":""img/3to1/9.png"",""time"":893},{""stimulus"":""img/3to1/10.png"",""time"":992},{""stimulus"":""img/3to1/11.png"",""time"":1090},{""stimulus"":""img/3to1/12.png"",""time"":1189}]","[]"
"image-keyboard-response","63","143936","0.0-5.0-1.29","6414cd5e294152ef610c1272","bdp_cybrbll","Sun Apr 09 2023 19:57:09 GMT-0500 (Central Daylight Time)","499776","3","1","","null","","","","observe","","","img/1to3/1.png","null","196","286","0.5","0.5","1","2","",""
"animation","64","145224","0.0-5.0-2.29","6414cd5e294152ef610c1272","bdp_cybrbll","Sun Apr 09 2023 19:57:09 GMT-0500 (Central Daylight Time)","499776","3","1","","","","","","","","","","","196","","","","1","2","[{""stimulus"":""img/1to2/1.png"",""time"":101},{""stimulus"":""img/1to2/2.png"",""time"":199},{""stimulus"":""img/1to2/3.png"",""time"":297},{""stimulus"":""img/1to2/4.png"",""time"":397},{""stimulus"":""img/1to2/5.png"",""time"":496},{""stimulus"":""img/1to2/6.png"",""time"":595},{""stimulus"":""img/1to2/7.png"",""time"":694},{""stimulus"":""img/1to2/8.png"",""time"":792},{""stimulus"":""img/1to2/9.png"",""time"":892},{""stimulus"":""img/1to2/10.png"",""time"":991},{""stimulus"":""img/1to2/11.png"",""time"":1090},{""stimulus"":""img/1to2/12.png"",""time"":1188}]","[]"
"image-keyboard-response","65","145755","0.0-5.0-1.30","6414cd5e294152ef610c1272","bdp_cybrbll","Sun Apr 09 2023 19:57:09 GMT-0500 (Central Daylight Time)","499776","3","1","","531","","","","choice","","","img/2to1/1.png","1","195","685","0.5","0.5","2","1","",""
"animation","66","147044","0.0-5.0-2.30","6414cd5e294152ef610c1272","bdp_cybrbll","Sun Apr 09 2023 19:57:09 GMT-0500 (Central Daylight Time)","499776","3","1","","","","","","","","","","","195","","","","2","1","[{""stimulus"":""img/2to1/1.png"",""time"":100},{""stimulus"":""img/2to1/2.png"",""time"":199},{""stimulus"":""img/2to1/3.png"",""time"":298},{""stimulus"":""img/2to1/4.png"",""time"":397},{""stimulus"":""img/2to1/5.png"",""time"":497},{""stimulus"":""img/2to1/6.png"",""time"":596},{""stimulus"":""img/2to1/7.png"",""time"":694},{""stimulus"":""img/2to1/8.png"",""time"":794},{""stimulus"":""img/2to1/9.png"",""time"":894},{""stimulus"":""img/2to1/10.png"",""time"":991},{""stimulus"":""img/2to1/11.png"",""time"":1091},{""stimulus"":""img/2to1/12.png"",""time"":1189}]","[]"
"image-keyboard-response","67","147343","0.0-5.0-1.31","6414cd5e294152ef610c1272","bdp_cybrbll","Sun Apr 09 2023 19:57:09 GMT-0500 (Central Daylight Time)","499776","3","1","","null","","","","observe","","","img/1to3/1.png","null","194","293","0.5","0.5","1","3","",""
"animation","68","148631","0.0-5.0-2.31","6414cd5e294152ef610c1272","bdp_cybrbll","Sun Apr 09 2023 19:57:09 GMT-0500 (Central Daylight Time)","499776","3","1","","","","","","","","","","","194","","","","1","3","[{""stimulus"":""img/1to3/1.png"",""time"":101},{""stimulus"":""img/1to3/2.png"",""time"":199},{""stimulus"":""img/1to3/3.png"",""time"":299},{""stimulus"":""img/1to3/4.png"",""time"":398},{""stimulus"":""img/1to3/5.png"",""time"":496},{""stimulus"":""img/1to3/6.png"",""time"":596},{""stimulus"":""img/1to3/7.png"",""time"":694},{""stimulus"":""img/1to3/8.png"",""time"":794},{""stimulus"":""img/1to3/9.png"",""time"":893},{""stimulus"":""img/1to3/10.png"",""time"":991},{""stimulus"":""img/1to3/11.png"",""time"":1090},{""stimulus"":""img/1to3/12.png"",""time"":1189}]","[]"
"image-keyboard-response","69","149420","0.0-5.0-1.32","6414cd5e294152ef610c1272","bdp_cybrbll","Sun Apr 09 2023 19:57:09 GMT-0500 (Central Daylight Time)","499776","3","1","","null","","","","observe","","","img/3to2/1.png","null","193","788","0.5","0.5","3","2","",""
"animation","70","150708","0.0-5.0-2.32","6414cd5e294152ef610c1272","bdp_cybrbll","Sun Apr 09 2023 19:57:09 GMT-0500 (Central Daylight Time)","499776","3","1","","","","","","","","","","","193","","","","3","2","[{""stimulus"":""img/3to2/1.png"",""time"":100},{""stimulus"":""img/3to2/2.png"",""time"":199},{""stimulus"":""img/3to2/3.png"",""time"":298},{""stimulus"":""img/3to2/4.png"",""time"":397},{""stimulus"":""img/3to2/5.png"",""time"":497},{""stimulus"":""img/3to2/6.png"",""time"":596},{""stimulus"":""img/3to2/7.png"",""time"":694},{""stimulus"":""img/3to2/8.png"",""time"":793},{""stimulus"":""img/3to2/9.png"",""time"":892},{""stimulus"":""img/3to2/10.png"",""time"":992},{""stimulus"":""img/3to2/11.png"",""time"":1090},{""stimulus"":""img/3to2/12.png"",""time"":1190}]","[]"
"image-keyboard-response","71","151082","0.0-5.0-1.33","6414cd5e294152ef610c1272","bdp_cybrbll","Sun Apr 09 2023 19:57:09 GMT-0500 (Central Daylight Time)","499776","3","1","","374","","","","choice","","","img/2to1/1.png","2","192","394","0.5","0.5","2","3","",""
"animation","72","152370","0.0-5.0-2.33","6414cd5e294152ef610c1272","bdp_cybrbll","Sun Apr 09 2023 19:57:09 GMT-0500 (Central Daylight Time)","499776","3","1","","","","","","","","","","","192","","","","2","3","[{""stimulus"":""img/2to3/1.png"",""time"":101},{""stimulus"":""img/2to3/2.png"",""time"":199},{""stimulus"":""img/2to3/3.png"",""time"":299},{""stimulus"":""img/2to3/4.png"",""time"":397},{""stimulus"":""img/2to3/5.png"",""time"":497},{""stimulus"":""img/2to3/6.png"",""time"":595},{""stimulus"":""img/2to3/7.png"",""time"":695},{""stimulus"":""img/2to3/8.png"",""time"":793},{""stimulus"":""img/2to3/9.png"",""time"":893},{""stimulus"":""img/2to3/10.png"",""time"":991},{""stimulus"":""img/2to3/11.png"",""time"":1091},{""stimulus"":""img/2to3/12.png"",""time"":1190}]","[]"
"image-keyboard-response","73","152645","0.0-5.0-1.34","6414cd5e294152ef610c1272","bdp_cybrbll","Sun Apr 09 2023 19:57:09 GMT-0500 (Central Daylight Time)","499776","3","1","","null","","","","observe","","","img/3to2/1.png","null","191","274","0.5","0.5","3","1","",""
"animation","74","153934","0.0-5.0-2.34","6414cd5e294152ef610c1272","bdp_cybrbll","Sun Apr 09 2023 19:57:09 GMT-0500 (Central Daylight Time)","499776","3","1","","","","","","","","","","","191","","","","3","1","[{""stimulus"":""img/3to1/1.png"",""time"":100},{""stimulus"":""img/3to1/2.png"",""time"":199},{""stimulus"":""img/3to1/3.png"",""time"":299},{""stimulus"":""img/3to1/4.png"",""time"":398},{""stimulus"":""img/3to1/5.png"",""time"":496},{""stimulus"":""img/3to1/6.png"",""time"":595},{""stimulus"":""img/3to1/7.png"",""time"":694},{""stimulus"":""img/3to1/8.png"",""time"":793},{""stimulus"":""img/3to1/9.png"",""time"":893},{""stimulus"":""img/3to1/10.png"",""time"":993},{""stimulus"":""img/3to1/11.png"",""time"":1090},{""stimulus"":""img/3to1/12.png"",""time"":1190}]","[]"
"image-keyboard-response","75","154145","0.0-5.0-1.35","6414cd5e294152ef610c1272","bdp_cybrbll","Sun Apr 09 2023 19:57:09 GMT-0500 (Central Daylight Time)","499776","3","1","","null","","","","observe","","","img/1to3/1.png","null","190","210","0.5","0.5","1","2","",""
"animation","76","155433","0.0-5.0-2.35","6414cd5e294152ef610c1272","bdp_cybrbll","Sun Apr 09 2023 19:57:09 GMT-0500 (Central Daylight Time)","499776","3","1","","","","","","","","","","","190","","","","1","2","[{""stimulus"":""img/1to2/1.png"",""time"":101},{""stimulus"":""img/1to2/2.png"",""time"":199},{""stimulus"":""img/1to2/3.png"",""time"":298},{""stimulus"":""img/1to2/4.png"",""time"":397},{""stimulus"":""img/1to2/5.png"",""time"":496},{""stimulus"":""img/1to2/6.png"",""time"":595},{""stimulus"":""img/1to2/7.png"",""time"":694},{""stimulus"":""img/1to2/8.png"",""time"":793},{""stimulus"":""img/1to2/9.png"",""time"":892},{""stimulus"":""img/1to2/10.png"",""time"":992},{""stimulus"":""img/1to2/11.png"",""time"":1090},{""stimulus"":""img/1to2/12.png"",""time"":1189}]","[]"
"image-keyboard-response","77","155741","0.0-5.0-1.36","6414cd5e294152ef610c1272","bdp_cybrbll","Sun Apr 09 2023 19:57:09 GMT-0500 (Central Daylight Time)","499776","3","1","","308","","","","choice","","","img/2to1/1.png","1","189","394","0.5","0.5","2","1","",""
"animation","78","157029","0.0-5.0-2.36","6414cd5e294152ef610c1272","bdp_cybrbll","Sun Apr 09 2023 19:57:09 GMT-0500 (Central Daylight Time)","499776","3","1","","","","","","","","","","","189","","","","2","1","[{""stimulus"":""img/2to1/1.png"",""time"":100},{""stimulus"":""img/2to1/2.png"",""time"":199},{""stimulus"":""img/2to1/3.png"",""time"":298},{""stimulus"":""img/2to1/4.png"",""time"":398},{""stimulus"":""img/2to1/5.png"",""time"":496},{""stimulus"":""img/2to1/6.png"",""time"":596},{""stimulus"":""img/2to1/7.png"",""time"":694},{""stimulus"":""img/2to1/8.png"",""time"":793},{""stimulus"":""img/2to1/9.png"",""time"":893},{""stimulus"":""img/2to1/10.png"",""time"":992},{""stimulus"":""img/2to1/11.png"",""time"":1091},{""stimulus"":""img/2to1/12.png"",""time"":1190}]","[]"
"image-keyboard-response","79","157570","0.0-5.0-1.37","6414cd5e294152ef610c1272","bdp_cybrbll","Sun Apr 09 2023 19:57:09 GMT-0500 (Central Daylight Time)","499776","3","1","","null","","","","observe","","","img/1to3/1.png","null","188","540","0.5","0.5","1","2","",""
"animation","80","158858","0.0-5.0-2.37","6414cd5e294152ef610c1272","bdp_cybrbll","Sun Apr 09 2023 19:57:09 GMT-0500 (Central Daylight Time)","499776","3","1","","","","","","","","","","","188","","","","1","2","[{""stimulus"":""img/1to2/1.png"",""time"":100},{""stimulus"":""img/1to2/2.png"",""time"":199},{""stimulus"":""img/1to2/3.png"",""time"":298},{""stimulus"":""img/1to2/4.png"",""time"":397},{""stimulus"":""img/1to2/5.png"",""time"":496},{""stimulus"":""img/1to2/6.png"",""time"":598},{""stimulus"":""img/1to2/7.png"",""time"":695},{""stimulus"":""img/1to2/8.png"",""time"":793},{""stimulus"":""img/1to2/9.png"",""time"":892},{""stimulus"":""img/1to2/10.png"",""time"":991},{""stimulus"":""img/1to2/11.png"",""time"":1091},{""stimulus"":""img/1to2/12.png"",""time"":1189}]","[]"
"image-keyboard-response","81","159074","0.0-5.0-1.38","6414cd5e294152ef610c1272","bdp_cybrbll","Sun Apr 09 2023 19:57:09 GMT-0500 (Central Daylight Time)","499776","3","1","","215","","","","choice","","","img/2to1/1.png","2","187","660","0.5","0.5","2","3","",""
"animation","82","160363","0.0-5.0-2.38","6414cd5e294152ef610c1272","bdp_cybrbll","Sun Apr 09 2023 19:57:09 GMT-0500 (Central Daylight Time)","499776","3","1","","","","","","","","","","","187","","","","2","3","[{""stimulus"":""img/2to3/1.png"",""time"":100},{""stimulus"":""img/2to3/2.png"",""time"":199},{""stimulus"":""img/2to3/3.png"",""time"":298},{""stimulus"":""img/2to3/4.png"",""time"":397},{""stimulus"":""img/2to3/5.png"",""time"":495},{""stimulus"":""img/2to3/6.png"",""time"":595},{""stimulus"":""img/2to3/7.png"",""time"":694},{""stimulus"":""img/2to3/8.png"",""time"":792},{""stimulus"":""img/2to3/9.png"",""time"":892},{""stimulus"":""img/2to3/10.png"",""time"":991},{""stimulus"":""img/2to3/11.png"",""time"":1091},{""stimulus"":""img/2to3/12.png"",""time"":1189}]","[]"
"image-keyboard-response","83","160677","0.0-5.0-1.39","6414cd5e294152ef610c1272","bdp_cybrbll","Sun Apr 09 2023 19:57:09 GMT-0500 (Central Daylight Time)","499776","3","1","","null","","","","observe","","","img/3to2/1.png","null","186","312","0.5","0.5","3","1","",""
"animation","84","161965","0.0-5.0-2.39","6414cd5e294152ef610c1272","bdp_cybrbll","Sun Apr 09 2023 19:57:09 GMT-0500 (Central Daylight Time)","499776","3","1","","","","","","","","","","","186","","","","3","1","[{""stimulus"":""img/3to1/1.png"",""time"":100},{""stimulus"":""img/3to1/2.png"",""time"":199},{""stimulus"":""img/3to1/3.png"",""time"":300},{""stimulus"":""img/3to1/4.png"",""time"":397},{""stimulus"":""img/3to1/5.png"",""time"":496},{""stimulus"":""img/3to1/6.png"",""time"":595},{""stimulus"":""img/3to1/7.png"",""time"":694},{""stimulus"":""img/3to1/8.png"",""time"":793},{""stimulus"":""img/3to1/9.png"",""time"":893},{""stimulus"":""img/3to1/10.png"",""time"":990},{""stimulus"":""img/3to1/11.png"",""time"":1090},{""stimulus"":""img/3to1/12.png"",""time"":1190}]","[]"
"image-keyboard-response","85","162824","0.0-5.0-1.40","6414cd5e294152ef610c1272","bdp_cybrbll","Sun Apr 09 2023 19:57:09 GMT-0500 (Central Daylight Time)","499776","3","1","","null","","","","observe","","","img/1to3/1.png","null","185","858","0.5","0.5","1","3","",""
"animation","86","164112","0.0-5.0-2.40","6414cd5e294152ef610c1272","bdp_cybrbll","Sun Apr 09 2023 19:57:09 GMT-0500 (Central Daylight Time)","499776","3","1","","","","","","","","","","","185","","","","1","3","[{""stimulus"":""img/1to3/1.png"",""time"":101},{""stimulus"":""img/1to3/2.png"",""time"":200},{""stimulus"":""img/1to3/3.png"",""time"":299},{""stimulus"":""img/1to3/4.png"",""time"":397},{""stimulus"":""img/1to3/5.png"",""time"":497},{""stimulus"":""img/1to3/6.png"",""time"":595},{""stimulus"":""img/1to3/7.png"",""time"":695},{""stimulus"":""img/1to3/8.png"",""time"":793},{""stimulus"":""img/1to3/9.png"",""time"":893},{""stimulus"":""img/1to3/10.png"",""time"":992},{""stimulus"":""img/1to3/11.png"",""time"":1091},{""stimulus"":""img/1to3/12.png"",""time"":1190}]","[]"
"image-keyboard-response","87","164428","0.0-5.0-1.41","6414cd5e294152ef610c1272","bdp_cybrbll","Sun Apr 09 2023 19:57:09 GMT-0500 (Central Daylight Time)","499776","3","1","","null","","","","observe","","","img/3to2/1.png","null","184","314","0.5","0.5","3","2","",""
"animation","88","165715","0.0-5.0-2.41","6414cd5e294152ef610c1272","bdp_cybrbll","Sun Apr 09 2023 19:57:09 GMT-0500 (Central Daylight Time)","499776","3","1","","","","","","","","","","","184","","","","3","2","[{""stimulus"":""img/3to2/1.png"",""time"":100},{""stimulus"":""img/3to2/2.png"",""time"":200},{""stimulus"":""img/3to2/3.png"",""time"":299},{""stimulus"":""img/3to2/4.png"",""time"":397},{""stimulus"":""img/3to2/5.png"",""time"":496},{""stimulus"":""img/3to2/6.png"",""time"":595},{""stimulus"":""img/3to2/7.png"",""time"":694},{""stimulus"":""img/3to2/8.png"",""time"":793},{""stimulus"":""img/3to2/9.png"",""time"":892},{""stimulus"":""img/3to2/10.png"",""time"":991},{""stimulus"":""img/3to2/11.png"",""time"":1091},{""stimulus"":""img/3to2/12.png"",""time"":1189}]","[]"
"image-keyboard-response","89","166659","0.0-5.0-1.42","6414cd5e294152ef610c1272","bdp_cybrbll","Sun Apr 09 2023 19:57:09 GMT-0500 (Central Daylight Time)","499776","3","1","","943","","","","choice","","","img/2to1/1.png","2","183","1062","0.5","0.5","2","3","",""
"animation","90","167947","0.0-5.0-2.42","6414cd5e294152ef610c1272","bdp_cybrbll","Sun Apr 09 2023 19:57:09 GMT-0500 (Central Daylight Time)","499776","3","1","","","","","","","","","","","183","","","","2","3","[{""stimulus"":""img/2to3/1.png"",""time"":100},{""stimulus"":""img/2to3/2.png"",""time"":198},{""stimulus"":""img/2to3/3.png"",""time"":297},{""stimulus"":""img/2to3/4.png"",""time"":397},{""stimulus"":""img/2to3/5.png"",""time"":496},{""stimulus"":""img/2to3/6.png"",""time"":594},{""stimulus"":""img/2to3/7.png"",""time"":694},{""stimulus"":""img/2to3/8.png"",""time"":793},{""stimulus"":""img/2to3/9.png"",""time"":893},{""stimulus"":""img/2to3/10.png"",""time"":991},{""stimulus"":""img/2to3/11.png"",""time"":1090},{""stimulus"":""img/2to3/12.png"",""time"":1190}]","[]"
"image-keyboard-response","91","168256","0.0-5.0-1.43","6414cd5e294152ef610c1272","bdp_cybrbll","Sun Apr 09 2023 19:57:09 GMT-0500 (Central Daylight Time)","499776","3","1","","null","","","","observe","","","img/3to2/1.png","null","182","307","0.5","0.5","3","2","",""
"animation","92","169544","0.0-5.0-2.43","6414cd5e294152ef610c1272","bdp_cybrbll","Sun Apr 09 2023 19:57:09 GMT-0500 (Central Daylight Time)","499776","3","1","","","","","","","","","","","182","","","","3","2","[{""stimulus"":""img/3to2/1.png"",""time"":99},{""stimulus"":""img/3to2/2.png"",""time"":199},{""stimulus"":""img/3to2/3.png"",""time"":298},{""stimulus"":""img/3to2/4.png"",""time"":396},{""stimulus"":""img/3to2/5.png"",""time"":496},{""stimulus"":""img/3to2/6.png"",""time"":596},{""stimulus"":""img/3to2/7.png"",""time"":694},{""stimulus"":""img/3to2/8.png"",""time"":794},{""stimulus"":""img/3to2/9.png"",""time"":893},{""stimulus"":""img/3to2/10.png"",""time"":991},{""stimulus"":""img/3to2/11.png"",""time"":1090},{""stimulus"":""img/3to2/12.png"",""time"":1189}]","[]"
"image-keyboard-response","93","172316","0.0-5.0-1.44","6414cd5e294152ef610c1272","bdp_cybrbll","Sun Apr 09 2023 19:57:09 GMT-0500 (Central Daylight Time)","499776","3","1","","2771","","","","choice","","","img/2to1/1.png","1","181","835","0.5","0.5","2","1","",""
"animation","94","173604","0.0-5.0-2.44","6414cd5e294152ef610c1272","bdp_cybrbll","Sun Apr 09 2023 19:57:09 GMT-0500 (Central Daylight Time)","499776","3","1","","","","","","","","","","","181","","","","2","1","[{""stimulus"":""img/2to1/1.png"",""time"":100},{""stimulus"":""img/2to1/2.png"",""time"":199},{""stimulus"":""img/2to1/3.png"",""time"":298},{""stimulus"":""img/2to1/4.png"",""time"":398},{""stimulus"":""img/2to1/5.png"",""time"":496},{""stimulus"":""img/2to1/6.png"",""time"":596},{""stimulus"":""img/2to1/7.png"",""time"":694},{""stimulus"":""img/2to1/8.png"",""time"":793},{""stimulus"":""img/2to1/9.png"",""time"":892},{""stimulus"":""img/2to1/10.png"",""time"":991},{""stimulus"":""img/2to1/11.png"",""time"":1090},{""stimulus"":""img/2to1/12.png"",""time"":1189}]","[]"
"image-keyboard-response","95","174054","0.0-5.0-1.45","6414cd5e294152ef610c1272","bdp_cybrbll","Sun Apr 09 2023 19:57:09 GMT-0500 (Central Daylight Time)","499776","3","1","","null","","","","observe","","","img/1to3/1.png","null","180","449","0.5","0.5","1","3","",""
"animation","96","175343","0.0-5.0-2.45","6414cd5e294152ef610c1272","bdp_cybrbll","Sun Apr 09 2023 19:57:09 GMT-0500 (Central Daylight Time)","499776","3","1","","","","","","","","","","","180","","","","1","3","[{""stimulus"":""img/1to3/1.png"",""time"":100},{""stimulus"":""img/1to3/2.png"",""time"":200},{""stimulus"":""img/1to3/3.png"",""time"":298},{""stimulus"":""img/1to3/4.png"",""time"":397},{""stimulus"":""img/1to3/5.png"",""time"":496},{""stimulus"":""img/1to3/6.png"",""time"":596},{""stimulus"":""img/1to3/7.png"",""time"":695},{""stimulus"":""img/1to3/8.png"",""time"":793},{""stimulus"":""img/1to3/9.png"",""time"":893},{""stimulus"":""img/1to3/10.png"",""time"":992},{""stimulus"":""img/1to3/11.png"",""time"":1090},{""stimulus"":""img/1to3/12.png"",""time"":1189}]","[]"
"image-keyboard-response","97","175913","0.0-5.0-1.46","6414cd5e294152ef610c1272","bdp_cybrbll","Sun Apr 09 2023 19:57:09 GMT-0500 (Central Daylight Time)","499776","3","1","","null","","","","observe","","","img/3to2/1.png","null","179","569","0.5","0.5","3","2","",""
"animation","98","177200","0.0-5.0-2.46","6414cd5e294152ef610c1272","bdp_cybrbll","Sun Apr 09 2023 19:57:09 GMT-0500 (Central Daylight Time)","499776","3","1","","","","","","","","","","","179","","","","3","2","[{""stimulus"":""img/3to2/1.png"",""time"":99},{""stimulus"":""img/3to2/2.png"",""time"":199},{""stimulus"":""img/3to2/3.png"",""time"":298},{""stimulus"":""img/3to2/4.png"",""time"":397},{""stimulus"":""img/3to2/5.png"",""time"":496},{""stimulus"":""img/3to2/6.png"",""time"":596},{""stimulus"":""img/3to2/7.png"",""time"":694},{""stimulus"":""img/3to2/8.png"",""time"":794},{""stimulus"":""img/3to2/9.png"",""time"":892},{""stimulus"":""img/3to2/10.png"",""time"":991},{""stimulus"":""img/3to2/11.png"",""time"":1091},{""stimulus"":""img/3to2/12.png"",""time"":1188}]","[]"
"image-keyboard-response","99","177615","0.0-5.0-1.47","6414cd5e294152ef610c1272","bdp_cybrbll","Sun Apr 09 2023 19:57:09 GMT-0500 (Central Daylight Time)","499776","3","1","","414","","","","choice","","","img/2to1/1.png","2","178","919","0.5","0.5","2","3","",""
"animation","100","178903","0.0-5.0-2.47","6414cd5e294152ef610c1272","bdp_cybrbll","Sun Apr 09 2023 19:57:09 GMT-0500 (Central Daylight Time)","499776","3","1","","","","","","","","","","","178","","","","2","3","[{""stimulus"":""img/2to3/1.png"",""time"":100},{""stimulus"":""img/2to3/2.png"",""time"":199},{""stimulus"":""img/2to3/3.png"",""time"":299},{""stimulus"":""img/2to3/4.png"",""time"":398},{""stimulus"":""img/2to3/5.png"",""time"":496},{""stimulus"":""img/2to3/6.png"",""time"":596},{""stimulus"":""img/2to3/7.png"",""time"":695},{""stimulus"":""img/2to3/8.png"",""time"":794},{""stimulus"":""img/2to3/9.png"",""time"":892},{""stimulus"":""img/2to3/10.png"",""time"":992},{""stimulus"":""img/2to3/11.png"",""time"":1091},{""stimulus"":""img/2to3/12.png"",""time"":1189}]","[]"
"image-keyboard-response","101","179590","0.0-5.0-1.48","6414cd5e294152ef610c1272","bdp_cybrbll","Sun Apr 09 2023 19:57:09 GMT-0500 (Central Daylight Time)","499776","3","1","","null","","","","observe","","","img/3to2/1.png","null","177","685","0.5","0.5","3","2","",""
"animation","102","180879","0.0-5.0-2.48","6414cd5e294152ef610c1272","bdp_cybrbll","Sun Apr 09 2023 19:57:09 GMT-0500 (Central Daylight Time)","499776","3","1","","","","","","","","","","","177","","","","3","2","[{""stimulus"":""img/3to2/1.png"",""time"":99},{""stimulus"":""img/3to2/2.png"",""time"":199},{""stimulus"":""img/3to2/3.png"",""time"":298},{""stimulus"":""img/3to2/4.png"",""time"":397},{""stimulus"":""img/3to2/5.png"",""time"":496},{""stimulus"":""img/3to2/6.png"",""time"":594},{""stimulus"":""img/3to2/7.png"",""time"":695},{""stimulus"":""img/3to2/8.png"",""time"":794},{""stimulus"":""img/3to2/9.png"",""time"":893},{""stimulus"":""img/3to2/10.png"",""time"":992},{""stimulus"":""img/3to2/11.png"",""time"":1090},{""stimulus"":""img/3to2/12.png"",""time"":1189}]","[]"
"image-keyboard-response","103","181086","0.0-5.0-1.49","6414cd5e294152ef610c1272","bdp_cybrbll","Sun Apr 09 2023 19:57:09 GMT-0500 (Central Daylight Time)","499776","3","1","","207","","","","choice","","","img/2to1/1.png","1","176","881","0.5","0.5","2","1","",""
"animation","104","182374","0.0-5.0-2.49","6414cd5e294152ef610c1272","bdp_cybrbll","Sun Apr 09 2023 19:57:09 GMT-0500 (Central Daylight Time)","499776","3","1","","","","","","","","","","","176","","","","2","1","[{""stimulus"":""img/2to1/1.png"",""time"":100},{""stimulus"":""img/2to1/2.png"",""time"":199},{""stimulus"":""img/2to1/3.png"",""time"":299},{""stimulus"":""img/2to1/4.png"",""time"":397},{""stimulus"":""img/2to1/5.png"",""time"":496},{""stimulus"":""img/2to1/6.png"",""time"":595},{""stimulus"":""img/2to1/7.png"",""time"":694},{""stimulus"":""img/2to1/8.png"",""time"":794},{""stimulus"":""img/2to1/9.png"",""time"":893},{""stimulus"":""img/2to1/10.png"",""time"":992},{""stimulus"":""img/2to1/11.png"",""time"":1091},{""stimulus"":""img/2to1/12.png"",""time"":1189}]","[]"
"image-keyboard-response","105","182719","0.0-5.0-1.50","6414cd5e294152ef610c1272","bdp_cybrbll","Sun Apr 09 2023 19:57:09 GMT-0500 (Central Daylight Time)","499776","3","1","","null","","","","observe","","","img/1to3/1.png","null","175","343","0.5","0.5","1","3","",""
"animation","106","184006","0.0-5.0-2.50","6414cd5e294152ef610c1272","bdp_cybrbll","Sun Apr 09 2023 19:57:09 GMT-0500 (Central Daylight Time)","499776","3","1","","","","","","","","","","","175","","","","1","3","[{""stimulus"":""img/1to3/1.png"",""time"":99},{""stimulus"":""img/1to3/2.png"",""time"":200},{""stimulus"":""img/1to3/3.png"",""time"":298},{""stimulus"":""img/1to3/4.png"",""time"":398},{""stimulus"":""img/1to3/5.png"",""time"":495},{""stimulus"":""img/1to3/6.png"",""time"":595},{""stimulus"":""img/1to3/7.png"",""time"":693},{""stimulus"":""img/1to3/8.png"",""time"":793},{""stimulus"":""img/1to3/9.png"",""time"":892},{""stimulus"":""img/1to3/10.png"",""time"":991},{""stimulus"":""img/1to3/11.png"",""time"":1090},{""stimulus"":""img/1to3/12.png"",""time"":1190}]","[]"
"image-keyboard-response","107","184582","0.0-5.0-1.51","6414cd5e294152ef610c1272","bdp_cybrbll","Sun Apr 09 2023 19:57:09 GMT-0500 (Central Daylight Time)","499776","3","1","","null","","","","observe","","","img/3to2/1.png","null","174","571","0.5","0.5","3","1","",""
"animation","108","185870","0.0-5.0-2.51","6414cd5e294152ef610c1272","bdp_cybrbll","Sun Apr 09 2023 19:57:09 GMT-0500 (Central Daylight Time)","499776","3","1","","","","","","","","","","","174","","","","3","1","[{""stimulus"":""img/3to1/1.png"",""time"":100},{""stimulus"":""img/3to1/2.png"",""time"":200},{""stimulus"":""img/3to1/3.png"",""time"":298},{""stimulus"":""img/3to1/4.png"",""time"":397},{""stimulus"":""img/3to1/5.png"",""time"":497},{""stimulus"":""img/3to1/6.png"",""time"":596},{""stimulus"":""img/3to1/7.png"",""time"":695},{""stimulus"":""img/3to1/8.png"",""time"":793},{""stimulus"":""img/3to1/9.png"",""time"":892},{""stimulus"":""img/3to1/10.png"",""time"":991},{""stimulus"":""img/3to1/11.png"",""time"":1090},{""stimulus"":""img/3to1/12.png"",""time"":1190}]","[]"
"image-keyboard-response","109","187474","0.0-5.0-1.52","6414cd5e294152ef610c1272","bdp_cybrbll","Sun Apr 09 2023 19:57:09 GMT-0500 (Central Daylight Time)","499776","3","1","","null","","","","observe","","","img/1to3/1.png","null","173","1603","0.5","0.5","1","3","",""
"animation","110","188762","0.0-5.0-2.52","6414cd5e294152ef610c1272","bdp_cybrbll","Sun Apr 09 2023 19:57:09 GMT-0500 (Central Daylight Time)","499776","3","1","","","","","","","","","","","173","","","","1","3","[{""stimulus"":""img/1to3/1.png"",""time"":100},{""stimulus"":""img/1to3/2.png"",""time"":200},{""stimulus"":""img/1to3/3.png"",""time"":298},{""stimulus"":""img/1to3/4.png"",""time"":398},{""stimulus"":""img/1to3/5.png"",""time"":496},{""stimulus"":""img/1to3/6.png"",""time"":595},{""stimulus"":""img/1to3/7.png"",""time"":694},{""stimulus"":""img/1to3/8.png"",""time"":794},{""stimulus"":""img/1to3/9.png"",""time"":893},{""stimulus"":""img/1to3/10.png"",""time"":991},{""stimulus"":""img/1to3/11.png"",""time"":1091},{""stimulus"":""img/1to3/12.png"",""time"":1189}]","[]"
"image-keyboard-response","111","189028","0.0-5.0-1.53","6414cd5e294152ef610c1272","bdp_cybrbll","Sun Apr 09 2023 19:57:09 GMT-0500 (Central Daylight Time)","499776","3","1","","null","","","","observe","","","img/3to2/1.png","null","172","266","0.5","0.5","3","1","",""
"animation","112","190317","0.0-5.0-2.53","6414cd5e294152ef610c1272","bdp_cybrbll","Sun Apr 09 2023 19:57:09 GMT-0500 (Central Daylight Time)","499776","3","1","","","","","","","","","","","172","","","","3","1","[{""stimulus"":""img/3to1/1.png"",""time"":99},{""stimulus"":""img/3to1/2.png"",""time"":199},{""stimulus"":""img/3to1/3.png"",""time"":298},{""stimulus"":""img/3to1/4.png"",""time"":396},{""stimulus"":""img/3to1/5.png"",""time"":495},{""stimulus"":""img/3to1/6.png"",""time"":594},{""stimulus"":""img/3to1/7.png"",""time"":694},{""stimulus"":""img/3to1/8.png"",""time"":792},{""stimulus"":""img/3to1/9.png"",""time"":892},{""stimulus"":""img/3to1/10.png"",""time"":990},{""stimulus"":""img/3to1/11.png"",""time"":1090},{""stimulus"":""img/3to1/12.png"",""time"":1189}]","[]"
"image-keyboard-response","113","191118","0.0-5.0-1.54","6414cd5e294152ef610c1272","bdp_cybrbll","Sun Apr 09 2023 19:57:09 GMT-0500 (Central Daylight Time)","499776","3","1","","null","","","","observe","","","img/1to3/1.png","null","171","799","0.5","0.5","1","3","",""
"animation","114","192406","0.0-5.0-2.54","6414cd5e294152ef610c1272","bdp_cybrbll","Sun Apr 09 2023 19:57:09 GMT-0500 (Central Daylight Time)","499776","3","1","","","","","","","","","","","171","","","","1","3","[{""stimulus"":""img/1to3/1.png"",""time"":100},{""stimulus"":""img/1to3/2.png"",""time"":199},{""stimulus"":""img/1to3/3.png"",""time"":298},{""stimulus"":""img/1to3/4.png"",""time"":397},{""stimulus"":""img/1to3/5.png"",""time"":497},{""stimulus"":""img/1to3/6.png"",""time"":595},{""stimulus"":""img/1to3/7.png"",""time"":694},{""stimulus"":""img/1to3/8.png"",""time"":794},{""stimulus"":""img/1to3/9.png"",""time"":892},{""stimulus"":""img/1to3/10.png"",""time"":991},{""stimulus"":""img/1to3/11.png"",""time"":1091},{""stimulus"":""img/1to3/12.png"",""time"":1189}]","[]"
"image-keyboard-response","115","192847","0.0-5.0-1.55","6414cd5e294152ef610c1272","bdp_cybrbll","Sun Apr 09 2023 19:57:09 GMT-0500 (Central Daylight Time)","499776","3","1","","null","","","","observe","","","img/3to2/1.png","null","170","425","0.5","0.5","3","1","",""
"animation","116","194134","0.0-5.0-2.55","6414cd5e294152ef610c1272","bdp_cybrbll","Sun Apr 09 2023 19:57:09 GMT-0500 (Central Daylight Time)","499776","3","1","","","","","","","","","","","170","","","","3","1","[{""stimulus"":""img/3to1/1.png"",""time"":111},{""stimulus"":""img/3to1/2.png"",""time"":199},{""stimulus"":""img/3to1/3.png"",""time"":298},{""stimulus"":""img/3to1/4.png"",""time"":397},{""stimulus"":""img/3to1/5.png"",""time"":496},{""stimulus"":""img/3to1/6.png"",""time"":595},{""stimulus"":""img/3to1/7.png"",""time"":694},{""stimulus"":""img/3to1/8.png"",""time"":793},{""stimulus"":""img/3to1/9.png"",""time"":892},{""stimulus"":""img/3to1/10.png"",""time"":991},{""stimulus"":""img/3to1/11.png"",""time"":1090},{""stimulus"":""img/3to1/12.png"",""time"":1188}]","[]"
"image-keyboard-response","117","194394","0.0-5.0-1.56","6414cd5e294152ef610c1272","bdp_cybrbll","Sun Apr 09 2023 19:57:09 GMT-0500 (Central Daylight Time)","499776","3","1","","null","","","","observe","","","img/1to3/1.png","null","169","258","0.5","0.5","1","3","",""
"animation","118","195682","0.0-5.0-2.56","6414cd5e294152ef610c1272","bdp_cybrbll","Sun Apr 09 2023 19:57:09 GMT-0500 (Central Daylight Time)","499776","3","1","","","","","","","","","","","169","","","","1","3","[{""stimulus"":""img/1to3/1.png"",""time"":99},{""stimulus"":""img/1to3/2.png"",""time"":199},{""stimulus"":""img/1to3/3.png"",""time"":297},{""stimulus"":""img/1to3/4.png"",""time"":398},{""stimulus"":""img/1to3/5.png"",""time"":495},{""stimulus"":""img/1to3/6.png"",""time"":594},{""stimulus"":""img/1to3/7.png"",""time"":693},{""stimulus"":""img/1to3/8.png"",""time"":792},{""stimulus"":""img/1to3/9.png"",""time"":892},{""stimulus"":""img/1to3/10.png"",""time"":990},{""stimulus"":""img/1to3/11.png"",""time"":1089},{""stimulus"":""img/1to3/12.png"",""time"":1189}]","[]"
"image-keyboard-response","119","196008","0.0-5.0-1.57","6414cd5e294152ef610c1272","bdp_cybrbll","Sun Apr 09 2023 19:57:09 GMT-0500 (Central Daylight Time)","499776","3","1","","null","","","","observe","","","img/3to2/1.png","null","168","325","0.5","0.5","3","1","",""
"animation","120","197296","0.0-5.0-2.57","6414cd5e294152ef610c1272","bdp_cybrbll","Sun Apr 09 2023 19:57:09 GMT-0500 (Central Daylight Time)","499776","3","1","","","","","","","","","","","168","","","","3","1","[{""stimulus"":""img/3to1/1.png"",""time"":100},{""stimulus"":""img/3to1/2.png"",""time"":199},{""stimulus"":""img/3to1/3.png"",""time"":299},{""stimulus"":""img/3to1/4.png"",""time"":397},{""stimulus"":""img/3to1/5.png"",""time"":497},{""stimulus"":""img/3to1/6.png"",""time"":596},{""stimulus"":""img/3to1/7.png"",""time"":694},{""stimulus"":""img/3to1/8.png"",""time"":793},{""stimulus"":""img/3to1/9.png"",""time"":892},{""stimulus"":""img/3to1/10.png"",""time"":991},{""stimulus"":""img/3to1/11.png"",""time"":1091},{""stimulus"":""img/3to1/12.png"",""time"":1190}]","[]"
"image-keyboard-response","121","197888","0.0-5.0-1.58","6414cd5e294152ef610c1272","bdp_cybrbll","Sun Apr 09 2023 19:57:09 GMT-0500 (Central Daylight Time)","499776","3","1","","null","","","","observe","","","img/1to3/1.png","null","167","589","0.5","0.5","1","2","",""
"animation","122","199175","0.0-5.0-2.58","6414cd5e294152ef610c1272","bdp_cybrbll","Sun Apr 09 2023 19:57:09 GMT-0500 (Central Daylight Time)","499776","3","1","","","","","","","","","","","167","","","","1","2","[{""stimulus"":""img/1to2/1.png"",""time"":100},{""stimulus"":""img/1to2/2.png"",""time"":199},{""stimulus"":""img/1to2/3.png"",""time"":298},{""stimulus"":""img/1to2/4.png"",""time"":397},{""stimulus"":""img/1to2/5.png"",""time"":495},{""stimulus"":""img/1to2/6.png"",""time"":595},{""stimulus"":""img/1to2/7.png"",""time"":695},{""stimulus"":""img/1to2/8.png"",""time"":793},{""stimulus"":""img/1to2/9.png"",""time"":892},{""stimulus"":""img/1to2/10.png"",""time"":990},{""stimulus"":""img/1to2/11.png"",""time"":1090},{""stimulus"":""img/1to2/12.png"",""time"":1189}]","[]"
"image-keyboard-response","123","199822","0.0-5.0-1.59","6414cd5e294152ef610c1272","bdp_cybrbll","Sun Apr 09 2023 19:57:09 GMT-0500 (Central Daylight Time)","499776","3","1","","647","","","","choice","","","img/2to1/1.png","1","166","412","0.5","0.5","2","1","",""
"animation","124","201110","0.0-5.0-2.59","6414cd5e294152ef610c1272","bdp_cybrbll","Sun Apr 09 2023 19:57:09 GMT-0500 (Central Daylight Time)","499776","3","1","","","","","","","","","","","166","","","","2","1","[{""stimulus"":""img/2to1/1.png"",""time"":100},{""stimulus"":""img/2to1/2.png"",""time"":199},{""stimulus"":""img/2to1/3.png"",""time"":299},{""stimulus"":""img/2to1/4.png"",""time"":398},{""stimulus"":""img/2to1/5.png"",""time"":497},{""stimulus"":""img/2to1/6.png"",""time"":595},{""stimulus"":""img/2to1/7.png"",""time"":695},{""stimulus"":""img/2to1/8.png"",""time"":793},{""stimulus"":""img/2to1/9.png"",""time"":892},{""stimulus"":""img/2to1/10.png"",""time"":992},{""stimulus"":""img/2to1/11.png"",""time"":1091},{""stimulus"":""img/2to1/12.png"",""time"":1189}]","[]"
"image-keyboard-response","125","201416","0.0-5.0-1.60","6414cd5e294152ef610c1272","bdp_cybrbll","Sun Apr 09 2023 19:57:09 GMT-0500 (Central Daylight Time)","499776","3","1","","null","","","","observe","","","img/1to3/1.png","null","165","304","0.5","0.5","1","2","",""
"animation","126","202704","0.0-5.0-2.60","6414cd5e294152ef610c1272","bdp_cybrbll","Sun Apr 09 2023 19:57:09 GMT-0500 (Central Daylight Time)","499776","3","1","","","","","","","","","","","165","","","","1","2","[{""stimulus"":""img/1to2/1.png"",""time"":100},{""stimulus"":""img/1to2/2.png"",""time"":199},{""stimulus"":""img/1to2/3.png"",""time"":297},{""stimulus"":""img/1to2/4.png"",""time"":396},{""stimulus"":""img/1to2/5.png"",""time"":496},{""stimulus"":""img/1to2/6.png"",""time"":595},{""stimulus"":""img/1to2/7.png"",""time"":694},{""stimulus"":""img/1to2/8.png"",""time"":794},{""stimulus"":""img/1to2/9.png"",""time"":892},{""stimulus"":""img/1to2/10.png"",""time"":991},{""stimulus"":""img/1to2/11.png"",""time"":1090},{""stimulus"":""img/1to2/12.png"",""time"":1191}]","[]"
"image-keyboard-response","127","203437","0.0-5.0-1.61","6414cd5e294152ef610c1272","bdp_cybrbll","Sun Apr 09 2023 19:57:09 GMT-0500 (Central Daylight Time)","499776","3","1","","732","","","","choice","","","img/2to1/1.png","2","164","736","0.5","0.5","2","3","",""
"animation","128","204725","0.0-5.0-2.61","6414cd5e294152ef610c1272","bdp_cybrbll","Sun Apr 09 2023 19:57:09 GMT-0500 (Central Daylight Time)","499776","3","1","","","","","","","","","","","164","","","","2","3","[{""stimulus"":""img/2to3/1.png"",""time"":99},{""stimulus"":""img/2to3/2.png"",""time"":199},{""stimulus"":""img/2to3/3.png"",""time"":297},{""stimulus"":""img/2to3/4.png"",""time"":397},{""stimulus"":""img/2to3/5.png"",""time"":496},{""stimulus"":""img/2to3/6.png"",""time"":595},{""stimulus"":""img/2to3/7.png"",""time"":693},{""stimulus"":""img/2to3/8.png"",""time"":792},{""stimulus"":""img/2to3/9.png"",""time"":892},{""stimulus"":""img/2to3/10.png"",""time"":992},{""stimulus"":""img/2to3/11.png"",""time"":1090},{""stimulus"":""img/2to3/12.png"",""time"":1188}]","[]"
"image-keyboard-response","129","204997","0.0-5.0-1.62","6414cd5e294152ef610c1272","bdp_cybrbll","Sun Apr 09 2023 19:57:09 GMT-0500 (Central Daylight Time)","499776","3","1","","null","","","","observe","","","img/3to2/1.png","null","163","269","0.5","0.5","3","2","",""
"animation","130","206286","0.0-5.0-2.62","6414cd5e294152ef610c1272","bdp_cybrbll","Sun Apr 09 2023 19:57:09 GMT-0500 (Central Daylight Time)","499776","3","1","","","","","","","","","","","163","","","","3","2","[{""stimulus"":""img/3to2/1.png"",""time"":100},{""stimulus"":""img/3to2/2.png"",""time"":200},{""stimulus"":""img/3to2/3.png"",""time"":298},{""stimulus"":""img/3to2/4.png"",""time"":397},{""stimulus"":""img/3to2/5.png"",""time"":497},{""stimulus"":""img/3to2/6.png"",""time"":595},{""stimulus"":""img/3to2/7.png"",""time"":694},{""stimulus"":""img/3to2/8.png"",""time"":793},{""stimulus"":""img/3to2/9.png"",""time"":892},{""stimulus"":""img/3to2/10.png"",""time"":992},{""stimulus"":""img/3to2/11.png"",""time"":1091},{""stimulus"":""img/3to2/12.png"",""time"":1190}]","[]"
"image-keyboard-response","131","206425","0.0-5.0-1.63","6414cd5e294152ef610c1272","bdp_cybrbll","Sun Apr 09 2023 19:57:09 GMT-0500 (Central Daylight Time)","499776","3","1","","139","","","","choice","","","img/2to1/1.png","1","162","442","0.5","0.5","2","1","",""
"animation","132","207714","0.0-5.0-2.63","6414cd5e294152ef610c1272","bdp_cybrbll","Sun Apr 09 2023 19:57:09 GMT-0500 (Central Daylight Time)","499776","3","1","","","","","","","","","","","162","","","","2","1","[{""stimulus"":""img/2to1/1.png"",""time"":100},{""stimulus"":""img/2to1/2.png"",""time"":200},{""stimulus"":""img/2to1/3.png"",""time"":298},{""stimulus"":""img/2to1/4.png"",""time"":397},{""stimulus"":""img/2to1/5.png"",""time"":496},{""stimulus"":""img/2to1/6.png"",""time"":595},{""stimulus"":""img/2to1/7.png"",""time"":694},{""stimulus"":""img/2to1/8.png"",""time"":793},{""stimulus"":""img/2to1/9.png"",""time"":893},{""stimulus"":""img/2to1/10.png"",""time"":992},{""stimulus"":""img/2to1/11.png"",""time"":1090},{""stimulus"":""img/2to1/12.png"",""time"":1190}]","[]"
"image-keyboard-response","133","209039","0.0-5.0-1.64","6414cd5e294152ef610c1272","bdp_cybrbll","Sun Apr 09 2023 19:57:09 GMT-0500 (Central Daylight Time)","499776","3","1","","null","","","","observe","","","img/1to3/1.png","null","161","1324","0.5","0.5","1","3","",""
"animation","134","210327","0.0-5.0-2.64","6414cd5e294152ef610c1272","bdp_cybrbll","Sun Apr 09 2023 19:57:09 GMT-0500 (Central Daylight Time)","499776","3","1","","","","","","","","","","","161","","","","1","3","[{""stimulus"":""img/1to3/1.png"",""time"":99},{""stimulus"":""img/1to3/2.png"",""time"":200},{""stimulus"":""img/1to3/3.png"",""time"":297},{""stimulus"":""img/1to3/4.png"",""time"":396},{""stimulus"":""img/1to3/5.png"",""time"":496},{""stimulus"":""img/1to3/6.png"",""time"":595},{""stimulus"":""img/1to3/7.png"",""time"":695},{""stimulus"":""img/1to3/8.png"",""time"":794},{""stimulus"":""img/1to3/9.png"",""time"":891},{""stimulus"":""img/1to3/10.png"",""time"":991},{""stimulus"":""img/1to3/11.png"",""time"":1090},{""stimulus"":""img/1to3/12.png"",""time"":1188}]","[]"
"image-keyboard-response","135","210746","0.0-5.0-1.65","6414cd5e294152ef610c1272","bdp_cybrbll","Sun Apr 09 2023 19:57:09 GMT-0500 (Central Daylight Time)","499776","3","1","","null","","","","observe","","","img/3to2/1.png","null","160","418","0.5","0.5","3","1","",""
"animation","136","212034","0.0-5.0-2.65","6414cd5e294152ef610c1272","bdp_cybrbll","Sun Apr 09 2023 19:57:09 GMT-0500 (Central Daylight Time)","499776","3","1","","","","","","","","","","","160","","","","3","1","[{""stimulus"":""img/3to1/1.png"",""time"":100},{""stimulus"":""img/3to1/2.png"",""time"":198},{""stimulus"":""img/3to1/3.png"",""time"":298},{""stimulus"":""img/3to1/4.png"",""time"":396},{""stimulus"":""img/3to1/5.png"",""time"":495},{""stimulus"":""img/3to1/6.png"",""time"":595},{""stimulus"":""img/3to1/7.png"",""time"":694},{""stimulus"":""img/3to1/8.png"",""time"":793},{""stimulus"":""img/3to1/9.png"",""time"":892},{""stimulus"":""img/3to1/10.png"",""time"":991},{""stimulus"":""img/3to1/11.png"",""time"":1089},{""stimulus"":""img/3to1/12.png"",""time"":1189}]","[]"
"image-keyboard-response","137","212214","0.0-5.0-1.66","6414cd5e294152ef610c1272","bdp_cybrbll","Sun Apr 09 2023 19:57:09 GMT-0500 (Central Daylight Time)","499776","3","1","","null","","","","observe","","","img/1to3/1.png","null","159","178","0.5","0.5","1","3","",""
"animation","138","213501","0.0-5.0-2.66","6414cd5e294152ef610c1272","bdp_cybrbll","Sun Apr 09 2023 19:57:09 GMT-0500 (Central Daylight Time)","499776","3","1","","","","","","","","","","","159","","","","1","3","[{""stimulus"":""img/1to3/1.png"",""time"":100},{""stimulus"":""img/1to3/2.png"",""time"":199},{""stimulus"":""img/1to3/3.png"",""time"":298},{""stimulus"":""img/1to3/4.png"",""time"":397},{""stimulus"":""img/1to3/5.png"",""time"":496},{""stimulus"":""img/1to3/6.png"",""time"":595},{""stimulus"":""img/1to3/7.png"",""time"":695},{""stimulus"":""img/1to3/8.png"",""time"":793},{""stimulus"":""img/1to3/9.png"",""time"":892},{""stimulus"":""img/1to3/10.png"",""time"":991},{""stimulus"":""img/1to3/11.png"",""time"":1090},{""stimulus"":""img/1to3/12.png"",""time"":1188}]","[]"
"image-keyboard-response","139","214120","0.0-5.0-1.67","6414cd5e294152ef610c1272","bdp_cybrbll","Sun Apr 09 2023 19:57:09 GMT-0500 (Central Daylight Time)","499776","3","1","","null","","","","observe","","","img/3to2/1.png","null","158","618","0.5","0.5","3","2","",""
"animation","140","215408","0.0-5.0-2.67","6414cd5e294152ef610c1272","bdp_cybrbll","Sun Apr 09 2023 19:57:09 GMT-0500 (Central Daylight Time)","499776","3","1","","","","","","","","","","","158","","","","3","2","[{""stimulus"":""img/3to2/1.png"",""time"":101},{""stimulus"":""img/3to2/2.png"",""time"":198},{""stimulus"":""img/3to2/3.png"",""time"":298},{""stimulus"":""img/3to2/4.png"",""time"":397},{""stimulus"":""img/3to2/5.png"",""time"":509},{""stimulus"":""img/3to2/6.png"",""time"":594},{""stimulus"":""img/3to2/7.png"",""time"":693},{""stimulus"":""img/3to2/8.png"",""time"":792},{""stimulus"":""img/3to2/9.png"",""time"":898},{""stimulus"":""img/3to2/10.png"",""time"":991},{""stimulus"":""img/3to2/11.png"",""time"":1091},{""stimulus"":""img/3to2/12.png"",""time"":1189}]","[]"
"image-keyboard-response","141","216139","0.0-5.0-1.68","6414cd5e294152ef610c1272","bdp_cybrbll","Sun Apr 09 2023 19:57:09 GMT-0500 (Central Daylight Time)","499776","3","1","","731","","","","choice","","","img/2to1/1.png","2","157","533","0.5","0.5","2","3","",""
"animation","142","217427","0.0-5.0-2.68","6414cd5e294152ef610c1272","bdp_cybrbll","Sun Apr 09 2023 19:57:09 GMT-0500 (Central Daylight Time)","499776","3","1","","","","","","","","","","","157","","","","2","3","[{""stimulus"":""img/2to3/1.png"",""time"":100},{""stimulus"":""img/2to3/2.png"",""time"":200},{""stimulus"":""img/2to3/3.png"",""time"":298},{""stimulus"":""img/2to3/4.png"",""time"":397},{""stimulus"":""img/2to3/5.png"",""time"":496},{""stimulus"":""img/2to3/6.png"",""time"":595},{""stimulus"":""img/2to3/7.png"",""time"":695},{""stimulus"":""img/2to3/8.png"",""time"":793},{""stimulus"":""img/2to3/9.png"",""time"":892},{""stimulus"":""img/2to3/10.png"",""time"":992},{""stimulus"":""img/2to3/11.png"",""time"":1090},{""stimulus"":""img/2to3/12.png"",""time"":1189}]","[]"
"image-keyboard-response","143","217799","0.0-5.0-1.69","6414cd5e294152ef610c1272","bdp_cybrbll","Sun Apr 09 2023 19:57:09 GMT-0500 (Central Daylight Time)","499776","3","1","","null","","","","observe","","","img/3to2/1.png","null","156","370","0.5","0.5","3","2","",""
"animation","144","219087","0.0-5.0-2.69","6414cd5e294152ef610c1272","bdp_cybrbll","Sun Apr 09 2023 19:57:09 GMT-0500 (Central Daylight Time)","499776","3","1","","","","","","","","","","","156","","","","3","2","[{""stimulus"":""img/3to2/1.png"",""time"":100},{""stimulus"":""img/3to2/2.png"",""time"":199},{""stimulus"":""img/3to2/3.png"",""time"":297},{""stimulus"":""img/3to2/4.png"",""time"":397},{""stimulus"":""img/3to2/5.png"",""time"":496},{""stimulus"":""img/3to2/6.png"",""time"":595},{""stimulus"":""img/3to2/7.png"",""time"":694},{""stimulus"":""img/3to2/8.png"",""time"":793},{""stimulus"":""img/3to2/9.png"",""time"":916},{""stimulus"":""img/3to2/10.png"",""time"":991},{""stimulus"":""img/3to2/11.png"",""time"":1091},{""stimulus"":""img/3to2/12.png"",""time"":1190}]","[]"
"image-keyboard-response","145","219546","0.0-5.0-1.70","6414cd5e294152ef610c1272","bdp_cybrbll","Sun Apr 09 2023 19:57:09 GMT-0500 (Central Daylight Time)","499776","3","1","","458","","","","choice","","","img/2to1/1.png","1","155","472","0.5","0.5","2","1","",""
"animation","146","220834","0.0-5.0-2.70","6414cd5e294152ef610c1272","bdp_cybrbll","Sun Apr 09 2023 19:57:09 GMT-0500 (Central Daylight Time)","499776","3","1","","","","","","","","","","","155","","","","2","1","[{""stimulus"":""img/2to1/1.png"",""time"":100},{""stimulus"":""img/2to1/2.png"",""time"":198},{""stimulus"":""img/2to1/3.png"",""time"":298},{""stimulus"":""img/2to1/4.png"",""time"":396},{""stimulus"":""img/2to1/5.png"",""time"":495},{""stimulus"":""img/2to1/6.png"",""time"":594},{""stimulus"":""img/2to1/7.png"",""time"":694},{""stimulus"":""img/2to1/8.png"",""time"":792},{""stimulus"":""img/2to1/9.png"",""time"":891},{""stimulus"":""img/2to1/10.png"",""time"":991},{""stimulus"":""img/2to1/11.png"",""time"":1090},{""stimulus"":""img/2to1/12.png"",""time"":1188}]","[]"
"image-keyboard-response","147","221672","0.0-5.0-1.71","6414cd5e294152ef610c1272","bdp_cybrbll","Sun Apr 09 2023 19:57:09 GMT-0500 (Central Daylight Time)","499776","3","1","","null","","","","observe","","","img/1to3/1.png","null","154","836","0.5","0.5","1","3","",""
"animation","148","222959","0.0-5.0-2.71","6414cd5e294152ef610c1272","bdp_cybrbll","Sun Apr 09 2023 19:57:09 GMT-0500 (Central Daylight Time)","499776","3","1","","","","","","","","","","","154","","","","1","3","[{""stimulus"":""img/1to3/1.png"",""time"":99},{""stimulus"":""img/1to3/2.png"",""time"":199},{""stimulus"":""img/1to3/3.png"",""time"":298},{""stimulus"":""img/1to3/4.png"",""time"":397},{""stimulus"":""img/1to3/5.png"",""time"":496},{""stimulus"":""img/1to3/6.png"",""time"":595},{""stimulus"":""img/1to3/7.png"",""time"":695},{""stimulus"":""img/1to3/8.png"",""time"":793},{""stimulus"":""img/1to3/9.png"",""time"":893},{""stimulus"":""img/1to3/10.png"",""time"":990},{""stimulus"":""img/1to3/11.png"",""time"":1090},{""stimulus"":""img/1to3/12.png"",""time"":1189}]","[]"
"image-keyboard-response","149","223164","0.0-5.0-1.72","6414cd5e294152ef610c1272","bdp_cybrbll","Sun Apr 09 2023 19:57:09 GMT-0500 (Central Daylight Time)","499776","3","1","","null","","","","observe","","","img/3to2/1.png","null","153","203","0.5","0.5","3","2","",""
"animation","150","224452","0.0-5.0-2.72","6414cd5e294152ef610c1272","bdp_cybrbll","Sun Apr 09 2023 19:57:09 GMT-0500 (Central Daylight Time)","499776","3","1","","","","","","","","","","","153","","","","3","2","[{""stimulus"":""img/3to2/1.png"",""time"":100},{""stimulus"":""img/3to2/2.png"",""time"":200},{""stimulus"":""img/3to2/3.png"",""time"":298},{""stimulus"":""img/3to2/4.png"",""time"":397},{""stimulus"":""img/3to2/5.png"",""time"":496},{""stimulus"":""img/3to2/6.png"",""time"":596},{""stimulus"":""img/3to2/7.png"",""time"":695},{""stimulus"":""img/3to2/8.png"",""time"":794},{""stimulus"":""img/3to2/9.png"",""time"":893},{""stimulus"":""img/3to2/10.png"",""time"":991},{""stimulus"":""img/3to2/11.png"",""time"":1090},{""stimulus"":""img/3to2/12.png"",""time"":1189}]","[]"
"image-keyboard-response","151","224829","0.0-5.0-1.73","6414cd5e294152ef610c1272","bdp_cybrbll","Sun Apr 09 2023 19:57:09 GMT-0500 (Central Daylight Time)","499776","3","1","","377","","","","choice","","","img/2to1/1.png","2","152","552","0.5","0.5","2","3","",""
"animation","152","226119","0.0-5.0-2.73","6414cd5e294152ef610c1272","bdp_cybrbll","Sun Apr 09 2023 19:57:09 GMT-0500 (Central Daylight Time)","499776","3","1","","","","","","","","","","","152","","","","2","3","[{""stimulus"":""img/2to3/1.png"",""time"":101},{""stimulus"":""img/2to3/2.png"",""time"":199},{""stimulus"":""img/2to3/3.png"",""time"":298},{""stimulus"":""img/2to3/4.png"",""time"":397},{""stimulus"":""img/2to3/5.png"",""time"":496},{""stimulus"":""img/2to3/6.png"",""time"":595},{""stimulus"":""img/2to3/7.png"",""time"":694},{""stimulus"":""img/2to3/8.png"",""time"":796},{""stimulus"":""img/2to3/9.png"",""time"":892},{""stimulus"":""img/2to3/10.png"",""time"":990},{""stimulus"":""img/2to3/11.png"",""time"":1090},{""stimulus"":""img/2to3/12.png"",""time"":1189}]","[]"
"image-keyboard-response","153","226407","0.0-5.0-1.74","6414cd5e294152ef610c1272","bdp_cybrbll","Sun Apr 09 2023 19:57:09 GMT-0500 (Central Daylight Time)","499776","3","1","","null","","","","observe","","","img/3to2/1.png","null","151","287","0.5","0.5","3","2","",""
"animation","154","227695","0.0-5.0-2.74","6414cd5e294152ef610c1272","bdp_cybrbll","Sun Apr 09 2023 19:57:09 GMT-0500 (Central Daylight Time)","499776","3","1","","","","","","","","","","","151","","","","3","2","[{""stimulus"":""img/3to2/1.png"",""time"":100},{""stimulus"":""img/3to2/2.png"",""time"":200},{""stimulus"":""img/3to2/3.png"",""time"":298},{""stimulus"":""img/3to2/4.png"",""time"":397},{""stimulus"":""img/3to2/5.png"",""time"":496},{""stimulus"":""img/3to2/6.png"",""time"":594},{""stimulus"":""img/3to2/7.png"",""time"":694},{""stimulus"":""img/3to2/8.png"",""time"":793},{""stimulus"":""img/3to2/9.png"",""time"":891},{""stimulus"":""img/3to2/10.png"",""time"":991},{""stimulus"":""img/3to2/11.png"",""time"":1090},{""stimulus"":""img/3to2/12.png"",""time"":1189}]","[]"
"image-keyboard-response","155","228098","0.0-5.0-1.75","6414cd5e294152ef610c1272","bdp_cybrbll","Sun Apr 09 2023 19:57:09 GMT-0500 (Central Daylight Time)","499776","3","1","","402","","","","choice","","","img/2to1/1.png","1","150","379","0.5","0.5","2","1","",""
"animation","156","229386","0.0-5.0-2.75","6414cd5e294152ef610c1272","bdp_cybrbll","Sun Apr 09 2023 19:57:09 GMT-0500 (Central Daylight Time)","499776","3","1","","","","","","","","","","","150","","","","2","1","[{""stimulus"":""img/2to1/1.png"",""time"":100},{""stimulus"":""img/2to1/2.png"",""time"":199},{""stimulus"":""img/2to1/3.png"",""time"":298},{""stimulus"":""img/2to1/4.png"",""time"":398},{""stimulus"":""img/2to1/5.png"",""time"":497},{""stimulus"":""img/2to1/6.png"",""time"":595},{""stimulus"":""img/2to1/7.png"",""time"":694},{""stimulus"":""img/2to1/8.png"",""time"":793},{""stimulus"":""img/2to1/9.png"",""time"":892},{""stimulus"":""img/2to1/10.png"",""time"":992},{""stimulus"":""img/2to1/11.png"",""time"":1090},{""stimulus"":""img/2to1/12.png"",""time"":1190}]","[]"
"image-keyboard-response","157","229779","0.0-5.0-1.76","6414cd5e294152ef610c1272","bdp_cybrbll","Sun Apr 09 2023 19:57:09 GMT-0500 (Central Daylight Time)","499776","3","1","","null","","","","observe","","","img/1to3/1.png","null","149","392","0.5","0.1","1","3","",""
"animation","158","231067","0.0-5.0-2.76","6414cd5e294152ef610c1272","bdp_cybrbll","Sun Apr 09 2023 19:57:09 GMT-0500 (Central Daylight Time)","499776","3","1","","","","","","","","","","","149","","","","1","3","[{""stimulus"":""img/1to3/1.png"",""time"":100},{""stimulus"":""img/1to3/2.png"",""time"":201},{""stimulus"":""img/1to3/3.png"",""time"":298},{""stimulus"":""img/1to3/4.png"",""time"":398},{""stimulus"":""img/1to3/5.png"",""time"":496},{""stimulus"":""img/1to3/6.png"",""time"":595},{""stimulus"":""img/1to3/7.png"",""time"":694},{""stimulus"":""img/1to3/8.png"",""time"":793},{""stimulus"":""img/1to3/9.png"",""time"":893},{""stimulus"":""img/1to3/10.png"",""time"":991},{""stimulus"":""img/1to3/11.png"",""time"":1090},{""stimulus"":""img/1to3/12.png"",""time"":1189}]","[]"
"image-keyboard-response","159","231707","0.0-5.0-1.77","6414cd5e294152ef610c1272","bdp_cybrbll","Sun Apr 09 2023 19:57:09 GMT-0500 (Central Daylight Time)","499776","3","1","","null","","","","observe","","","img/3to2/1.png","null","148","639","0.5","0.1","3","2","",""
"animation","160","232996","0.0-5.0-2.77","6414cd5e294152ef610c1272","bdp_cybrbll","Sun Apr 09 2023 19:57:09 GMT-0500 (Central Daylight Time)","499776","3","1","","","","","","","","","","","148","","","","3","2","[{""stimulus"":""img/3to2/1.png"",""time"":100},{""stimulus"":""img/3to2/2.png"",""time"":200},{""stimulus"":""img/3to2/3.png"",""time"":299},{""stimulus"":""img/3to2/4.png"",""time"":397},{""stimulus"":""img/3to2/5.png"",""time"":497},{""stimulus"":""img/3to2/6.png"",""time"":595},{""stimulus"":""img/3to2/7.png"",""time"":695},{""stimulus"":""img/3to2/8.png"",""time"":793},{""stimulus"":""img/3to2/9.png"",""time"":893},{""stimulus"":""img/3to2/10.png"",""time"":991},{""stimulus"":""img/3to2/11.png"",""time"":1090},{""stimulus"":""img/3to2/12.png"",""time"":1190}]","[]"
"image-keyboard-response","161","233130","0.0-5.0-1.78","6414cd5e294152ef610c1272","bdp_cybrbll","Sun Apr 09 2023 19:57:09 GMT-0500 (Central Daylight Time)","499776","3","1","","134","","","","choice","","","img/2to1/1.png","1","147","501","0.5","0.1","2","1","",""
"animation","162","234419","0.0-5.0-2.78","6414cd5e294152ef610c1272","bdp_cybrbll","Sun Apr 09 2023 19:57:09 GMT-0500 (Central Daylight Time)","499776","3","1","","","","","","","","","","","147","","","","2","1","[{""stimulus"":""img/2to1/1.png"",""time"":100},{""stimulus"":""img/2to1/2.png"",""time"":199},{""stimulus"":""img/2to1/3.png"",""time"":298},{""stimulus"":""img/2to1/4.png"",""time"":398},{""stimulus"":""img/2to1/5.png"",""time"":497},{""stimulus"":""img/2to1/6.png"",""time"":595},{""stimulus"":""img/2to1/7.png"",""time"":694},{""stimulus"":""img/2to1/8.png"",""time"":793},{""stimulus"":""img/2to1/9.png"",""time"":892},{""stimulus"":""img/2to1/10.png"",""time"":991},{""stimulus"":""img/2to1/11.png"",""time"":1091},{""stimulus"":""img/2to1/12.png"",""time"":1189}]","[]"
"image-keyboard-response","163","235892","0.0-5.0-1.79","6414cd5e294152ef610c1272","bdp_cybrbll","Sun Apr 09 2023 19:57:09 GMT-0500 (Central Daylight Time)","499776","3","1","","null","","","","observe","","","img/1to3/1.png","null","146","1472","0.5","0.1","1","3","",""
"animation","164","237180","0.0-5.0-2.79","6414cd5e294152ef610c1272","bdp_cybrbll","Sun Apr 09 2023 19:57:09 GMT-0500 (Central Daylight Time)","499776","3","1","","","","","","","","","","","146","","","","1","3","[{""stimulus"":""img/1to3/1.png"",""time"":100},{""stimulus"":""img/1to3/2.png"",""time"":199},{""stimulus"":""img/1to3/3.png"",""time"":299},{""stimulus"":""img/1to3/4.png"",""time"":397},{""stimulus"":""img/1to3/5.png"",""time"":496},{""stimulus"":""img/1to3/6.png"",""time"":596},{""stimulus"":""img/1to3/7.png"",""time"":695},{""stimulus"":""img/1to3/8.png"",""time"":793},{""stimulus"":""img/1to3/9.png"",""time"":892},{""stimulus"":""img/1to3/10.png"",""time"":992},{""stimulus"":""img/1to3/11.png"",""time"":1092},{""stimulus"":""img/1to3/12.png"",""time"":1189}]","[]"
"image-keyboard-response","165","238191","0.0-5.0-1.80","6414cd5e294152ef610c1272","bdp_cybrbll","Sun Apr 09 2023 19:57:09 GMT-0500 (Central Daylight Time)","499776","3","1","","null","","","","observe","","","img/3to2/1.png","null","145","1010","0.5","0.1","3","1","",""
"animation","166","239479","0.0-5.0-2.80","6414cd5e294152ef610c1272","bdp_cybrbll","Sun Apr 09 2023 19:57:09 GMT-0500 (Central Daylight Time)","499776","3","1","","","","","","","","","","","145","","","","3","1","[{""stimulus"":""img/3to1/1.png"",""time"":99},{""stimulus"":""img/3to1/2.png"",""time"":199},{""stimulus"":""img/3to1/3.png"",""time"":298},{""stimulus"":""img/3to1/4.png"",""time"":396},{""stimulus"":""img/3to1/5.png"",""time"":496},{""stimulus"":""img/3to1/6.png"",""time"":594},{""stimulus"":""img/3to1/7.png"",""time"":694},{""stimulus"":""img/3to1/8.png"",""time"":793},{""stimulus"":""img/3to1/9.png"",""time"":891},{""stimulus"":""img/3to1/10.png"",""time"":991},{""stimulus"":""img/3to1/11.png"",""time"":1091},{""stimulus"":""img/3to1/12.png"",""time"":1189}]","[]"
"image-keyboard-response","167","241047","0.0-5.0-1.81","6414cd5e294152ef610c1272","bdp_cybrbll","Sun Apr 09 2023 19:57:09 GMT-0500 (Central Daylight Time)","499776","3","1","","null","","","","observe","","","img/1to3/1.png","null","144","1567","0.5","0.1","1","3","",""
"animation","168","242335","0.0-5.0-2.81","6414cd5e294152ef610c1272","bdp_cybrbll","Sun Apr 09 2023 19:57:09 GMT-0500 (Central Daylight Time)","499776","3","1","","","","","","","","","","","144","","","","1","3","[{""stimulus"":""img/1to3/1.png"",""time"":100},{""stimulus"":""img/1to3/2.png"",""time"":199},{""stimulus"":""img/1to3/3.png"",""time"":298},{""stimulus"":""img/1to3/4.png"",""time"":397},{""stimulus"":""img/1to3/5.png"",""time"":495},{""stimulus"":""img/1to3/6.png"",""time"":595},{""stimulus"":""img/1to3/7.png"",""time"":693},{""stimulus"":""img/1to3/8.png"",""time"":793},{""stimulus"":""img/1to3/9.png"",""time"":892},{""stimulus"":""img/1to3/10.png"",""time"":991},{""stimulus"":""img/1to3/11.png"",""time"":1090},{""stimulus"":""img/1to3/12.png"",""time"":1189}]","[]"
"image-keyboard-response","169","242724","0.0-5.0-1.82","6414cd5e294152ef610c1272","bdp_cybrbll","Sun Apr 09 2023 19:57:09 GMT-0500 (Central Daylight Time)","499776","3","1","","null","","","","observe","","","img/3to2/1.png","null","143","388","0.5","0.1","3","2","",""
"animation","170","244012","0.0-5.0-2.82","6414cd5e294152ef610c1272","bdp_cybrbll","Sun Apr 09 2023 19:57:09 GMT-0500 (Central Daylight Time)","499776","3","1","","","","","","","","","","","143","","","","3","2","[{""stimulus"":""img/3to2/1.png"",""time"":100},{""stimulus"":""img/3to2/2.png"",""time"":199},{""stimulus"":""img/3to2/3.png"",""time"":298},{""stimulus"":""img/3to2/4.png"",""time"":397},{""stimulus"":""img/3to2/5.png"",""time"":497},{""stimulus"":""img/3to2/6.png"",""time"":596},{""stimulus"":""img/3to2/7.png"",""time"":694},{""stimulus"":""img/3to2/8.png"",""time"":794},{""stimulus"":""img/3to2/9.png"",""time"":892},{""stimulus"":""img/3to2/10.png"",""time"":991},{""stimulus"":""img/3to2/11.png"",""time"":1091},{""stimulus"":""img/3to2/12.png"",""time"":1189}]","[]"
"image-keyboard-response","171","244333","0.0-5.0-1.83","6414cd5e294152ef610c1272","bdp_cybrbll","Sun Apr 09 2023 19:57:09 GMT-0500 (Central Daylight Time)","499776","3","1","","320","","","","choice","","","img/2to1/1.png","2","142","319","0.5","0.1","2","3","",""
"animation","172","245621","0.0-5.0-2.83","6414cd5e294152ef610c1272","bdp_cybrbll","Sun Apr 09 2023 19:57:09 GMT-0500 (Central Daylight Time)","499776","3","1","","","","","","","","","","","142","","","","2","3","[{""stimulus"":""img/2to3/1.png"",""time"":100},{""stimulus"":""img/2to3/2.png"",""time"":199},{""stimulus"":""img/2to3/3.png"",""time"":298},{""stimulus"":""img/2to3/4.png"",""time"":397},{""stimulus"":""img/2to3/5.png"",""time"":496},{""stimulus"":""img/2to3/6.png"",""time"":595},{""stimulus"":""img/2to3/7.png"",""time"":695},{""stimulus"":""img/2to3/8.png"",""time"":794},{""stimulus"":""img/2to3/9.png"",""time"":892},{""stimulus"":""img/2to3/10.png"",""time"":991},{""stimulus"":""img/2to3/11.png"",""time"":1090},{""stimulus"":""img/2to3/12.png"",""time"":1189}]","[]"
"image-keyboard-response","173","246239","0.0-5.0-1.84","6414cd5e294152ef610c1272","bdp_cybrbll","Sun Apr 09 2023 19:57:09 GMT-0500 (Central Daylight Time)","499776","3","1","","null","","","","observe","","","img/3to2/1.png","null","141","616","0.5","0.1","3","1","",""
"animation","174","247526","0.0-5.0-2.84","6414cd5e294152ef610c1272","bdp_cybrbll","Sun Apr 09 2023 19:57:09 GMT-0500 (Central Daylight Time)","499776","3","1","","","","","","","","","","","141","","","","3","1","[{""stimulus"":""img/3to1/1.png"",""time"":100},{""stimulus"":""img/3to1/2.png"",""time"":199},{""stimulus"":""img/3to1/3.png"",""time"":298},{""stimulus"":""img/3to1/4.png"",""time"":397},{""stimulus"":""img/3to1/5.png"",""time"":496},{""stimulus"":""img/3to1/6.png"",""time"":595},{""stimulus"":""img/3to1/7.png"",""time"":693},{""stimulus"":""img/3to1/8.png"",""time"":793},{""stimulus"":""img/3to1/9.png"",""time"":892},{""stimulus"":""img/3to1/10.png"",""time"":992},{""stimulus"":""img/3to1/11.png"",""time"":1090},{""stimulus"":""img/3to1/12.png"",""time"":1190}]","[]"
"image-keyboard-response","175","248073","0.0-5.0-1.85","6414cd5e294152ef610c1272","bdp_cybrbll","Sun Apr 09 2023 19:57:09 GMT-0500 (Central Daylight Time)","499776","3","1","","null","","","","observe","","","img/1to3/1.png","null","140","546","0.5","0.1","1","3","",""
"animation","176","249362","0.0-5.0-2.85","6414cd5e294152ef610c1272","bdp_cybrbll","Sun Apr 09 2023 19:57:09 GMT-0500 (Central Daylight Time)","499776","3","1","","","","","","","","","","","140","","","","1","3","[{""stimulus"":""img/1to3/1.png"",""time"":101},{""stimulus"":""img/1to3/2.png"",""time"":199},{""stimulus"":""img/1to3/3.png"",""time"":298},{""stimulus"":""img/1to3/4.png"",""time"":398},{""stimulus"":""img/1to3/5.png"",""time"":497},{""stimulus"":""img/1to3/6.png"",""time"":595},{""stimulus"":""img/1to3/7.png"",""time"":694},{""stimulus"":""img/1to3/8.png"",""time"":794},{""stimulus"":""img/1to3/9.png"",""time"":893},{""stimulus"":""img/1to3/10.png"",""time"":992},{""stimulus"":""img/1to3/11.png"",""time"":1091},{""stimulus"":""img/1to3/12.png"",""time"":1189}]","[]"
"image-keyboard-response","177","250394","0.0-5.0-1.86","6414cd5e294152ef610c1272","bdp_cybrbll","Sun Apr 09 2023 19:57:09 GMT-0500 (Central Daylight Time)","499776","3","1","","null","","","","observe","","","img/3to2/1.png","null","139","1031","0.5","0.1","3","2","",""
"animation","178","251682","0.0-5.0-2.86","6414cd5e294152ef610c1272","bdp_cybrbll","Sun Apr 09 2023 19:57:09 GMT-0500 (Central Daylight Time)","499776","3","1","","","","","","","","","","","139","","","","3","2","[{""stimulus"":""img/3to2/1.png"",""time"":100},{""stimulus"":""img/3to2/2.png"",""time"":199},{""stimulus"":""img/3to2/3.png"",""time"":298},{""stimulus"":""img/3to2/4.png"",""time"":397},{""stimulus"":""img/3to2/5.png"",""time"":496},{""stimulus"":""img/3to2/6.png"",""time"":596},{""stimulus"":""img/3to2/7.png"",""time"":694},{""stimulus"":""img/3to2/8.png"",""time"":794},{""stimulus"":""img/3to2/9.png"",""time"":893},{""stimulus"":""img/3to2/10.png"",""time"":992},{""stimulus"":""img/3to2/11.png"",""time"":1091},{""stimulus"":""img/3to2/12.png"",""time"":1189}]","[]"
"image-keyboard-response","179","252202","0.0-5.0-1.87","6414cd5e294152ef610c1272","bdp_cybrbll","Sun Apr 09 2023 19:57:09 GMT-0500 (Central Daylight Time)","499776","3","1","","520","","","","choice","","","img/2to1/1.png","1","138","909","0.5","0.1","2","1","",""
"animation","180","253490","0.0-5.0-2.87","6414cd5e294152ef610c1272","bdp_cybrbll","Sun Apr 09 2023 19:57:09 GMT-0500 (Central Daylight Time)","499776","3","1","","","","","","","","","","","138","","","","2","1","[{""stimulus"":""img/2to1/1.png"",""time"":100},{""stimulus"":""img/2to1/2.png"",""time"":199},{""stimulus"":""img/2to1/3.png"",""time"":298},{""stimulus"":""img/2to1/4.png"",""time"":397},{""stimulus"":""img/2to1/5.png"",""time"":496},{""stimulus"":""img/2to1/6.png"",""time"":595},{""stimulus"":""img/2to1/7.png"",""time"":695},{""stimulus"":""img/2to1/8.png"",""time"":793},{""stimulus"":""img/2to1/9.png"",""time"":893},{""stimulus"":""img/2to1/10.png"",""time"":991},{""stimulus"":""img/2to1/11.png"",""time"":1090},{""stimulus"":""img/2to1/12.png"",""time"":1189}]","[]"
"image-keyboard-response","181","254291","0.0-5.0-1.88","6414cd5e294152ef610c1272","bdp_cybrbll","Sun Apr 09 2023 19:57:09 GMT-0500 (Central Daylight Time)","499776","3","1","","null","","","","observe","","","img/1to3/1.png","null","137","800","0.5","0.1","1","3","",""
"animation","182","255580","0.0-5.0-2.88","6414cd5e294152ef610c1272","bdp_cybrbll","Sun Apr 09 2023 19:57:09 GMT-0500 (Central Daylight Time)","499776","3","1","","","","","","","","","","","137","","","","1","3","[{""stimulus"":""img/1to3/1.png"",""time"":101},{""stimulus"":""img/1to3/2.png"",""time"":199},{""stimulus"":""img/1to3/3.png"",""time"":299},{""stimulus"":""img/1to3/4.png"",""time"":398},{""stimulus"":""img/1to3/5.png"",""time"":497},{""stimulus"":""img/1to3/6.png"",""time"":595},{""stimulus"":""img/1to3/7.png"",""time"":694},{""stimulus"":""img/1to3/8.png"",""time"":793},{""stimulus"":""img/1to3/9.png"",""time"":892},{""stimulus"":""img/1to3/10.png"",""time"":991},{""stimulus"":""img/1to3/11.png"",""time"":1090},{""stimulus"":""img/1to3/12.png"",""time"":1189}]","[]"
"image-keyboard-response","183","255881","0.0-5.0-1.89","6414cd5e294152ef610c1272","bdp_cybrbll","Sun Apr 09 2023 19:57:09 GMT-0500 (Central Daylight Time)","499776","3","1","","null","","","","observe","","","img/3to2/1.png","null","136","300","0.5","0.1","3","1","",""
"animation","184","257170","0.0-5.0-2.89","6414cd5e294152ef610c1272","bdp_cybrbll","Sun Apr 09 2023 19:57:09 GMT-0500 (Central Daylight Time)","499776","3","1","","","","","","","","","","","136","","","","3","1","[{""stimulus"":""img/3to1/1.png"",""time"":101},{""stimulus"":""img/3to1/2.png"",""time"":199},{""stimulus"":""img/3to1/3.png"",""time"":299},{""stimulus"":""img/3to1/4.png"",""time"":397},{""stimulus"":""img/3to1/5.png"",""time"":497},{""stimulus"":""img/3to1/6.png"",""time"":596},{""stimulus"":""img/3to1/7.png"",""time"":694},{""stimulus"":""img/3to1/8.png"",""time"":793},{""stimulus"":""img/3to1/9.png"",""time"":892},{""stimulus"":""img/3to1/10.png"",""time"":991},{""stimulus"":""img/3to1/11.png"",""time"":1090},{""stimulus"":""img/3to1/12.png"",""time"":1190}]","[]"
"image-keyboard-response","185","257581","0.0-5.0-1.90","6414cd5e294152ef610c1272","bdp_cybrbll","Sun Apr 09 2023 19:57:09 GMT-0500 (Central Daylight Time)","499776","3","1","","null","","","","observe","","","img/1to3/1.png","null","135","410","0.5","0.1","1","3","",""
"animation","186","258869","0.0-5.0-2.90","6414cd5e294152ef610c1272","bdp_cybrbll","Sun Apr 09 2023 19:57:09 GMT-0500 (Central Daylight Time)","499776","3","1","","","","","","","","","","","135","","","","1","3","[{""stimulus"":""img/1to3/1.png"",""time"":99},{""stimulus"":""img/1to3/2.png"",""time"":198},{""stimulus"":""img/1to3/3.png"",""time"":298},{""stimulus"":""img/1to3/4.png"",""time"":397},{""stimulus"":""img/1to3/5.png"",""time"":496},{""stimulus"":""img/1to3/6.png"",""time"":595},{""stimulus"":""img/1to3/7.png"",""time"":693},{""stimulus"":""img/1to3/8.png"",""time"":792},{""stimulus"":""img/1to3/9.png"",""time"":891},{""stimulus"":""img/1to3/10.png"",""time"":990},{""stimulus"":""img/1to3/11.png"",""time"":1089},{""stimulus"":""img/1to3/12.png"",""time"":1188}]","[]"
"image-keyboard-response","187","259285","0.0-5.0-1.91","6414cd5e294152ef610c1272","bdp_cybrbll","Sun Apr 09 2023 19:57:09 GMT-0500 (Central Daylight Time)","499776","3","1","","null","","","","observe","","","img/3to2/1.png","null","134","415","0.5","0.1","3","2","",""
"animation","188","260574","0.0-5.0-2.91","6414cd5e294152ef610c1272","bdp_cybrbll","Sun Apr 09 2023 19:57:09 GMT-0500 (Central Daylight Time)","499776","3","1","","","","","","","","","","","134","","","","3","2","[{""stimulus"":""img/3to2/1.png"",""time"":100},{""stimulus"":""img/3to2/2.png"",""time"":199},{""stimulus"":""img/3to2/3.png"",""time"":299},{""stimulus"":""img/3to2/4.png"",""time"":397},{""stimulus"":""img/3to2/5.png"",""time"":496},{""stimulus"":""img/3to2/6.png"",""time"":596},{""stimulus"":""img/3to2/7.png"",""time"":694},{""stimulus"":""img/3to2/8.png"",""time"":794},{""stimulus"":""img/3to2/9.png"",""time"":894},{""stimulus"":""img/3to2/10.png"",""time"":992},{""stimulus"":""img/3to2/11.png"",""time"":1090},{""stimulus"":""img/3to2/12.png"",""time"":1190}]","[]"
