"trial_type","trial_index","time_elapsed","internal_node_id","subject_id","task","startTime","totalTime","fairPartner","unfairPartner","view_history","rt","event","trial","time","trialtype","success","stimulus","key_press","throwsLeft","rtDur","pFair","pUnfair","holder","receiver","animation_sequence","responses"
"pavlovia","0","2","0.0-0.0","5d3bcf190e510a001b3df200","bdp_cybrbll","Sun Mar 26 2023 15:22:46 GMT-0500 (Central Daylight Time)","417838","1","3","","","","","","","","","","","","","","","","",""
"instructions","1","1329","0.0-1.0","5d3bcf190e510a001b3df200","bdp_cybrbll","Sun Mar 26 2023 15:22:46 GMT-0500 (Central Daylight Time)","417838","1","3","[{""page_index"":0,""viewing_time"":1327}]","1327","","","","","","","","","","","","","","",""
"","","","","5d3bcf190e510a001b3df200","bdp_cybrbll","Sun Mar 26 2023 15:22:46 GMT-0500 (Central Daylight Time)","417838","1","3","","","fullscreenenter","2","2900","fullscreenenter","","","","","","","","","","",""
"fullscreen","2","3897","0.0-2.0","5d3bcf190e510a001b3df200","bdp_cybrbll","Sun Mar 26 2023 15:22:46 GMT-0500 (Central Daylight Time)","417838","1","3","","","","","","","true","","","","","","","","","",""
"instructions","3","23202","0.0-4.0","5d3bcf190e510a001b3df200","bdp_cybrbll","Sun Mar 26 2023 15:22:46 GMT-0500 (Central Daylight Time)","417838","1","3","[{""page_index"":0,""viewing_time"":19303}]","19304","","","","","","","","","","","","","","",""
"image-keyboard-response","4","24976","0.0-5.0-1.0","5d3bcf190e510a001b3df200","bdp_cybrbll","Sun Mar 26 2023 15:22:46 GMT-0500 (Central Daylight Time)","417838","1","3","","1772","","","","choice","","img/2to1/1.png","1","225","350","0.5","0.5","2","1","",""
"animation","5","26277","0.0-5.0-2.0","5d3bcf190e510a001b3df200","bdp_cybrbll","Sun Mar 26 2023 15:22:46 GMT-0500 (Central Daylight Time)","417838","1","3","","","","","","","","","","225","","","","2","1","[{""stimulus"":""img/2to1/1.png"",""time"":110},{""stimulus"":""img/2to1/2.png"",""time"":211},{""stimulus"":""img/2to1/3.png"",""time"":300},{""stimulus"":""img/2to1/4.png"",""time"":405},{""stimulus"":""img/2to1/5.png"",""time"":500},{""stimulus"":""img/2to1/6.png"",""time"":610},{""stimulus"":""img/2to1/7.png"",""time"":702},{""stimulus"":""img/2to1/8.png"",""time"":805},{""stimulus"":""img/2to1/9.png"",""time"":902},{""stimulus"":""img/2to1/10.png"",""time"":1003},{""stimulus"":""img/2to1/11.png"",""time"":1103},{""stimulus"":""img/2to1/12.png"",""time"":1203}]","[]"
"image-keyboard-response","6","26592","0.0-5.0-1.1","5d3bcf190e510a001b3df200","bdp_cybrbll","Sun Mar 26 2023 15:22:46 GMT-0500 (Central Daylight Time)","417838","1","3","","null","","","","observe","","img/1to3/1.png","null","224","303","0.5","0.5","1","3","",""
"animation","7","27894","0.0-5.0-2.1","5d3bcf190e510a001b3df200","bdp_cybrbll","Sun Mar 26 2023 15:22:46 GMT-0500 (Central Daylight Time)","417838","1","3","","","","","","","","","","224","","","","1","3","[{""stimulus"":""img/1to3/1.png"",""time"":111},{""stimulus"":""img/1to3/2.png"",""time"":208},{""stimulus"":""img/1to3/3.png"",""time"":307},{""stimulus"":""img/1to3/4.png"",""time"":403},{""stimulus"":""img/1to3/5.png"",""time"":499},{""stimulus"":""img/1to3/6.png"",""time"":597},{""stimulus"":""img/1to3/7.png"",""time"":698},{""stimulus"":""img/1to3/8.png"",""time"":795},{""stimulus"":""img/1to3/9.png"",""time"":899},{""stimulus"":""img/1to3/10.png"",""time"":993},{""stimulus"":""img/1to3/11.png"",""time"":1102},{""stimulus"":""img/1to3/12.png"",""time"":1193}]","[]"
"image-keyboard-response","8","28456","0.0-5.0-1.2","5d3bcf190e510a001b3df200","bdp_cybrbll","Sun Mar 26 2023 15:22:46 GMT-0500 (Central Daylight Time)","417838","1","3","","null","","","","observe","","img/3to2/1.png","null","223","559","0.5","0.5","3","2","",""
"animation","9","29749","0.0-5.0-2.2","5d3bcf190e510a001b3df200","bdp_cybrbll","Sun Mar 26 2023 15:22:46 GMT-0500 (Central Daylight Time)","417838","1","3","","","","","","","","","","223","","","","3","2","[{""stimulus"":""img/3to2/1.png"",""time"":104},{""stimulus"":""img/3to2/2.png"",""time"":212},{""stimulus"":""img/3to2/3.png"",""time"":300},{""stimulus"":""img/3to2/4.png"",""time"":400},{""stimulus"":""img/3to2/5.png"",""time"":498},{""stimulus"":""img/3to2/6.png"",""time"":599},{""stimulus"":""img/3to2/7.png"",""time"":697},{""stimulus"":""img/3to2/8.png"",""time"":803},{""stimulus"":""img/3to2/9.png"",""time"":892},{""stimulus"":""img/3to2/10.png"",""time"":997},{""stimulus"":""img/3to2/11.png"",""time"":1094},{""stimulus"":""img/3to2/12.png"",""time"":1192}]","[]"
"image-keyboard-response","10","30304","0.0-5.0-1.3","5d3bcf190e510a001b3df200","bdp_cybrbll","Sun Mar 26 2023 15:22:46 GMT-0500 (Central Daylight Time)","417838","1","3","","555","","","","choice","","img/2to1/1.png","1","222","346","0.5","0.5","2","1","",""
"animation","11","31598","0.0-5.0-2.3","5d3bcf190e510a001b3df200","bdp_cybrbll","Sun Mar 26 2023 15:22:46 GMT-0500 (Central Daylight Time)","417838","1","3","","","","","","","","","","222","","","","2","1","[{""stimulus"":""img/2to1/1.png"",""time"":102},{""stimulus"":""img/2to1/2.png"",""time"":201},{""stimulus"":""img/2to1/3.png"",""time"":300},{""stimulus"":""img/2to1/4.png"",""time"":401},{""stimulus"":""img/2to1/5.png"",""time"":509},{""stimulus"":""img/2to1/6.png"",""time"":599},{""stimulus"":""img/2to1/7.png"",""time"":697},{""stimulus"":""img/2to1/8.png"",""time"":795},{""stimulus"":""img/2to1/9.png"",""time"":894},{""stimulus"":""img/2to1/10.png"",""time"":992},{""stimulus"":""img/2to1/11.png"",""time"":1094},{""stimulus"":""img/2to1/12.png"",""time"":1194}]","[]"
"image-keyboard-response","12","32138","0.0-5.0-1.4","5d3bcf190e510a001b3df200","bdp_cybrbll","Sun Mar 26 2023 15:22:46 GMT-0500 (Central Daylight Time)","417838","1","3","","null","","","","observe","","img/1to3/1.png","null","221","536","0.5","0.5","1","2","",""
"animation","13","33429","0.0-5.0-2.4","5d3bcf190e510a001b3df200","bdp_cybrbll","Sun Mar 26 2023 15:22:46 GMT-0500 (Central Daylight Time)","417838","1","3","","","","","","","","","","221","","","","1","2","[{""stimulus"":""img/1to2/1.png"",""time"":100},{""stimulus"":""img/1to2/2.png"",""time"":202},{""stimulus"":""img/1to2/3.png"",""time"":301},{""stimulus"":""img/1to2/4.png"",""time"":399},{""stimulus"":""img/1to2/5.png"",""time"":496},{""stimulus"":""img/1to2/6.png"",""time"":602},{""stimulus"":""img/1to2/7.png"",""time"":696},{""stimulus"":""img/1to2/8.png"",""time"":800},{""stimulus"":""img/1to2/9.png"",""time"":898},{""stimulus"":""img/1to2/10.png"",""time"":996},{""stimulus"":""img/1to2/11.png"",""time"":1093},{""stimulus"":""img/1to2/12.png"",""time"":1192}]","[]"
"image-keyboard-response","14","33958","0.0-5.0-1.5","5d3bcf190e510a001b3df200","bdp_cybrbll","Sun Mar 26 2023 15:22:46 GMT-0500 (Central Daylight Time)","417838","1","3","","527","","","","choice","","img/2to1/1.png","2","220","276","0.5","0.5","2","3","",""
"animation","15","35246","0.0-5.0-2.5","5d3bcf190e510a001b3df200","bdp_cybrbll","Sun Mar 26 2023 15:22:46 GMT-0500 (Central Daylight Time)","417838","1","3","","","","","","","","","","220","","","","2","3","[{""stimulus"":""img/2to3/1.png"",""time"":105},{""stimulus"":""img/2to3/2.png"",""time"":204},{""stimulus"":""img/2to3/3.png"",""time"":301},{""stimulus"":""img/2to3/4.png"",""time"":399},{""stimulus"":""img/2to3/5.png"",""time"":497},{""stimulus"":""img/2to3/6.png"",""time"":595},{""stimulus"":""img/2to3/7.png"",""time"":700},{""stimulus"":""img/2to3/8.png"",""time"":800},{""stimulus"":""img/2to3/9.png"",""time"":891},{""stimulus"":""img/2to3/10.png"",""time"":991},{""stimulus"":""img/2to3/11.png"",""time"":1090},{""stimulus"":""img/2to3/12.png"",""time"":1191}]","[]"
"image-keyboard-response","16","36119","0.0-5.0-1.6","5d3bcf190e510a001b3df200","bdp_cybrbll","Sun Mar 26 2023 15:22:46 GMT-0500 (Central Daylight Time)","417838","1","3","","null","","","","observe","","img/3to2/1.png","null","219","871","0.5","0.5","3","1","",""
"animation","17","37409","0.0-5.0-2.6","5d3bcf190e510a001b3df200","bdp_cybrbll","Sun Mar 26 2023 15:22:46 GMT-0500 (Central Daylight Time)","417838","1","3","","","","","","","","","","219","","","","3","1","[{""stimulus"":""img/3to1/1.png"",""time"":107},{""stimulus"":""img/3to1/2.png"",""time"":204},{""stimulus"":""img/3to1/3.png"",""time"":302},{""stimulus"":""img/3to1/4.png"",""time"":401},{""stimulus"":""img/3to1/5.png"",""time"":500},{""stimulus"":""img/3to1/6.png"",""time"":598},{""stimulus"":""img/3to1/7.png"",""time"":695},{""stimulus"":""img/3to1/8.png"",""time"":793},{""stimulus"":""img/3to1/9.png"",""time"":898},{""stimulus"":""img/3to1/10.png"",""time"":997},{""stimulus"":""img/3to1/11.png"",""time"":1095},{""stimulus"":""img/3to1/12.png"",""time"":1193}]","[]"
"image-keyboard-response","18","37737","0.0-5.0-1.7","5d3bcf190e510a001b3df200","bdp_cybrbll","Sun Mar 26 2023 15:22:46 GMT-0500 (Central Daylight Time)","417838","1","3","","null","","","","observe","","img/1to3/1.png","null","218","324","0.5","0.5","1","2","",""
"animation","19","39032","0.0-5.0-2.7","5d3bcf190e510a001b3df200","bdp_cybrbll","Sun Mar 26 2023 15:22:46 GMT-0500 (Central Daylight Time)","417838","1","3","","","","","","","","","","218","","","","1","2","[{""stimulus"":""img/1to2/1.png"",""time"":100},{""stimulus"":""img/1to2/2.png"",""time"":205},{""stimulus"":""img/1to2/3.png"",""time"":306},{""stimulus"":""img/1to2/4.png"",""time"":403},{""stimulus"":""img/1to2/5.png"",""time"":502},{""stimulus"":""img/1to2/6.png"",""time"":600},{""stimulus"":""img/1to2/7.png"",""time"":699},{""stimulus"":""img/1to2/8.png"",""time"":806},{""stimulus"":""img/1to2/9.png"",""time"":895},{""stimulus"":""img/1to2/10.png"",""time"":996},{""stimulus"":""img/1to2/11.png"",""time"":1097},{""stimulus"":""img/1to2/12.png"",""time"":1196}]","[]"
"image-keyboard-response","20","39386","0.0-5.0-1.8","5d3bcf190e510a001b3df200","bdp_cybrbll","Sun Mar 26 2023 15:22:46 GMT-0500 (Central Daylight Time)","417838","1","3","","353","","","","choice","","img/2to1/1.png","1","217","510","0.5","0.5","2","1","",""
"animation","21","40679","0.0-5.0-2.8","5d3bcf190e510a001b3df200","bdp_cybrbll","Sun Mar 26 2023 15:22:46 GMT-0500 (Central Daylight Time)","417838","1","3","","","","","","","","","","217","","","","2","1","[{""stimulus"":""img/2to1/1.png"",""time"":106},{""stimulus"":""img/2to1/2.png"",""time"":204},{""stimulus"":""img/2to1/3.png"",""time"":304},{""stimulus"":""img/2to1/4.png"",""time"":411},{""stimulus"":""img/2to1/5.png"",""time"":502},{""stimulus"":""img/2to1/6.png"",""time"":601},{""stimulus"":""img/2to1/7.png"",""time"":699},{""stimulus"":""img/2to1/8.png"",""time"":800},{""stimulus"":""img/2to1/9.png"",""time"":898},{""stimulus"":""img/2to1/10.png"",""time"":998},{""stimulus"":""img/2to1/11.png"",""time"":1097},{""stimulus"":""img/2to1/12.png"",""time"":1195}]","[]"
"image-keyboard-response","22","41053","0.0-5.0-1.9","5d3bcf190e510a001b3df200","bdp_cybrbll","Sun Mar 26 2023 15:22:46 GMT-0500 (Central Daylight Time)","417838","1","3","","null","","","","observe","","img/1to3/1.png","null","216","372","0.5","0.5","1","3","",""
"animation","23","42343","0.0-5.0-2.9","5d3bcf190e510a001b3df200","bdp_cybrbll","Sun Mar 26 2023 15:22:46 GMT-0500 (Central Daylight Time)","417838","1","3","","","","","","","","","","216","","","","1","3","[{""stimulus"":""img/1to3/1.png"",""time"":107},{""stimulus"":""img/1to3/2.png"",""time"":205},{""stimulus"":""img/1to3/3.png"",""time"":305},{""stimulus"":""img/1to3/4.png"",""time"":404},{""stimulus"":""img/1to3/5.png"",""time"":502},{""stimulus"":""img/1to3/6.png"",""time"":600},{""stimulus"":""img/1to3/7.png"",""time"":699},{""stimulus"":""img/1to3/8.png"",""time"":798},{""stimulus"":""img/1to3/9.png"",""time"":895},{""stimulus"":""img/1to3/10.png"",""time"":994},{""stimulus"":""img/1to3/11.png"",""time"":1092},{""stimulus"":""img/1to3/12.png"",""time"":1191}]","[]"
"image-keyboard-response","24","42942","0.0-5.0-1.10","5d3bcf190e510a001b3df200","bdp_cybrbll","Sun Mar 26 2023 15:22:46 GMT-0500 (Central Daylight Time)","417838","1","3","","null","","","","observe","","img/3to2/1.png","null","215","597","0.5","0.5","3","1","",""
"animation","25","44237","0.0-5.0-2.10","5d3bcf190e510a001b3df200","bdp_cybrbll","Sun Mar 26 2023 15:22:46 GMT-0500 (Central Daylight Time)","417838","1","3","","","","","","","","","","215","","","","3","1","[{""stimulus"":""img/3to1/1.png"",""time"":102},{""stimulus"":""img/3to1/2.png"",""time"":201},{""stimulus"":""img/3to1/3.png"",""time"":302},{""stimulus"":""img/3to1/4.png"",""time"":403},{""stimulus"":""img/3to1/5.png"",""time"":502},{""stimulus"":""img/3to1/6.png"",""time"":595},{""stimulus"":""img/3to1/7.png"",""time"":701},{""stimulus"":""img/3to1/8.png"",""time"":796},{""stimulus"":""img/3to1/9.png"",""time"":894},{""stimulus"":""img/3to1/10.png"",""time"":991},{""stimulus"":""img/3to1/11.png"",""time"":1090},{""stimulus"":""img/3to1/12.png"",""time"":1196}]","[]"
"image-keyboard-response","26","44426","0.0-5.0-1.11","5d3bcf190e510a001b3df200","bdp_cybrbll","Sun Mar 26 2023 15:22:46 GMT-0500 (Central Daylight Time)","417838","1","3","","null","","","","observe","","img/1to3/1.png","null","214","188","0.5","0.5","1","2","",""
"animation","27","45720","0.0-5.0-2.11","5d3bcf190e510a001b3df200","bdp_cybrbll","Sun Mar 26 2023 15:22:46 GMT-0500 (Central Daylight Time)","417838","1","3","","","","","","","","","","214","","","","1","2","[{""stimulus"":""img/1to2/1.png"",""time"":102},{""stimulus"":""img/1to2/2.png"",""time"":201},{""stimulus"":""img/1to2/3.png"",""time"":299},{""stimulus"":""img/1to2/4.png"",""time"":397},{""stimulus"":""img/1to2/5.png"",""time"":497},{""stimulus"":""img/1to2/6.png"",""time"":596},{""stimulus"":""img/1to2/7.png"",""time"":697},{""stimulus"":""img/1to2/8.png"",""time"":797},{""stimulus"":""img/1to2/9.png"",""time"":898},{""stimulus"":""img/1to2/10.png"",""time"":996},{""stimulus"":""img/1to2/11.png"",""time"":1097},{""stimulus"":""img/1to2/12.png"",""time"":1197}]","[]"
"image-keyboard-response","28","45790","0.0-5.0-1.12","5d3bcf190e510a001b3df200","bdp_cybrbll","Sun Mar 26 2023 15:22:46 GMT-0500 (Central Daylight Time)","417838","1","3","","69","","","","choice","","img/2to1/1.png","2","213","329","0.5","0.5","2","3","",""
"animation","29","47082","0.0-5.0-2.12","5d3bcf190e510a001b3df200","bdp_cybrbll","Sun Mar 26 2023 15:22:46 GMT-0500 (Central Daylight Time)","417838","1","3","","","","","","","","","","213","","","","2","3","[{""stimulus"":""img/2to3/1.png"",""time"":105},{""stimulus"":""img/2to3/2.png"",""time"":213},{""stimulus"":""img/2to3/3.png"",""time"":304},{""stimulus"":""img/2to3/4.png"",""time"":404},{""stimulus"":""img/2to3/5.png"",""time"":497},{""stimulus"":""img/2to3/6.png"",""time"":596},{""stimulus"":""img/2to3/7.png"",""time"":698},{""stimulus"":""img/2to3/8.png"",""time"":796},{""stimulus"":""img/2to3/9.png"",""time"":897},{""stimulus"":""img/2to3/10.png"",""time"":996},{""stimulus"":""img/2to3/11.png"",""time"":1094},{""stimulus"":""img/2to3/12.png"",""time"":1192}]","[]"
"image-keyboard-response","30","47327","0.0-5.0-1.13","5d3bcf190e510a001b3df200","bdp_cybrbll","Sun Mar 26 2023 15:22:46 GMT-0500 (Central Daylight Time)","417838","1","3","","null","","","","observe","","img/3to2/1.png","null","212","243","0.5","0.5","3","2","",""
"animation","31","48615","0.0-5.0-2.13","5d3bcf190e510a001b3df200","bdp_cybrbll","Sun Mar 26 2023 15:22:46 GMT-0500 (Central Daylight Time)","417838","1","3","","","","","","","","","","212","","","","3","2","[{""stimulus"":""img/3to2/1.png"",""time"":102},{""stimulus"":""img/3to2/2.png"",""time"":200},{""stimulus"":""img/3to2/3.png"",""time"":299},{""stimulus"":""img/3to2/4.png"",""time"":397},{""stimulus"":""img/3to2/5.png"",""time"":498},{""stimulus"":""img/3to2/6.png"",""time"":595},{""stimulus"":""img/3to2/7.png"",""time"":695},{""stimulus"":""img/3to2/8.png"",""time"":793},{""stimulus"":""img/3to2/9.png"",""time"":894},{""stimulus"":""img/3to2/10.png"",""time"":992},{""stimulus"":""img/3to2/11.png"",""time"":1090},{""stimulus"":""img/3to2/12.png"",""time"":1189}]","[]"
"image-keyboard-response","32","49126","0.0-5.0-1.14","5d3bcf190e510a001b3df200","bdp_cybrbll","Sun Mar 26 2023 15:22:46 GMT-0500 (Central Daylight Time)","417838","1","3","","510","","","","choice","","img/2to1/1.png","1","211","302","0.5","0.5","2","1","",""
"animation","33","50415","0.0-5.0-2.14","5d3bcf190e510a001b3df200","bdp_cybrbll","Sun Mar 26 2023 15:22:46 GMT-0500 (Central Daylight Time)","417838","1","3","","","","","","","","","","211","","","","2","1","[{""stimulus"":""img/2to1/1.png"",""time"":100},{""stimulus"":""img/2to1/2.png"",""time"":207},{""stimulus"":""img/2to1/3.png"",""time"":304},{""stimulus"":""img/2to1/4.png"",""time"":401},{""stimulus"":""img/2to1/5.png"",""time"":500},{""stimulus"":""img/2to1/6.png"",""time"":598},{""stimulus"":""img/2to1/7.png"",""time"":696},{""stimulus"":""img/2to1/8.png"",""time"":794},{""stimulus"":""img/2to1/9.png"",""time"":893},{""stimulus"":""img/2to1/10.png"",""time"":991},{""stimulus"":""img/2to1/11.png"",""time"":1090},{""stimulus"":""img/2to1/12.png"",""time"":1196}]","[]"
"image-keyboard-response","34","51465","0.0-5.0-1.15","5d3bcf190e510a001b3df200","bdp_cybrbll","Sun Mar 26 2023 15:22:46 GMT-0500 (Central Daylight Time)","417838","1","3","","null","","","","observe","","img/1to3/1.png","null","210","1042","0.5","0.5","1","3","",""
"animation","35","52753","0.0-5.0-2.15","5d3bcf190e510a001b3df200","bdp_cybrbll","Sun Mar 26 2023 15:22:46 GMT-0500 (Central Daylight Time)","417838","1","3","","","","","","","","","","210","","","","1","3","[{""stimulus"":""img/1to3/1.png"",""time"":100},{""stimulus"":""img/1to3/2.png"",""time"":206},{""stimulus"":""img/1to3/3.png"",""time"":304},{""stimulus"":""img/1to3/4.png"",""time"":402},{""stimulus"":""img/1to3/5.png"",""time"":501},{""stimulus"":""img/1to3/6.png"",""time"":600},{""stimulus"":""img/1to3/7.png"",""time"":699},{""stimulus"":""img/1to3/8.png"",""time"":799},{""stimulus"":""img/1to3/9.png"",""time"":898},{""stimulus"":""img/1to3/10.png"",""time"":991},{""stimulus"":""img/1to3/11.png"",""time"":1090},{""stimulus"":""img/1to3/12.png"",""time"":1189}]","[]"
"image-keyboard-response","36","53022","0.0-5.0-1.16","5d3bcf190e510a001b3df200","bdp_cybrbll","Sun Mar 26 2023 15:22:46 GMT-0500 (Central Daylight Time)","417838","1","3","","null","","","","observe","","img/3to2/1.png","null","209","265","0.5","0.5","3","2","",""
"animation","37","54314","0.0-5.0-2.16","5d3bcf190e510a001b3df200","bdp_cybrbll","Sun Mar 26 2023 15:22:46 GMT-0500 (Central Daylight Time)","417838","1","3","","","","","","","","","","209","","","","3","2","[{""stimulus"":""img/3to2/1.png"",""time"":107},{""stimulus"":""img/3to2/2.png"",""time"":206},{""stimulus"":""img/3to2/3.png"",""time"":305},{""stimulus"":""img/3to2/4.png"",""time"":403},{""stimulus"":""img/3to2/5.png"",""time"":502},{""stimulus"":""img/3to2/6.png"",""time"":601},{""stimulus"":""img/3to2/7.png"",""time"":699},{""stimulus"":""img/3to2/8.png"",""time"":799},{""stimulus"":""img/3to2/9.png"",""time"":899},{""stimulus"":""img/3to2/10.png"",""time"":998},{""stimulus"":""img/3to2/11.png"",""time"":1096},{""stimulus"":""img/3to2/12.png"",""time"":1194}]","[]"
"image-keyboard-response","38","55076","0.0-5.0-1.17","5d3bcf190e510a001b3df200","bdp_cybrbll","Sun Mar 26 2023 15:22:46 GMT-0500 (Central Daylight Time)","417838","1","3","","761","","","","choice","","img/2to1/1.png","2","208","346","0.5","0.5","2","3","",""
"animation","39","56366","0.0-5.0-2.17","5d3bcf190e510a001b3df200","bdp_cybrbll","Sun Mar 26 2023 15:22:46 GMT-0500 (Central Daylight Time)","417838","1","3","","","","","","","","","","208","","","","2","3","[{""stimulus"":""img/2to3/1.png"",""time"":100},{""stimulus"":""img/2to3/2.png"",""time"":207},{""stimulus"":""img/2to3/3.png"",""time"":306},{""stimulus"":""img/2to3/4.png"",""time"":404},{""stimulus"":""img/2to3/5.png"",""time"":502},{""stimulus"":""img/2to3/6.png"",""time"":600},{""stimulus"":""img/2to3/7.png"",""time"":701},{""stimulus"":""img/2to3/8.png"",""time"":794},{""stimulus"":""img/2to3/9.png"",""time"":892},{""stimulus"":""img/2to3/10.png"",""time"":998},{""stimulus"":""img/2to3/11.png"",""time"":1090},{""stimulus"":""img/2to3/12.png"",""time"":1190}]","[]"
"image-keyboard-response","40","56724","0.0-5.0-1.18","5d3bcf190e510a001b3df200","bdp_cybrbll","Sun Mar 26 2023 15:22:46 GMT-0500 (Central Daylight Time)","417838","1","3","","null","","","","observe","","img/3to2/1.png","null","207","351","0.5","0.5","3","2","",""
"animation","41","58014","0.0-5.0-2.18","5d3bcf190e510a001b3df200","bdp_cybrbll","Sun Mar 26 2023 15:22:46 GMT-0500 (Central Daylight Time)","417838","1","3","","","","","","","","","","207","","","","3","2","[{""stimulus"":""img/3to2/1.png"",""time"":100},{""stimulus"":""img/3to2/2.png"",""time"":202},{""stimulus"":""img/3to2/3.png"",""time"":310},{""stimulus"":""img/3to2/4.png"",""time"":413},{""stimulus"":""img/3to2/5.png"",""time"":500},{""stimulus"":""img/3to2/6.png"",""time"":599},{""stimulus"":""img/3to2/7.png"",""time"":697},{""stimulus"":""img/3to2/8.png"",""time"":794},{""stimulus"":""img/3to2/9.png"",""time"":894},{""stimulus"":""img/3to2/10.png"",""time"":992},{""stimulus"":""img/3to2/11.png"",""time"":1092},{""stimulus"":""img/3to2/12.png"",""time"":1191}]","[]"
"image-keyboard-response","42","58377","0.0-5.0-1.19","5d3bcf190e510a001b3df200","bdp_cybrbll","Sun Mar 26 2023 15:22:46 GMT-0500 (Central Daylight Time)","417838","1","3","","361","","","","choice","","img/2to1/1.png","2","206","196","0.5","0.5","2","3","",""
"animation","43","59664","0.0-5.0-2.19","5d3bcf190e510a001b3df200","bdp_cybrbll","Sun Mar 26 2023 15:22:46 GMT-0500 (Central Daylight Time)","417838","1","3","","","","","","","","","","206","","","","2","3","[{""stimulus"":""img/2to3/1.png"",""time"":104},{""stimulus"":""img/2to3/2.png"",""time"":202},{""stimulus"":""img/2to3/3.png"",""time"":301},{""stimulus"":""img/2to3/4.png"",""time"":399},{""stimulus"":""img/2to3/5.png"",""time"":497},{""stimulus"":""img/2to3/6.png"",""time"":597},{""stimulus"":""img/2to3/7.png"",""time"":695},{""stimulus"":""img/2to3/8.png"",""time"":796},{""stimulus"":""img/2to3/9.png"",""time"":894},{""stimulus"":""img/2to3/10.png"",""time"":994},{""stimulus"":""img/2to3/11.png"",""time"":1095},{""stimulus"":""img/2to3/12.png"",""time"":1189}]","[]"
"image-keyboard-response","44","59850","0.0-5.0-1.20","5d3bcf190e510a001b3df200","bdp_cybrbll","Sun Mar 26 2023 15:22:46 GMT-0500 (Central Daylight Time)","417838","1","3","","null","","","","observe","","img/3to2/1.png","null","205","180","0.5","0.5","3","2","",""
"animation","45","61139","0.0-5.0-2.20","5d3bcf190e510a001b3df200","bdp_cybrbll","Sun Mar 26 2023 15:22:46 GMT-0500 (Central Daylight Time)","417838","1","3","","","","","","","","","","205","","","","3","2","[{""stimulus"":""img/3to2/1.png"",""time"":107},{""stimulus"":""img/3to2/2.png"",""time"":198},{""stimulus"":""img/3to2/3.png"",""time"":304},{""stimulus"":""img/3to2/4.png"",""time"":403},{""stimulus"":""img/3to2/5.png"",""time"":502},{""stimulus"":""img/3to2/6.png"",""time"":603},{""stimulus"":""img/3to2/7.png"",""time"":701},{""stimulus"":""img/3to2/8.png"",""time"":793},{""stimulus"":""img/3to2/9.png"",""time"":893},{""stimulus"":""img/3to2/10.png"",""time"":993},{""stimulus"":""img/3to2/11.png"",""time"":1101},{""stimulus"":""img/3to2/12.png"",""time"":1195}]","[]"
"image-keyboard-response","46","61349","0.0-5.0-1.21","5d3bcf190e510a001b3df200","bdp_cybrbll","Sun Mar 26 2023 15:22:46 GMT-0500 (Central Daylight Time)","417838","1","3","","209","","","","choice","","img/2to1/1.png","1","204","326","0.5","0.5","2","1","",""
"animation","47","62644","0.0-5.0-2.21","5d3bcf190e510a001b3df200","bdp_cybrbll","Sun Mar 26 2023 15:22:46 GMT-0500 (Central Daylight Time)","417838","1","3","","","","","","","","","","204","","","","2","1","[{""stimulus"":""img/2to1/1.png"",""time"":107},{""stimulus"":""img/2to1/2.png"",""time"":205},{""stimulus"":""img/2to1/3.png"",""time"":303},{""stimulus"":""img/2to1/4.png"",""time"":402},{""stimulus"":""img/2to1/5.png"",""time"":510},{""stimulus"":""img/2to1/6.png"",""time"":601},{""stimulus"":""img/2to1/7.png"",""time"":700},{""stimulus"":""img/2to1/8.png"",""time"":800},{""stimulus"":""img/2to1/9.png"",""time"":900},{""stimulus"":""img/2to1/10.png"",""time"":998},{""stimulus"":""img/2to1/11.png"",""time"":1096},{""stimulus"":""img/2to1/12.png"",""time"":1194}]","[]"
"image-keyboard-response","48","62888","0.0-5.0-1.22","5d3bcf190e510a001b3df200","bdp_cybrbll","Sun Mar 26 2023 15:22:46 GMT-0500 (Central Daylight Time)","417838","1","3","","null","","","","observe","","img/1to3/1.png","null","203","229","0.5","0.5","1","2","",""
"animation","49","64180","0.0-5.0-2.22","5d3bcf190e510a001b3df200","bdp_cybrbll","Sun Mar 26 2023 15:22:46 GMT-0500 (Central Daylight Time)","417838","1","3","","","","","","","","","","203","","","","1","2","[{""stimulus"":""img/1to2/1.png"",""time"":100},{""stimulus"":""img/1to2/2.png"",""time"":214},{""stimulus"":""img/1to2/3.png"",""time"":297},{""stimulus"":""img/1to2/4.png"",""time"":397},{""stimulus"":""img/1to2/5.png"",""time"":495},{""stimulus"":""img/1to2/6.png"",""time"":603},{""stimulus"":""img/1to2/7.png"",""time"":700},{""stimulus"":""img/1to2/8.png"",""time"":798},{""stimulus"":""img/1to2/9.png"",""time"":896},{""stimulus"":""img/1to2/10.png"",""time"":995},{""stimulus"":""img/1to2/11.png"",""time"":1093},{""stimulus"":""img/1to2/12.png"",""time"":1192}]","[]"
"image-keyboard-response","50","64368","0.0-5.0-1.23","5d3bcf190e510a001b3df200","bdp_cybrbll","Sun Mar 26 2023 15:22:46 GMT-0500 (Central Daylight Time)","417838","1","3","","188","","","","choice","","img/2to1/1.png","1","202","616","0.5","0.5","2","1","",""
"animation","51","65660","0.0-5.0-2.23","5d3bcf190e510a001b3df200","bdp_cybrbll","Sun Mar 26 2023 15:22:46 GMT-0500 (Central Daylight Time)","417838","1","3","","","","","","","","","","202","","","","2","1","[{""stimulus"":""img/2to1/1.png"",""time"":101},{""stimulus"":""img/2to1/2.png"",""time"":201},{""stimulus"":""img/2to1/3.png"",""time"":299},{""stimulus"":""img/2to1/4.png"",""time"":399},{""stimulus"":""img/2to1/5.png"",""time"":496},{""stimulus"":""img/2to1/6.png"",""time"":602},{""stimulus"":""img/2to1/7.png"",""time"":700},{""stimulus"":""img/2to1/8.png"",""time"":798},{""stimulus"":""img/2to1/9.png"",""time"":896},{""stimulus"":""img/2to1/10.png"",""time"":996},{""stimulus"":""img/2to1/11.png"",""time"":1096},{""stimulus"":""img/2to1/12.png"",""time"":1194}]","[]"
"image-keyboard-response","52","66159","0.0-5.0-1.24","5d3bcf190e510a001b3df200","bdp_cybrbll","Sun Mar 26 2023 15:22:46 GMT-0500 (Central Daylight Time)","417838","1","3","","null","","","","observe","","img/1to3/1.png","null","201","490","0.5","0.5","1","3","",""
"animation","53","67454","0.0-5.0-2.24","5d3bcf190e510a001b3df200","bdp_cybrbll","Sun Mar 26 2023 15:22:46 GMT-0500 (Central Daylight Time)","417838","1","3","","","","","","","","","","201","","","","1","3","[{""stimulus"":""img/1to3/1.png"",""time"":102},{""stimulus"":""img/1to3/2.png"",""time"":199},{""stimulus"":""img/1to3/3.png"",""time"":299},{""stimulus"":""img/1to3/4.png"",""time"":400},{""stimulus"":""img/1to3/5.png"",""time"":499},{""stimulus"":""img/1to3/6.png"",""time"":600},{""stimulus"":""img/1to3/7.png"",""time"":699},{""stimulus"":""img/1to3/8.png"",""time"":797},{""stimulus"":""img/1to3/9.png"",""time"":898},{""stimulus"":""img/1to3/10.png"",""time"":998},{""stimulus"":""img/1to3/11.png"",""time"":1097},{""stimulus"":""img/1to3/12.png"",""time"":1204}]","[]"
"image-keyboard-response","54","67866","0.0-5.0-1.25","5d3bcf190e510a001b3df200","bdp_cybrbll","Sun Mar 26 2023 15:22:46 GMT-0500 (Central Daylight Time)","417838","1","3","","null","","","","observe","","img/3to2/1.png","null","200","410","0.5","0.5","3","2","",""
"animation","55","69160","0.0-5.0-2.25","5d3bcf190e510a001b3df200","bdp_cybrbll","Sun Mar 26 2023 15:22:46 GMT-0500 (Central Daylight Time)","417838","1","3","","","","","","","","","","200","","","","3","2","[{""stimulus"":""img/3to2/1.png"",""time"":102},{""stimulus"":""img/3to2/2.png"",""time"":201},{""stimulus"":""img/3to2/3.png"",""time"":300},{""stimulus"":""img/3to2/4.png"",""time"":399},{""stimulus"":""img/3to2/5.png"",""time"":498},{""stimulus"":""img/3to2/6.png"",""time"":596},{""stimulus"":""img/3to2/7.png"",""time"":701},{""stimulus"":""img/3to2/8.png"",""time"":809},{""stimulus"":""img/3to2/9.png"",""time"":892},{""stimulus"":""img/3to2/10.png"",""time"":999},{""stimulus"":""img/3to2/11.png"",""time"":1106},{""stimulus"":""img/3to2/12.png"",""time"":1196}]","[]"
"image-keyboard-response","56","69177","0.0-5.0-1.26","5d3bcf190e510a001b3df200","bdp_cybrbll","Sun Mar 26 2023 15:22:46 GMT-0500 (Central Daylight Time)","417838","1","3","","16","","","","choice","","img/2to1/1.png","1","199","391","0.5","0.5","2","1","",""
"animation","57","70465","0.0-5.0-2.26","5d3bcf190e510a001b3df200","bdp_cybrbll","Sun Mar 26 2023 15:22:46 GMT-0500 (Central Daylight Time)","417838","1","3","","","","","","","","","","199","","","","2","1","[{""stimulus"":""img/2to1/1.png"",""time"":107},{""stimulus"":""img/2to1/2.png"",""time"":206},{""stimulus"":""img/2to1/3.png"",""time"":307},{""stimulus"":""img/2to1/4.png"",""time"":405},{""stimulus"":""img/2to1/5.png"",""time"":503},{""stimulus"":""img/2to1/6.png"",""time"":601},{""stimulus"":""img/2to1/7.png"",""time"":700},{""stimulus"":""img/2to1/8.png"",""time"":798},{""stimulus"":""img/2to1/9.png"",""time"":895},{""stimulus"":""img/2to1/10.png"",""time"":994},{""stimulus"":""img/2to1/11.png"",""time"":1093},{""stimulus"":""img/2to1/12.png"",""time"":1191}]","[]"
"image-keyboard-response","58","71136","0.0-5.0-1.27","5d3bcf190e510a001b3df200","bdp_cybrbll","Sun Mar 26 2023 15:22:46 GMT-0500 (Central Daylight Time)","417838","1","3","","null","","","","observe","","img/1to3/1.png","null","198","668","0.5","0.5","1","2","",""
"animation","59","72429","0.0-5.0-2.27","5d3bcf190e510a001b3df200","bdp_cybrbll","Sun Mar 26 2023 15:22:46 GMT-0500 (Central Daylight Time)","417838","1","3","","","","","","","","","","198","","","","1","2","[{""stimulus"":""img/1to2/1.png"",""time"":99},{""stimulus"":""img/1to2/2.png"",""time"":199},{""stimulus"":""img/1to2/3.png"",""time"":305},{""stimulus"":""img/1to2/4.png"",""time"":403},{""stimulus"":""img/1to2/5.png"",""time"":501},{""stimulus"":""img/1to2/6.png"",""time"":600},{""stimulus"":""img/1to2/7.png"",""time"":698},{""stimulus"":""img/1to2/8.png"",""time"":797},{""stimulus"":""img/1to2/9.png"",""time"":905},{""stimulus"":""img/1to2/10.png"",""time"":995},{""stimulus"":""img/1to2/11.png"",""time"":1093},{""stimulus"":""img/1to2/12.png"",""time"":1192}]","[]"
"image-keyboard-response","60","72503","0.0-5.0-1.28","5d3bcf190e510a001b3df200","bdp_cybrbll","Sun Mar 26 2023 15:22:46 GMT-0500 (Central Daylight Time)","417838","1","3","","74","","","","choice","","img/2to1/1.png","2","197","439","0.5","0.5","2","3","",""
"animation","61","73797","0.0-5.0-2.28","5d3bcf190e510a001b3df200","bdp_cybrbll","Sun Mar 26 2023 15:22:46 GMT-0500 (Central Daylight Time)","417838","1","3","","","","","","","","","","197","","","","2","3","[{""stimulus"":""img/2to3/1.png"",""time"":107},{""stimulus"":""img/2to3/2.png"",""time"":205},{""stimulus"":""img/2to3/3.png"",""time"":305},{""stimulus"":""img/2to3/4.png"",""time"":403},{""stimulus"":""img/2to3/5.png"",""time"":498},{""stimulus"":""img/2to3/6.png"",""time"":596},{""stimulus"":""img/2to3/7.png"",""time"":696},{""stimulus"":""img/2to3/8.png"",""time"":793},{""stimulus"":""img/2to3/9.png"",""time"":900},{""stimulus"":""img/2to3/10.png"",""time"":998},{""stimulus"":""img/2to3/11.png"",""time"":1096},{""stimulus"":""img/2to3/12.png"",""time"":1195}]","[]"
"image-keyboard-response","62","74159","0.0-5.0-1.29","5d3bcf190e510a001b3df200","bdp_cybrbll","Sun Mar 26 2023 15:22:46 GMT-0500 (Central Daylight Time)","417838","1","3","","null","","","","observe","","img/3to2/1.png","null","196","355","0.5","0.5","3","1","",""
"animation","63","75449","0.0-5.0-2.29","5d3bcf190e510a001b3df200","bdp_cybrbll","Sun Mar 26 2023 15:22:46 GMT-0500 (Central Daylight Time)","417838","1","3","","","","","","","","","","196","","","","3","1","[{""stimulus"":""img/3to1/1.png"",""time"":105},{""stimulus"":""img/3to1/2.png"",""time"":205},{""stimulus"":""img/3to1/3.png"",""time"":303},{""stimulus"":""img/3to1/4.png"",""time"":403},{""stimulus"":""img/3to1/5.png"",""time"":501},{""stimulus"":""img/3to1/6.png"",""time"":599},{""stimulus"":""img/3to1/7.png"",""time"":699},{""stimulus"":""img/3to1/8.png"",""time"":800},{""stimulus"":""img/3to1/9.png"",""time"":898},{""stimulus"":""img/3to1/10.png"",""time"":998},{""stimulus"":""img/3to1/11.png"",""time"":1099},{""stimulus"":""img/3to1/12.png"",""time"":1198}]","[]"
"image-keyboard-response","64","75622","0.0-5.0-1.30","5d3bcf190e510a001b3df200","bdp_cybrbll","Sun Mar 26 2023 15:22:46 GMT-0500 (Central Daylight Time)","417838","1","3","","null","","","","observe","","img/1to3/1.png","null","195","172","0.5","0.5","1","2","",""
"animation","65","76915","0.0-5.0-2.30","5d3bcf190e510a001b3df200","bdp_cybrbll","Sun Mar 26 2023 15:22:46 GMT-0500 (Central Daylight Time)","417838","1","3","","","","","","","","","","195","","","","1","2","[{""stimulus"":""img/1to2/1.png"",""time"":108},{""stimulus"":""img/1to2/2.png"",""time"":199},{""stimulus"":""img/1to2/3.png"",""time"":306},{""stimulus"":""img/1to2/4.png"",""time"":403},{""stimulus"":""img/1to2/5.png"",""time"":503},{""stimulus"":""img/1to2/6.png"",""time"":595},{""stimulus"":""img/1to2/7.png"",""time"":701},{""stimulus"":""img/1to2/8.png"",""time"":801},{""stimulus"":""img/1to2/9.png"",""time"":899},{""stimulus"":""img/1to2/10.png"",""time"":997},{""stimulus"":""img/1to2/11.png"",""time"":1095},{""stimulus"":""img/1to2/12.png"",""time"":1195}]","[]"
"image-keyboard-response","66","77183","0.0-5.0-1.31","5d3bcf190e510a001b3df200","bdp_cybrbll","Sun Mar 26 2023 15:22:46 GMT-0500 (Central Daylight Time)","417838","1","3","","268","","","","choice","","img/2to1/1.png","2","194","736","0.5","0.5","2","3","",""
"animation","67","78477","0.0-5.0-2.31","5d3bcf190e510a001b3df200","bdp_cybrbll","Sun Mar 26 2023 15:22:46 GMT-0500 (Central Daylight Time)","417838","1","3","","","","","","","","","","194","","","","2","3","[{""stimulus"":""img/2to3/1.png"",""time"":103},{""stimulus"":""img/2to3/2.png"",""time"":202},{""stimulus"":""img/2to3/3.png"",""time"":300},{""stimulus"":""img/2to3/4.png"",""time"":398},{""stimulus"":""img/2to3/5.png"",""time"":496},{""stimulus"":""img/2to3/6.png"",""time"":595},{""stimulus"":""img/2to3/7.png"",""time"":702},{""stimulus"":""img/2to3/8.png"",""time"":800},{""stimulus"":""img/2to3/9.png"",""time"":900},{""stimulus"":""img/2to3/10.png"",""time"":997},{""stimulus"":""img/2to3/11.png"",""time"":1097},{""stimulus"":""img/2to3/12.png"",""time"":1196}]","[]"
"image-keyboard-response","68","78919","0.0-5.0-1.32","5d3bcf190e510a001b3df200","bdp_cybrbll","Sun Mar 26 2023 15:22:46 GMT-0500 (Central Daylight Time)","417838","1","3","","null","","","","observe","","img/3to2/1.png","null","193","440","0.5","0.5","3","1","",""
"animation","69","80213","0.0-5.0-2.32","5d3bcf190e510a001b3df200","bdp_cybrbll","Sun Mar 26 2023 15:22:46 GMT-0500 (Central Daylight Time)","417838","1","3","","","","","","","","","","193","","","","3","1","[{""stimulus"":""img/3to1/1.png"",""time"":100},{""stimulus"":""img/3to1/2.png"",""time"":200},{""stimulus"":""img/3to1/3.png"",""time"":300},{""stimulus"":""img/3to1/4.png"",""time"":399},{""stimulus"":""img/3to1/5.png"",""time"":498},{""stimulus"":""img/3to1/6.png"",""time"":597},{""stimulus"":""img/3to1/7.png"",""time"":695},{""stimulus"":""img/3to1/8.png"",""time"":793},{""stimulus"":""img/3to1/9.png"",""time"":898},{""stimulus"":""img/3to1/10.png"",""time"":999},{""stimulus"":""img/3to1/11.png"",""time"":1097},{""stimulus"":""img/3to1/12.png"",""time"":1195}]","[]"
"image-keyboard-response","70","80789","0.0-5.0-1.33","5d3bcf190e510a001b3df200","bdp_cybrbll","Sun Mar 26 2023 15:22:46 GMT-0500 (Central Daylight Time)","417838","1","3","","null","","","","observe","","img/1to3/1.png","null","192","569","0.5","0.5","1","2","",""
"animation","71","82085","0.0-5.0-2.33","5d3bcf190e510a001b3df200","bdp_cybrbll","Sun Mar 26 2023 15:22:46 GMT-0500 (Central Daylight Time)","417838","1","3","","","","","","","","","","192","","","","1","2","[{""stimulus"":""img/1to2/1.png"",""time"":101},{""stimulus"":""img/1to2/2.png"",""time"":201},{""stimulus"":""img/1to2/3.png"",""time"":300},{""stimulus"":""img/1to2/4.png"",""time"":398},{""stimulus"":""img/1to2/5.png"",""time"":497},{""stimulus"":""img/1to2/6.png"",""time"":603},{""stimulus"":""img/1to2/7.png"",""time"":697},{""stimulus"":""img/1to2/8.png"",""time"":795},{""stimulus"":""img/1to2/9.png"",""time"":897},{""stimulus"":""img/1to2/10.png"",""time"":996},{""stimulus"":""img/1to2/11.png"",""time"":1090},{""stimulus"":""img/1to2/12.png"",""time"":1189}]","[]"
"image-keyboard-response","72","82159","0.0-5.0-1.34","5d3bcf190e510a001b3df200","bdp_cybrbll","Sun Mar 26 2023 15:22:46 GMT-0500 (Central Daylight Time)","417838","1","3","","73","","","","choice","","img/2to1/1.png","2","191","585","0.5","0.5","2","3","",""
"animation","73","83453","0.0-5.0-2.34","5d3bcf190e510a001b3df200","bdp_cybrbll","Sun Mar 26 2023 15:22:46 GMT-0500 (Central Daylight Time)","417838","1","3","","","","","","","","","","191","","","","2","3","[{""stimulus"":""img/2to3/1.png"",""time"":107},{""stimulus"":""img/2to3/2.png"",""time"":201},{""stimulus"":""img/2to3/3.png"",""time"":305},{""stimulus"":""img/2to3/4.png"",""time"":397},{""stimulus"":""img/2to3/5.png"",""time"":504},{""stimulus"":""img/2to3/6.png"",""time"":595},{""stimulus"":""img/2to3/7.png"",""time"":694},{""stimulus"":""img/2to3/8.png"",""time"":801},{""stimulus"":""img/2to3/9.png"",""time"":897},{""stimulus"":""img/2to3/10.png"",""time"":998},{""stimulus"":""img/2to3/11.png"",""time"":1097},{""stimulus"":""img/2to3/12.png"",""time"":1196}]","[]"
"image-keyboard-response","74","83868","0.0-5.0-1.35","5d3bcf190e510a001b3df200","bdp_cybrbll","Sun Mar 26 2023 15:22:46 GMT-0500 (Central Daylight Time)","417838","1","3","","null","","","","observe","","img/3to2/1.png","null","190","411","0.5","0.5","3","2","",""
"animation","75","85155","0.0-5.0-2.35","5d3bcf190e510a001b3df200","bdp_cybrbll","Sun Mar 26 2023 15:22:46 GMT-0500 (Central Daylight Time)","417838","1","3","","","","","","","","","","190","","","","3","2","[{""stimulus"":""img/3to2/1.png"",""time"":107},{""stimulus"":""img/3to2/2.png"",""time"":206},{""stimulus"":""img/3to2/3.png"",""time"":301},{""stimulus"":""img/3to2/4.png"",""time"":399},{""stimulus"":""img/3to2/5.png"",""time"":498},{""stimulus"":""img/3to2/6.png"",""time"":597},{""stimulus"":""img/3to2/7.png"",""time"":695},{""stimulus"":""img/3to2/8.png"",""time"":794},{""stimulus"":""img/3to2/9.png"",""time"":892},{""stimulus"":""img/3to2/10.png"",""time"":992},{""stimulus"":""img/3to2/11.png"",""time"":1090},{""stimulus"":""img/3to2/12.png"",""time"":1197}]","[]"
"image-keyboard-response","76","85226","0.0-5.0-1.36","5d3bcf190e510a001b3df200","bdp_cybrbll","Sun Mar 26 2023 15:22:46 GMT-0500 (Central Daylight Time)","417838","1","3","","70","","","","choice","","img/2to1/1.png","1","189","381","0.5","0.5","2","1","",""
"animation","77","86517","0.0-5.0-2.36","5d3bcf190e510a001b3df200","bdp_cybrbll","Sun Mar 26 2023 15:22:46 GMT-0500 (Central Daylight Time)","417838","1","3","","","","","","","","","","189","","","","2","1","[{""stimulus"":""img/2to1/1.png"",""time"":103},{""stimulus"":""img/2to1/2.png"",""time"":203},{""stimulus"":""img/2to1/3.png"",""time"":307},{""stimulus"":""img/2to1/4.png"",""time"":401},{""stimulus"":""img/2to1/5.png"",""time"":502},{""stimulus"":""img/2to1/6.png"",""time"":600},{""stimulus"":""img/2to1/7.png"",""time"":700},{""stimulus"":""img/2to1/8.png"",""time"":798},{""stimulus"":""img/2to1/9.png"",""time"":897},{""stimulus"":""img/2to1/10.png"",""time"":995},{""stimulus"":""img/2to1/11.png"",""time"":1094},{""stimulus"":""img/2to1/12.png"",""time"":1194}]","[]"
"image-keyboard-response","78","87042","0.0-5.0-1.37","5d3bcf190e510a001b3df200","bdp_cybrbll","Sun Mar 26 2023 15:22:46 GMT-0500 (Central Daylight Time)","417838","1","3","","null","","","","observe","","img/1to3/1.png","null","188","522","0.5","0.5","1","3","",""
"animation","79","88337","0.0-5.0-2.37","5d3bcf190e510a001b3df200","bdp_cybrbll","Sun Mar 26 2023 15:22:46 GMT-0500 (Central Daylight Time)","417838","1","3","","","","","","","","","","188","","","","1","3","[{""stimulus"":""img/1to3/1.png"",""time"":108},{""stimulus"":""img/1to3/2.png"",""time"":208},{""stimulus"":""img/1to3/3.png"",""time"":314},{""stimulus"":""img/1to3/4.png"",""time"":404},{""stimulus"":""img/1to3/5.png"",""time"":504},{""stimulus"":""img/1to3/6.png"",""time"":603},{""stimulus"":""img/1to3/7.png"",""time"":697},{""stimulus"":""img/1to3/8.png"",""time"":796},{""stimulus"":""img/1to3/9.png"",""time"":896},{""stimulus"":""img/1to3/10.png"",""time"":996},{""stimulus"":""img/1to3/11.png"",""time"":1096},{""stimulus"":""img/1to3/12.png"",""time"":1196}]","[]"
"image-keyboard-response","80","88827","0.0-5.0-1.38","5d3bcf190e510a001b3df200","bdp_cybrbll","Sun Mar 26 2023 15:22:46 GMT-0500 (Central Daylight Time)","417838","1","3","","null","","","","observe","","img/3to2/1.png","null","187","484","0.5","0.5","3","1","",""
"animation","81","90118","0.0-5.0-2.38","5d3bcf190e510a001b3df200","bdp_cybrbll","Sun Mar 26 2023 15:22:46 GMT-0500 (Central Daylight Time)","417838","1","3","","","","","","","","","","187","","","","3","1","[{""stimulus"":""img/3to1/1.png"",""time"":101},{""stimulus"":""img/3to1/2.png"",""time"":201},{""stimulus"":""img/3to1/3.png"",""time"":299},{""stimulus"":""img/3to1/4.png"",""time"":405},{""stimulus"":""img/3to1/5.png"",""time"":503},{""stimulus"":""img/3to1/6.png"",""time"":601},{""stimulus"":""img/3to1/7.png"",""time"":701},{""stimulus"":""img/3to1/8.png"",""time"":793},{""stimulus"":""img/3to1/9.png"",""time"":900},{""stimulus"":""img/3to1/10.png"",""time"":999},{""stimulus"":""img/3to1/11.png"",""time"":1090},{""stimulus"":""img/3to1/12.png"",""time"":1193}]","[]"
"image-keyboard-response","82","90602","0.0-5.0-1.39","5d3bcf190e510a001b3df200","bdp_cybrbll","Sun Mar 26 2023 15:22:46 GMT-0500 (Central Daylight Time)","417838","1","3","","null","","","","observe","","img/1to3/1.png","null","186","481","0.5","0.5","1","2","",""
"animation","83","91895","0.0-5.0-2.39","5d3bcf190e510a001b3df200","bdp_cybrbll","Sun Mar 26 2023 15:22:46 GMT-0500 (Central Daylight Time)","417838","1","3","","","","","","","","","","186","","","","1","2","[{""stimulus"":""img/1to2/1.png"",""time"":100},{""stimulus"":""img/1to2/2.png"",""time"":200},{""stimulus"":""img/1to2/3.png"",""time"":298},{""stimulus"":""img/1to2/4.png"",""time"":404},{""stimulus"":""img/1to2/5.png"",""time"":503},{""stimulus"":""img/1to2/6.png"",""time"":595},{""stimulus"":""img/1to2/7.png"",""time"":694},{""stimulus"":""img/1to2/8.png"",""time"":795},{""stimulus"":""img/1to2/9.png"",""time"":897},{""stimulus"":""img/1to2/10.png"",""time"":997},{""stimulus"":""img/1to2/11.png"",""time"":1095},{""stimulus"":""img/1to2/12.png"",""time"":1194}]","[]"
"image-keyboard-response","84","92099","0.0-5.0-1.40","5d3bcf190e510a001b3df200","bdp_cybrbll","Sun Mar 26 2023 15:22:46 GMT-0500 (Central Daylight Time)","417838","1","3","","203","","","","choice","","img/2to1/1.png","2","185","558","0.5","0.5","2","3","",""
"animation","85","93399","0.0-5.0-2.40","5d3bcf190e510a001b3df200","bdp_cybrbll","Sun Mar 26 2023 15:22:46 GMT-0500 (Central Daylight Time)","417838","1","3","","","","","","","","","","185","","","","2","3","[{""stimulus"":""img/2to3/1.png"",""time"":106},{""stimulus"":""img/2to3/2.png"",""time"":202},{""stimulus"":""img/2to3/3.png"",""time"":303},{""stimulus"":""img/2to3/4.png"",""time"":401},{""stimulus"":""img/2to3/5.png"",""time"":498},{""stimulus"":""img/2to3/6.png"",""time"":597},{""stimulus"":""img/2to3/7.png"",""time"":696},{""stimulus"":""img/2to3/8.png"",""time"":798},{""stimulus"":""img/2to3/9.png"",""time"":899},{""stimulus"":""img/2to3/10.png"",""time"":998},{""stimulus"":""img/2to3/11.png"",""time"":1090},{""stimulus"":""img/2to3/12.png"",""time"":1192}]","[]"
"image-keyboard-response","86","94294","0.0-5.0-1.41","5d3bcf190e510a001b3df200","bdp_cybrbll","Sun Mar 26 2023 15:22:46 GMT-0500 (Central Daylight Time)","417838","1","3","","null","","","","observe","","img/3to2/1.png","null","184","892","0.5","0.5","3","2","",""
"animation","87","95588","0.0-5.0-2.41","5d3bcf190e510a001b3df200","bdp_cybrbll","Sun Mar 26 2023 15:22:46 GMT-0500 (Central Daylight Time)","417838","1","3","","","","","","","","","","184","","","","3","2","[{""stimulus"":""img/3to2/1.png"",""time"":102},{""stimulus"":""img/3to2/2.png"",""time"":203},{""stimulus"":""img/3to2/3.png"",""time"":311},{""stimulus"":""img/3to2/4.png"",""time"":401},{""stimulus"":""img/3to2/5.png"",""time"":501},{""stimulus"":""img/3to2/6.png"",""time"":600},{""stimulus"":""img/3to2/7.png"",""time"":698},{""stimulus"":""img/3to2/8.png"",""time"":800},{""stimulus"":""img/3to2/9.png"",""time"":892},{""stimulus"":""img/3to2/10.png"",""time"":991},{""stimulus"":""img/3to2/11.png"",""time"":1097},{""stimulus"":""img/3to2/12.png"",""time"":1196}]","[]"
"image-keyboard-response","88","95878","0.0-5.0-1.42","5d3bcf190e510a001b3df200","bdp_cybrbll","Sun Mar 26 2023 15:22:46 GMT-0500 (Central Daylight Time)","417838","1","3","","289","","","","choice","","img/2to1/1.png","1","183","555","0.5","0.5","2","1","",""
"animation","89","97167","0.0-5.0-2.42","5d3bcf190e510a001b3df200","bdp_cybrbll","Sun Mar 26 2023 15:22:46 GMT-0500 (Central Daylight Time)","417838","1","3","","","","","","","","","","183","","","","2","1","[{""stimulus"":""img/2to1/1.png"",""time"":102},{""stimulus"":""img/2to1/2.png"",""time"":202},{""stimulus"":""img/2to1/3.png"",""time"":300},{""stimulus"":""img/2to1/4.png"",""time"":401},{""stimulus"":""img/2to1/5.png"",""time"":500},{""stimulus"":""img/2to1/6.png"",""time"":599},{""stimulus"":""img/2to1/7.png"",""time"":698},{""stimulus"":""img/2to1/8.png"",""time"":798},{""stimulus"":""img/2to1/9.png"",""time"":892},{""stimulus"":""img/2to1/10.png"",""time"":991},{""stimulus"":""img/2to1/11.png"",""time"":1091},{""stimulus"":""img/2to1/12.png"",""time"":1190}]","[]"
"image-keyboard-response","90","97560","0.0-5.0-1.43","5d3bcf190e510a001b3df200","bdp_cybrbll","Sun Mar 26 2023 15:22:46 GMT-0500 (Central Daylight Time)","417838","1","3","","null","","","","observe","","img/1to3/1.png","null","182","388","0.5","0.5","1","3","",""
"animation","91","98849","0.0-5.0-2.43","5d3bcf190e510a001b3df200","bdp_cybrbll","Sun Mar 26 2023 15:22:46 GMT-0500 (Central Daylight Time)","417838","1","3","","","","","","","","","","182","","","","1","3","[{""stimulus"":""img/1to3/1.png"",""time"":103},{""stimulus"":""img/1to3/2.png"",""time"":202},{""stimulus"":""img/1to3/3.png"",""time"":299},{""stimulus"":""img/1to3/4.png"",""time"":398},{""stimulus"":""img/1to3/5.png"",""time"":504},{""stimulus"":""img/1to3/6.png"",""time"":594},{""stimulus"":""img/1to3/7.png"",""time"":694},{""stimulus"":""img/1to3/8.png"",""time"":793},{""stimulus"":""img/1to3/9.png"",""time"":892},{""stimulus"":""img/1to3/10.png"",""time"":993},{""stimulus"":""img/1to3/11.png"",""time"":1092},{""stimulus"":""img/1to3/12.png"",""time"":1191}]","[]"
"image-keyboard-response","92","99534","0.0-5.0-1.44","5d3bcf190e510a001b3df200","bdp_cybrbll","Sun Mar 26 2023 15:22:46 GMT-0500 (Central Daylight Time)","417838","1","3","","null","","","","observe","","img/3to2/1.png","null","181","679","0.5","0.5","3","2","",""
"animation","93","100826","0.0-5.0-2.44","5d3bcf190e510a001b3df200","bdp_cybrbll","Sun Mar 26 2023 15:22:46 GMT-0500 (Central Daylight Time)","417838","1","3","","","","","","","","","","181","","","","3","2","[{""stimulus"":""img/3to2/1.png"",""time"":102},{""stimulus"":""img/3to2/2.png"",""time"":201},{""stimulus"":""img/3to2/3.png"",""time"":299},{""stimulus"":""img/3to2/4.png"",""time"":397},{""stimulus"":""img/3to2/5.png"",""time"":503},{""stimulus"":""img/3to2/6.png"",""time"":602},{""stimulus"":""img/3to2/7.png"",""time"":694},{""stimulus"":""img/3to2/8.png"",""time"":796},{""stimulus"":""img/3to2/9.png"",""time"":895},{""stimulus"":""img/3to2/10.png"",""time"":994},{""stimulus"":""img/3to2/11.png"",""time"":1095},{""stimulus"":""img/3to2/12.png"",""time"":1194}]","[]"
"image-keyboard-response","94","101677","0.0-5.0-1.45","5d3bcf190e510a001b3df200","bdp_cybrbll","Sun Mar 26 2023 15:22:46 GMT-0500 (Central Daylight Time)","417838","1","3","","851","","","","choice","","img/2to1/1.png","1","180","216","0.5","0.5","2","1","",""
"animation","95","102966","0.0-5.0-2.45","5d3bcf190e510a001b3df200","bdp_cybrbll","Sun Mar 26 2023 15:22:46 GMT-0500 (Central Daylight Time)","417838","1","3","","","","","","","","","","180","","","","2","1","[{""stimulus"":""img/2to1/1.png"",""time"":103},{""stimulus"":""img/2to1/2.png"",""time"":202},{""stimulus"":""img/2to1/3.png"",""time"":301},{""stimulus"":""img/2to1/4.png"",""time"":401},{""stimulus"":""img/2to1/5.png"",""time"":500},{""stimulus"":""img/2to1/6.png"",""time"":599},{""stimulus"":""img/2to1/7.png"",""time"":697},{""stimulus"":""img/2to1/8.png"",""time"":799},{""stimulus"":""img/2to1/9.png"",""time"":892},{""stimulus"":""img/2to1/10.png"",""time"":991},{""stimulus"":""img/2to1/11.png"",""time"":1090},{""stimulus"":""img/2to1/12.png"",""time"":1189}]","[]"
"image-keyboard-response","96","103958","0.0-5.0-1.46","5d3bcf190e510a001b3df200","bdp_cybrbll","Sun Mar 26 2023 15:22:46 GMT-0500 (Central Daylight Time)","417838","1","3","","null","","","","observe","","img/1to3/1.png","null","179","989","0.5","0.5","1","2","",""
"animation","97","105250","0.0-5.0-2.46","5d3bcf190e510a001b3df200","bdp_cybrbll","Sun Mar 26 2023 15:22:46 GMT-0500 (Central Daylight Time)","417838","1","3","","","","","","","","","","179","","","","1","2","[{""stimulus"":""img/1to2/1.png"",""time"":101},{""stimulus"":""img/1to2/2.png"",""time"":199},{""stimulus"":""img/1to2/3.png"",""time"":301},{""stimulus"":""img/1to2/4.png"",""time"":400},{""stimulus"":""img/1to2/5.png"",""time"":498},{""stimulus"":""img/1to2/6.png"",""time"":596},{""stimulus"":""img/1to2/7.png"",""time"":694},{""stimulus"":""img/1to2/8.png"",""time"":793},{""stimulus"":""img/1to2/9.png"",""time"":891},{""stimulus"":""img/1to2/10.png"",""time"":998},{""stimulus"":""img/1to2/11.png"",""time"":1098},{""stimulus"":""img/1to2/12.png"",""time"":1201}]","[]"
"image-keyboard-response","98","105551","0.0-5.0-1.47","5d3bcf190e510a001b3df200","bdp_cybrbll","Sun Mar 26 2023 15:22:46 GMT-0500 (Central Daylight Time)","417838","1","3","","301","","","","choice","","img/2to1/1.png","2","178","788","0.5","0.5","2","3","",""
"animation","99","106844","0.0-5.0-2.47","5d3bcf190e510a001b3df200","bdp_cybrbll","Sun Mar 26 2023 15:22:46 GMT-0500 (Central Daylight Time)","417838","1","3","","","","","","","","","","178","","","","2","3","[{""stimulus"":""img/2to3/1.png"",""time"":104},{""stimulus"":""img/2to3/2.png"",""time"":204},{""stimulus"":""img/2to3/3.png"",""time"":302},{""stimulus"":""img/2to3/4.png"",""time"":401},{""stimulus"":""img/2to3/5.png"",""time"":499},{""stimulus"":""img/2to3/6.png"",""time"":597},{""stimulus"":""img/2to3/7.png"",""time"":695},{""stimulus"":""img/2to3/8.png"",""time"":798},{""stimulus"":""img/2to3/9.png"",""time"":897},{""stimulus"":""img/2to3/10.png"",""time"":996},{""stimulus"":""img/2to3/11.png"",""time"":1094},{""stimulus"":""img/2to3/12.png"",""time"":1193}]","[]"
"image-keyboard-response","100","107712","0.0-5.0-1.48","5d3bcf190e510a001b3df200","bdp_cybrbll","Sun Mar 26 2023 15:22:46 GMT-0500 (Central Daylight Time)","417838","1","3","","null","","","","observe","","img/3to2/1.png","null","177","859","0.5","0.5","3","1","",""
"animation","101","109002","0.0-5.0-2.48","5d3bcf190e510a001b3df200","bdp_cybrbll","Sun Mar 26 2023 15:22:46 GMT-0500 (Central Daylight Time)","417838","1","3","","","","","","","","","","177","","","","3","1","[{""stimulus"":""img/3to1/1.png"",""time"":107},{""stimulus"":""img/3to1/2.png"",""time"":205},{""stimulus"":""img/3to1/3.png"",""time"":305},{""stimulus"":""img/3to1/4.png"",""time"":397},{""stimulus"":""img/3to1/5.png"",""time"":495},{""stimulus"":""img/3to1/6.png"",""time"":602},{""stimulus"":""img/3to1/7.png"",""time"":701},{""stimulus"":""img/3to1/8.png"",""time"":793},{""stimulus"":""img/3to1/9.png"",""time"":892},{""stimulus"":""img/3to1/10.png"",""time"":991},{""stimulus"":""img/3to1/11.png"",""time"":1093},{""stimulus"":""img/3to1/12.png"",""time"":1191}]","[]"
"image-keyboard-response","102","109743","0.0-5.0-1.49","5d3bcf190e510a001b3df200","bdp_cybrbll","Sun Mar 26 2023 15:22:46 GMT-0500 (Central Daylight Time)","417838","1","3","","null","","","","observe","","img/1to3/1.png","null","176","736","0.5","0.5","1","2","",""
"animation","103","111036","0.0-5.0-2.49","5d3bcf190e510a001b3df200","bdp_cybrbll","Sun Mar 26 2023 15:22:46 GMT-0500 (Central Daylight Time)","417838","1","3","","","","","","","","","","176","","","","1","2","[{""stimulus"":""img/1to2/1.png"",""time"":101},{""stimulus"":""img/1to2/2.png"",""time"":204},{""stimulus"":""img/1to2/3.png"",""time"":302},{""stimulus"":""img/1to2/4.png"",""time"":397},{""stimulus"":""img/1to2/5.png"",""time"":496},{""stimulus"":""img/1to2/6.png"",""time"":597},{""stimulus"":""img/1to2/7.png"",""time"":694},{""stimulus"":""img/1to2/8.png"",""time"":796},{""stimulus"":""img/1to2/9.png"",""time"":902},{""stimulus"":""img/1to2/10.png"",""time"":995},{""stimulus"":""img/1to2/11.png"",""time"":1093},{""stimulus"":""img/1to2/12.png"",""time"":1194}]","[]"
"image-keyboard-response","104","111096","0.0-5.0-1.50","5d3bcf190e510a001b3df200","bdp_cybrbll","Sun Mar 26 2023 15:22:46 GMT-0500 (Central Daylight Time)","417838","1","3","","59","","","","choice","","img/2to1/1.png","2","175","242","0.5","0.5","2","3","",""
"animation","105","112387","0.0-5.0-2.50","5d3bcf190e510a001b3df200","bdp_cybrbll","Sun Mar 26 2023 15:22:46 GMT-0500 (Central Daylight Time)","417838","1","3","","","","","","","","","","175","","","","2","3","[{""stimulus"":""img/2to3/1.png"",""time"":100},{""stimulus"":""img/2to3/2.png"",""time"":200},{""stimulus"":""img/2to3/3.png"",""time"":298},{""stimulus"":""img/2to3/4.png"",""time"":398},{""stimulus"":""img/2to3/5.png"",""time"":497},{""stimulus"":""img/2to3/6.png"",""time"":596},{""stimulus"":""img/2to3/7.png"",""time"":694},{""stimulus"":""img/2to3/8.png"",""time"":800},{""stimulus"":""img/2to3/9.png"",""time"":911},{""stimulus"":""img/2to3/10.png"",""time"":1004},{""stimulus"":""img/2to3/11.png"",""time"":1095},{""stimulus"":""img/2to3/12.png"",""time"":1193}]","[]"
"image-keyboard-response","106","112883","0.0-5.0-1.51","5d3bcf190e510a001b3df200","bdp_cybrbll","Sun Mar 26 2023 15:22:46 GMT-0500 (Central Daylight Time)","417838","1","3","","null","","","","observe","","img/3to2/1.png","null","174","494","0.5","0.5","3","1","",""
"animation","107","114172","0.0-5.0-2.51","5d3bcf190e510a001b3df200","bdp_cybrbll","Sun Mar 26 2023 15:22:46 GMT-0500 (Central Daylight Time)","417838","1","3","","","","","","","","","","174","","","","3","1","[{""stimulus"":""img/3to1/1.png"",""time"":100},{""stimulus"":""img/3to1/2.png"",""time"":199},{""stimulus"":""img/3to1/3.png"",""time"":305},{""stimulus"":""img/3to1/4.png"",""time"":397},{""stimulus"":""img/3to1/5.png"",""time"":503},{""stimulus"":""img/3to1/6.png"",""time"":594},{""stimulus"":""img/3to1/7.png"",""time"":709},{""stimulus"":""img/3to1/8.png"",""time"":807},{""stimulus"":""img/3to1/9.png"",""time"":896},{""stimulus"":""img/3to1/10.png"",""time"":996},{""stimulus"":""img/3to1/11.png"",""time"":1093},{""stimulus"":""img/3to1/12.png"",""time"":1191}]","[]"
"image-keyboard-response","108","114793","0.0-5.0-1.52","5d3bcf190e510a001b3df200","bdp_cybrbll","Sun Mar 26 2023 15:22:46 GMT-0500 (Central Daylight Time)","417838","1","3","","null","","","","observe","","img/1to3/1.png","null","173","619","0.5","0.5","1","2","",""
"animation","109","116086","0.0-5.0-2.52","5d3bcf190e510a001b3df200","bdp_cybrbll","Sun Mar 26 2023 15:22:46 GMT-0500 (Central Daylight Time)","417838","1","3","","","","","","","","","","173","","","","1","2","[{""stimulus"":""img/1to2/1.png"",""time"":107},{""stimulus"":""img/1to2/2.png"",""time"":199},{""stimulus"":""img/1to2/3.png"",""time"":299},{""stimulus"":""img/1to2/4.png"",""time"":397},{""stimulus"":""img/1to2/5.png"",""time"":495},{""stimulus"":""img/1to2/6.png"",""time"":595},{""stimulus"":""img/1to2/7.png"",""time"":695},{""stimulus"":""img/1to2/8.png"",""time"":793},{""stimulus"":""img/1to2/9.png"",""time"":892},{""stimulus"":""img/1to2/10.png"",""time"":995},{""stimulus"":""img/1to2/11.png"",""time"":1093},{""stimulus"":""img/1to2/12.png"",""time"":1194}]","[]"
"image-keyboard-response","110","116739","0.0-5.0-1.53","5d3bcf190e510a001b3df200","bdp_cybrbll","Sun Mar 26 2023 15:22:46 GMT-0500 (Central Daylight Time)","417838","1","3","","653","","","","choice","","img/2to1/1.png","2","172","777","0.5","0.5","2","3","",""
"animation","111","118028","0.0-5.0-2.53","5d3bcf190e510a001b3df200","bdp_cybrbll","Sun Mar 26 2023 15:22:46 GMT-0500 (Central Daylight Time)","417838","1","3","","","","","","","","","","172","","","","2","3","[{""stimulus"":""img/2to3/1.png"",""time"":106},{""stimulus"":""img/2to3/2.png"",""time"":207},{""stimulus"":""img/2to3/3.png"",""time"":305},{""stimulus"":""img/2to3/4.png"",""time"":403},{""stimulus"":""img/2to3/5.png"",""time"":497},{""stimulus"":""img/2to3/6.png"",""time"":595},{""stimulus"":""img/2to3/7.png"",""time"":701},{""stimulus"":""img/2to3/8.png"",""time"":800},{""stimulus"":""img/2to3/9.png"",""time"":899},{""stimulus"":""img/2to3/10.png"",""time"":998},{""stimulus"":""img/2to3/11.png"",""time"":1097},{""stimulus"":""img/2to3/12.png"",""time"":1190}]","[]"
"image-keyboard-response","112","118447","0.0-5.0-1.54","5d3bcf190e510a001b3df200","bdp_cybrbll","Sun Mar 26 2023 15:22:46 GMT-0500 (Central Daylight Time)","417838","1","3","","null","","","","observe","","img/3to2/1.png","null","171","413","0.5","0.5","3","2","",""
"animation","113","119740","0.0-5.0-2.54","5d3bcf190e510a001b3df200","bdp_cybrbll","Sun Mar 26 2023 15:22:46 GMT-0500 (Central Daylight Time)","417838","1","3","","","","","","","","","","171","","","","3","2","[{""stimulus"":""img/3to2/1.png"",""time"":100},{""stimulus"":""img/3to2/2.png"",""time"":199},{""stimulus"":""img/3to2/3.png"",""time"":300},{""stimulus"":""img/3to2/4.png"",""time"":402},{""stimulus"":""img/3to2/5.png"",""time"":500},{""stimulus"":""img/3to2/6.png"",""time"":601},{""stimulus"":""img/3to2/7.png"",""time"":702},{""stimulus"":""img/3to2/8.png"",""time"":800},{""stimulus"":""img/3to2/9.png"",""time"":898},{""stimulus"":""img/3to2/10.png"",""time"":999},{""stimulus"":""img/3to2/11.png"",""time"":1097},{""stimulus"":""img/3to2/12.png"",""time"":1195}]","[]"
"image-keyboard-response","114","120200","0.0-5.0-1.55","5d3bcf190e510a001b3df200","bdp_cybrbll","Sun Mar 26 2023 15:22:46 GMT-0500 (Central Daylight Time)","417838","1","3","","459","","","","choice","","img/2to1/1.png","1","170","222","0.5","0.5","2","1","",""
"animation","115","121493","0.0-5.0-2.55","5d3bcf190e510a001b3df200","bdp_cybrbll","Sun Mar 26 2023 15:22:46 GMT-0500 (Central Daylight Time)","417838","1","3","","","","","","","","","","170","","","","2","1","[{""stimulus"":""img/2to1/1.png"",""time"":107},{""stimulus"":""img/2to1/2.png"",""time"":207},{""stimulus"":""img/2to1/3.png"",""time"":306},{""stimulus"":""img/2to1/4.png"",""time"":404},{""stimulus"":""img/2to1/5.png"",""time"":502},{""stimulus"":""img/2to1/6.png"",""time"":601},{""stimulus"":""img/2to1/7.png"",""time"":699},{""stimulus"":""img/2to1/8.png"",""time"":796},{""stimulus"":""img/2to1/9.png"",""time"":896},{""stimulus"":""img/2to1/10.png"",""time"":995},{""stimulus"":""img/2to1/11.png"",""time"":1094},{""stimulus"":""img/2to1/12.png"",""time"":1194}]","[]"
"image-keyboard-response","116","122119","0.0-5.0-1.56","5d3bcf190e510a001b3df200","bdp_cybrbll","Sun Mar 26 2023 15:22:46 GMT-0500 (Central Daylight Time)","417838","1","3","","null","","","","observe","","img/1to3/1.png","null","169","618","0.5","0.5","1","3","",""
"animation","117","123413","0.0-5.0-2.56","5d3bcf190e510a001b3df200","bdp_cybrbll","Sun Mar 26 2023 15:22:46 GMT-0500 (Central Daylight Time)","417838","1","3","","","","","","","","","","169","","","","1","3","[{""stimulus"":""img/1to3/1.png"",""time"":100},{""stimulus"":""img/1to3/2.png"",""time"":207},{""stimulus"":""img/1to3/3.png"",""time"":298},{""stimulus"":""img/1to3/4.png"",""time"":404},{""stimulus"":""img/1to3/5.png"",""time"":496},{""stimulus"":""img/1to3/6.png"",""time"":600},{""stimulus"":""img/1to3/7.png"",""time"":698},{""stimulus"":""img/1to3/8.png"",""time"":797},{""stimulus"":""img/1to3/9.png"",""time"":896},{""stimulus"":""img/1to3/10.png"",""time"":995},{""stimulus"":""img/1to3/11.png"",""time"":1095},{""stimulus"":""img/1to3/12.png"",""time"":1193}]","[]"
"image-keyboard-response","118","124149","0.0-5.0-1.57","5d3bcf190e510a001b3df200","bdp_cybrbll","Sun Mar 26 2023 15:22:46 GMT-0500 (Central Daylight Time)","417838","1","3","","null","","","","observe","","img/3to2/1.png","null","168","726","0.5","0.5","3","1","",""
"animation","119","125446","0.0-5.0-2.57","5d3bcf190e510a001b3df200","bdp_cybrbll","Sun Mar 26 2023 15:22:46 GMT-0500 (Central Daylight Time)","417838","1","3","","","","","","","","","","168","","","","3","1","[{""stimulus"":""img/3to1/1.png"",""time"":101},{""stimulus"":""img/3to1/2.png"",""time"":199},{""stimulus"":""img/3to1/3.png"",""time"":301},{""stimulus"":""img/3to1/4.png"",""time"":398},{""stimulus"":""img/3to1/5.png"",""time"":497},{""stimulus"":""img/3to1/6.png"",""time"":595},{""stimulus"":""img/3to1/7.png"",""time"":699},{""stimulus"":""img/3to1/8.png"",""time"":798},{""stimulus"":""img/3to1/9.png"",""time"":898},{""stimulus"":""img/3to1/10.png"",""time"":998},{""stimulus"":""img/3to1/11.png"",""time"":1096},{""stimulus"":""img/3to1/12.png"",""time"":1190}]","[]"
"image-keyboard-response","120","125804","0.0-5.0-1.58","5d3bcf190e510a001b3df200","bdp_cybrbll","Sun Mar 26 2023 15:22:46 GMT-0500 (Central Daylight Time)","417838","1","3","","null","","","","observe","","img/1to3/1.png","null","167","356","0.5","0.5","1","2","",""
"animation","121","127094","0.0-5.0-2.58","5d3bcf190e510a001b3df200","bdp_cybrbll","Sun Mar 26 2023 15:22:46 GMT-0500 (Central Daylight Time)","417838","1","3","","","","","","","","","","167","","","","1","2","[{""stimulus"":""img/1to2/1.png"",""time"":107},{""stimulus"":""img/1to2/2.png"",""time"":205},{""stimulus"":""img/1to2/3.png"",""time"":304},{""stimulus"":""img/1to2/4.png"",""time"":402},{""stimulus"":""img/1to2/5.png"",""time"":502},{""stimulus"":""img/1to2/6.png"",""time"":601},{""stimulus"":""img/1to2/7.png"",""time"":700},{""stimulus"":""img/1to2/8.png"",""time"":806},{""stimulus"":""img/1to2/9.png"",""time"":896},{""stimulus"":""img/1to2/10.png"",""time"":994},{""stimulus"":""img/1to2/11.png"",""time"":1092},{""stimulus"":""img/1to2/12.png"",""time"":1190}]","[]"
"image-keyboard-response","122","127186","0.0-5.0-1.59","5d3bcf190e510a001b3df200","bdp_cybrbll","Sun Mar 26 2023 15:22:46 GMT-0500 (Central Daylight Time)","417838","1","3","","92","","","","choice","","img/2to1/1.png","2","166","463","0.5","0.5","2","3","",""
"animation","123","128476","0.0-5.0-2.59","5d3bcf190e510a001b3df200","bdp_cybrbll","Sun Mar 26 2023 15:22:46 GMT-0500 (Central Daylight Time)","417838","1","3","","","","","","","","","","166","","","","2","3","[{""stimulus"":""img/2to3/1.png"",""time"":106},{""stimulus"":""img/2to3/2.png"",""time"":204},{""stimulus"":""img/2to3/3.png"",""time"":303},{""stimulus"":""img/2to3/4.png"",""time"":401},{""stimulus"":""img/2to3/5.png"",""time"":499},{""stimulus"":""img/2to3/6.png"",""time"":597},{""stimulus"":""img/2to3/7.png"",""time"":695},{""stimulus"":""img/2to3/8.png"",""time"":801},{""stimulus"":""img/2to3/9.png"",""time"":892},{""stimulus"":""img/2to3/10.png"",""time"":999},{""stimulus"":""img/2to3/11.png"",""time"":1093},{""stimulus"":""img/2to3/12.png"",""time"":1192}]","[]"
"image-keyboard-response","124","128931","0.0-5.0-1.60","5d3bcf190e510a001b3df200","bdp_cybrbll","Sun Mar 26 2023 15:22:46 GMT-0500 (Central Daylight Time)","417838","1","3","","null","","","","observe","","img/3to2/1.png","null","165","450","0.5","0.5","3","1","",""
"animation","125","130227","0.0-5.0-2.60","5d3bcf190e510a001b3df200","bdp_cybrbll","Sun Mar 26 2023 15:22:46 GMT-0500 (Central Daylight Time)","417838","1","3","","","","","","","","","","165","","","","3","1","[{""stimulus"":""img/3to1/1.png"",""time"":101},{""stimulus"":""img/3to1/2.png"",""time"":199},{""stimulus"":""img/3to1/3.png"",""time"":304},{""stimulus"":""img/3to1/4.png"",""time"":411},{""stimulus"":""img/3to1/5.png"",""time"":500},{""stimulus"":""img/3to1/6.png"",""time"":598},{""stimulus"":""img/3to1/7.png"",""time"":698},{""stimulus"":""img/3to1/8.png"",""time"":800},{""stimulus"":""img/3to1/9.png"",""time"":898},{""stimulus"":""img/3to1/10.png"",""time"":997},{""stimulus"":""img/3to1/11.png"",""time"":1095},{""stimulus"":""img/3to1/12.png"",""time"":1193}]","[]"
"image-keyboard-response","126","130409","0.0-5.0-1.61","5d3bcf190e510a001b3df200","bdp_cybrbll","Sun Mar 26 2023 15:22:46 GMT-0500 (Central Daylight Time)","417838","1","3","","null","","","","observe","","img/1to3/1.png","null","164","177","0.5","0.5","1","2","",""
"animation","127","131702","0.0-5.0-2.61","5d3bcf190e510a001b3df200","bdp_cybrbll","Sun Mar 26 2023 15:22:46 GMT-0500 (Central Daylight Time)","417838","1","3","","","","","","","","","","164","","","","1","2","[{""stimulus"":""img/1to2/1.png"",""time"":105},{""stimulus"":""img/1to2/2.png"",""time"":204},{""stimulus"":""img/1to2/3.png"",""time"":304},{""stimulus"":""img/1to2/4.png"",""time"":398},{""stimulus"":""img/1to2/5.png"",""time"":498},{""stimulus"":""img/1to2/6.png"",""time"":597},{""stimulus"":""img/1to2/7.png"",""time"":696},{""stimulus"":""img/1to2/8.png"",""time"":795},{""stimulus"":""img/1to2/9.png"",""time"":892},{""stimulus"":""img/1to2/10.png"",""time"":991},{""stimulus"":""img/1to2/11.png"",""time"":1100},{""stimulus"":""img/1to2/12.png"",""time"":1191}]","[]"
"image-keyboard-response","128","131858","0.0-5.0-1.62","5d3bcf190e510a001b3df200","bdp_cybrbll","Sun Mar 26 2023 15:22:46 GMT-0500 (Central Daylight Time)","417838","1","3","","156","","","","choice","","img/2to1/1.png","2","163","305","0.5","0.5","2","3","",""
"animation","129","133147","0.0-5.0-2.62","5d3bcf190e510a001b3df200","bdp_cybrbll","Sun Mar 26 2023 15:22:46 GMT-0500 (Central Daylight Time)","417838","1","3","","","","","","","","","","163","","","","2","3","[{""stimulus"":""img/2to3/1.png"",""time"":102},{""stimulus"":""img/2to3/2.png"",""time"":202},{""stimulus"":""img/2to3/3.png"",""time"":299},{""stimulus"":""img/2to3/4.png"",""time"":398},{""stimulus"":""img/2to3/5.png"",""time"":497},{""stimulus"":""img/2to3/6.png"",""time"":606},{""stimulus"":""img/2to3/7.png"",""time"":696},{""stimulus"":""img/2to3/8.png"",""time"":796},{""stimulus"":""img/2to3/9.png"",""time"":894},{""stimulus"":""img/2to3/10.png"",""time"":998},{""stimulus"":""img/2to3/11.png"",""time"":1098},{""stimulus"":""img/2to3/12.png"",""time"":1189}]","[]"
"image-keyboard-response","130","133347","0.0-5.0-1.63","5d3bcf190e510a001b3df200","bdp_cybrbll","Sun Mar 26 2023 15:22:46 GMT-0500 (Central Daylight Time)","417838","1","3","","null","","","","observe","","img/3to2/1.png","null","162","197","0.5","0.5","3","2","",""
"animation","131","134635","0.0-5.0-2.63","5d3bcf190e510a001b3df200","bdp_cybrbll","Sun Mar 26 2023 15:22:46 GMT-0500 (Central Daylight Time)","417838","1","3","","","","","","","","","","162","","","","3","2","[{""stimulus"":""img/3to2/1.png"",""time"":102},{""stimulus"":""img/3to2/2.png"",""time"":203},{""stimulus"":""img/3to2/3.png"",""time"":300},{""stimulus"":""img/3to2/4.png"",""time"":399},{""stimulus"":""img/3to2/5.png"",""time"":500},{""stimulus"":""img/3to2/6.png"",""time"":598},{""stimulus"":""img/3to2/7.png"",""time"":698},{""stimulus"":""img/3to2/8.png"",""time"":800},{""stimulus"":""img/3to2/9.png"",""time"":898},{""stimulus"":""img/3to2/10.png"",""time"":997},{""stimulus"":""img/3to2/11.png"",""time"":1090},{""stimulus"":""img/3to2/12.png"",""time"":1197}]","[]"
"image-keyboard-response","132","136672","0.0-5.0-1.64","5d3bcf190e510a001b3df200","bdp_cybrbll","Sun Mar 26 2023 15:22:46 GMT-0500 (Central Daylight Time)","417838","1","3","","2035","","","","choice","","img/2to1/1.png","1","161","885","0.5","0.5","2","1","",""
"animation","133","137965","0.0-5.0-2.64","5d3bcf190e510a001b3df200","bdp_cybrbll","Sun Mar 26 2023 15:22:46 GMT-0500 (Central Daylight Time)","417838","1","3","","","","","","","","","","161","","","","2","1","[{""stimulus"":""img/2to1/1.png"",""time"":105},{""stimulus"":""img/2to1/2.png"",""time"":203},{""stimulus"":""img/2to1/3.png"",""time"":302},{""stimulus"":""img/2to1/4.png"",""time"":396},{""stimulus"":""img/2to1/5.png"",""time"":502},{""stimulus"":""img/2to1/6.png"",""time"":595},{""stimulus"":""img/2to1/7.png"",""time"":694},{""stimulus"":""img/2to1/8.png"",""time"":794},{""stimulus"":""img/2to1/9.png"",""time"":894},{""stimulus"":""img/2to1/10.png"",""time"":995},{""stimulus"":""img/2to1/11.png"",""time"":1095},{""stimulus"":""img/2to1/12.png"",""time"":1196}]","[]"
"image-keyboard-response","134","138333","0.0-5.0-1.65","5d3bcf190e510a001b3df200","bdp_cybrbll","Sun Mar 26 2023 15:22:46 GMT-0500 (Central Daylight Time)","417838","1","3","","null","","","","observe","","img/1to3/1.png","null","160","363","0.5","0.5","1","3","",""
"animation","135","139627","0.0-5.0-2.65","5d3bcf190e510a001b3df200","bdp_cybrbll","Sun Mar 26 2023 15:22:46 GMT-0500 (Central Daylight Time)","417838","1","3","","","","","","","","","","160","","","","1","3","[{""stimulus"":""img/1to3/1.png"",""time"":109},{""stimulus"":""img/1to3/2.png"",""time"":204},{""stimulus"":""img/1to3/3.png"",""time"":304},{""stimulus"":""img/1to3/4.png"",""time"":402},{""stimulus"":""img/1to3/5.png"",""time"":499},{""stimulus"":""img/1to3/6.png"",""time"":609},{""stimulus"":""img/1to3/7.png"",""time"":699},{""stimulus"":""img/1to3/8.png"",""time"":796},{""stimulus"":""img/1to3/9.png"",""time"":894},{""stimulus"":""img/1to3/10.png"",""time"":993},{""stimulus"":""img/1to3/11.png"",""time"":1094},{""stimulus"":""img/1to3/12.png"",""time"":1194}]","[]"
"image-keyboard-response","136","140382","0.0-5.0-1.66","5d3bcf190e510a001b3df200","bdp_cybrbll","Sun Mar 26 2023 15:22:46 GMT-0500 (Central Daylight Time)","417838","1","3","","null","","","","observe","","img/3to2/1.png","null","159","739","0.5","0.5","3","1","",""
"animation","137","141676","0.0-5.0-2.66","5d3bcf190e510a001b3df200","bdp_cybrbll","Sun Mar 26 2023 15:22:46 GMT-0500 (Central Daylight Time)","417838","1","3","","","","","","","","","","159","","","","3","1","[{""stimulus"":""img/3to1/1.png"",""time"":107},{""stimulus"":""img/3to1/2.png"",""time"":205},{""stimulus"":""img/3to1/3.png"",""time"":305},{""stimulus"":""img/3to1/4.png"",""time"":403},{""stimulus"":""img/3to1/5.png"",""time"":502},{""stimulus"":""img/3to1/6.png"",""time"":600},{""stimulus"":""img/3to1/7.png"",""time"":698},{""stimulus"":""img/3to1/8.png"",""time"":795},{""stimulus"":""img/3to1/9.png"",""time"":893},{""stimulus"":""img/3to1/10.png"",""time"":991},{""stimulus"":""img/3to1/11.png"",""time"":1098},{""stimulus"":""img/3to1/12.png"",""time"":1195}]","[]"
"image-keyboard-response","138","142779","0.0-5.0-1.67","5d3bcf190e510a001b3df200","bdp_cybrbll","Sun Mar 26 2023 15:22:46 GMT-0500 (Central Daylight Time)","417838","1","3","","null","","","","observe","","img/1to3/1.png","null","158","1098","0.5","0.5","1","3","",""
"animation","139","144073","0.0-5.0-2.67","5d3bcf190e510a001b3df200","bdp_cybrbll","Sun Mar 26 2023 15:22:46 GMT-0500 (Central Daylight Time)","417838","1","3","","","","","","","","","","158","","","","1","3","[{""stimulus"":""img/1to3/1.png"",""time"":107},{""stimulus"":""img/1to3/2.png"",""time"":205},{""stimulus"":""img/1to3/3.png"",""time"":304},{""stimulus"":""img/1to3/4.png"",""time"":403},{""stimulus"":""img/1to3/5.png"",""time"":510},{""stimulus"":""img/1to3/6.png"",""time"":600},{""stimulus"":""img/1to3/7.png"",""time"":706},{""stimulus"":""img/1to3/8.png"",""time"":797},{""stimulus"":""img/1to3/9.png"",""time"":896},{""stimulus"":""img/1to3/10.png"",""time"":997},{""stimulus"":""img/1to3/11.png"",""time"":1089},{""stimulus"":""img/1to3/12.png"",""time"":1194}]","[]"
"image-keyboard-response","140","144379","0.0-5.0-1.68","5d3bcf190e510a001b3df200","bdp_cybrbll","Sun Mar 26 2023 15:22:46 GMT-0500 (Central Daylight Time)","417838","1","3","","null","","","","observe","","img/3to2/1.png","null","157","298","0.5","0.5","3","2","",""
"animation","141","145673","0.0-5.0-2.68","5d3bcf190e510a001b3df200","bdp_cybrbll","Sun Mar 26 2023 15:22:46 GMT-0500 (Central Daylight Time)","417838","1","3","","","","","","","","","","157","","","","3","2","[{""stimulus"":""img/3to2/1.png"",""time"":100},{""stimulus"":""img/3to2/2.png"",""time"":206},{""stimulus"":""img/3to2/3.png"",""time"":304},{""stimulus"":""img/3to2/4.png"",""time"":397},{""stimulus"":""img/3to2/5.png"",""time"":496},{""stimulus"":""img/3to2/6.png"",""time"":594},{""stimulus"":""img/3to2/7.png"",""time"":701},{""stimulus"":""img/3to2/8.png"",""time"":798},{""stimulus"":""img/3to2/9.png"",""time"":898},{""stimulus"":""img/3to2/10.png"",""time"":996},{""stimulus"":""img/3to2/11.png"",""time"":1103},{""stimulus"":""img/3to2/12.png"",""time"":1195}]","[]"
"image-keyboard-response","142","145733","0.0-5.0-1.69","5d3bcf190e510a001b3df200","bdp_cybrbll","Sun Mar 26 2023 15:22:46 GMT-0500 (Central Daylight Time)","417838","1","3","","58","","","","choice","","img/2to1/1.png","1","156","459","0.5","0.5","2","1","",""
"animation","143","147032","0.0-5.0-2.69","5d3bcf190e510a001b3df200","bdp_cybrbll","Sun Mar 26 2023 15:22:46 GMT-0500 (Central Daylight Time)","417838","1","3","","","","","","","","","","156","","","","2","1","[{""stimulus"":""img/2to1/1.png"",""time"":104},{""stimulus"":""img/2to1/2.png"",""time"":204},{""stimulus"":""img/2to1/3.png"",""time"":303},{""stimulus"":""img/2to1/4.png"",""time"":401},{""stimulus"":""img/2to1/5.png"",""time"":499},{""stimulus"":""img/2to1/6.png"",""time"":596},{""stimulus"":""img/2to1/7.png"",""time"":696},{""stimulus"":""img/2to1/8.png"",""time"":794},{""stimulus"":""img/2to1/9.png"",""time"":892},{""stimulus"":""img/2to1/10.png"",""time"":994},{""stimulus"":""img/2to1/11.png"",""time"":1092},{""stimulus"":""img/2to1/12.png"",""time"":1191}]","[]"
"image-keyboard-response","144","147373","0.0-5.0-1.70","5d3bcf190e510a001b3df200","bdp_cybrbll","Sun Mar 26 2023 15:22:46 GMT-0500 (Central Daylight Time)","417838","1","3","","null","","","","observe","","img/1to3/1.png","null","155","336","0.5","0.5","1","3","",""
"animation","145","148667","0.0-5.0-2.70","5d3bcf190e510a001b3df200","bdp_cybrbll","Sun Mar 26 2023 15:22:46 GMT-0500 (Central Daylight Time)","417838","1","3","","","","","","","","","","155","","","","1","3","[{""stimulus"":""img/1to3/1.png"",""time"":104},{""stimulus"":""img/1to3/2.png"",""time"":204},{""stimulus"":""img/1to3/3.png"",""time"":304},{""stimulus"":""img/1to3/4.png"",""time"":402},{""stimulus"":""img/1to3/5.png"",""time"":501},{""stimulus"":""img/1to3/6.png"",""time"":596},{""stimulus"":""img/1to3/7.png"",""time"":701},{""stimulus"":""img/1to3/8.png"",""time"":801},{""stimulus"":""img/1to3/9.png"",""time"":898},{""stimulus"":""img/1to3/10.png"",""time"":996},{""stimulus"":""img/1to3/11.png"",""time"":1094},{""stimulus"":""img/1to3/12.png"",""time"":1193}]","[]"
"image-keyboard-response","146","149526","0.0-5.0-1.71","5d3bcf190e510a001b3df200","bdp_cybrbll","Sun Mar 26 2023 15:22:46 GMT-0500 (Central Daylight Time)","417838","1","3","","null","","","","observe","","img/3to2/1.png","null","154","853","0.5","0.5","3","2","",""
"animation","147","150817","0.0-5.0-2.71","5d3bcf190e510a001b3df200","bdp_cybrbll","Sun Mar 26 2023 15:22:46 GMT-0500 (Central Daylight Time)","417838","1","3","","","","","","","","","","154","","","","3","2","[{""stimulus"":""img/3to2/1.png"",""time"":103},{""stimulus"":""img/3to2/2.png"",""time"":203},{""stimulus"":""img/3to2/3.png"",""time"":302},{""stimulus"":""img/3to2/4.png"",""time"":401},{""stimulus"":""img/3to2/5.png"",""time"":501},{""stimulus"":""img/3to2/6.png"",""time"":599},{""stimulus"":""img/3to2/7.png"",""time"":697},{""stimulus"":""img/3to2/8.png"",""time"":794},{""stimulus"":""img/3to2/9.png"",""time"":893},{""stimulus"":""img/3to2/10.png"",""time"":991},{""stimulus"":""img/3to2/11.png"",""time"":1093},{""stimulus"":""img/3to2/12.png"",""time"":1192}]","[]"
"image-keyboard-response","148","150867","0.0-5.0-1.72","5d3bcf190e510a001b3df200","bdp_cybrbll","Sun Mar 26 2023 15:22:46 GMT-0500 (Central Daylight Time)","417838","1","3","","49","","","","choice","","img/2to1/1.png","1","153","642","0.5","0.5","2","1","",""
"animation","149","152156","0.0-5.0-2.72","5d3bcf190e510a001b3df200","bdp_cybrbll","Sun Mar 26 2023 15:22:46 GMT-0500 (Central Daylight Time)","417838","1","3","","","","","","","","","","153","","","","2","1","[{""stimulus"":""img/2to1/1.png"",""time"":104},{""stimulus"":""img/2to1/2.png"",""time"":202},{""stimulus"":""img/2to1/3.png"",""time"":301},{""stimulus"":""img/2to1/4.png"",""time"":400},{""stimulus"":""img/2to1/5.png"",""time"":510},{""stimulus"":""img/2to1/6.png"",""time"":601},{""stimulus"":""img/2to1/7.png"",""time"":699},{""stimulus"":""img/2to1/8.png"",""time"":805},{""stimulus"":""img/2to1/9.png"",""time"":895},{""stimulus"":""img/2to1/10.png"",""time"":994},{""stimulus"":""img/2to1/11.png"",""time"":1092},{""stimulus"":""img/2to1/12.png"",""time"":1189}]","[]"
"image-keyboard-response","150","152559","0.0-5.0-1.73","5d3bcf190e510a001b3df200","bdp_cybrbll","Sun Mar 26 2023 15:22:46 GMT-0500 (Central Daylight Time)","417838","1","3","","null","","","","observe","","img/1to3/1.png","null","152","388","0.5","0.5","1","2","",""
"animation","151","153851","0.0-5.0-2.73","5d3bcf190e510a001b3df200","bdp_cybrbll","Sun Mar 26 2023 15:22:46 GMT-0500 (Central Daylight Time)","417838","1","3","","","","","","","","","","152","","","","1","2","[{""stimulus"":""img/1to2/1.png"",""time"":107},{""stimulus"":""img/1to2/2.png"",""time"":206},{""stimulus"":""img/1to2/3.png"",""time"":305},{""stimulus"":""img/1to2/4.png"",""time"":405},{""stimulus"":""img/1to2/5.png"",""time"":496},{""stimulus"":""img/1to2/6.png"",""time"":603},{""stimulus"":""img/1to2/7.png"",""time"":701},{""stimulus"":""img/1to2/8.png"",""time"":800},{""stimulus"":""img/1to2/9.png"",""time"":899},{""stimulus"":""img/1to2/10.png"",""time"":997},{""stimulus"":""img/1to2/11.png"",""time"":1096},{""stimulus"":""img/1to2/12.png"",""time"":1194}]","[]"
"image-keyboard-response","152","154087","0.0-5.0-1.74","5d3bcf190e510a001b3df200","bdp_cybrbll","Sun Mar 26 2023 15:22:46 GMT-0500 (Central Daylight Time)","417838","1","3","","235","","","","choice","","img/2to1/1.png","2","151","1567","0.5","0.5","2","3","",""
"animation","153","155375","0.0-5.0-2.74","5d3bcf190e510a001b3df200","bdp_cybrbll","Sun Mar 26 2023 15:22:46 GMT-0500 (Central Daylight Time)","417838","1","3","","","","","","","","","","151","","","","2","3","[{""stimulus"":""img/2to3/1.png"",""time"":108},{""stimulus"":""img/2to3/2.png"",""time"":202},{""stimulus"":""img/2to3/3.png"",""time"":302},{""stimulus"":""img/2to3/4.png"",""time"":402},{""stimulus"":""img/2to3/5.png"",""time"":500},{""stimulus"":""img/2to3/6.png"",""time"":597},{""stimulus"":""img/2to3/7.png"",""time"":697},{""stimulus"":""img/2to3/8.png"",""time"":795},{""stimulus"":""img/2to3/9.png"",""time"":895},{""stimulus"":""img/2to3/10.png"",""time"":1002},{""stimulus"":""img/2to3/11.png"",""time"":1092},{""stimulus"":""img/2to3/12.png"",""time"":1190}]","[]"
"image-keyboard-response","154","156090","0.0-5.0-1.75","5d3bcf190e510a001b3df200","bdp_cybrbll","Sun Mar 26 2023 15:22:46 GMT-0500 (Central Daylight Time)","417838","1","3","","null","","","","observe","","img/3to2/1.png","null","150","707","0.5","0.5","3","1","",""
"animation","155","157391","0.0-5.0-2.75","5d3bcf190e510a001b3df200","bdp_cybrbll","Sun Mar 26 2023 15:22:46 GMT-0500 (Central Daylight Time)","417838","1","3","","","","","","","","","","150","","","","3","1","[{""stimulus"":""img/3to1/1.png"",""time"":108},{""stimulus"":""img/3to1/2.png"",""time"":199},{""stimulus"":""img/3to1/3.png"",""time"":299},{""stimulus"":""img/3to1/4.png"",""time"":398},{""stimulus"":""img/3to1/5.png"",""time"":496},{""stimulus"":""img/3to1/6.png"",""time"":596},{""stimulus"":""img/3to1/7.png"",""time"":695},{""stimulus"":""img/3to1/8.png"",""time"":796},{""stimulus"":""img/3to1/9.png"",""time"":905},{""stimulus"":""img/3to1/10.png"",""time"":997},{""stimulus"":""img/3to1/11.png"",""time"":1096},{""stimulus"":""img/3to1/12.png"",""time"":1194}]","[]"
"image-keyboard-response","156","157662","0.0-5.0-1.76","5d3bcf190e510a001b3df200","bdp_cybrbll","Sun Mar 26 2023 15:22:46 GMT-0500 (Central Daylight Time)","417838","1","3","","null","","","","observe","","img/1to3/1.png","null","149","266","0.5","0.1","1","2","",""
"animation","157","158956","0.0-5.0-2.76","5d3bcf190e510a001b3df200","bdp_cybrbll","Sun Mar 26 2023 15:22:46 GMT-0500 (Central Daylight Time)","417838","1","3","","","","","","","","","","149","","","","1","2","[{""stimulus"":""img/1to2/1.png"",""time"":107},{""stimulus"":""img/1to2/2.png"",""time"":199},{""stimulus"":""img/1to2/3.png"",""time"":313},{""stimulus"":""img/1to2/4.png"",""time"":404},{""stimulus"":""img/1to2/5.png"",""time"":511},{""stimulus"":""img/1to2/6.png"",""time"":602},{""stimulus"":""img/1to2/7.png"",""time"":694},{""stimulus"":""img/1to2/8.png"",""time"":796},{""stimulus"":""img/1to2/9.png"",""time"":894},{""stimulus"":""img/1to2/10.png"",""time"":992},{""stimulus"":""img/1to2/11.png"",""time"":1091},{""stimulus"":""img/1to2/12.png"",""time"":1192}]","[]"
"image-keyboard-response","158","159753","0.0-5.0-1.77","5d3bcf190e510a001b3df200","bdp_cybrbll","Sun Mar 26 2023 15:22:46 GMT-0500 (Central Daylight Time)","417838","1","3","","796","","","","choice","","img/2to1/1.png","2","148","300","0.5","0.1","2","3","",""
"animation","159","161042","0.0-5.0-2.77","5d3bcf190e510a001b3df200","bdp_cybrbll","Sun Mar 26 2023 15:22:46 GMT-0500 (Central Daylight Time)","417838","1","3","","","","","","","","","","148","","","","2","3","[{""stimulus"":""img/2to3/1.png"",""time"":107},{""stimulus"":""img/2to3/2.png"",""time"":205},{""stimulus"":""img/2to3/3.png"",""time"":304},{""stimulus"":""img/2to3/4.png"",""time"":399},{""stimulus"":""img/2to3/5.png"",""time"":499},{""stimulus"":""img/2to3/6.png"",""time"":597},{""stimulus"":""img/2to3/7.png"",""time"":695},{""stimulus"":""img/2to3/8.png"",""time"":800},{""stimulus"":""img/2to3/9.png"",""time"":906},{""stimulus"":""img/2to3/10.png"",""time"":997},{""stimulus"":""img/2to3/11.png"",""time"":1090},{""stimulus"":""img/2to3/12.png"",""time"":1190}]","[]"
"image-keyboard-response","160","161842","0.0-5.0-1.78","5d3bcf190e510a001b3df200","bdp_cybrbll","Sun Mar 26 2023 15:22:46 GMT-0500 (Central Daylight Time)","417838","1","3","","null","","","","observe","","img/3to2/1.png","null","147","794","0.5","0.1","3","1","",""
"animation","161","163131","0.0-5.0-2.78","5d3bcf190e510a001b3df200","bdp_cybrbll","Sun Mar 26 2023 15:22:46 GMT-0500 (Central Daylight Time)","417838","1","3","","","","","","","","","","147","","","","3","1","[{""stimulus"":""img/3to1/1.png"",""time"":108},{""stimulus"":""img/3to1/2.png"",""time"":206},{""stimulus"":""img/3to1/3.png"",""time"":306},{""stimulus"":""img/3to1/4.png"",""time"":413},{""stimulus"":""img/3to1/5.png"",""time"":497},{""stimulus"":""img/3to1/6.png"",""time"":597},{""stimulus"":""img/3to1/7.png"",""time"":694},{""stimulus"":""img/3to1/8.png"",""time"":797},{""stimulus"":""img/3to1/9.png"",""time"":897},{""stimulus"":""img/3to1/10.png"",""time"":997},{""stimulus"":""img/3to1/11.png"",""time"":1097},{""stimulus"":""img/3to1/12.png"",""time"":1199}]","[]"
"image-keyboard-response","162","163499","0.0-5.0-1.79","5d3bcf190e510a001b3df200","bdp_cybrbll","Sun Mar 26 2023 15:22:46 GMT-0500 (Central Daylight Time)","417838","1","3","","null","","","","observe","","img/1to3/1.png","null","146","363","0.5","0.1","1","3","",""
"animation","163","164795","0.0-5.0-2.79","5d3bcf190e510a001b3df200","bdp_cybrbll","Sun Mar 26 2023 15:22:46 GMT-0500 (Central Daylight Time)","417838","1","3","","","","","","","","","","146","","","","1","3","[{""stimulus"":""img/1to3/1.png"",""time"":108},{""stimulus"":""img/1to3/2.png"",""time"":206},{""stimulus"":""img/1to3/3.png"",""time"":299},{""stimulus"":""img/1to3/4.png"",""time"":398},{""stimulus"":""img/1to3/5.png"",""time"":499},{""stimulus"":""img/1to3/6.png"",""time"":598},{""stimulus"":""img/1to3/7.png"",""time"":696},{""stimulus"":""img/1to3/8.png"",""time"":798},{""stimulus"":""img/1to3/9.png"",""time"":897},{""stimulus"":""img/1to3/10.png"",""time"":995},{""stimulus"":""img/1to3/11.png"",""time"":1090},{""stimulus"":""img/1to3/12.png"",""time"":1197}]","[]"
"image-keyboard-response","164","165007","0.0-5.0-1.80","5d3bcf190e510a001b3df200","bdp_cybrbll","Sun Mar 26 2023 15:22:46 GMT-0500 (Central Daylight Time)","417838","1","3","","null","","","","observe","","img/3to2/1.png","null","145","206","0.5","0.1","3","1","",""
"animation","165","166295","0.0-5.0-2.80","5d3bcf190e510a001b3df200","bdp_cybrbll","Sun Mar 26 2023 15:22:46 GMT-0500 (Central Daylight Time)","417838","1","3","","","","","","","","","","145","","","","3","1","[{""stimulus"":""img/3to1/1.png"",""time"":100},{""stimulus"":""img/3to1/2.png"",""time"":199},{""stimulus"":""img/3to1/3.png"",""time"":298},{""stimulus"":""img/3to1/4.png"",""time"":398},{""stimulus"":""img/3to1/5.png"",""time"":497},{""stimulus"":""img/3to1/6.png"",""time"":598},{""stimulus"":""img/3to1/7.png"",""time"":699},{""stimulus"":""img/3to1/8.png"",""time"":799},{""stimulus"":""img/3to1/9.png"",""time"":898},{""stimulus"":""img/3to1/10.png"",""time"":995},{""stimulus"":""img/3to1/11.png"",""time"":1094},{""stimulus"":""img/3to1/12.png"",""time"":1190}]","[]"
"image-keyboard-response","166","166745","0.0-5.0-1.81","5d3bcf190e510a001b3df200","bdp_cybrbll","Sun Mar 26 2023 15:22:46 GMT-0500 (Central Daylight Time)","417838","1","3","","null","","","","observe","","img/1to3/1.png","null","144","443","0.5","0.1","1","2","",""
"animation","167","168038","0.0-5.0-2.81","5d3bcf190e510a001b3df200","bdp_cybrbll","Sun Mar 26 2023 15:22:46 GMT-0500 (Central Daylight Time)","417838","1","3","","","","","","","","","","144","","","","1","2","[{""stimulus"":""img/1to2/1.png"",""time"":100},{""stimulus"":""img/1to2/2.png"",""time"":199},{""stimulus"":""img/1to2/3.png"",""time"":300},{""stimulus"":""img/1to2/4.png"",""time"":402},{""stimulus"":""img/1to2/5.png"",""time"":502},{""stimulus"":""img/1to2/6.png"",""time"":602},{""stimulus"":""img/1to2/7.png"",""time"":701},{""stimulus"":""img/1to2/8.png"",""time"":800},{""stimulus"":""img/1to2/9.png"",""time"":899},{""stimulus"":""img/1to2/10.png"",""time"":996},{""stimulus"":""img/1to2/11.png"",""time"":1095},{""stimulus"":""img/1to2/12.png"",""time"":1192}]","[]"
"image-keyboard-response","168","168043","0.0-5.0-1.82","5d3bcf190e510a001b3df200","bdp_cybrbll","Sun Mar 26 2023 15:22:46 GMT-0500 (Central Daylight Time)","417838","1","3","","5","","","","choice","","img/2to1/1.png","2","143","1163","0.5","0.1","2","3","",""
"animation","169","169333","0.0-5.0-2.82","5d3bcf190e510a001b3df200","bdp_cybrbll","Sun Mar 26 2023 15:22:46 GMT-0500 (Central Daylight Time)","417838","1","3","","","","","","","","","","143","","","","2","3","[{""stimulus"":""img/2to3/1.png"",""time"":104},{""stimulus"":""img/2to3/2.png"",""time"":203},{""stimulus"":""img/2to3/3.png"",""time"":304},{""stimulus"":""img/2to3/4.png"",""time"":402},{""stimulus"":""img/2to3/5.png"",""time"":500},{""stimulus"":""img/2to3/6.png"",""time"":602},{""stimulus"":""img/2to3/7.png"",""time"":701},{""stimulus"":""img/2to3/8.png"",""time"":799},{""stimulus"":""img/2to3/9.png"",""time"":899},{""stimulus"":""img/2to3/10.png"",""time"":991},{""stimulus"":""img/2to3/11.png"",""time"":1089},{""stimulus"":""img/2to3/12.png"",""time"":1188}]","[]"
"image-keyboard-response","170","170009","0.0-5.0-1.83","5d3bcf190e510a001b3df200","bdp_cybrbll","Sun Mar 26 2023 15:22:46 GMT-0500 (Central Daylight Time)","417838","1","3","","null","","","","observe","","img/3to2/1.png","null","142","674","0.5","0.1","3","1","",""
"animation","171","171296","0.0-5.0-2.83","5d3bcf190e510a001b3df200","bdp_cybrbll","Sun Mar 26 2023 15:22:46 GMT-0500 (Central Daylight Time)","417838","1","3","","","","","","","","","","142","","","","3","1","[{""stimulus"":""img/3to1/1.png"",""time"":100},{""stimulus"":""img/3to1/2.png"",""time"":200},{""stimulus"":""img/3to1/3.png"",""time"":300},{""stimulus"":""img/3to1/4.png"",""time"":398},{""stimulus"":""img/3to1/5.png"",""time"":498},{""stimulus"":""img/3to1/6.png"",""time"":596},{""stimulus"":""img/3to1/7.png"",""time"":695},{""stimulus"":""img/3to1/8.png"",""time"":795},{""stimulus"":""img/3to1/9.png"",""time"":892},{""stimulus"":""img/3to1/10.png"",""time"":998},{""stimulus"":""img/3to1/11.png"",""time"":1090},{""stimulus"":""img/3to1/12.png"",""time"":1190}]","[]"
"image-keyboard-response","172","171969","0.0-5.0-1.84","5d3bcf190e510a001b3df200","bdp_cybrbll","Sun Mar 26 2023 15:22:46 GMT-0500 (Central Daylight Time)","417838","1","3","","null","","","","observe","","img/1to3/1.png","null","141","671","0.5","0.1","1","2","",""
"animation","173","173263","0.0-5.0-2.84","5d3bcf190e510a001b3df200","bdp_cybrbll","Sun Mar 26 2023 15:22:46 GMT-0500 (Central Daylight Time)","417838","1","3","","","","","","","","","","141","","","","1","2","[{""stimulus"":""img/1to2/1.png"",""time"":104},{""stimulus"":""img/1to2/2.png"",""time"":202},{""stimulus"":""img/1to2/3.png"",""time"":300},{""stimulus"":""img/1to2/4.png"",""time"":400},{""stimulus"":""img/1to2/5.png"",""time"":498},{""stimulus"":""img/1to2/6.png"",""time"":597},{""stimulus"":""img/1to2/7.png"",""time"":694},{""stimulus"":""img/1to2/8.png"",""time"":802},{""stimulus"":""img/1to2/9.png"",""time"":907},{""stimulus"":""img/1to2/10.png"",""time"":997},{""stimulus"":""img/1to2/11.png"",""time"":1103},{""stimulus"":""img/1to2/12.png"",""time"":1193}]","[]"
"image-keyboard-response","174","173848","0.0-5.0-1.85","5d3bcf190e510a001b3df200","bdp_cybrbll","Sun Mar 26 2023 15:22:46 GMT-0500 (Central Daylight Time)","417838","1","3","","584","","","","choice","","img/2to1/1.png","2","140","585","0.5","0.1","2","3","",""
"animation","175","175136","0.0-5.0-2.85","5d3bcf190e510a001b3df200","bdp_cybrbll","Sun Mar 26 2023 15:22:46 GMT-0500 (Central Daylight Time)","417838","1","3","","","","","","","","","","140","","","","2","3","[{""stimulus"":""img/2to3/1.png"",""time"":106},{""stimulus"":""img/2to3/2.png"",""time"":204},{""stimulus"":""img/2to3/3.png"",""time"":302},{""stimulus"":""img/2to3/4.png"",""time"":408},{""stimulus"":""img/2to3/5.png"",""time"":500},{""stimulus"":""img/2to3/6.png"",""time"":602},{""stimulus"":""img/2to3/7.png"",""time"":700},{""stimulus"":""img/2to3/8.png"",""time"":800},{""stimulus"":""img/2to3/9.png"",""time"":897},{""stimulus"":""img/2to3/10.png"",""time"":995},{""stimulus"":""img/2to3/11.png"",""time"":1105},{""stimulus"":""img/2to3/12.png"",""time"":1199}]","[]"
"image-keyboard-response","176","175619","0.0-5.0-1.86","5d3bcf190e510a001b3df200","bdp_cybrbll","Sun Mar 26 2023 15:22:46 GMT-0500 (Central Daylight Time)","417838","1","3","","null","","","","observe","","img/3to2/1.png","null","139","480","0.5","0.1","3","1","",""
"animation","177","176909","0.0-5.0-2.86","5d3bcf190e510a001b3df200","bdp_cybrbll","Sun Mar 26 2023 15:22:46 GMT-0500 (Central Daylight Time)","417838","1","3","","","","","","","","","","139","","","","3","1","[{""stimulus"":""img/3to1/1.png"",""time"":106},{""stimulus"":""img/3to1/2.png"",""time"":200},{""stimulus"":""img/3to1/3.png"",""time"":299},{""stimulus"":""img/3to1/4.png"",""time"":397},{""stimulus"":""img/3to1/5.png"",""time"":498},{""stimulus"":""img/3to1/6.png"",""time"":598},{""stimulus"":""img/3to1/7.png"",""time"":697},{""stimulus"":""img/3to1/8.png"",""time"":797},{""stimulus"":""img/3to1/9.png"",""time"":896},{""stimulus"":""img/3to1/10.png"",""time"":1002},{""stimulus"":""img/3to1/11.png"",""time"":1092},{""stimulus"":""img/3to1/12.png"",""time"":1190}]","[]"
"image-keyboard-response","178","177086","0.0-5.0-1.87","5d3bcf190e510a001b3df200","bdp_cybrbll","Sun Mar 26 2023 15:22:46 GMT-0500 (Central Daylight Time)","417838","1","3","","null","","","","observe","","img/1to3/1.png","null","138","168","0.5","0.1","1","2","",""
"animation","179","178374","0.0-5.0-2.87","5d3bcf190e510a001b3df200","bdp_cybrbll","Sun Mar 26 2023 15:22:46 GMT-0500 (Central Daylight Time)","417838","1","3","","","","","","","","","","138","","","","1","2","[{""stimulus"":""img/1to2/1.png"",""time"":107},{""stimulus"":""img/1to2/2.png"",""time"":206},{""stimulus"":""img/1to2/3.png"",""time"":304},{""stimulus"":""img/1to2/4.png"",""time"":401},{""stimulus"":""img/1to2/5.png"",""time"":500},{""stimulus"":""img/1to2/6.png"",""time"":598},{""stimulus"":""img/1to2/7.png"",""time"":698},{""stimulus"":""img/1to2/8.png"",""time"":800},{""stimulus"":""img/1to2/9.png"",""time"":894},{""stimulus"":""img/1to2/10.png"",""time"":993},{""stimulus"":""img/1to2/11.png"",""time"":1091},{""stimulus"":""img/1to2/12.png"",""time"":1190}]","[]"
"image-keyboard-response","180","178929","0.0-5.0-1.88","5d3bcf190e510a001b3df200","bdp_cybrbll","Sun Mar 26 2023 15:22:46 GMT-0500 (Central Daylight Time)","417838","1","3","","555","","","","choice","","img/2to1/1.png","2","137","361","0.5","0.1","2","3","",""
"animation","181","180219","0.0-5.0-2.88","5d3bcf190e510a001b3df200","bdp_cybrbll","Sun Mar 26 2023 15:22:46 GMT-0500 (Central Daylight Time)","417838","1","3","","","","","","","","","","137","","","","2","3","[{""stimulus"":""img/2to3/1.png"",""time"":107},{""stimulus"":""img/2to3/2.png"",""time"":200},{""stimulus"":""img/2to3/3.png"",""time"":299},{""stimulus"":""img/2to3/4.png"",""time"":398},{""stimulus"":""img/2to3/5.png"",""time"":498},{""stimulus"":""img/2to3/6.png"",""time"":596},{""stimulus"":""img/2to3/7.png"",""time"":694},{""stimulus"":""img/2to3/8.png"",""time"":800},{""stimulus"":""img/2to3/9.png"",""time"":899},{""stimulus"":""img/2to3/10.png"",""time"":991},{""stimulus"":""img/2to3/11.png"",""time"":1089},{""stimulus"":""img/2to3/12.png"",""time"":1189}]","[]"
"image-keyboard-response","182","180672","0.0-5.0-1.89","5d3bcf190e510a001b3df200","bdp_cybrbll","Sun Mar 26 2023 15:22:46 GMT-0500 (Central Daylight Time)","417838","1","3","","null","","","","observe","","img/3to2/1.png","null","136","444","0.5","0.1","3","1","",""
"animation","183","181966","0.0-5.0-2.89","5d3bcf190e510a001b3df200","bdp_cybrbll","Sun Mar 26 2023 15:22:46 GMT-0500 (Central Daylight Time)","417838","1","3","","","","","","","","","","136","","","","3","1","[{""stimulus"":""img/3to1/1.png"",""time"":103},{""stimulus"":""img/3to1/2.png"",""time"":200},{""stimulus"":""img/3to1/3.png"",""time"":299},{""stimulus"":""img/3to1/4.png"",""time"":398},{""stimulus"":""img/3to1/5.png"",""time"":503},{""stimulus"":""img/3to1/6.png"",""time"":603},{""stimulus"":""img/3to1/7.png"",""time"":694},{""stimulus"":""img/3to1/8.png"",""time"":794},{""stimulus"":""img/3to1/9.png"",""time"":908},{""stimulus"":""img/3to1/10.png"",""time"":999},{""stimulus"":""img/3to1/11.png"",""time"":1096},{""stimulus"":""img/3to1/12.png"",""time"":1196}]","[]"
"image-keyboard-response","184","182303","0.0-5.0-1.90","5d3bcf190e510a001b3df200","bdp_cybrbll","Sun Mar 26 2023 15:22:46 GMT-0500 (Central Daylight Time)","417838","1","3","","null","","","","observe","","img/1to3/1.png","null","135","334","0.5","0.1","1","2","",""
"animation","185","183606","0.0-5.0-2.90","5d3bcf190e510a001b3df200","bdp_cybrbll","Sun Mar 26 2023 15:22:46 GMT-0500 (Central Daylight Time)","417838","1","3","","","","","","","","","","135","","","","1","2","[{""stimulus"":""img/1to2/1.png"",""time"":100},{""stimulus"":""img/1to2/2.png"",""time"":200},{""stimulus"":""img/1to2/3.png"",""time"":300},{""stimulus"":""img/1to2/4.png"",""time"":399},{""stimulus"":""img/1to2/5.png"",""time"":501},{""stimulus"":""img/1to2/6.png"",""time"":601},{""stimulus"":""img/1to2/7.png"",""time"":699},{""stimulus"":""img/1to2/8.png"",""time"":793},{""stimulus"":""img/1to2/9.png"",""time"":899},{""stimulus"":""img/1to2/10.png"",""time"":992},{""stimulus"":""img/1to2/11.png"",""time"":1092},{""stimulus"":""img/1to2/12.png"",""time"":1189}]","[]"
"image-keyboard-response","186","183614","0.0-5.0-1.91","5d3bcf190e510a001b3df200","bdp_cybrbll","Sun Mar 26 2023 15:22:46 GMT-0500 (Central Daylight Time)","417838","1","3","","7","","","","choice","","img/2to1/1.png","2","134","1062","0.5","0.1","2","3","",""
"animation","187","184902","0.0-5.0-2.91","5d3bcf190e510a001b3df200","bdp_cybrbll","Sun Mar 26 2023 15:22:46 GMT-0500 (Central Daylight Time)","417838","1","3","","","","","","","","","","134","","","","2","3","[{""stimulus"":""img/2to3/1.png"",""time"":108},{""stimulus"":""img/2to3/2.png"",""time"":207},{""stimulus"":""img/2to3/3.png"",""time"":304},{""stimulus"":""img/2to3/4.png"",""time"":403},{""stimulus"":""img/2to3/5.png"",""time"":503},{""stimulus"":""img/2to3/6.png"",""time"":602},{""stimulus"":""img/2to3/7.png"",""time"":696},{""stimulus"":""img/2to3/8.png"",""time"":793},{""stimulus"":""img/2to3/9.png"",""time"":894},{""stimulus"":""img/2to3/10.png"",""time"":992},{""stimulus"":""img/2to3/11.png"",""time"":1091},{""stimulus"":""img/2to3/12.png"",""time"":1188}]","[]"
"image-keyboard-response","188","185157","0.0-5.0-1.92","5d3bcf190e510a001b3df200","bdp_cybrbll","Sun Mar 26 2023 15:22:46 GMT-0500 (Central Daylight Time)","417838","1","3","","null","","","","observe","","img/3to2/1.png","null","133","246","0.5","0.1","3","1","",""
"animation","189","186445","0.0-5.0-2.92","5d3bcf190e510a001b3df200","bdp_cybrbll","Sun Mar 26 2023 15:22:46 GMT-0500 (Central Daylight Time)","417838","1","3","","","","","","","","","","133","","","","3","1","[{""stimulus"":""img/3to1/1.png"",""time"":107},{""stimulus"":""img/3to1/2.png"",""time"":205},{""stimulus"":""img/3to1/3.png"",""time"":306},{""stimulus"":""img/3to1/4.png"",""time"":404},{""stimulus"":""img/3to1/5.png"",""time"":502},{""stimulus"":""img/3to1/6.png"",""time"":601},{""stimulus"":""img/3to1/7.png"",""time"":701},{""stimulus"":""img/3to1/8.png"",""time"":799},{""stimulus"":""img/3to1/9.png"",""time"":897},{""stimulus"":""img/3to1/10.png"",""time"":993},{""stimulus"":""img/3to1/11.png"",""time"":1090},{""stimulus"":""img/3to1/12.png"",""time"":1191}]","[]"
"image-keyboard-response","190","187245","0.0-5.0-1.93","5d3bcf190e510a001b3df200","bdp_cybrbll","Sun Mar 26 2023 15:22:46 GMT-0500 (Central Daylight Time)","417838","1","3","","null","","","","observe","","img/1to3/1.png","null","132","793","0.5","0.1","1","3","",""
