"trial_type","trial_index","time_elapsed","internal_node_id","subject_id","task","startTime","totalTime","fairPartner","unfairPartner","view_history","rt","event","trial","time","trialtype","success","stimulus","key_press","throwsLeft","rtDur","pFair","pUnfair","holder","receiver","animation_sequence","responses"
"pavlovia","0","4","0.0-0.0","63fd6f98e4a77457f1b36b9a","bdp_cybrbll","Mon Mar 27 2023 23:38:27 GMT-0400 (Eastern Daylight Time)","433105","1","3","","","","","","","","","","","","","","","","",""
"instructions","1","2847","0.0-1.0","63fd6f98e4a77457f1b36b9a","bdp_cybrbll","Mon Mar 27 2023 23:38:27 GMT-0400 (Eastern Daylight Time)","433105","1","3","[{""page_index"":0,""viewing_time"":2842}]","2842","","","","","","","","","","","","","","",""
"","","","","63fd6f98e4a77457f1b36b9a","bdp_cybrbll","Mon Mar 27 2023 23:38:27 GMT-0400 (Eastern Daylight Time)","433105","1","3","","","fullscreenenter","2","4361","fullscreenenter","","","","","","","","","","",""
"fullscreen","2","5360","0.0-2.0","63fd6f98e4a77457f1b36b9a","bdp_cybrbll","Mon Mar 27 2023 23:38:27 GMT-0400 (Eastern Daylight Time)","433105","1","3","","","","","","","true","","","","","","","","","",""
"instructions","3","32081","0.0-4.0","63fd6f98e4a77457f1b36b9a","bdp_cybrbll","Mon Mar 27 2023 23:38:27 GMT-0400 (Eastern Daylight Time)","433105","1","3","[{""page_index"":0,""viewing_time"":26720}]","26720","","","","","","","","","","","","","","",""
"image-keyboard-response","4","34951","0.0-5.0-1.0","63fd6f98e4a77457f1b36b9a","bdp_cybrbll","Mon Mar 27 2023 23:38:27 GMT-0400 (Eastern Daylight Time)","433105","1","3","","2869","","","","choice","","img/2to1/1.png","1","225","369","0.5","0.5","2","1","",""
"animation","5","36243","0.0-5.0-2.0","63fd6f98e4a77457f1b36b9a","bdp_cybrbll","Mon Mar 27 2023 23:38:27 GMT-0400 (Eastern Daylight Time)","433105","1","3","","","","","","","","","","225","","","","2","1","[{""stimulus"":""img/2to1/1.png"",""time"":108},{""stimulus"":""img/2to1/2.png"",""time"":206},{""stimulus"":""img/2to1/3.png"",""time"":299},{""stimulus"":""img/2to1/4.png"",""time"":403},{""stimulus"":""img/2to1/5.png"",""time"":502},{""stimulus"":""img/2to1/6.png"",""time"":607},{""stimulus"":""img/2to1/7.png"",""time"":700},{""stimulus"":""img/2to1/8.png"",""time"":798},{""stimulus"":""img/2to1/9.png"",""time"":903},{""stimulus"":""img/2to1/10.png"",""time"":995},{""stimulus"":""img/2to1/11.png"",""time"":1094},{""stimulus"":""img/2to1/12.png"",""time"":1199}]","[]"
"image-keyboard-response","6","36487","0.0-5.0-1.1","63fd6f98e4a77457f1b36b9a","bdp_cybrbll","Mon Mar 27 2023 23:38:27 GMT-0400 (Eastern Daylight Time)","433105","1","3","","null","","","","observe","","img/1to3/1.png","null","224","235","0.5","0.5","1","2","",""
"animation","7","37782","0.0-5.0-2.1","63fd6f98e4a77457f1b36b9a","bdp_cybrbll","Mon Mar 27 2023 23:38:27 GMT-0400 (Eastern Daylight Time)","433105","1","3","","","","","","","","","","224","","","","1","2","[{""stimulus"":""img/1to2/1.png"",""time"":111},{""stimulus"":""img/1to2/2.png"",""time"":206},{""stimulus"":""img/1to2/3.png"",""time"":302},{""stimulus"":""img/1to2/4.png"",""time"":406},{""stimulus"":""img/1to2/5.png"",""time"":500},{""stimulus"":""img/1to2/6.png"",""time"":596},{""stimulus"":""img/1to2/7.png"",""time"":703},{""stimulus"":""img/1to2/8.png"",""time"":796},{""stimulus"":""img/1to2/9.png"",""time"":900},{""stimulus"":""img/1to2/10.png"",""time"":999},{""stimulus"":""img/1to2/11.png"",""time"":1092},{""stimulus"":""img/1to2/12.png"",""time"":1196}]","[]"
"image-keyboard-response","8","38311","0.0-5.0-1.2","63fd6f98e4a77457f1b36b9a","bdp_cybrbll","Mon Mar 27 2023 23:38:27 GMT-0400 (Eastern Daylight Time)","433105","1","3","","529","","","","choice","","img/2to1/1.png","2","223","300","0.5","0.5","2","3","",""
"animation","9","39604","0.0-5.0-2.2","63fd6f98e4a77457f1b36b9a","bdp_cybrbll","Mon Mar 27 2023 23:38:27 GMT-0400 (Eastern Daylight Time)","433105","1","3","","","","","","","","","","223","","","","2","3","[{""stimulus"":""img/2to3/1.png"",""time"":110},{""stimulus"":""img/2to3/2.png"",""time"":208},{""stimulus"":""img/2to3/3.png"",""time"":300},{""stimulus"":""img/2to3/4.png"",""time"":404},{""stimulus"":""img/2to3/5.png"",""time"":504},{""stimulus"":""img/2to3/6.png"",""time"":597},{""stimulus"":""img/2to3/7.png"",""time"":701},{""stimulus"":""img/2to3/8.png"",""time"":795},{""stimulus"":""img/2to3/9.png"",""time"":902},{""stimulus"":""img/2to3/10.png"",""time"":997},{""stimulus"":""img/2to3/11.png"",""time"":1096},{""stimulus"":""img/2to3/12.png"",""time"":1200}]","[]"
"image-keyboard-response","10","40388","0.0-5.0-1.3","63fd6f98e4a77457f1b36b9a","bdp_cybrbll","Mon Mar 27 2023 23:38:27 GMT-0400 (Eastern Daylight Time)","433105","1","3","","null","","","","observe","","img/3to2/1.png","null","222","777","0.5","0.5","3","1","",""
"animation","11","41687","0.0-5.0-2.3","63fd6f98e4a77457f1b36b9a","bdp_cybrbll","Mon Mar 27 2023 23:38:27 GMT-0400 (Eastern Daylight Time)","433105","1","3","","","","","","","","","","222","","","","3","1","[{""stimulus"":""img/3to1/1.png"",""time"":105},{""stimulus"":""img/3to1/2.png"",""time"":209},{""stimulus"":""img/3to1/3.png"",""time"":305},{""stimulus"":""img/3to1/4.png"",""time"":401},{""stimulus"":""img/3to1/5.png"",""time"":505},{""stimulus"":""img/3to1/6.png"",""time"":600},{""stimulus"":""img/3to1/7.png"",""time"":697},{""stimulus"":""img/3to1/8.png"",""time"":800},{""stimulus"":""img/3to1/9.png"",""time"":899},{""stimulus"":""img/3to1/10.png"",""time"":1000},{""stimulus"":""img/3to1/11.png"",""time"":1097},{""stimulus"":""img/3to1/12.png"",""time"":1190}]","[]"
"image-keyboard-response","12","42437","0.0-5.0-1.4","63fd6f98e4a77457f1b36b9a","bdp_cybrbll","Mon Mar 27 2023 23:38:27 GMT-0400 (Eastern Daylight Time)","433105","1","3","","null","","","","observe","","img/1to3/1.png","null","221","744","0.5","0.5","1","2","",""
"animation","13","43731","0.0-5.0-2.4","63fd6f98e4a77457f1b36b9a","bdp_cybrbll","Mon Mar 27 2023 23:38:27 GMT-0400 (Eastern Daylight Time)","433105","1","3","","","","","","","","","","221","","","","1","2","[{""stimulus"":""img/1to2/1.png"",""time"":105},{""stimulus"":""img/1to2/2.png"",""time"":209},{""stimulus"":""img/1to2/3.png"",""time"":306},{""stimulus"":""img/1to2/4.png"",""time"":401},{""stimulus"":""img/1to2/5.png"",""time"":505},{""stimulus"":""img/1to2/6.png"",""time"":598},{""stimulus"":""img/1to2/7.png"",""time"":702},{""stimulus"":""img/1to2/8.png"",""time"":801},{""stimulus"":""img/1to2/9.png"",""time"":894},{""stimulus"":""img/1to2/10.png"",""time"":999},{""stimulus"":""img/1to2/11.png"",""time"":1097},{""stimulus"":""img/1to2/12.png"",""time"":1190}]","[]"
"image-keyboard-response","14","45235","0.0-5.0-1.5","63fd6f98e4a77457f1b36b9a","bdp_cybrbll","Mon Mar 27 2023 23:38:27 GMT-0400 (Eastern Daylight Time)","433105","1","3","","1503","","","","choice","","img/2to1/1.png","1","220","284","0.5","0.5","2","1","",""
"animation","15","46532","0.0-5.0-2.5","63fd6f98e4a77457f1b36b9a","bdp_cybrbll","Mon Mar 27 2023 23:38:27 GMT-0400 (Eastern Daylight Time)","433105","1","3","","","","","","","","","","220","","","","2","1","[{""stimulus"":""img/2to1/1.png"",""time"":107},{""stimulus"":""img/2to1/2.png"",""time"":203},{""stimulus"":""img/2to1/3.png"",""time"":307},{""stimulus"":""img/2to1/4.png"",""time"":402},{""stimulus"":""img/2to1/5.png"",""time"":507},{""stimulus"":""img/2to1/6.png"",""time"":604},{""stimulus"":""img/2to1/7.png"",""time"":697},{""stimulus"":""img/2to1/8.png"",""time"":801},{""stimulus"":""img/2to1/9.png"",""time"":897},{""stimulus"":""img/2to1/10.png"",""time"":993},{""stimulus"":""img/2to1/11.png"",""time"":1097},{""stimulus"":""img/2to1/12.png"",""time"":1196}]","[]"
"image-keyboard-response","16","47034","0.0-5.0-1.6","63fd6f98e4a77457f1b36b9a","bdp_cybrbll","Mon Mar 27 2023 23:38:27 GMT-0400 (Eastern Daylight Time)","433105","1","3","","null","","","","observe","","img/1to3/1.png","null","219","496","0.5","0.5","1","2","",""
"animation","17","48335","0.0-5.0-2.6","63fd6f98e4a77457f1b36b9a","bdp_cybrbll","Mon Mar 27 2023 23:38:27 GMT-0400 (Eastern Daylight Time)","433105","1","3","","","","","","","","","","219","","","","1","2","[{""stimulus"":""img/1to2/1.png"",""time"":107},{""stimulus"":""img/1to2/2.png"",""time"":203},{""stimulus"":""img/1to2/3.png"",""time"":307},{""stimulus"":""img/1to2/4.png"",""time"":399},{""stimulus"":""img/1to2/5.png"",""time"":507},{""stimulus"":""img/1to2/6.png"",""time"":603},{""stimulus"":""img/1to2/7.png"",""time"":696},{""stimulus"":""img/1to2/8.png"",""time"":801},{""stimulus"":""img/1to2/9.png"",""time"":900},{""stimulus"":""img/1to2/10.png"",""time"":992},{""stimulus"":""img/1to2/11.png"",""time"":1097},{""stimulus"":""img/1to2/12.png"",""time"":1195}]","[]"
"image-keyboard-response","18","48754","0.0-5.0-1.7","63fd6f98e4a77457f1b36b9a","bdp_cybrbll","Mon Mar 27 2023 23:38:27 GMT-0400 (Eastern Daylight Time)","433105","1","3","","419","","","","choice","","img/2to1/1.png","2","218","581","0.5","0.5","2","3","",""
"animation","19","50047","0.0-5.0-2.7","63fd6f98e4a77457f1b36b9a","bdp_cybrbll","Mon Mar 27 2023 23:38:27 GMT-0400 (Eastern Daylight Time)","433105","1","3","","","","","","","","","","218","","","","2","3","[{""stimulus"":""img/2to3/1.png"",""time"":109},{""stimulus"":""img/2to3/2.png"",""time"":200},{""stimulus"":""img/2to3/3.png"",""time"":306},{""stimulus"":""img/2to3/4.png"",""time"":403},{""stimulus"":""img/2to3/5.png"",""time"":499},{""stimulus"":""img/2to3/6.png"",""time"":602},{""stimulus"":""img/2to3/7.png"",""time"":701},{""stimulus"":""img/2to3/8.png"",""time"":800},{""stimulus"":""img/2to3/9.png"",""time"":899},{""stimulus"":""img/2to3/10.png"",""time"":992},{""stimulus"":""img/2to3/11.png"",""time"":1099},{""stimulus"":""img/2to3/12.png"",""time"":1195}]","[]"
"image-keyboard-response","20","50604","0.0-5.0-1.8","63fd6f98e4a77457f1b36b9a","bdp_cybrbll","Mon Mar 27 2023 23:38:27 GMT-0400 (Eastern Daylight Time)","433105","1","3","","null","","","","observe","","img/3to2/1.png","null","217","552","0.5","0.5","3","1","",""
"animation","21","51899","0.0-5.0-2.8","63fd6f98e4a77457f1b36b9a","bdp_cybrbll","Mon Mar 27 2023 23:38:27 GMT-0400 (Eastern Daylight Time)","433105","1","3","","","","","","","","","","217","","","","3","1","[{""stimulus"":""img/3to1/1.png"",""time"":105},{""stimulus"":""img/3to1/2.png"",""time"":209},{""stimulus"":""img/3to1/3.png"",""time"":302},{""stimulus"":""img/3to1/4.png"",""time"":401},{""stimulus"":""img/3to1/5.png"",""time"":506},{""stimulus"":""img/3to1/6.png"",""time"":598},{""stimulus"":""img/3to1/7.png"",""time"":703},{""stimulus"":""img/3to1/8.png"",""time"":802},{""stimulus"":""img/3to1/9.png"",""time"":895},{""stimulus"":""img/3to1/10.png"",""time"":999},{""stimulus"":""img/3to1/11.png"",""time"":1098},{""stimulus"":""img/3to1/12.png"",""time"":1191}]","[]"
"image-keyboard-response","22","52595","0.0-5.0-1.9","63fd6f98e4a77457f1b36b9a","bdp_cybrbll","Mon Mar 27 2023 23:38:27 GMT-0400 (Eastern Daylight Time)","433105","1","3","","null","","","","observe","","img/1to3/1.png","null","216","691","0.5","0.5","1","2","",""
"animation","23","53892","0.0-5.0-2.9","63fd6f98e4a77457f1b36b9a","bdp_cybrbll","Mon Mar 27 2023 23:38:27 GMT-0400 (Eastern Daylight Time)","433105","1","3","","","","","","","","","","216","","","","1","2","[{""stimulus"":""img/1to2/1.png"",""time"":104},{""stimulus"":""img/1to2/2.png"",""time"":204},{""stimulus"":""img/1to2/3.png"",""time"":307},{""stimulus"":""img/1to2/4.png"",""time"":401},{""stimulus"":""img/1to2/5.png"",""time"":506},{""stimulus"":""img/1to2/6.png"",""time"":600},{""stimulus"":""img/1to2/7.png"",""time"":697},{""stimulus"":""img/1to2/8.png"",""time"":795},{""stimulus"":""img/1to2/9.png"",""time"":896},{""stimulus"":""img/1to2/10.png"",""time"":993},{""stimulus"":""img/1to2/11.png"",""time"":1097},{""stimulus"":""img/1to2/12.png"",""time"":1196}]","[]"
"image-keyboard-response","24","54487","0.0-5.0-1.10","63fd6f98e4a77457f1b36b9a","bdp_cybrbll","Mon Mar 27 2023 23:38:27 GMT-0400 (Eastern Daylight Time)","433105","1","3","","594","","","","choice","","img/2to1/1.png","2","215","644","0.5","0.5","2","3","",""
"animation","25","55782","0.0-5.0-2.10","63fd6f98e4a77457f1b36b9a","bdp_cybrbll","Mon Mar 27 2023 23:38:27 GMT-0400 (Eastern Daylight Time)","433105","1","3","","","","","","","","","","215","","","","2","3","[{""stimulus"":""img/2to3/1.png"",""time"":111},{""stimulus"":""img/2to3/2.png"",""time"":204},{""stimulus"":""img/2to3/3.png"",""time"":299},{""stimulus"":""img/2to3/4.png"",""time"":407},{""stimulus"":""img/2to3/5.png"",""time"":500},{""stimulus"":""img/2to3/6.png"",""time"":599},{""stimulus"":""img/2to3/7.png"",""time"":703},{""stimulus"":""img/2to3/8.png"",""time"":796},{""stimulus"":""img/2to3/9.png"",""time"":901},{""stimulus"":""img/2to3/10.png"",""time"":999},{""stimulus"":""img/2to3/11.png"",""time"":1095},{""stimulus"":""img/2to3/12.png"",""time"":1197}]","[]"
"image-keyboard-response","26","55985","0.0-5.0-1.11","63fd6f98e4a77457f1b36b9a","bdp_cybrbll","Mon Mar 27 2023 23:38:27 GMT-0400 (Eastern Daylight Time)","433105","1","3","","null","","","","observe","","img/3to2/1.png","null","214","202","0.5","0.5","3","2","",""
"animation","27","57274","0.0-5.0-2.11","63fd6f98e4a77457f1b36b9a","bdp_cybrbll","Mon Mar 27 2023 23:38:27 GMT-0400 (Eastern Daylight Time)","433105","1","3","","","","","","","","","","214","","","","3","2","[{""stimulus"":""img/3to2/1.png"",""time"":106},{""stimulus"":""img/3to2/2.png"",""time"":202},{""stimulus"":""img/3to2/3.png"",""time"":306},{""stimulus"":""img/3to2/4.png"",""time"":400},{""stimulus"":""img/3to2/5.png"",""time"":499},{""stimulus"":""img/3to2/6.png"",""time"":603},{""stimulus"":""img/3to2/7.png"",""time"":699},{""stimulus"":""img/3to2/8.png"",""time"":801},{""stimulus"":""img/3to2/9.png"",""time"":899},{""stimulus"":""img/3to2/10.png"",""time"":992},{""stimulus"":""img/3to2/11.png"",""time"":1096},{""stimulus"":""img/3to2/12.png"",""time"":1195}]","[]"
"image-keyboard-response","28","57894","0.0-5.0-1.12","63fd6f98e4a77457f1b36b9a","bdp_cybrbll","Mon Mar 27 2023 23:38:27 GMT-0400 (Eastern Daylight Time)","433105","1","3","","619","","","","choice","","img/2to1/1.png","1","213","502","0.5","0.5","2","1","",""
"animation","29","59190","0.0-5.0-2.12","63fd6f98e4a77457f1b36b9a","bdp_cybrbll","Mon Mar 27 2023 23:38:27 GMT-0400 (Eastern Daylight Time)","433105","1","3","","","","","","","","","","213","","","","2","1","[{""stimulus"":""img/2to1/1.png"",""time"":112},{""stimulus"":""img/2to1/2.png"",""time"":205},{""stimulus"":""img/2to1/3.png"",""time"":303},{""stimulus"":""img/2to1/4.png"",""time"":408},{""stimulus"":""img/2to1/5.png"",""time"":501},{""stimulus"":""img/2to1/6.png"",""time"":598},{""stimulus"":""img/2to1/7.png"",""time"":703},{""stimulus"":""img/2to1/8.png"",""time"":798},{""stimulus"":""img/2to1/9.png"",""time"":901},{""stimulus"":""img/2to1/10.png"",""time"":1000},{""stimulus"":""img/2to1/11.png"",""time"":1093},{""stimulus"":""img/2to1/12.png"",""time"":1198}]","[]"
"image-keyboard-response","30","59706","0.0-5.0-1.13","63fd6f98e4a77457f1b36b9a","bdp_cybrbll","Mon Mar 27 2023 23:38:27 GMT-0400 (Eastern Daylight Time)","433105","1","3","","null","","","","observe","","img/1to3/1.png","null","212","510","0.5","0.5","1","2","",""
"animation","31","61006","0.0-5.0-2.13","63fd6f98e4a77457f1b36b9a","bdp_cybrbll","Mon Mar 27 2023 23:38:27 GMT-0400 (Eastern Daylight Time)","433105","1","3","","","","","","","","","","212","","","","1","2","[{""stimulus"":""img/1to2/1.png"",""time"":107},{""stimulus"":""img/1to2/2.png"",""time"":204},{""stimulus"":""img/1to2/3.png"",""time"":308},{""stimulus"":""img/1to2/4.png"",""time"":400},{""stimulus"":""img/1to2/5.png"",""time"":505},{""stimulus"":""img/1to2/6.png"",""time"":603},{""stimulus"":""img/1to2/7.png"",""time"":697},{""stimulus"":""img/1to2/8.png"",""time"":801},{""stimulus"":""img/1to2/9.png"",""time"":900},{""stimulus"":""img/1to2/10.png"",""time"":993},{""stimulus"":""img/1to2/11.png"",""time"":1098},{""stimulus"":""img/1to2/12.png"",""time"":1196}]","[]"
"image-keyboard-response","32","61967","0.0-5.0-1.14","63fd6f98e4a77457f1b36b9a","bdp_cybrbll","Mon Mar 27 2023 23:38:27 GMT-0400 (Eastern Daylight Time)","433105","1","3","","960","","","","choice","","img/2to1/1.png","2","211","380","0.5","0.5","2","3","",""
"animation","33","63259","0.0-5.0-2.14","63fd6f98e4a77457f1b36b9a","bdp_cybrbll","Mon Mar 27 2023 23:38:27 GMT-0400 (Eastern Daylight Time)","433105","1","3","","","","","","","","","","211","","","","2","3","[{""stimulus"":""img/2to3/1.png"",""time"":110},{""stimulus"":""img/2to3/2.png"",""time"":205},{""stimulus"":""img/2to3/3.png"",""time"":298},{""stimulus"":""img/2to3/4.png"",""time"":403},{""stimulus"":""img/2to3/5.png"",""time"":501},{""stimulus"":""img/2to3/6.png"",""time"":605},{""stimulus"":""img/2to3/7.png"",""time"":699},{""stimulus"":""img/2to3/8.png"",""time"":797},{""stimulus"":""img/2to3/9.png"",""time"":902},{""stimulus"":""img/2to3/10.png"",""time"":995},{""stimulus"":""img/2to3/11.png"",""time"":1094},{""stimulus"":""img/2to3/12.png"",""time"":1198}]","[]"
"image-keyboard-response","34","63764","0.0-5.0-1.15","63fd6f98e4a77457f1b36b9a","bdp_cybrbll","Mon Mar 27 2023 23:38:27 GMT-0400 (Eastern Daylight Time)","433105","1","3","","null","","","","observe","","img/3to2/1.png","null","210","496","0.5","0.5","3","1","",""
"animation","35","65058","0.0-5.0-2.15","63fd6f98e4a77457f1b36b9a","bdp_cybrbll","Mon Mar 27 2023 23:38:27 GMT-0400 (Eastern Daylight Time)","433105","1","3","","","","","","","","","","210","","","","3","1","[{""stimulus"":""img/3to1/1.png"",""time"":105},{""stimulus"":""img/3to1/2.png"",""time"":209},{""stimulus"":""img/3to1/3.png"",""time"":302},{""stimulus"":""img/3to1/4.png"",""time"":401},{""stimulus"":""img/3to1/5.png"",""time"":504},{""stimulus"":""img/3to1/6.png"",""time"":597},{""stimulus"":""img/3to1/7.png"",""time"":697},{""stimulus"":""img/3to1/8.png"",""time"":801},{""stimulus"":""img/3to1/9.png"",""time"":894},{""stimulus"":""img/3to1/10.png"",""time"":998},{""stimulus"":""img/3to1/11.png"",""time"":1097},{""stimulus"":""img/3to1/12.png"",""time"":1190}]","[]"
"image-keyboard-response","36","66746","0.0-5.0-1.16","63fd6f98e4a77457f1b36b9a","bdp_cybrbll","Mon Mar 27 2023 23:38:27 GMT-0400 (Eastern Daylight Time)","433105","1","3","","null","","","","observe","","img/1to3/1.png","null","209","1685","0.5","0.5","1","2","",""
"animation","37","68041","0.0-5.0-2.16","63fd6f98e4a77457f1b36b9a","bdp_cybrbll","Mon Mar 27 2023 23:38:27 GMT-0400 (Eastern Daylight Time)","433105","1","3","","","","","","","","","","209","","","","1","2","[{""stimulus"":""img/1to2/1.png"",""time"":106},{""stimulus"":""img/1to2/2.png"",""time"":203},{""stimulus"":""img/1to2/3.png"",""time"":308},{""stimulus"":""img/1to2/4.png"",""time"":402},{""stimulus"":""img/1to2/5.png"",""time"":507},{""stimulus"":""img/1to2/6.png"",""time"":599},{""stimulus"":""img/1to2/7.png"",""time"":698},{""stimulus"":""img/1to2/8.png"",""time"":802},{""stimulus"":""img/1to2/9.png"",""time"":896},{""stimulus"":""img/1to2/10.png"",""time"":996},{""stimulus"":""img/1to2/11.png"",""time"":1099},{""stimulus"":""img/1to2/12.png"",""time"":1196}]","[]"
"image-keyboard-response","38","69152","0.0-5.0-1.17","63fd6f98e4a77457f1b36b9a","bdp_cybrbll","Mon Mar 27 2023 23:38:27 GMT-0400 (Eastern Daylight Time)","433105","1","3","","1110","","","","choice","","img/2to1/1.png","2","208","567","0.5","0.5","2","3","",""
"animation","39","70445","0.0-5.0-2.17","63fd6f98e4a77457f1b36b9a","bdp_cybrbll","Mon Mar 27 2023 23:38:27 GMT-0400 (Eastern Daylight Time)","433105","1","3","","","","","","","","","","208","","","","2","3","[{""stimulus"":""img/2to3/1.png"",""time"":109},{""stimulus"":""img/2to3/2.png"",""time"":202},{""stimulus"":""img/2to3/3.png"",""time"":308},{""stimulus"":""img/2to3/4.png"",""time"":405},{""stimulus"":""img/2to3/5.png"",""time"":498},{""stimulus"":""img/2to3/6.png"",""time"":603},{""stimulus"":""img/2to3/7.png"",""time"":701},{""stimulus"":""img/2to3/8.png"",""time"":794},{""stimulus"":""img/2to3/9.png"",""time"":899},{""stimulus"":""img/2to3/10.png"",""time"":997},{""stimulus"":""img/2to3/11.png"",""time"":1101},{""stimulus"":""img/2to3/12.png"",""time"":1195}]","[]"
"image-keyboard-response","40","71246","0.0-5.0-1.18","63fd6f98e4a77457f1b36b9a","bdp_cybrbll","Mon Mar 27 2023 23:38:27 GMT-0400 (Eastern Daylight Time)","433105","1","3","","null","","","","observe","","img/3to2/1.png","null","207","787","0.5","0.5","3","2","",""
"animation","41","72541","0.0-5.0-2.18","63fd6f98e4a77457f1b36b9a","bdp_cybrbll","Mon Mar 27 2023 23:38:27 GMT-0400 (Eastern Daylight Time)","433105","1","3","","","","","","","","","","207","","","","3","2","[{""stimulus"":""img/3to2/1.png"",""time"":111},{""stimulus"":""img/3to2/2.png"",""time"":204},{""stimulus"":""img/3to2/3.png"",""time"":302},{""stimulus"":""img/3to2/4.png"",""time"":407},{""stimulus"":""img/3to2/5.png"",""time"":503},{""stimulus"":""img/3to2/6.png"",""time"":598},{""stimulus"":""img/3to2/7.png"",""time"":703},{""stimulus"":""img/3to2/8.png"",""time"":795},{""stimulus"":""img/3to2/9.png"",""time"":900},{""stimulus"":""img/3to2/10.png"",""time"":999},{""stimulus"":""img/3to2/11.png"",""time"":1095},{""stimulus"":""img/3to2/12.png"",""time"":1195}]","[]"
"image-keyboard-response","42","72981","0.0-5.0-1.19","63fd6f98e4a77457f1b36b9a","bdp_cybrbll","Mon Mar 27 2023 23:38:27 GMT-0400 (Eastern Daylight Time)","433105","1","3","","439","","","","choice","","img/2to1/1.png","1","206","222","0.5","0.5","2","1","",""
"animation","43","74276","0.0-5.0-2.19","63fd6f98e4a77457f1b36b9a","bdp_cybrbll","Mon Mar 27 2023 23:38:27 GMT-0400 (Eastern Daylight Time)","433105","1","3","","","","","","","","","","206","","","","2","1","[{""stimulus"":""img/2to1/1.png"",""time"":103},{""stimulus"":""img/2to1/2.png"",""time"":204},{""stimulus"":""img/2to1/3.png"",""time"":303},{""stimulus"":""img/2to1/4.png"",""time"":407},{""stimulus"":""img/2to1/5.png"",""time"":500},{""stimulus"":""img/2to1/6.png"",""time"":599},{""stimulus"":""img/2to1/7.png"",""time"":703},{""stimulus"":""img/2to1/8.png"",""time"":796},{""stimulus"":""img/2to1/9.png"",""time"":895},{""stimulus"":""img/2to1/10.png"",""time"":1000},{""stimulus"":""img/2to1/11.png"",""time"":1092},{""stimulus"":""img/2to1/12.png"",""time"":1197}]","[]"
"image-keyboard-response","44","75002","0.0-5.0-1.20","63fd6f98e4a77457f1b36b9a","bdp_cybrbll","Mon Mar 27 2023 23:38:27 GMT-0400 (Eastern Daylight Time)","433105","1","3","","null","","","","observe","","img/1to3/1.png","null","205","724","0.5","0.5","1","3","",""
"animation","45","76300","0.0-5.0-2.20","63fd6f98e4a77457f1b36b9a","bdp_cybrbll","Mon Mar 27 2023 23:38:27 GMT-0400 (Eastern Daylight Time)","433105","1","3","","","","","","","","","","205","","","","1","3","[{""stimulus"":""img/1to3/1.png"",""time"":105},{""stimulus"":""img/1to3/2.png"",""time"":203},{""stimulus"":""img/1to3/3.png"",""time"":308},{""stimulus"":""img/1to3/4.png"",""time"":401},{""stimulus"":""img/1to3/5.png"",""time"":505},{""stimulus"":""img/1to3/6.png"",""time"":603},{""stimulus"":""img/1to3/7.png"",""time"":696},{""stimulus"":""img/1to3/8.png"",""time"":800},{""stimulus"":""img/1to3/9.png"",""time"":899},{""stimulus"":""img/1to3/10.png"",""time"":992},{""stimulus"":""img/1to3/11.png"",""time"":1097},{""stimulus"":""img/1to3/12.png"",""time"":1196}]","[]"
"image-keyboard-response","46","76841","0.0-5.0-1.21","63fd6f98e4a77457f1b36b9a","bdp_cybrbll","Mon Mar 27 2023 23:38:27 GMT-0400 (Eastern Daylight Time)","433105","1","3","","null","","","","observe","","img/3to2/1.png","null","204","540","0.5","0.5","3","2","",""
"animation","47","78131","0.0-5.0-2.21","63fd6f98e4a77457f1b36b9a","bdp_cybrbll","Mon Mar 27 2023 23:38:27 GMT-0400 (Eastern Daylight Time)","433105","1","3","","","","","","","","","","204","","","","3","2","[{""stimulus"":""img/3to2/1.png"",""time"":106},{""stimulus"":""img/3to2/2.png"",""time"":204},{""stimulus"":""img/3to2/3.png"",""time"":309},{""stimulus"":""img/3to2/4.png"",""time"":402},{""stimulus"":""img/3to2/5.png"",""time"":500},{""stimulus"":""img/3to2/6.png"",""time"":605},{""stimulus"":""img/3to2/7.png"",""time"":700},{""stimulus"":""img/3to2/8.png"",""time"":802},{""stimulus"":""img/3to2/9.png"",""time"":900},{""stimulus"":""img/3to2/10.png"",""time"":994},{""stimulus"":""img/3to2/11.png"",""time"":1098},{""stimulus"":""img/3to2/12.png"",""time"":1197}]","[]"
"image-keyboard-response","48","78641","0.0-5.0-1.22","63fd6f98e4a77457f1b36b9a","bdp_cybrbll","Mon Mar 27 2023 23:38:27 GMT-0400 (Eastern Daylight Time)","433105","1","3","","510","","","","choice","","img/2to1/1.png","1","203","423","0.5","0.5","2","1","",""
"animation","49","79930","0.0-5.0-2.22","63fd6f98e4a77457f1b36b9a","bdp_cybrbll","Mon Mar 27 2023 23:38:27 GMT-0400 (Eastern Daylight Time)","433105","1","3","","","","","","","","","","203","","","","2","1","[{""stimulus"":""img/2to1/1.png"",""time"":105},{""stimulus"":""img/2to1/2.png"",""time"":204},{""stimulus"":""img/2to1/3.png"",""time"":307},{""stimulus"":""img/2to1/4.png"",""time"":400},{""stimulus"":""img/2to1/5.png"",""time"":500},{""stimulus"":""img/2to1/6.png"",""time"":604},{""stimulus"":""img/2to1/7.png"",""time"":700},{""stimulus"":""img/2to1/8.png"",""time"":802},{""stimulus"":""img/2to1/9.png"",""time"":900},{""stimulus"":""img/2to1/10.png"",""time"":993},{""stimulus"":""img/2to1/11.png"",""time"":1100},{""stimulus"":""img/2to1/12.png"",""time"":1196}]","[]"
"image-keyboard-response","50","80244","0.0-5.0-1.23","63fd6f98e4a77457f1b36b9a","bdp_cybrbll","Mon Mar 27 2023 23:38:27 GMT-0400 (Eastern Daylight Time)","433105","1","3","","null","","","","observe","","img/1to3/1.png","null","202","306","0.5","0.5","1","2","",""
"animation","51","81540","0.0-5.0-2.23","63fd6f98e4a77457f1b36b9a","bdp_cybrbll","Mon Mar 27 2023 23:38:27 GMT-0400 (Eastern Daylight Time)","433105","1","3","","","","","","","","","","202","","","","1","2","[{""stimulus"":""img/1to2/1.png"",""time"":105},{""stimulus"":""img/1to2/2.png"",""time"":209},{""stimulus"":""img/1to2/3.png"",""time"":302},{""stimulus"":""img/1to2/4.png"",""time"":400},{""stimulus"":""img/1to2/5.png"",""time"":505},{""stimulus"":""img/1to2/6.png"",""time"":597},{""stimulus"":""img/1to2/7.png"",""time"":696},{""stimulus"":""img/1to2/8.png"",""time"":801},{""stimulus"":""img/1to2/9.png"",""time"":897},{""stimulus"":""img/1to2/10.png"",""time"":997},{""stimulus"":""img/1to2/11.png"",""time"":1097},{""stimulus"":""img/1to2/12.png"",""time"":1190}]","[]"
"image-keyboard-response","52","81928","0.0-5.0-1.24","63fd6f98e4a77457f1b36b9a","bdp_cybrbll","Mon Mar 27 2023 23:38:27 GMT-0400 (Eastern Daylight Time)","433105","1","3","","387","","","","choice","","img/2to1/1.png","2","201","621","0.5","0.5","2","3","",""
"animation","53","83221","0.0-5.0-2.24","63fd6f98e4a77457f1b36b9a","bdp_cybrbll","Mon Mar 27 2023 23:38:27 GMT-0400 (Eastern Daylight Time)","433105","1","3","","","","","","","","","","201","","","","2","3","[{""stimulus"":""img/2to3/1.png"",""time"":110},{""stimulus"":""img/2to3/2.png"",""time"":202},{""stimulus"":""img/2to3/3.png"",""time"":306},{""stimulus"":""img/2to3/4.png"",""time"":406},{""stimulus"":""img/2to3/5.png"",""time"":498},{""stimulus"":""img/2to3/6.png"",""time"":603},{""stimulus"":""img/2to3/7.png"",""time"":702},{""stimulus"":""img/2to3/8.png"",""time"":795},{""stimulus"":""img/2to3/9.png"",""time"":899},{""stimulus"":""img/2to3/10.png"",""time"":998},{""stimulus"":""img/2to3/11.png"",""time"":1101},{""stimulus"":""img/2to3/12.png"",""time"":1195}]","[]"
"image-keyboard-response","54","83523","0.0-5.0-1.25","63fd6f98e4a77457f1b36b9a","bdp_cybrbll","Mon Mar 27 2023 23:38:27 GMT-0400 (Eastern Daylight Time)","433105","1","3","","null","","","","observe","","img/3to2/1.png","null","200","293","0.5","0.5","3","1","",""
"animation","55","84818","0.0-5.0-2.25","63fd6f98e4a77457f1b36b9a","bdp_cybrbll","Mon Mar 27 2023 23:38:27 GMT-0400 (Eastern Daylight Time)","433105","1","3","","","","","","","","","","200","","","","3","1","[{""stimulus"":""img/3to1/1.png"",""time"":105},{""stimulus"":""img/3to1/2.png"",""time"":209},{""stimulus"":""img/3to1/3.png"",""time"":302},{""stimulus"":""img/3to1/4.png"",""time"":401},{""stimulus"":""img/3to1/5.png"",""time"":506},{""stimulus"":""img/3to1/6.png"",""time"":598},{""stimulus"":""img/3to1/7.png"",""time"":703},{""stimulus"":""img/3to1/8.png"",""time"":801},{""stimulus"":""img/3to1/9.png"",""time"":894},{""stimulus"":""img/3to1/10.png"",""time"":999},{""stimulus"":""img/3to1/11.png"",""time"":1098},{""stimulus"":""img/3to1/12.png"",""time"":1191}]","[]"
"image-keyboard-response","56","85868","0.0-5.0-1.26","63fd6f98e4a77457f1b36b9a","bdp_cybrbll","Mon Mar 27 2023 23:38:27 GMT-0400 (Eastern Daylight Time)","433105","1","3","","null","","","","observe","","img/1to3/1.png","null","199","1042","0.5","0.5","1","3","",""
"animation","57","87163","0.0-5.0-2.26","63fd6f98e4a77457f1b36b9a","bdp_cybrbll","Mon Mar 27 2023 23:38:27 GMT-0400 (Eastern Daylight Time)","433105","1","3","","","","","","","","","","199","","","","1","3","[{""stimulus"":""img/1to3/1.png"",""time"":105},{""stimulus"":""img/1to3/2.png"",""time"":209},{""stimulus"":""img/1to3/3.png"",""time"":301},{""stimulus"":""img/1to3/4.png"",""time"":406},{""stimulus"":""img/1to3/5.png"",""time"":505},{""stimulus"":""img/1to3/6.png"",""time"":598},{""stimulus"":""img/1to3/7.png"",""time"":702},{""stimulus"":""img/1to3/8.png"",""time"":801},{""stimulus"":""img/1to3/9.png"",""time"":894},{""stimulus"":""img/1to3/10.png"",""time"":998},{""stimulus"":""img/1to3/11.png"",""time"":1093},{""stimulus"":""img/1to3/12.png"",""time"":1201}]","[]"
"image-keyboard-response","58","87482","0.0-5.0-1.27","63fd6f98e4a77457f1b36b9a","bdp_cybrbll","Mon Mar 27 2023 23:38:27 GMT-0400 (Eastern Daylight Time)","433105","1","3","","null","","","","observe","","img/3to2/1.png","null","198","314","0.5","0.5","3","2","",""
"animation","59","88776","0.0-5.0-2.27","63fd6f98e4a77457f1b36b9a","bdp_cybrbll","Mon Mar 27 2023 23:38:27 GMT-0400 (Eastern Daylight Time)","433105","1","3","","","","","","","","","","198","","","","3","2","[{""stimulus"":""img/3to2/1.png"",""time"":105},{""stimulus"":""img/3to2/2.png"",""time"":209},{""stimulus"":""img/3to2/3.png"",""time"":304},{""stimulus"":""img/3to2/4.png"",""time"":401},{""stimulus"":""img/3to2/5.png"",""time"":505},{""stimulus"":""img/3to2/6.png"",""time"":599},{""stimulus"":""img/3to2/7.png"",""time"":696},{""stimulus"":""img/3to2/8.png"",""time"":801},{""stimulus"":""img/3to2/9.png"",""time"":898},{""stimulus"":""img/3to2/10.png"",""time"":999},{""stimulus"":""img/3to2/11.png"",""time"":1097},{""stimulus"":""img/3to2/12.png"",""time"":1195}]","[]"
"image-keyboard-response","60","89221","0.0-5.0-1.28","63fd6f98e4a77457f1b36b9a","bdp_cybrbll","Mon Mar 27 2023 23:38:27 GMT-0400 (Eastern Daylight Time)","433105","1","3","","444","","","","choice","","img/2to1/1.png","1","197","191","0.5","0.5","2","1","",""
"animation","61","90512","0.0-5.0-2.28","63fd6f98e4a77457f1b36b9a","bdp_cybrbll","Mon Mar 27 2023 23:38:27 GMT-0400 (Eastern Daylight Time)","433105","1","3","","","","","","","","","","197","","","","2","1","[{""stimulus"":""img/2to1/1.png"",""time"":111},{""stimulus"":""img/2to1/2.png"",""time"":205},{""stimulus"":""img/2to1/3.png"",""time"":305},{""stimulus"":""img/2to1/4.png"",""time"":403},{""stimulus"":""img/2to1/5.png"",""time"":501},{""stimulus"":""img/2to1/6.png"",""time"":597},{""stimulus"":""img/2to1/7.png"",""time"":705},{""stimulus"":""img/2to1/8.png"",""time"":798},{""stimulus"":""img/2to1/9.png"",""time"":902},{""stimulus"":""img/2to1/10.png"",""time"":999},{""stimulus"":""img/2to1/11.png"",""time"":1094},{""stimulus"":""img/2to1/12.png"",""time"":1199}]","[]"
"image-keyboard-response","62","91371","0.0-5.0-1.29","63fd6f98e4a77457f1b36b9a","bdp_cybrbll","Mon Mar 27 2023 23:38:27 GMT-0400 (Eastern Daylight Time)","433105","1","3","","null","","","","observe","","img/1to3/1.png","null","196","847","0.5","0.5","1","3","",""
"animation","63","92666","0.0-5.0-2.29","63fd6f98e4a77457f1b36b9a","bdp_cybrbll","Mon Mar 27 2023 23:38:27 GMT-0400 (Eastern Daylight Time)","433105","1","3","","","","","","","","","","196","","","","1","3","[{""stimulus"":""img/1to3/1.png"",""time"":105},{""stimulus"":""img/1to3/2.png"",""time"":209},{""stimulus"":""img/1to3/3.png"",""time"":303},{""stimulus"":""img/1to3/4.png"",""time"":401},{""stimulus"":""img/1to3/5.png"",""time"":506},{""stimulus"":""img/1to3/6.png"",""time"":600},{""stimulus"":""img/1to3/7.png"",""time"":703},{""stimulus"":""img/1to3/8.png"",""time"":802},{""stimulus"":""img/1to3/9.png"",""time"":894},{""stimulus"":""img/1to3/10.png"",""time"":999},{""stimulus"":""img/1to3/11.png"",""time"":1098},{""stimulus"":""img/1to3/12.png"",""time"":1191}]","[]"
"image-keyboard-response","64","92978","0.0-5.0-1.30","63fd6f98e4a77457f1b36b9a","bdp_cybrbll","Mon Mar 27 2023 23:38:27 GMT-0400 (Eastern Daylight Time)","433105","1","3","","null","","","","observe","","img/3to2/1.png","null","195","305","0.5","0.5","3","1","",""
"animation","65","94274","0.0-5.0-2.30","63fd6f98e4a77457f1b36b9a","bdp_cybrbll","Mon Mar 27 2023 23:38:27 GMT-0400 (Eastern Daylight Time)","433105","1","3","","","","","","","","","","195","","","","3","1","[{""stimulus"":""img/3to1/1.png"",""time"":106},{""stimulus"":""img/3to1/2.png"",""time"":210},{""stimulus"":""img/3to1/3.png"",""time"":303},{""stimulus"":""img/3to1/4.png"",""time"":402},{""stimulus"":""img/3to1/5.png"",""time"":506},{""stimulus"":""img/3to1/6.png"",""time"":600},{""stimulus"":""img/3to1/7.png"",""time"":698},{""stimulus"":""img/3to1/8.png"",""time"":803},{""stimulus"":""img/3to1/9.png"",""time"":895},{""stimulus"":""img/3to1/10.png"",""time"":1000},{""stimulus"":""img/3to1/11.png"",""time"":1099},{""stimulus"":""img/3to1/12.png"",""time"":1191}]","[]"
"image-keyboard-response","66","94610","0.0-5.0-1.31","63fd6f98e4a77457f1b36b9a","bdp_cybrbll","Mon Mar 27 2023 23:38:27 GMT-0400 (Eastern Daylight Time)","433105","1","3","","null","","","","observe","","img/1to3/1.png","null","194","329","0.5","0.5","1","3","",""
"animation","67","95905","0.0-5.0-2.31","63fd6f98e4a77457f1b36b9a","bdp_cybrbll","Mon Mar 27 2023 23:38:27 GMT-0400 (Eastern Daylight Time)","433105","1","3","","","","","","","","","","194","","","","1","3","[{""stimulus"":""img/1to3/1.png"",""time"":105},{""stimulus"":""img/1to3/2.png"",""time"":210},{""stimulus"":""img/1to3/3.png"",""time"":302},{""stimulus"":""img/1to3/4.png"",""time"":401},{""stimulus"":""img/1to3/5.png"",""time"":505},{""stimulus"":""img/1to3/6.png"",""time"":599},{""stimulus"":""img/1to3/7.png"",""time"":697},{""stimulus"":""img/1to3/8.png"",""time"":802},{""stimulus"":""img/1to3/9.png"",""time"":895},{""stimulus"":""img/1to3/10.png"",""time"":998},{""stimulus"":""img/1to3/11.png"",""time"":1098},{""stimulus"":""img/1to3/12.png"",""time"":1191}]","[]"
"image-keyboard-response","68","96229","0.0-5.0-1.32","63fd6f98e4a77457f1b36b9a","bdp_cybrbll","Mon Mar 27 2023 23:38:27 GMT-0400 (Eastern Daylight Time)","433105","1","3","","null","","","","observe","","img/3to2/1.png","null","193","317","0.5","0.5","3","1","",""
"animation","69","97523","0.0-5.0-2.32","63fd6f98e4a77457f1b36b9a","bdp_cybrbll","Mon Mar 27 2023 23:38:27 GMT-0400 (Eastern Daylight Time)","433105","1","3","","","","","","","","","","193","","","","3","1","[{""stimulus"":""img/3to1/1.png"",""time"":111},{""stimulus"":""img/3to1/2.png"",""time"":204},{""stimulus"":""img/3to1/3.png"",""time"":303},{""stimulus"":""img/3to1/4.png"",""time"":408},{""stimulus"":""img/3to1/5.png"",""time"":500},{""stimulus"":""img/3to1/6.png"",""time"":599},{""stimulus"":""img/3to1/7.png"",""time"":703},{""stimulus"":""img/3to1/8.png"",""time"":796},{""stimulus"":""img/3to1/9.png"",""time"":901},{""stimulus"":""img/3to1/10.png"",""time"":999},{""stimulus"":""img/3to1/11.png"",""time"":1092},{""stimulus"":""img/3to1/12.png"",""time"":1196}]","[]"
"image-keyboard-response","70","97971","0.0-5.0-1.33","63fd6f98e4a77457f1b36b9a","bdp_cybrbll","Mon Mar 27 2023 23:38:27 GMT-0400 (Eastern Daylight Time)","433105","1","3","","null","","","","observe","","img/1to3/1.png","null","192","440","0.5","0.5","1","2","",""
"animation","71","99265","0.0-5.0-2.33","63fd6f98e4a77457f1b36b9a","bdp_cybrbll","Mon Mar 27 2023 23:38:27 GMT-0400 (Eastern Daylight Time)","433105","1","3","","","","","","","","","","192","","","","1","2","[{""stimulus"":""img/1to2/1.png"",""time"":101},{""stimulus"":""img/1to2/2.png"",""time"":209},{""stimulus"":""img/1to2/3.png"",""time"":301},{""stimulus"":""img/1to2/4.png"",""time"":399},{""stimulus"":""img/1to2/5.png"",""time"":505},{""stimulus"":""img/1to2/6.png"",""time"":601},{""stimulus"":""img/1to2/7.png"",""time"":702},{""stimulus"":""img/1to2/8.png"",""time"":801},{""stimulus"":""img/1to2/9.png"",""time"":894},{""stimulus"":""img/1to2/10.png"",""time"":998},{""stimulus"":""img/1to2/11.png"",""time"":1097},{""stimulus"":""img/1to2/12.png"",""time"":1190}]","[]"
"image-keyboard-response","72","99902","0.0-5.0-1.34","63fd6f98e4a77457f1b36b9a","bdp_cybrbll","Mon Mar 27 2023 23:38:27 GMT-0400 (Eastern Daylight Time)","433105","1","3","","636","","","","choice","","img/2to1/1.png","2","191","384","0.5","0.5","2","3","",""
"animation","73","101193","0.0-5.0-2.34","63fd6f98e4a77457f1b36b9a","bdp_cybrbll","Mon Mar 27 2023 23:38:27 GMT-0400 (Eastern Daylight Time)","433105","1","3","","","","","","","","","","191","","","","2","3","[{""stimulus"":""img/2to3/1.png"",""time"":106},{""stimulus"":""img/2to3/2.png"",""time"":206},{""stimulus"":""img/2to3/3.png"",""time"":299},{""stimulus"":""img/2to3/4.png"",""time"":403},{""stimulus"":""img/2to3/5.png"",""time"":502},{""stimulus"":""img/2to3/6.png"",""time"":606},{""stimulus"":""img/2to3/7.png"",""time"":699},{""stimulus"":""img/2to3/8.png"",""time"":798},{""stimulus"":""img/2to3/9.png"",""time"":902},{""stimulus"":""img/2to3/10.png"",""time"":995},{""stimulus"":""img/2to3/11.png"",""time"":1094},{""stimulus"":""img/2to3/12.png"",""time"":1197}]","[]"
"image-keyboard-response","74","101477","0.0-5.0-1.35","63fd6f98e4a77457f1b36b9a","bdp_cybrbll","Mon Mar 27 2023 23:38:27 GMT-0400 (Eastern Daylight Time)","433105","1","3","","null","","","","observe","","img/3to2/1.png","null","190","273","0.5","0.5","3","1","",""
"animation","75","102772","0.0-5.0-2.35","63fd6f98e4a77457f1b36b9a","bdp_cybrbll","Mon Mar 27 2023 23:38:27 GMT-0400 (Eastern Daylight Time)","433105","1","3","","","","","","","","","","190","","","","3","1","[{""stimulus"":""img/3to1/1.png"",""time"":110},{""stimulus"":""img/3to1/2.png"",""time"":203},{""stimulus"":""img/3to1/3.png"",""time"":302},{""stimulus"":""img/3to1/4.png"",""time"":407},{""stimulus"":""img/3to1/5.png"",""time"":500},{""stimulus"":""img/3to1/6.png"",""time"":598},{""stimulus"":""img/3to1/7.png"",""time"":703},{""stimulus"":""img/3to1/8.png"",""time"":795},{""stimulus"":""img/3to1/9.png"",""time"":900},{""stimulus"":""img/3to1/10.png"",""time"":999},{""stimulus"":""img/3to1/11.png"",""time"":1092},{""stimulus"":""img/3to1/12.png"",""time"":1196}]","[]"
"image-keyboard-response","76","103091","0.0-5.0-1.36","63fd6f98e4a77457f1b36b9a","bdp_cybrbll","Mon Mar 27 2023 23:38:27 GMT-0400 (Eastern Daylight Time)","433105","1","3","","null","","","","observe","","img/1to3/1.png","null","189","310","0.5","0.5","1","2","",""
"animation","77","104386","0.0-5.0-2.36","63fd6f98e4a77457f1b36b9a","bdp_cybrbll","Mon Mar 27 2023 23:38:27 GMT-0400 (Eastern Daylight Time)","433105","1","3","","","","","","","","","","189","","","","1","2","[{""stimulus"":""img/1to2/1.png"",""time"":105},{""stimulus"":""img/1to2/2.png"",""time"":209},{""stimulus"":""img/1to2/3.png"",""time"":302},{""stimulus"":""img/1to2/4.png"",""time"":401},{""stimulus"":""img/1to2/5.png"",""time"":505},{""stimulus"":""img/1to2/6.png"",""time"":598},{""stimulus"":""img/1to2/7.png"",""time"":706},{""stimulus"":""img/1to2/8.png"",""time"":801},{""stimulus"":""img/1to2/9.png"",""time"":894},{""stimulus"":""img/1to2/10.png"",""time"":999},{""stimulus"":""img/1to2/11.png"",""time"":1097},{""stimulus"":""img/1to2/12.png"",""time"":1190}]","[]"
"image-keyboard-response","78","104799","0.0-5.0-1.37","63fd6f98e4a77457f1b36b9a","bdp_cybrbll","Mon Mar 27 2023 23:38:27 GMT-0400 (Eastern Daylight Time)","433105","1","3","","413","","","","choice","","img/2to1/1.png","2","188","535","0.5","0.5","2","3","",""
"animation","79","106091","0.0-5.0-2.37","63fd6f98e4a77457f1b36b9a","bdp_cybrbll","Mon Mar 27 2023 23:38:27 GMT-0400 (Eastern Daylight Time)","433105","1","3","","","","","","","","","","188","","","","2","3","[{""stimulus"":""img/2to3/1.png"",""time"":109},{""stimulus"":""img/2to3/2.png"",""time"":202},{""stimulus"":""img/2to3/3.png"",""time"":301},{""stimulus"":""img/2to3/4.png"",""time"":405},{""stimulus"":""img/2to3/5.png"",""time"":499},{""stimulus"":""img/2to3/6.png"",""time"":603},{""stimulus"":""img/2to3/7.png"",""time"":701},{""stimulus"":""img/2to3/8.png"",""time"":794},{""stimulus"":""img/2to3/9.png"",""time"":899},{""stimulus"":""img/2to3/10.png"",""time"":997},{""stimulus"":""img/2to3/11.png"",""time"":1101},{""stimulus"":""img/2to3/12.png"",""time"":1195}]","[]"
"image-keyboard-response","80","107018","0.0-5.0-1.38","63fd6f98e4a77457f1b36b9a","bdp_cybrbll","Mon Mar 27 2023 23:38:27 GMT-0400 (Eastern Daylight Time)","433105","1","3","","null","","","","observe","","img/3to2/1.png","null","187","923","0.5","0.5","3","2","",""
"animation","81","108316","0.0-5.0-2.38","63fd6f98e4a77457f1b36b9a","bdp_cybrbll","Mon Mar 27 2023 23:38:27 GMT-0400 (Eastern Daylight Time)","433105","1","3","","","","","","","","","","187","","","","3","2","[{""stimulus"":""img/3to2/1.png"",""time"":102},{""stimulus"":""img/3to2/2.png"",""time"":207},{""stimulus"":""img/3to2/3.png"",""time"":305},{""stimulus"":""img/3to2/4.png"",""time"":398},{""stimulus"":""img/3to2/5.png"",""time"":503},{""stimulus"":""img/3to2/6.png"",""time"":601},{""stimulus"":""img/3to2/7.png"",""time"":694},{""stimulus"":""img/3to2/8.png"",""time"":799},{""stimulus"":""img/3to2/9.png"",""time"":897},{""stimulus"":""img/3to2/10.png"",""time"":1002},{""stimulus"":""img/3to2/11.png"",""time"":1095},{""stimulus"":""img/3to2/12.png"",""time"":1193}]","[]"
"image-keyboard-response","82","108605","0.0-5.0-1.39","63fd6f98e4a77457f1b36b9a","bdp_cybrbll","Mon Mar 27 2023 23:38:27 GMT-0400 (Eastern Daylight Time)","433105","1","3","","288","","","","choice","","img/2to1/1.png","1","186","248","0.5","0.5","2","1","",""
"animation","83","109900","0.0-5.0-2.39","63fd6f98e4a77457f1b36b9a","bdp_cybrbll","Mon Mar 27 2023 23:38:27 GMT-0400 (Eastern Daylight Time)","433105","1","3","","","","","","","","","","186","","","","2","1","[{""stimulus"":""img/2to1/1.png"",""time"":111},{""stimulus"":""img/2to1/2.png"",""time"":204},{""stimulus"":""img/2to1/3.png"",""time"":301},{""stimulus"":""img/2to1/4.png"",""time"":406},{""stimulus"":""img/2to1/5.png"",""time"":500},{""stimulus"":""img/2to1/6.png"",""time"":599},{""stimulus"":""img/2to1/7.png"",""time"":703},{""stimulus"":""img/2to1/8.png"",""time"":796},{""stimulus"":""img/2to1/9.png"",""time"":900},{""stimulus"":""img/2to1/10.png"",""time"":999},{""stimulus"":""img/2to1/11.png"",""time"":1092},{""stimulus"":""img/2to1/12.png"",""time"":1197}]","[]"
"image-keyboard-response","84","110788","0.0-5.0-1.40","63fd6f98e4a77457f1b36b9a","bdp_cybrbll","Mon Mar 27 2023 23:38:27 GMT-0400 (Eastern Daylight Time)","433105","1","3","","null","","","","observe","","img/1to3/1.png","null","185","881","0.5","0.5","1","3","",""
"animation","85","112083","0.0-5.0-2.40","63fd6f98e4a77457f1b36b9a","bdp_cybrbll","Mon Mar 27 2023 23:38:27 GMT-0400 (Eastern Daylight Time)","433105","1","3","","","","","","","","","","185","","","","1","3","[{""stimulus"":""img/1to3/1.png"",""time"":111},{""stimulus"":""img/1to3/2.png"",""time"":204},{""stimulus"":""img/1to3/3.png"",""time"":302},{""stimulus"":""img/1to3/4.png"",""time"":406},{""stimulus"":""img/1to3/5.png"",""time"":502},{""stimulus"":""img/1to3/6.png"",""time"":599},{""stimulus"":""img/1to3/7.png"",""time"":702},{""stimulus"":""img/1to3/8.png"",""time"":796},{""stimulus"":""img/1to3/9.png"",""time"":902},{""stimulus"":""img/1to3/10.png"",""time"":999},{""stimulus"":""img/1to3/11.png"",""time"":1092},{""stimulus"":""img/1to3/12.png"",""time"":1196}]","[]"
"image-keyboard-response","86","112728","0.0-5.0-1.41","63fd6f98e4a77457f1b36b9a","bdp_cybrbll","Mon Mar 27 2023 23:38:27 GMT-0400 (Eastern Daylight Time)","433105","1","3","","null","","","","observe","","img/3to2/1.png","null","184","642","0.5","0.5","3","1","",""
"animation","87","114028","0.0-5.0-2.41","63fd6f98e4a77457f1b36b9a","bdp_cybrbll","Mon Mar 27 2023 23:38:27 GMT-0400 (Eastern Daylight Time)","433105","1","3","","","","","","","","","","184","","","","3","1","[{""stimulus"":""img/3to1/1.png"",""time"":104},{""stimulus"":""img/3to1/2.png"",""time"":202},{""stimulus"":""img/3to1/3.png"",""time"":306},{""stimulus"":""img/3to1/4.png"",""time"":399},{""stimulus"":""img/3to1/5.png"",""time"":504},{""stimulus"":""img/3to1/6.png"",""time"":602},{""stimulus"":""img/3to1/7.png"",""time"":695},{""stimulus"":""img/3to1/8.png"",""time"":799},{""stimulus"":""img/3to1/9.png"",""time"":898},{""stimulus"":""img/3to1/10.png"",""time"":991},{""stimulus"":""img/3to1/11.png"",""time"":1096},{""stimulus"":""img/3to1/12.png"",""time"":1194}]","[]"
"image-keyboard-response","88","114400","0.0-5.0-1.42","63fd6f98e4a77457f1b36b9a","bdp_cybrbll","Mon Mar 27 2023 23:38:27 GMT-0400 (Eastern Daylight Time)","433105","1","3","","null","","","","observe","","img/1to3/1.png","null","183","369","0.5","0.5","1","3","",""
"animation","89","115699","0.0-5.0-2.42","63fd6f98e4a77457f1b36b9a","bdp_cybrbll","Mon Mar 27 2023 23:38:27 GMT-0400 (Eastern Daylight Time)","433105","1","3","","","","","","","","","","183","","","","1","3","[{""stimulus"":""img/1to3/1.png"",""time"":107},{""stimulus"":""img/1to3/2.png"",""time"":201},{""stimulus"":""img/1to3/3.png"",""time"":306},{""stimulus"":""img/1to3/4.png"",""time"":399},{""stimulus"":""img/1to3/5.png"",""time"":503},{""stimulus"":""img/1to3/6.png"",""time"":602},{""stimulus"":""img/1to3/7.png"",""time"":695},{""stimulus"":""img/1to3/8.png"",""time"":799},{""stimulus"":""img/1to3/9.png"",""time"":898},{""stimulus"":""img/1to3/10.png"",""time"":991},{""stimulus"":""img/1to3/11.png"",""time"":1095},{""stimulus"":""img/1to3/12.png"",""time"":1194}]","[]"
"image-keyboard-response","90","116308","0.0-5.0-1.43","63fd6f98e4a77457f1b36b9a","bdp_cybrbll","Mon Mar 27 2023 23:38:27 GMT-0400 (Eastern Daylight Time)","433105","1","3","","null","","","","observe","","img/3to2/1.png","null","182","596","0.5","0.5","3","1","",""
"animation","91","117603","0.0-5.0-2.43","63fd6f98e4a77457f1b36b9a","bdp_cybrbll","Mon Mar 27 2023 23:38:27 GMT-0400 (Eastern Daylight Time)","433105","1","3","","","","","","","","","","182","","","","3","1","[{""stimulus"":""img/3to1/1.png"",""time"":110},{""stimulus"":""img/3to1/2.png"",""time"":204},{""stimulus"":""img/3to1/3.png"",""time"":303},{""stimulus"":""img/3to1/4.png"",""time"":407},{""stimulus"":""img/3to1/5.png"",""time"":500},{""stimulus"":""img/3to1/6.png"",""time"":599},{""stimulus"":""img/3to1/7.png"",""time"":703},{""stimulus"":""img/3to1/8.png"",""time"":801},{""stimulus"":""img/3to1/9.png"",""time"":895},{""stimulus"":""img/3to1/10.png"",""time"":999},{""stimulus"":""img/3to1/11.png"",""time"":1095},{""stimulus"":""img/3to1/12.png"",""time"":1197}]","[]"
"image-keyboard-response","92","118450","0.0-5.0-1.44","63fd6f98e4a77457f1b36b9a","bdp_cybrbll","Mon Mar 27 2023 23:38:27 GMT-0400 (Eastern Daylight Time)","433105","1","3","","null","","","","observe","","img/1to3/1.png","null","181","842","0.5","0.5","1","3","",""
"animation","93","119745","0.0-5.0-2.44","63fd6f98e4a77457f1b36b9a","bdp_cybrbll","Mon Mar 27 2023 23:38:27 GMT-0400 (Eastern Daylight Time)","433105","1","3","","","","","","","","","","181","","","","1","3","[{""stimulus"":""img/1to3/1.png"",""time"":104},{""stimulus"":""img/1to3/2.png"",""time"":209},{""stimulus"":""img/1to3/3.png"",""time"":301},{""stimulus"":""img/1to3/4.png"",""time"":400},{""stimulus"":""img/1to3/5.png"",""time"":504},{""stimulus"":""img/1to3/6.png"",""time"":598},{""stimulus"":""img/1to3/7.png"",""time"":702},{""stimulus"":""img/1to3/8.png"",""time"":801},{""stimulus"":""img/1to3/9.png"",""time"":894},{""stimulus"":""img/1to3/10.png"",""time"":998},{""stimulus"":""img/1to3/11.png"",""time"":1096},{""stimulus"":""img/1to3/12.png"",""time"":1190}]","[]"
"image-keyboard-response","94","120290","0.0-5.0-1.45","63fd6f98e4a77457f1b36b9a","bdp_cybrbll","Mon Mar 27 2023 23:38:27 GMT-0400 (Eastern Daylight Time)","433105","1","3","","null","","","","observe","","img/3to2/1.png","null","180","539","0.5","0.5","3","2","",""
"animation","95","121585","0.0-5.0-2.45","63fd6f98e4a77457f1b36b9a","bdp_cybrbll","Mon Mar 27 2023 23:38:27 GMT-0400 (Eastern Daylight Time)","433105","1","3","","","","","","","","","","180","","","","3","2","[{""stimulus"":""img/3to2/1.png"",""time"":105},{""stimulus"":""img/3to2/2.png"",""time"":209},{""stimulus"":""img/3to2/3.png"",""time"":303},{""stimulus"":""img/3to2/4.png"",""time"":402},{""stimulus"":""img/3to2/5.png"",""time"":506},{""stimulus"":""img/3to2/6.png"",""time"":599},{""stimulus"":""img/3to2/7.png"",""time"":703},{""stimulus"":""img/3to2/8.png"",""time"":802},{""stimulus"":""img/3to2/9.png"",""time"":895},{""stimulus"":""img/3to2/10.png"",""time"":999},{""stimulus"":""img/3to2/11.png"",""time"":1098},{""stimulus"":""img/3to2/12.png"",""time"":1191}]","[]"
"image-keyboard-response","96","121819","0.0-5.0-1.46","63fd6f98e4a77457f1b36b9a","bdp_cybrbll","Mon Mar 27 2023 23:38:27 GMT-0400 (Eastern Daylight Time)","433105","1","3","","233","","","","choice","","img/2to1/1.png","1","179","286","0.5","0.5","2","1","",""
"animation","97","123112","0.0-5.0-2.46","63fd6f98e4a77457f1b36b9a","bdp_cybrbll","Mon Mar 27 2023 23:38:27 GMT-0400 (Eastern Daylight Time)","433105","1","3","","","","","","","","","","179","","","","2","1","[{""stimulus"":""img/2to1/1.png"",""time"":102},{""stimulus"":""img/2to1/2.png"",""time"":206},{""stimulus"":""img/2to1/3.png"",""time"":301},{""stimulus"":""img/2to1/4.png"",""time"":398},{""stimulus"":""img/2to1/5.png"",""time"":504},{""stimulus"":""img/2to1/6.png"",""time"":597},{""stimulus"":""img/2to1/7.png"",""time"":701},{""stimulus"":""img/2to1/8.png"",""time"":800},{""stimulus"":""img/2to1/9.png"",""time"":893},{""stimulus"":""img/2to1/10.png"",""time"":996},{""stimulus"":""img/2to1/11.png"",""time"":1096},{""stimulus"":""img/2to1/12.png"",""time"":1189}]","[]"
"image-keyboard-response","98","123344","0.0-5.0-1.47","63fd6f98e4a77457f1b36b9a","bdp_cybrbll","Mon Mar 27 2023 23:38:27 GMT-0400 (Eastern Daylight Time)","433105","1","3","","null","","","","observe","","img/1to3/1.png","null","178","226","0.5","0.5","1","2","",""
"animation","99","124644","0.0-5.0-2.47","63fd6f98e4a77457f1b36b9a","bdp_cybrbll","Mon Mar 27 2023 23:38:27 GMT-0400 (Eastern Daylight Time)","433105","1","3","","","","","","","","","","178","","","","1","2","[{""stimulus"":""img/1to2/1.png"",""time"":105},{""stimulus"":""img/1to2/2.png"",""time"":203},{""stimulus"":""img/1to2/3.png"",""time"":308},{""stimulus"":""img/1to2/4.png"",""time"":401},{""stimulus"":""img/1to2/5.png"",""time"":506},{""stimulus"":""img/1to2/6.png"",""time"":603},{""stimulus"":""img/1to2/7.png"",""time"":696},{""stimulus"":""img/1to2/8.png"",""time"":801},{""stimulus"":""img/1to2/9.png"",""time"":900},{""stimulus"":""img/1to2/10.png"",""time"":996},{""stimulus"":""img/1to2/11.png"",""time"":1097},{""stimulus"":""img/1to2/12.png"",""time"":1196}]","[]"
"image-keyboard-response","100","124943","0.0-5.0-1.48","63fd6f98e4a77457f1b36b9a","bdp_cybrbll","Mon Mar 27 2023 23:38:27 GMT-0400 (Eastern Daylight Time)","433105","1","3","","297","","","","choice","","img/2to1/1.png","2","177","196","0.5","0.5","2","3","",""
"animation","101","126235","0.0-5.0-2.48","63fd6f98e4a77457f1b36b9a","bdp_cybrbll","Mon Mar 27 2023 23:38:27 GMT-0400 (Eastern Daylight Time)","433105","1","3","","","","","","","","","","177","","","","2","3","[{""stimulus"":""img/2to3/1.png"",""time"":108},{""stimulus"":""img/2to3/2.png"",""time"":199},{""stimulus"":""img/2to3/3.png"",""time"":305},{""stimulus"":""img/2to3/4.png"",""time"":404},{""stimulus"":""img/2to3/5.png"",""time"":497},{""stimulus"":""img/2to3/6.png"",""time"":601},{""stimulus"":""img/2to3/7.png"",""time"":700},{""stimulus"":""img/2to3/8.png"",""time"":805},{""stimulus"":""img/2to3/9.png"",""time"":897},{""stimulus"":""img/2to3/10.png"",""time"":996},{""stimulus"":""img/2to3/11.png"",""time"":1100},{""stimulus"":""img/2to3/12.png"",""time"":1197}]","[]"
"image-keyboard-response","102","126676","0.0-5.0-1.49","63fd6f98e4a77457f1b36b9a","bdp_cybrbll","Mon Mar 27 2023 23:38:27 GMT-0400 (Eastern Daylight Time)","433105","1","3","","null","","","","observe","","img/3to2/1.png","null","176","433","0.5","0.5","3","1","",""
"animation","103","127970","0.0-5.0-2.49","63fd6f98e4a77457f1b36b9a","bdp_cybrbll","Mon Mar 27 2023 23:38:27 GMT-0400 (Eastern Daylight Time)","433105","1","3","","","","","","","","","","176","","","","3","1","[{""stimulus"":""img/3to1/1.png"",""time"":111},{""stimulus"":""img/3to1/2.png"",""time"":204},{""stimulus"":""img/3to1/3.png"",""time"":302},{""stimulus"":""img/3to1/4.png"",""time"":406},{""stimulus"":""img/3to1/5.png"",""time"":500},{""stimulus"":""img/3to1/6.png"",""time"":596},{""stimulus"":""img/3to1/7.png"",""time"":703},{""stimulus"":""img/3to1/8.png"",""time"":796},{""stimulus"":""img/3to1/9.png"",""time"":900},{""stimulus"":""img/3to1/10.png"",""time"":999},{""stimulus"":""img/3to1/11.png"",""time"":1092},{""stimulus"":""img/3to1/12.png"",""time"":1196}]","[]"
"image-keyboard-response","104","128739","0.0-5.0-1.50","63fd6f98e4a77457f1b36b9a","bdp_cybrbll","Mon Mar 27 2023 23:38:27 GMT-0400 (Eastern Daylight Time)","433105","1","3","","null","","","","observe","","img/1to3/1.png","null","175","761","0.5","0.5","1","3","",""
"animation","105","130031","0.0-5.0-2.50","63fd6f98e4a77457f1b36b9a","bdp_cybrbll","Mon Mar 27 2023 23:38:27 GMT-0400 (Eastern Daylight Time)","433105","1","3","","","","","","","","","","175","","","","1","3","[{""stimulus"":""img/1to3/1.png"",""time"":102},{""stimulus"":""img/1to3/2.png"",""time"":207},{""stimulus"":""img/1to3/3.png"",""time"":301},{""stimulus"":""img/1to3/4.png"",""time"":404},{""stimulus"":""img/1to3/5.png"",""time"":503},{""stimulus"":""img/1to3/6.png"",""time"":600},{""stimulus"":""img/1to3/7.png"",""time"":700},{""stimulus"":""img/1to3/8.png"",""time"":800},{""stimulus"":""img/1to3/9.png"",""time"":893},{""stimulus"":""img/1to3/10.png"",""time"":1000},{""stimulus"":""img/1to3/11.png"",""time"":1095},{""stimulus"":""img/1to3/12.png"",""time"":1199}]","[]"
"image-keyboard-response","106","130289","0.0-5.0-1.51","63fd6f98e4a77457f1b36b9a","bdp_cybrbll","Mon Mar 27 2023 23:38:27 GMT-0400 (Eastern Daylight Time)","433105","1","3","","null","","","","observe","","img/3to2/1.png","null","174","254","0.5","0.5","3","1","",""
"animation","107","131587","0.0-5.0-2.51","63fd6f98e4a77457f1b36b9a","bdp_cybrbll","Mon Mar 27 2023 23:38:27 GMT-0400 (Eastern Daylight Time)","433105","1","3","","","","","","","","","","174","","","","3","1","[{""stimulus"":""img/3to1/1.png"",""time"":102},{""stimulus"":""img/3to1/2.png"",""time"":207},{""stimulus"":""img/3to1/3.png"",""time"":305},{""stimulus"":""img/3to1/4.png"",""time"":400},{""stimulus"":""img/3to1/5.png"",""time"":503},{""stimulus"":""img/3to1/6.png"",""time"":601},{""stimulus"":""img/3to1/7.png"",""time"":694},{""stimulus"":""img/3to1/8.png"",""time"":800},{""stimulus"":""img/3to1/9.png"",""time"":898},{""stimulus"":""img/3to1/10.png"",""time"":1002},{""stimulus"":""img/3to1/11.png"",""time"":1095},{""stimulus"":""img/3to1/12.png"",""time"":1194}]","[]"
"image-keyboard-response","108","131883","0.0-5.0-1.52","63fd6f98e4a77457f1b36b9a","bdp_cybrbll","Mon Mar 27 2023 23:38:27 GMT-0400 (Eastern Daylight Time)","433105","1","3","","null","","","","observe","","img/1to3/1.png","null","173","286","0.5","0.5","1","3","",""
"animation","109","133177","0.0-5.0-2.52","63fd6f98e4a77457f1b36b9a","bdp_cybrbll","Mon Mar 27 2023 23:38:27 GMT-0400 (Eastern Daylight Time)","433105","1","3","","","","","","","","","","173","","","","1","3","[{""stimulus"":""img/1to3/1.png"",""time"":104},{""stimulus"":""img/1to3/2.png"",""time"":205},{""stimulus"":""img/1to3/3.png"",""time"":302},{""stimulus"":""img/1to3/4.png"",""time"":407},{""stimulus"":""img/1to3/5.png"",""time"":501},{""stimulus"":""img/1to3/6.png"",""time"":598},{""stimulus"":""img/1to3/7.png"",""time"":703},{""stimulus"":""img/1to3/8.png"",""time"":801},{""stimulus"":""img/1to3/9.png"",""time"":894},{""stimulus"":""img/1to3/10.png"",""time"":999},{""stimulus"":""img/1to3/11.png"",""time"":1097},{""stimulus"":""img/1to3/12.png"",""time"":1196}]","[]"
"image-keyboard-response","110","133497","0.0-5.0-1.53","63fd6f98e4a77457f1b36b9a","bdp_cybrbll","Mon Mar 27 2023 23:38:27 GMT-0400 (Eastern Daylight Time)","433105","1","3","","null","","","","observe","","img/3to2/1.png","null","172","314","0.5","0.5","3","2","",""
"animation","111","134791","0.0-5.0-2.53","63fd6f98e4a77457f1b36b9a","bdp_cybrbll","Mon Mar 27 2023 23:38:27 GMT-0400 (Eastern Daylight Time)","433105","1","3","","","","","","","","","","172","","","","3","2","[{""stimulus"":""img/3to2/1.png"",""time"":103},{""stimulus"":""img/3to2/2.png"",""time"":209},{""stimulus"":""img/3to2/3.png"",""time"":302},{""stimulus"":""img/3to2/4.png"",""time"":400},{""stimulus"":""img/3to2/5.png"",""time"":505},{""stimulus"":""img/3to2/6.png"",""time"":601},{""stimulus"":""img/3to2/7.png"",""time"":696},{""stimulus"":""img/3to2/8.png"",""time"":801},{""stimulus"":""img/3to2/9.png"",""time"":894},{""stimulus"":""img/3to2/10.png"",""time"":1002},{""stimulus"":""img/3to2/11.png"",""time"":1097},{""stimulus"":""img/3to2/12.png"",""time"":1192}]","[]"
"image-keyboard-response","112","135053","0.0-5.0-1.54","63fd6f98e4a77457f1b36b9a","bdp_cybrbll","Mon Mar 27 2023 23:38:27 GMT-0400 (Eastern Daylight Time)","433105","1","3","","262","","","","choice","","img/2to1/1.png","2","171","236","0.5","0.5","2","3","",""
"animation","113","136347","0.0-5.0-2.54","63fd6f98e4a77457f1b36b9a","bdp_cybrbll","Mon Mar 27 2023 23:38:27 GMT-0400 (Eastern Daylight Time)","433105","1","3","","","","","","","","","","171","","","","2","3","[{""stimulus"":""img/2to3/1.png"",""time"":108},{""stimulus"":""img/2to3/2.png"",""time"":201},{""stimulus"":""img/2to3/3.png"",""time"":308},{""stimulus"":""img/2to3/4.png"",""time"":405},{""stimulus"":""img/2to3/5.png"",""time"":498},{""stimulus"":""img/2to3/6.png"",""time"":602},{""stimulus"":""img/2to3/7.png"",""time"":701},{""stimulus"":""img/2to3/8.png"",""time"":794},{""stimulus"":""img/2to3/9.png"",""time"":898},{""stimulus"":""img/2to3/10.png"",""time"":997},{""stimulus"":""img/2to3/11.png"",""time"":1101},{""stimulus"":""img/2to3/12.png"",""time"":1194}]","[]"
"image-keyboard-response","114","136643","0.0-5.0-1.55","63fd6f98e4a77457f1b36b9a","bdp_cybrbll","Mon Mar 27 2023 23:38:27 GMT-0400 (Eastern Daylight Time)","433105","1","3","","null","","","","observe","","img/3to2/1.png","null","170","289","0.5","0.5","3","2","",""
"animation","115","137938","0.0-5.0-2.55","63fd6f98e4a77457f1b36b9a","bdp_cybrbll","Mon Mar 27 2023 23:38:27 GMT-0400 (Eastern Daylight Time)","433105","1","3","","","","","","","","","","170","","","","3","2","[{""stimulus"":""img/3to2/1.png"",""time"":104},{""stimulus"":""img/3to2/2.png"",""time"":204},{""stimulus"":""img/3to2/3.png"",""time"":302},{""stimulus"":""img/3to2/4.png"",""time"":408},{""stimulus"":""img/3to2/5.png"",""time"":500},{""stimulus"":""img/3to2/6.png"",""time"":598},{""stimulus"":""img/3to2/7.png"",""time"":703},{""stimulus"":""img/3to2/8.png"",""time"":797},{""stimulus"":""img/3to2/9.png"",""time"":896},{""stimulus"":""img/3to2/10.png"",""time"":998},{""stimulus"":""img/3to2/11.png"",""time"":1096},{""stimulus"":""img/3to2/12.png"",""time"":1196}]","[]"
"image-keyboard-response","116","138434","0.0-5.0-1.56","63fd6f98e4a77457f1b36b9a","bdp_cybrbll","Mon Mar 27 2023 23:38:27 GMT-0400 (Eastern Daylight Time)","433105","1","3","","495","","","","choice","","img/2to1/1.png","2","169","674","0.5","0.5","2","3","",""
"animation","117","139731","0.0-5.0-2.56","63fd6f98e4a77457f1b36b9a","bdp_cybrbll","Mon Mar 27 2023 23:38:27 GMT-0400 (Eastern Daylight Time)","433105","1","3","","","","","","","","","","169","","","","2","3","[{""stimulus"":""img/2to3/1.png"",""time"":105},{""stimulus"":""img/2to3/2.png"",""time"":200},{""stimulus"":""img/2to3/3.png"",""time"":305},{""stimulus"":""img/2to3/4.png"",""time"":408},{""stimulus"":""img/2to3/5.png"",""time"":505},{""stimulus"":""img/2to3/6.png"",""time"":601},{""stimulus"":""img/2to3/7.png"",""time"":705},{""stimulus"":""img/2to3/8.png"",""time"":798},{""stimulus"":""img/2to3/9.png"",""time"":897},{""stimulus"":""img/2to3/10.png"",""time"":1000},{""stimulus"":""img/2to3/11.png"",""time"":1093},{""stimulus"":""img/2to3/12.png"",""time"":1199}]","[]"
"image-keyboard-response","118","141007","0.0-5.0-1.57","63fd6f98e4a77457f1b36b9a","bdp_cybrbll","Mon Mar 27 2023 23:38:27 GMT-0400 (Eastern Daylight Time)","433105","1","3","","null","","","","observe","","img/3to2/1.png","null","168","1268","0.5","0.5","3","2","",""
"animation","119","142302","0.0-5.0-2.57","63fd6f98e4a77457f1b36b9a","bdp_cybrbll","Mon Mar 27 2023 23:38:27 GMT-0400 (Eastern Daylight Time)","433105","1","3","","","","","","","","","","168","","","","3","2","[{""stimulus"":""img/3to2/1.png"",""time"":108},{""stimulus"":""img/3to2/2.png"",""time"":203},{""stimulus"":""img/3to2/3.png"",""time"":308},{""stimulus"":""img/3to2/4.png"",""time"":401},{""stimulus"":""img/3to2/5.png"",""time"":504},{""stimulus"":""img/3to2/6.png"",""time"":604},{""stimulus"":""img/3to2/7.png"",""time"":697},{""stimulus"":""img/3to2/8.png"",""time"":801},{""stimulus"":""img/3to2/9.png"",""time"":900},{""stimulus"":""img/3to2/10.png"",""time"":993},{""stimulus"":""img/3to2/11.png"",""time"":1098},{""stimulus"":""img/3to2/12.png"",""time"":1192}]","[]"
"image-keyboard-response","120","142722","0.0-5.0-1.58","63fd6f98e4a77457f1b36b9a","bdp_cybrbll","Mon Mar 27 2023 23:38:27 GMT-0400 (Eastern Daylight Time)","433105","1","3","","419","","","","choice","","img/2to1/1.png","1","167","336","0.5","0.5","2","1","",""
"animation","121","144019","0.0-5.0-2.58","63fd6f98e4a77457f1b36b9a","bdp_cybrbll","Mon Mar 27 2023 23:38:27 GMT-0400 (Eastern Daylight Time)","433105","1","3","","","","","","","","","","167","","","","2","1","[{""stimulus"":""img/2to1/1.png"",""time"":103},{""stimulus"":""img/2to1/2.png"",""time"":207},{""stimulus"":""img/2to1/3.png"",""time"":306},{""stimulus"":""img/2to1/4.png"",""time"":405},{""stimulus"":""img/2to1/5.png"",""time"":503},{""stimulus"":""img/2to1/6.png"",""time"":597},{""stimulus"":""img/2to1/7.png"",""time"":701},{""stimulus"":""img/2to1/8.png"",""time"":800},{""stimulus"":""img/2to1/9.png"",""time"":893},{""stimulus"":""img/2to1/10.png"",""time"":997},{""stimulus"":""img/2to1/11.png"",""time"":1096},{""stimulus"":""img/2to1/12.png"",""time"":1200}]","[]"
"image-keyboard-response","122","144566","0.0-5.0-1.59","63fd6f98e4a77457f1b36b9a","bdp_cybrbll","Mon Mar 27 2023 23:38:27 GMT-0400 (Eastern Daylight Time)","433105","1","3","","null","","","","observe","","img/1to3/1.png","null","166","541","0.5","0.5","1","2","",""
"animation","123","145855","0.0-5.0-2.59","63fd6f98e4a77457f1b36b9a","bdp_cybrbll","Mon Mar 27 2023 23:38:27 GMT-0400 (Eastern Daylight Time)","433105","1","3","","","","","","","","","","166","","","","1","2","[{""stimulus"":""img/1to2/1.png"",""time"":104},{""stimulus"":""img/1to2/2.png"",""time"":203},{""stimulus"":""img/1to2/3.png"",""time"":306},{""stimulus"":""img/1to2/4.png"",""time"":400},{""stimulus"":""img/1to2/5.png"",""time"":499},{""stimulus"":""img/1to2/6.png"",""time"":603},{""stimulus"":""img/1to2/7.png"",""time"":696},{""stimulus"":""img/1to2/8.png"",""time"":801},{""stimulus"":""img/1to2/9.png"",""time"":899},{""stimulus"":""img/1to2/10.png"",""time"":992},{""stimulus"":""img/1to2/11.png"",""time"":1097},{""stimulus"":""img/1to2/12.png"",""time"":1196}]","[]"
"image-keyboard-response","124","146253","0.0-5.0-1.60","63fd6f98e4a77457f1b36b9a","bdp_cybrbll","Mon Mar 27 2023 23:38:27 GMT-0400 (Eastern Daylight Time)","433105","1","3","","397","","","","choice","","img/2to1/1.png","1","165","371","0.5","0.5","2","1","",""
"animation","125","147544","0.0-5.0-2.60","63fd6f98e4a77457f1b36b9a","bdp_cybrbll","Mon Mar 27 2023 23:38:27 GMT-0400 (Eastern Daylight Time)","433105","1","3","","","","","","","","","","165","","","","2","1","[{""stimulus"":""img/2to1/1.png"",""time"":107},{""stimulus"":""img/2to1/2.png"",""time"":206},{""stimulus"":""img/2to1/3.png"",""time"":310},{""stimulus"":""img/2to1/4.png"",""time"":403},{""stimulus"":""img/2to1/5.png"",""time"":502},{""stimulus"":""img/2to1/6.png"",""time"":606},{""stimulus"":""img/2to1/7.png"",""time"":699},{""stimulus"":""img/2to1/8.png"",""time"":798},{""stimulus"":""img/2to1/9.png"",""time"":902},{""stimulus"":""img/2to1/10.png"",""time"":995},{""stimulus"":""img/2to1/11.png"",""time"":1099},{""stimulus"":""img/2to1/12.png"",""time"":1195}]","[]"
"image-keyboard-response","126","147904","0.0-5.0-1.61","63fd6f98e4a77457f1b36b9a","bdp_cybrbll","Mon Mar 27 2023 23:38:27 GMT-0400 (Eastern Daylight Time)","433105","1","3","","null","","","","observe","","img/1to3/1.png","null","164","356","0.5","0.5","1","3","",""
"animation","127","149199","0.0-5.0-2.61","63fd6f98e4a77457f1b36b9a","bdp_cybrbll","Mon Mar 27 2023 23:38:27 GMT-0400 (Eastern Daylight Time)","433105","1","3","","","","","","","","","","164","","","","1","3","[{""stimulus"":""img/1to3/1.png"",""time"":105},{""stimulus"":""img/1to3/2.png"",""time"":209},{""stimulus"":""img/1to3/3.png"",""time"":307},{""stimulus"":""img/1to3/4.png"",""time"":401},{""stimulus"":""img/1to3/5.png"",""time"":505},{""stimulus"":""img/1to3/6.png"",""time"":599},{""stimulus"":""img/1to3/7.png"",""time"":697},{""stimulus"":""img/1to3/8.png"",""time"":801},{""stimulus"":""img/1to3/9.png"",""time"":894},{""stimulus"":""img/1to3/10.png"",""time"":999},{""stimulus"":""img/1to3/11.png"",""time"":1096},{""stimulus"":""img/1to3/12.png"",""time"":1190}]","[]"
"image-keyboard-response","128","149593","0.0-5.0-1.62","63fd6f98e4a77457f1b36b9a","bdp_cybrbll","Mon Mar 27 2023 23:38:27 GMT-0400 (Eastern Daylight Time)","433105","1","3","","null","","","","observe","","img/3to2/1.png","null","163","388","0.5","0.5","3","1","",""
"animation","129","150888","0.0-5.0-2.62","63fd6f98e4a77457f1b36b9a","bdp_cybrbll","Mon Mar 27 2023 23:38:27 GMT-0400 (Eastern Daylight Time)","433105","1","3","","","","","","","","","","163","","","","3","1","[{""stimulus"":""img/3to1/1.png"",""time"":104},{""stimulus"":""img/3to1/2.png"",""time"":208},{""stimulus"":""img/3to1/3.png"",""time"":303},{""stimulus"":""img/3to1/4.png"",""time"":401},{""stimulus"":""img/3to1/5.png"",""time"":505},{""stimulus"":""img/3to1/6.png"",""time"":600},{""stimulus"":""img/3to1/7.png"",""time"":702},{""stimulus"":""img/3to1/8.png"",""time"":802},{""stimulus"":""img/3to1/9.png"",""time"":895},{""stimulus"":""img/3to1/10.png"",""time"":1001},{""stimulus"":""img/3to1/11.png"",""time"":1098},{""stimulus"":""img/3to1/12.png"",""time"":1190}]","[]"
"image-keyboard-response","130","151178","0.0-5.0-1.63","63fd6f98e4a77457f1b36b9a","bdp_cybrbll","Mon Mar 27 2023 23:38:27 GMT-0400 (Eastern Daylight Time)","433105","1","3","","null","","","","observe","","img/1to3/1.png","null","162","281","0.5","0.5","1","2","",""
"animation","131","152472","0.0-5.0-2.63","63fd6f98e4a77457f1b36b9a","bdp_cybrbll","Mon Mar 27 2023 23:38:27 GMT-0400 (Eastern Daylight Time)","433105","1","3","","","","","","","","","","162","","","","1","2","[{""stimulus"":""img/1to2/1.png"",""time"":105},{""stimulus"":""img/1to2/2.png"",""time"":209},{""stimulus"":""img/1to2/3.png"",""time"":301},{""stimulus"":""img/1to2/4.png"",""time"":406},{""stimulus"":""img/1to2/5.png"",""time"":505},{""stimulus"":""img/1to2/6.png"",""time"":598},{""stimulus"":""img/1to2/7.png"",""time"":703},{""stimulus"":""img/1to2/8.png"",""time"":801},{""stimulus"":""img/1to2/9.png"",""time"":894},{""stimulus"":""img/1to2/10.png"",""time"":999},{""stimulus"":""img/1to2/11.png"",""time"":1097},{""stimulus"":""img/1to2/12.png"",""time"":1196}]","[]"
"image-keyboard-response","132","152816","0.0-5.0-1.64","63fd6f98e4a77457f1b36b9a","bdp_cybrbll","Mon Mar 27 2023 23:38:27 GMT-0400 (Eastern Daylight Time)","433105","1","3","","343","","","","choice","","img/2to1/1.png","2","161","707","0.5","0.5","2","3","",""
"animation","133","154111","0.0-5.0-2.64","63fd6f98e4a77457f1b36b9a","bdp_cybrbll","Mon Mar 27 2023 23:38:27 GMT-0400 (Eastern Daylight Time)","433105","1","3","","","","","","","","","","161","","","","2","3","[{""stimulus"":""img/2to3/1.png"",""time"":104},{""stimulus"":""img/2to3/2.png"",""time"":199},{""stimulus"":""img/2to3/3.png"",""time"":307},{""stimulus"":""img/2to3/4.png"",""time"":400},{""stimulus"":""img/2to3/5.png"",""time"":504},{""stimulus"":""img/2to3/6.png"",""time"":603},{""stimulus"":""img/2to3/7.png"",""time"":695},{""stimulus"":""img/2to3/8.png"",""time"":800},{""stimulus"":""img/2to3/9.png"",""time"":899},{""stimulus"":""img/2to3/10.png"",""time"":1000},{""stimulus"":""img/2to3/11.png"",""time"":1096},{""stimulus"":""img/2to3/12.png"",""time"":1195}]","[]"
"image-keyboard-response","134","154510","0.0-5.0-1.65","63fd6f98e4a77457f1b36b9a","bdp_cybrbll","Mon Mar 27 2023 23:38:27 GMT-0400 (Eastern Daylight Time)","433105","1","3","","null","","","","observe","","img/3to2/1.png","null","160","394","0.5","0.5","3","1","",""
"animation","135","155799","0.0-5.0-2.65","63fd6f98e4a77457f1b36b9a","bdp_cybrbll","Mon Mar 27 2023 23:38:27 GMT-0400 (Eastern Daylight Time)","433105","1","3","","","","","","","","","","160","","","","3","1","[{""stimulus"":""img/3to1/1.png"",""time"":105},{""stimulus"":""img/3to1/2.png"",""time"":203},{""stimulus"":""img/3to1/3.png"",""time"":308},{""stimulus"":""img/3to1/4.png"",""time"":401},{""stimulus"":""img/3to1/5.png"",""time"":499},{""stimulus"":""img/3to1/6.png"",""time"":603},{""stimulus"":""img/3to1/7.png"",""time"":697},{""stimulus"":""img/3to1/8.png"",""time"":801},{""stimulus"":""img/3to1/9.png"",""time"":900},{""stimulus"":""img/3to1/10.png"",""time"":993},{""stimulus"":""img/3to1/11.png"",""time"":1097},{""stimulus"":""img/3to1/12.png"",""time"":1196}]","[]"
"image-keyboard-response","136","156414","0.0-5.0-1.66","63fd6f98e4a77457f1b36b9a","bdp_cybrbll","Mon Mar 27 2023 23:38:27 GMT-0400 (Eastern Daylight Time)","433105","1","3","","null","","","","observe","","img/1to3/1.png","null","159","610","0.5","0.5","1","3","",""
"animation","137","157706","0.0-5.0-2.66","63fd6f98e4a77457f1b36b9a","bdp_cybrbll","Mon Mar 27 2023 23:38:27 GMT-0400 (Eastern Daylight Time)","433105","1","3","","","","","","","","","","159","","","","1","3","[{""stimulus"":""img/1to3/1.png"",""time"":105},{""stimulus"":""img/1to3/2.png"",""time"":203},{""stimulus"":""img/1to3/3.png"",""time"":308},{""stimulus"":""img/1to3/4.png"",""time"":401},{""stimulus"":""img/1to3/5.png"",""time"":499},{""stimulus"":""img/1to3/6.png"",""time"":604},{""stimulus"":""img/1to3/7.png"",""time"":697},{""stimulus"":""img/1to3/8.png"",""time"":801},{""stimulus"":""img/1to3/9.png"",""time"":900},{""stimulus"":""img/1to3/10.png"",""time"":993},{""stimulus"":""img/1to3/11.png"",""time"":1097},{""stimulus"":""img/1to3/12.png"",""time"":1196}]","[]"
"image-keyboard-response","138","158038","0.0-5.0-1.67","63fd6f98e4a77457f1b36b9a","bdp_cybrbll","Mon Mar 27 2023 23:38:27 GMT-0400 (Eastern Daylight Time)","433105","1","3","","null","","","","observe","","img/3to2/1.png","null","158","331","0.5","0.5","3","2","",""
"animation","139","159328","0.0-5.0-2.67","63fd6f98e4a77457f1b36b9a","bdp_cybrbll","Mon Mar 27 2023 23:38:27 GMT-0400 (Eastern Daylight Time)","433105","1","3","","","","","","","","","","158","","","","3","2","[{""stimulus"":""img/3to2/1.png"",""time"":106},{""stimulus"":""img/3to2/2.png"",""time"":205},{""stimulus"":""img/3to2/3.png"",""time"":309},{""stimulus"":""img/3to2/4.png"",""time"":402},{""stimulus"":""img/3to2/5.png"",""time"":500},{""stimulus"":""img/3to2/6.png"",""time"":601},{""stimulus"":""img/3to2/7.png"",""time"":701},{""stimulus"":""img/3to2/8.png"",""time"":802},{""stimulus"":""img/3to2/9.png"",""time"":900},{""stimulus"":""img/3to2/10.png"",""time"":994},{""stimulus"":""img/3to2/11.png"",""time"":1100},{""stimulus"":""img/3to2/12.png"",""time"":1197}]","[]"
"image-keyboard-response","140","159536","0.0-5.0-1.68","63fd6f98e4a77457f1b36b9a","bdp_cybrbll","Mon Mar 27 2023 23:38:27 GMT-0400 (Eastern Daylight Time)","433105","1","3","","207","","","","choice","","img/2to1/1.png","1","157","213","0.5","0.5","2","1","",""
"animation","141","160831","0.0-5.0-2.68","63fd6f98e4a77457f1b36b9a","bdp_cybrbll","Mon Mar 27 2023 23:38:27 GMT-0400 (Eastern Daylight Time)","433105","1","3","","","","","","","","","","157","","","","2","1","[{""stimulus"":""img/2to1/1.png"",""time"":106},{""stimulus"":""img/2to1/2.png"",""time"":210},{""stimulus"":""img/2to1/3.png"",""time"":302},{""stimulus"":""img/2to1/4.png"",""time"":402},{""stimulus"":""img/2to1/5.png"",""time"":506},{""stimulus"":""img/2to1/6.png"",""time"":602},{""stimulus"":""img/2to1/7.png"",""time"":698},{""stimulus"":""img/2to1/8.png"",""time"":802},{""stimulus"":""img/2to1/9.png"",""time"":895},{""stimulus"":""img/2to1/10.png"",""time"":1002},{""stimulus"":""img/2to1/11.png"",""time"":1098},{""stimulus"":""img/2to1/12.png"",""time"":1191}]","[]"
"image-keyboard-response","142","161458","0.0-5.0-1.69","63fd6f98e4a77457f1b36b9a","bdp_cybrbll","Mon Mar 27 2023 23:38:27 GMT-0400 (Eastern Daylight Time)","433105","1","3","","null","","","","observe","","img/1to3/1.png","null","156","619","0.5","0.5","1","3","",""
"animation","143","162753","0.0-5.0-2.69","63fd6f98e4a77457f1b36b9a","bdp_cybrbll","Mon Mar 27 2023 23:38:27 GMT-0400 (Eastern Daylight Time)","433105","1","3","","","","","","","","","","156","","","","1","3","[{""stimulus"":""img/1to3/1.png"",""time"":104},{""stimulus"":""img/1to3/2.png"",""time"":206},{""stimulus"":""img/1to3/3.png"",""time"":301},{""stimulus"":""img/1to3/4.png"",""time"":407},{""stimulus"":""img/1to3/5.png"",""time"":500},{""stimulus"":""img/1to3/6.png"",""time"":598},{""stimulus"":""img/1to3/7.png"",""time"":703},{""stimulus"":""img/1to3/8.png"",""time"":796},{""stimulus"":""img/1to3/9.png"",""time"":894},{""stimulus"":""img/1to3/10.png"",""time"":999},{""stimulus"":""img/1to3/11.png"",""time"":1092},{""stimulus"":""img/1to3/12.png"",""time"":1196}]","[]"
"image-keyboard-response","144","163223","0.0-5.0-1.70","63fd6f98e4a77457f1b36b9a","bdp_cybrbll","Mon Mar 27 2023 23:38:27 GMT-0400 (Eastern Daylight Time)","433105","1","3","","null","","","","observe","","img/3to2/1.png","null","155","468","0.5","0.5","3","1","",""
"animation","145","164523","0.0-5.0-2.70","63fd6f98e4a77457f1b36b9a","bdp_cybrbll","Mon Mar 27 2023 23:38:27 GMT-0400 (Eastern Daylight Time)","433105","1","3","","","","","","","","","","155","","","","3","1","[{""stimulus"":""img/3to1/1.png"",""time"":105},{""stimulus"":""img/3to1/2.png"",""time"":203},{""stimulus"":""img/3to1/3.png"",""time"":308},{""stimulus"":""img/3to1/4.png"",""time"":401},{""stimulus"":""img/3to1/5.png"",""time"":505},{""stimulus"":""img/3to1/6.png"",""time"":604},{""stimulus"":""img/3to1/7.png"",""time"":697},{""stimulus"":""img/3to1/8.png"",""time"":801},{""stimulus"":""img/3to1/9.png"",""time"":900},{""stimulus"":""img/3to1/10.png"",""time"":993},{""stimulus"":""img/3to1/11.png"",""time"":1096},{""stimulus"":""img/3to1/12.png"",""time"":1196}]","[]"
"image-keyboard-response","146","165022","0.0-5.0-1.71","63fd6f98e4a77457f1b36b9a","bdp_cybrbll","Mon Mar 27 2023 23:38:27 GMT-0400 (Eastern Daylight Time)","433105","1","3","","null","","","","observe","","img/1to3/1.png","null","154","495","0.5","0.5","1","3","",""
"animation","147","166323","0.0-5.0-2.71","63fd6f98e4a77457f1b36b9a","bdp_cybrbll","Mon Mar 27 2023 23:38:27 GMT-0400 (Eastern Daylight Time)","433105","1","3","","","","","","","","","","154","","","","1","3","[{""stimulus"":""img/1to3/1.png"",""time"":104},{""stimulus"":""img/1to3/2.png"",""time"":203},{""stimulus"":""img/1to3/3.png"",""time"":307},{""stimulus"":""img/1to3/4.png"",""time"":400},{""stimulus"":""img/1to3/5.png"",""time"":505},{""stimulus"":""img/1to3/6.png"",""time"":603},{""stimulus"":""img/1to3/7.png"",""time"":696},{""stimulus"":""img/1to3/8.png"",""time"":801},{""stimulus"":""img/1to3/9.png"",""time"":900},{""stimulus"":""img/1to3/10.png"",""time"":992},{""stimulus"":""img/1to3/11.png"",""time"":1097},{""stimulus"":""img/1to3/12.png"",""time"":1196}]","[]"
"image-keyboard-response","148","166694","0.0-5.0-1.72","63fd6f98e4a77457f1b36b9a","bdp_cybrbll","Mon Mar 27 2023 23:38:27 GMT-0400 (Eastern Daylight Time)","433105","1","3","","null","","","","observe","","img/3to2/1.png","null","153","369","0.5","0.5","3","1","",""
"animation","149","167995","0.0-5.0-2.72","63fd6f98e4a77457f1b36b9a","bdp_cybrbll","Mon Mar 27 2023 23:38:27 GMT-0400 (Eastern Daylight Time)","433105","1","3","","","","","","","","","","153","","","","3","1","[{""stimulus"":""img/3to1/1.png"",""time"":105},{""stimulus"":""img/3to1/2.png"",""time"":204},{""stimulus"":""img/3to1/3.png"",""time"":308},{""stimulus"":""img/3to1/4.png"",""time"":401},{""stimulus"":""img/3to1/5.png"",""time"":506},{""stimulus"":""img/3to1/6.png"",""time"":604},{""stimulus"":""img/3to1/7.png"",""time"":697},{""stimulus"":""img/3to1/8.png"",""time"":802},{""stimulus"":""img/3to1/9.png"",""time"":900},{""stimulus"":""img/3to1/10.png"",""time"":993},{""stimulus"":""img/3to1/11.png"",""time"":1098},{""stimulus"":""img/3to1/12.png"",""time"":1195}]","[]"
"image-keyboard-response","150","168563","0.0-5.0-1.73","63fd6f98e4a77457f1b36b9a","bdp_cybrbll","Mon Mar 27 2023 23:38:27 GMT-0400 (Eastern Daylight Time)","433105","1","3","","null","","","","observe","","img/1to3/1.png","null","152","559","0.5","0.5","1","2","",""
"animation","151","169857","0.0-5.0-2.73","63fd6f98e4a77457f1b36b9a","bdp_cybrbll","Mon Mar 27 2023 23:38:27 GMT-0400 (Eastern Daylight Time)","433105","1","3","","","","","","","","","","152","","","","1","2","[{""stimulus"":""img/1to2/1.png"",""time"":111},{""stimulus"":""img/1to2/2.png"",""time"":204},{""stimulus"":""img/1to2/3.png"",""time"":302},{""stimulus"":""img/1to2/4.png"",""time"":407},{""stimulus"":""img/1to2/5.png"",""time"":500},{""stimulus"":""img/1to2/6.png"",""time"":598},{""stimulus"":""img/1to2/7.png"",""time"":703},{""stimulus"":""img/1to2/8.png"",""time"":796},{""stimulus"":""img/1to2/9.png"",""time"":901},{""stimulus"":""img/1to2/10.png"",""time"":999},{""stimulus"":""img/1to2/11.png"",""time"":1092},{""stimulus"":""img/1to2/12.png"",""time"":1197}]","[]"
"image-keyboard-response","152","170012","0.0-5.0-1.74","63fd6f98e4a77457f1b36b9a","bdp_cybrbll","Mon Mar 27 2023 23:38:27 GMT-0400 (Eastern Daylight Time)","433105","1","3","","154","","","","choice","","img/2to1/1.png","2","151","354","0.5","0.5","2","3","",""
"animation","153","171303","0.0-5.0-2.74","63fd6f98e4a77457f1b36b9a","bdp_cybrbll","Mon Mar 27 2023 23:38:27 GMT-0400 (Eastern Daylight Time)","433105","1","3","","","","","","","","","","151","","","","2","3","[{""stimulus"":""img/2to3/1.png"",""time"":107},{""stimulus"":""img/2to3/2.png"",""time"":206},{""stimulus"":""img/2to3/3.png"",""time"":299},{""stimulus"":""img/2to3/4.png"",""time"":403},{""stimulus"":""img/2to3/5.png"",""time"":502},{""stimulus"":""img/2to3/6.png"",""time"":606},{""stimulus"":""img/2to3/7.png"",""time"":699},{""stimulus"":""img/2to3/8.png"",""time"":798},{""stimulus"":""img/2to3/9.png"",""time"":902},{""stimulus"":""img/2to3/10.png"",""time"":995},{""stimulus"":""img/2to3/11.png"",""time"":1094},{""stimulus"":""img/2to3/12.png"",""time"":1199}]","[]"
"image-keyboard-response","154","171576","0.0-5.0-1.75","63fd6f98e4a77457f1b36b9a","bdp_cybrbll","Mon Mar 27 2023 23:38:27 GMT-0400 (Eastern Daylight Time)","433105","1","3","","null","","","","observe","","img/3to2/1.png","null","150","265","0.5","0.5","3","2","",""
"animation","155","172871","0.0-5.0-2.75","63fd6f98e4a77457f1b36b9a","bdp_cybrbll","Mon Mar 27 2023 23:38:27 GMT-0400 (Eastern Daylight Time)","433105","1","3","","","","","","","","","","150","","","","3","2","[{""stimulus"":""img/3to2/1.png"",""time"":105},{""stimulus"":""img/3to2/2.png"",""time"":209},{""stimulus"":""img/3to2/3.png"",""time"":302},{""stimulus"":""img/3to2/4.png"",""time"":401},{""stimulus"":""img/3to2/5.png"",""time"":504},{""stimulus"":""img/3to2/6.png"",""time"":598},{""stimulus"":""img/3to2/7.png"",""time"":703},{""stimulus"":""img/3to2/8.png"",""time"":801},{""stimulus"":""img/3to2/9.png"",""time"":895},{""stimulus"":""img/3to2/10.png"",""time"":1002},{""stimulus"":""img/3to2/11.png"",""time"":1097},{""stimulus"":""img/3to2/12.png"",""time"":1190}]","[]"
"image-keyboard-response","156","172947","0.0-5.0-1.76","63fd6f98e4a77457f1b36b9a","bdp_cybrbll","Mon Mar 27 2023 23:38:27 GMT-0400 (Eastern Daylight Time)","433105","1","3","","76","","","","choice","","img/2to1/1.png","1","149","585","0.5","0.1","2","1","",""
"animation","157","174240","0.0-5.0-2.76","63fd6f98e4a77457f1b36b9a","bdp_cybrbll","Mon Mar 27 2023 23:38:27 GMT-0400 (Eastern Daylight Time)","433105","1","3","","","","","","","","","","149","","","","2","1","[{""stimulus"":""img/2to1/1.png"",""time"":110},{""stimulus"":""img/2to1/2.png"",""time"":203},{""stimulus"":""img/2to1/3.png"",""time"":301},{""stimulus"":""img/2to1/4.png"",""time"":405},{""stimulus"":""img/2to1/5.png"",""time"":500},{""stimulus"":""img/2to1/6.png"",""time"":597},{""stimulus"":""img/2to1/7.png"",""time"":702},{""stimulus"":""img/2to1/8.png"",""time"":795},{""stimulus"":""img/2to1/9.png"",""time"":899},{""stimulus"":""img/2to1/10.png"",""time"":998},{""stimulus"":""img/2to1/11.png"",""time"":1091},{""stimulus"":""img/2to1/12.png"",""time"":1195}]","[]"
"image-keyboard-response","158","174670","0.0-5.0-1.77","63fd6f98e4a77457f1b36b9a","bdp_cybrbll","Mon Mar 27 2023 23:38:27 GMT-0400 (Eastern Daylight Time)","433105","1","3","","null","","","","observe","","img/1to3/1.png","null","148","425","0.5","0.1","1","2","",""
"animation","159","175970","0.0-5.0-2.77","63fd6f98e4a77457f1b36b9a","bdp_cybrbll","Mon Mar 27 2023 23:38:27 GMT-0400 (Eastern Daylight Time)","433105","1","3","","","","","","","","","","148","","","","1","2","[{""stimulus"":""img/1to2/1.png"",""time"":105},{""stimulus"":""img/1to2/2.png"",""time"":202},{""stimulus"":""img/1to2/3.png"",""time"":308},{""stimulus"":""img/1to2/4.png"",""time"":401},{""stimulus"":""img/1to2/5.png"",""time"":505},{""stimulus"":""img/1to2/6.png"",""time"":604},{""stimulus"":""img/1to2/7.png"",""time"":697},{""stimulus"":""img/1to2/8.png"",""time"":801},{""stimulus"":""img/1to2/9.png"",""time"":900},{""stimulus"":""img/1to2/10.png"",""time"":993},{""stimulus"":""img/1to2/11.png"",""time"":1098},{""stimulus"":""img/1to2/12.png"",""time"":1196}]","[]"
"image-keyboard-response","160","176050","0.0-5.0-1.78","63fd6f98e4a77457f1b36b9a","bdp_cybrbll","Mon Mar 27 2023 23:38:27 GMT-0400 (Eastern Daylight Time)","433105","1","3","","79","","","","choice","","img/2to1/1.png","2","147","236","0.5","0.1","2","3","",""
"animation","161","177346","0.0-5.0-2.78","63fd6f98e4a77457f1b36b9a","bdp_cybrbll","Mon Mar 27 2023 23:38:27 GMT-0400 (Eastern Daylight Time)","433105","1","3","","","","","","","","","","147","","","","2","3","[{""stimulus"":""img/2to3/1.png"",""time"":111},{""stimulus"":""img/2to3/2.png"",""time"":204},{""stimulus"":""img/2to3/3.png"",""time"":303},{""stimulus"":""img/2to3/4.png"",""time"":407},{""stimulus"":""img/2to3/5.png"",""time"":500},{""stimulus"":""img/2to3/6.png"",""time"":599},{""stimulus"":""img/2to3/7.png"",""time"":703},{""stimulus"":""img/2to3/8.png"",""time"":796},{""stimulus"":""img/2to3/9.png"",""time"":899},{""stimulus"":""img/2to3/10.png"",""time"":999},{""stimulus"":""img/2to3/11.png"",""time"":1092},{""stimulus"":""img/2to3/12.png"",""time"":1197}]","[]"
"image-keyboard-response","162","177793","0.0-5.0-1.79","63fd6f98e4a77457f1b36b9a","bdp_cybrbll","Mon Mar 27 2023 23:38:27 GMT-0400 (Eastern Daylight Time)","433105","1","3","","null","","","","observe","","img/3to2/1.png","null","146","436","0.5","0.1","3","1","",""
"animation","163","179087","0.0-5.0-2.79","63fd6f98e4a77457f1b36b9a","bdp_cybrbll","Mon Mar 27 2023 23:38:27 GMT-0400 (Eastern Daylight Time)","433105","1","3","","","","","","","","","","146","","","","3","1","[{""stimulus"":""img/3to1/1.png"",""time"":104},{""stimulus"":""img/3to1/2.png"",""time"":209},{""stimulus"":""img/3to1/3.png"",""time"":302},{""stimulus"":""img/3to1/4.png"",""time"":407},{""stimulus"":""img/3to1/5.png"",""time"":504},{""stimulus"":""img/3to1/6.png"",""time"":598},{""stimulus"":""img/3to1/7.png"",""time"":703},{""stimulus"":""img/3to1/8.png"",""time"":801},{""stimulus"":""img/3to1/9.png"",""time"":894},{""stimulus"":""img/3to1/10.png"",""time"":999},{""stimulus"":""img/3to1/11.png"",""time"":1097},{""stimulus"":""img/3to1/12.png"",""time"":1201}]","[]"
"image-keyboard-response","164","179865","0.0-5.0-1.80","63fd6f98e4a77457f1b36b9a","bdp_cybrbll","Mon Mar 27 2023 23:38:27 GMT-0400 (Eastern Daylight Time)","433105","1","3","","null","","","","observe","","img/1to3/1.png","null","145","771","0.5","0.1","1","2","",""
"animation","165","181160","0.0-5.0-2.80","63fd6f98e4a77457f1b36b9a","bdp_cybrbll","Mon Mar 27 2023 23:38:27 GMT-0400 (Eastern Daylight Time)","433105","1","3","","","","","","","","","","145","","","","1","2","[{""stimulus"":""img/1to2/1.png"",""time"":104},{""stimulus"":""img/1to2/2.png"",""time"":207},{""stimulus"":""img/1to2/3.png"",""time"":303},{""stimulus"":""img/1to2/4.png"",""time"":407},{""stimulus"":""img/1to2/5.png"",""time"":505},{""stimulus"":""img/1to2/6.png"",""time"":598},{""stimulus"":""img/1to2/7.png"",""time"":702},{""stimulus"":""img/1to2/8.png"",""time"":801},{""stimulus"":""img/1to2/9.png"",""time"":894},{""stimulus"":""img/1to2/10.png"",""time"":998},{""stimulus"":""img/1to2/11.png"",""time"":1097},{""stimulus"":""img/1to2/12.png"",""time"":1197}]","[]"
"image-keyboard-response","166","181275","0.0-5.0-1.81","63fd6f98e4a77457f1b36b9a","bdp_cybrbll","Mon Mar 27 2023 23:38:27 GMT-0400 (Eastern Daylight Time)","433105","1","3","","115","","","","choice","","img/2to1/1.png","2","144","619","0.5","0.1","2","3","",""
"animation","167","182568","0.0-5.0-2.81","63fd6f98e4a77457f1b36b9a","bdp_cybrbll","Mon Mar 27 2023 23:38:27 GMT-0400 (Eastern Daylight Time)","433105","1","3","","","","","","","","","","144","","","","2","3","[{""stimulus"":""img/2to3/1.png"",""time"":111},{""stimulus"":""img/2to3/2.png"",""time"":204},{""stimulus"":""img/2to3/3.png"",""time"":303},{""stimulus"":""img/2to3/4.png"",""time"":403},{""stimulus"":""img/2to3/5.png"",""time"":500},{""stimulus"":""img/2to3/6.png"",""time"":605},{""stimulus"":""img/2to3/7.png"",""time"":703},{""stimulus"":""img/2to3/8.png"",""time"":796},{""stimulus"":""img/2to3/9.png"",""time"":900},{""stimulus"":""img/2to3/10.png"",""time"":999},{""stimulus"":""img/2to3/11.png"",""time"":1091},{""stimulus"":""img/2to3/12.png"",""time"":1197}]","[]"
"image-keyboard-response","168","183127","0.0-5.0-1.82","63fd6f98e4a77457f1b36b9a","bdp_cybrbll","Mon Mar 27 2023 23:38:27 GMT-0400 (Eastern Daylight Time)","433105","1","3","","null","","","","observe","","img/3to2/1.png","null","143","550","0.5","0.1","3","1","",""
"animation","169","184422","0.0-5.0-2.82","63fd6f98e4a77457f1b36b9a","bdp_cybrbll","Mon Mar 27 2023 23:38:27 GMT-0400 (Eastern Daylight Time)","433105","1","3","","","","","","","","","","143","","","","3","1","[{""stimulus"":""img/3to1/1.png"",""time"":105},{""stimulus"":""img/3to1/2.png"",""time"":209},{""stimulus"":""img/3to1/3.png"",""time"":302},{""stimulus"":""img/3to1/4.png"",""time"":400},{""stimulus"":""img/3to1/5.png"",""time"":504},{""stimulus"":""img/3to1/6.png"",""time"":598},{""stimulus"":""img/3to1/7.png"",""time"":696},{""stimulus"":""img/3to1/8.png"",""time"":801},{""stimulus"":""img/3to1/9.png"",""time"":895},{""stimulus"":""img/3to1/10.png"",""time"":998},{""stimulus"":""img/3to1/11.png"",""time"":1097},{""stimulus"":""img/3to1/12.png"",""time"":1190}]","[]"
"image-keyboard-response","170","184672","0.0-5.0-1.83","63fd6f98e4a77457f1b36b9a","bdp_cybrbll","Mon Mar 27 2023 23:38:27 GMT-0400 (Eastern Daylight Time)","433105","1","3","","null","","","","observe","","img/1to3/1.png","null","142","249","0.5","0.1","1","3","",""
"animation","171","185966","0.0-5.0-2.83","63fd6f98e4a77457f1b36b9a","bdp_cybrbll","Mon Mar 27 2023 23:38:27 GMT-0400 (Eastern Daylight Time)","433105","1","3","","","","","","","","","","142","","","","1","3","[{""stimulus"":""img/1to3/1.png"",""time"":104},{""stimulus"":""img/1to3/2.png"",""time"":209},{""stimulus"":""img/1to3/3.png"",""time"":305},{""stimulus"":""img/1to3/4.png"",""time"":401},{""stimulus"":""img/1to3/5.png"",""time"":505},{""stimulus"":""img/1to3/6.png"",""time"":598},{""stimulus"":""img/1to3/7.png"",""time"":702},{""stimulus"":""img/1to3/8.png"",""time"":801},{""stimulus"":""img/1to3/9.png"",""time"":894},{""stimulus"":""img/1to3/10.png"",""time"":998},{""stimulus"":""img/1to3/11.png"",""time"":1097},{""stimulus"":""img/1to3/12.png"",""time"":1189}]","[]"
"image-keyboard-response","172","186750","0.0-5.0-1.84","63fd6f98e4a77457f1b36b9a","bdp_cybrbll","Mon Mar 27 2023 23:38:27 GMT-0400 (Eastern Daylight Time)","433105","1","3","","null","","","","observe","","img/3to2/1.png","null","141","779","0.5","0.1","3","1","",""
"animation","173","188048","0.0-5.0-2.84","63fd6f98e4a77457f1b36b9a","bdp_cybrbll","Mon Mar 27 2023 23:38:27 GMT-0400 (Eastern Daylight Time)","433105","1","3","","","","","","","","","","141","","","","3","1","[{""stimulus"":""img/3to1/1.png"",""time"":104},{""stimulus"":""img/3to1/2.png"",""time"":203},{""stimulus"":""img/3to1/3.png"",""time"":308},{""stimulus"":""img/3to1/4.png"",""time"":401},{""stimulus"":""img/3to1/5.png"",""time"":505},{""stimulus"":""img/3to1/6.png"",""time"":603},{""stimulus"":""img/3to1/7.png"",""time"":697},{""stimulus"":""img/3to1/8.png"",""time"":801},{""stimulus"":""img/3to1/9.png"",""time"":900},{""stimulus"":""img/3to1/10.png"",""time"":992},{""stimulus"":""img/3to1/11.png"",""time"":1097},{""stimulus"":""img/3to1/12.png"",""time"":1195}]","[]"
"image-keyboard-response","174","188638","0.0-5.0-1.85","63fd6f98e4a77457f1b36b9a","bdp_cybrbll","Mon Mar 27 2023 23:38:27 GMT-0400 (Eastern Daylight Time)","433105","1","3","","null","","","","observe","","img/1to3/1.png","null","140","584","0.5","0.1","1","2","",""
"animation","175","189937","0.0-5.0-2.85","63fd6f98e4a77457f1b36b9a","bdp_cybrbll","Mon Mar 27 2023 23:38:27 GMT-0400 (Eastern Daylight Time)","433105","1","3","","","","","","","","","","140","","","","1","2","[{""stimulus"":""img/1to2/1.png"",""time"":103},{""stimulus"":""img/1to2/2.png"",""time"":202},{""stimulus"":""img/1to2/3.png"",""time"":307},{""stimulus"":""img/1to2/4.png"",""time"":399},{""stimulus"":""img/1to2/5.png"",""time"":506},{""stimulus"":""img/1to2/6.png"",""time"":602},{""stimulus"":""img/1to2/7.png"",""time"":699},{""stimulus"":""img/1to2/8.png"",""time"":800},{""stimulus"":""img/1to2/9.png"",""time"":898},{""stimulus"":""img/1to2/10.png"",""time"":996},{""stimulus"":""img/1to2/11.png"",""time"":1099},{""stimulus"":""img/1to2/12.png"",""time"":1194}]","[]"
"image-keyboard-response","176","190209","0.0-5.0-1.86","63fd6f98e4a77457f1b36b9a","bdp_cybrbll","Mon Mar 27 2023 23:38:27 GMT-0400 (Eastern Daylight Time)","433105","1","3","","272","","","","choice","","img/2to1/1.png","2","139","346","0.5","0.1","2","3","",""
"animation","177","191504","0.0-5.0-2.86","63fd6f98e4a77457f1b36b9a","bdp_cybrbll","Mon Mar 27 2023 23:38:27 GMT-0400 (Eastern Daylight Time)","433105","1","3","","","","","","","","","","139","","","","2","3","[{""stimulus"":""img/2to3/1.png"",""time"":105},{""stimulus"":""img/2to3/2.png"",""time"":199},{""stimulus"":""img/2to3/3.png"",""time"":303},{""stimulus"":""img/2to3/4.png"",""time"":407},{""stimulus"":""img/2to3/5.png"",""time"":500},{""stimulus"":""img/2to3/6.png"",""time"":599},{""stimulus"":""img/2to3/7.png"",""time"":702},{""stimulus"":""img/2to3/8.png"",""time"":796},{""stimulus"":""img/2to3/9.png"",""time"":895},{""stimulus"":""img/2to3/10.png"",""time"":999},{""stimulus"":""img/2to3/11.png"",""time"":1092},{""stimulus"":""img/2to3/12.png"",""time"":1197}]","[]"
"image-keyboard-response","178","192455","0.0-5.0-1.87","63fd6f98e4a77457f1b36b9a","bdp_cybrbll","Mon Mar 27 2023 23:38:27 GMT-0400 (Eastern Daylight Time)","433105","1","3","","null","","","","observe","","img/3to2/1.png","null","138","940","0.5","0.1","3","1","",""
"animation","179","193749","0.0-5.0-2.87","63fd6f98e4a77457f1b36b9a","bdp_cybrbll","Mon Mar 27 2023 23:38:27 GMT-0400 (Eastern Daylight Time)","433105","1","3","","","","","","","","","","138","","","","3","1","[{""stimulus"":""img/3to1/1.png"",""time"":105},{""stimulus"":""img/3to1/2.png"",""time"":208},{""stimulus"":""img/3to1/3.png"",""time"":302},{""stimulus"":""img/3to1/4.png"",""time"":400},{""stimulus"":""img/3to1/5.png"",""time"":505},{""stimulus"":""img/3to1/6.png"",""time"":598},{""stimulus"":""img/3to1/7.png"",""time"":702},{""stimulus"":""img/3to1/8.png"",""time"":801},{""stimulus"":""img/3to1/9.png"",""time"":894},{""stimulus"":""img/3to1/10.png"",""time"":999},{""stimulus"":""img/3to1/11.png"",""time"":1097},{""stimulus"":""img/3to1/12.png"",""time"":1190}]","[]"
"image-keyboard-response","180","194137","0.0-5.0-1.88","63fd6f98e4a77457f1b36b9a","bdp_cybrbll","Mon Mar 27 2023 23:38:27 GMT-0400 (Eastern Daylight Time)","433105","1","3","","null","","","","observe","","img/1to3/1.png","null","137","381","0.5","0.1","1","2","",""
"animation","181","195430","0.0-5.0-2.88","63fd6f98e4a77457f1b36b9a","bdp_cybrbll","Mon Mar 27 2023 23:38:27 GMT-0400 (Eastern Daylight Time)","433105","1","3","","","","","","","","","","137","","","","1","2","[{""stimulus"":""img/1to2/1.png"",""time"":100},{""stimulus"":""img/1to2/2.png"",""time"":206},{""stimulus"":""img/1to2/3.png"",""time"":304},{""stimulus"":""img/1to2/4.png"",""time"":409},{""stimulus"":""img/1to2/5.png"",""time"":502},{""stimulus"":""img/1to2/6.png"",""time"":600},{""stimulus"":""img/1to2/7.png"",""time"":701},{""stimulus"":""img/1to2/8.png"",""time"":800},{""stimulus"":""img/1to2/9.png"",""time"":897},{""stimulus"":""img/1to2/10.png"",""time"":1000},{""stimulus"":""img/1to2/11.png"",""time"":1094},{""stimulus"":""img/1to2/12.png"",""time"":1200}]","[]"
"image-keyboard-response","182","195792","0.0-5.0-1.89","63fd6f98e4a77457f1b36b9a","bdp_cybrbll","Mon Mar 27 2023 23:38:27 GMT-0400 (Eastern Daylight Time)","433105","1","3","","361","","","","choice","","img/2to1/1.png","2","136","1466","0.5","0.1","2","3","",""
"animation","183","197087","0.0-5.0-2.89","63fd6f98e4a77457f1b36b9a","bdp_cybrbll","Mon Mar 27 2023 23:38:27 GMT-0400 (Eastern Daylight Time)","433105","1","3","","","","","","","","","","136","","","","2","3","[{""stimulus"":""img/2to3/1.png"",""time"":106},{""stimulus"":""img/2to3/2.png"",""time"":205},{""stimulus"":""img/2to3/3.png"",""time"":304},{""stimulus"":""img/2to3/4.png"",""time"":397},{""stimulus"":""img/2to3/5.png"",""time"":501},{""stimulus"":""img/2to3/6.png"",""time"":600},{""stimulus"":""img/2to3/7.png"",""time"":704},{""stimulus"":""img/2to3/8.png"",""time"":797},{""stimulus"":""img/2to3/9.png"",""time"":895},{""stimulus"":""img/2to3/10.png"",""time"":1000},{""stimulus"":""img/2to3/11.png"",""time"":1095},{""stimulus"":""img/2to3/12.png"",""time"":1192}]","[]"
"image-keyboard-response","184","197448","0.0-5.0-1.90","63fd6f98e4a77457f1b36b9a","bdp_cybrbll","Mon Mar 27 2023 23:38:27 GMT-0400 (Eastern Daylight Time)","433105","1","3","","null","","","","observe","","img/3to2/1.png","null","135","350","0.5","0.1","3","1","",""
"animation","185","198743","0.0-5.0-2.90","63fd6f98e4a77457f1b36b9a","bdp_cybrbll","Mon Mar 27 2023 23:38:27 GMT-0400 (Eastern Daylight Time)","433105","1","3","","","","","","","","","","135","","","","3","1","[{""stimulus"":""img/3to1/1.png"",""time"":105},{""stimulus"":""img/3to1/2.png"",""time"":209},{""stimulus"":""img/3to1/3.png"",""time"":301},{""stimulus"":""img/3to1/4.png"",""time"":401},{""stimulus"":""img/3to1/5.png"",""time"":505},{""stimulus"":""img/3to1/6.png"",""time"":598},{""stimulus"":""img/3to1/7.png"",""time"":703},{""stimulus"":""img/3to1/8.png"",""time"":801},{""stimulus"":""img/3to1/9.png"",""time"":894},{""stimulus"":""img/3to1/10.png"",""time"":999},{""stimulus"":""img/3to1/11.png"",""time"":1097},{""stimulus"":""img/3to1/12.png"",""time"":1189}]","[]"
"image-keyboard-response","186","199357","0.0-5.0-1.91","63fd6f98e4a77457f1b36b9a","bdp_cybrbll","Mon Mar 27 2023 23:38:27 GMT-0400 (Eastern Daylight Time)","433105","1","3","","null","","","","observe","","img/1to3/1.png","null","134","612","0.5","0.1","1","3","",""
"animation","187","200652","0.0-5.0-2.91","63fd6f98e4a77457f1b36b9a","bdp_cybrbll","Mon Mar 27 2023 23:38:27 GMT-0400 (Eastern Daylight Time)","433105","1","3","","","","","","","","","","134","","","","1","3","[{""stimulus"":""img/1to3/1.png"",""time"":104},{""stimulus"":""img/1to3/2.png"",""time"":203},{""stimulus"":""img/1to3/3.png"",""time"":308},{""stimulus"":""img/1to3/4.png"",""time"":400},{""stimulus"":""img/1to3/5.png"",""time"":505},{""stimulus"":""img/1to3/6.png"",""time"":604},{""stimulus"":""img/1to3/7.png"",""time"":697},{""stimulus"":""img/1to3/8.png"",""time"":801},{""stimulus"":""img/1to3/9.png"",""time"":899},{""stimulus"":""img/1to3/10.png"",""time"":993},{""stimulus"":""img/1to3/11.png"",""time"":1097},{""stimulus"":""img/1to3/12.png"",""time"":1196}]","[]"
"image-keyboard-response","188","200887","0.0-5.0-1.92","63fd6f98e4a77457f1b36b9a","bdp_cybrbll","Mon Mar 27 2023 23:38:27 GMT-0400 (Eastern Daylight Time)","433105","1","3","","null","","","","observe","","img/3to2/1.png","null","133","231","0.5","0.1","3","2","",""
"animation","189","202184","0.0-5.0-2.92","63fd6f98e4a77457f1b36b9a","bdp_cybrbll","Mon Mar 27 2023 23:38:27 GMT-0400 (Eastern Daylight Time)","433105","1","3","","","","","","","","","","133","","","","3","2","[{""stimulus"":""img/3to2/1.png"",""time"":102},{""stimulus"":""img/3to2/2.png"",""time"":207},{""stimulus"":""img/3to2/3.png"",""time"":305},{""stimulus"":""img/3to2/4.png"",""time"":400},{""stimulus"":""img/3to2/5.png"",""time"":503},{""stimulus"":""img/3to2/6.png"",""time"":601},{""stimulus"":""img/3to2/7.png"",""time"":694},{""stimulus"":""img/3to2/8.png"",""time"":800},{""stimulus"":""img/3to2/9.png"",""time"":897},{""stimulus"":""img/3to2/10.png"",""time"":1002},{""stimulus"":""img/3to2/11.png"",""time"":1095},{""stimulus"":""img/3to2/12.png"",""time"":1193}]","[]"
"image-keyboard-response","190","202644","0.0-5.0-1.93","63fd6f98e4a77457f1b36b9a","bdp_cybrbll","Mon Mar 27 2023 23:38:27 GMT-0400 (Eastern Daylight Time)","433105","1","3","","459","","","","choice","","img/2to1/1.png","1","132","359","0.5","0.1","2","1","",""
