"trial_type","trial_index","time_elapsed","internal_node_id","subject_id","task","startTime","totalTime","fairPartner","unfairPartner","view_history","rt","event","trial","time","trialtype","success","stimulus","key_press","throwsLeft","rtDur","pFair","pUnfair","holder","receiver","animation_sequence","responses","numBlurs"
"pavlovia","0","2","0.0-0.0","63bc9e8cd8106f8d94c636d4","bdp_cybrbll","Sun Mar 26 2023 17:15:41 GMT-0400 (Eastern Daylight Time)","464264","1","3","","","","","","","","","","","","","","","","","",""
"instructions","1","5706","0.0-1.0","63bc9e8cd8106f8d94c636d4","bdp_cybrbll","Sun Mar 26 2023 17:15:41 GMT-0400 (Eastern Daylight Time)","464264","1","3","[{""page_index"":0,""viewing_time"":5703}]","5703","","","","","","","","","","","","","","","",""
"","","","","63bc9e8cd8106f8d94c636d4","bdp_cybrbll","Sun Mar 26 2023 17:15:41 GMT-0400 (Eastern Daylight Time)","464264","1","3","","","fullscreenenter","2","9880","fullscreenenter","","","","","","","","","","","",""
"fullscreen","2","10824","0.0-2.0","63bc9e8cd8106f8d94c636d4","bdp_cybrbll","Sun Mar 26 2023 17:15:41 GMT-0400 (Eastern Daylight Time)","464264","1","3","","","","","","","true","","","","","","","","","","",""
"instructions","3","44290","0.0-4.0","63bc9e8cd8106f8d94c636d4","bdp_cybrbll","Sun Mar 26 2023 17:15:41 GMT-0400 (Eastern Daylight Time)","464264","1","3","[{""page_index"":0,""viewing_time"":33464}]","33465","","","","","","","","","","","","","","","",""
"image-keyboard-response","4","48319","0.0-5.0-1.0","63bc9e8cd8106f8d94c636d4","bdp_cybrbll","Sun Mar 26 2023 17:15:41 GMT-0400 (Eastern Daylight Time)","464264","1","3","","4028","","","","choice","","img/2to1/1.png","1","225","506","0.5","0.5","2","1","","",""
"animation","5","49616","0.0-5.0-2.0","63bc9e8cd8106f8d94c636d4","bdp_cybrbll","Sun Mar 26 2023 17:15:41 GMT-0400 (Eastern Daylight Time)","464264","1","3","","","","","","","","","","225","","","","2","1","[{""stimulus"":""img/2to1/1.png"",""time"":100},{""stimulus"":""img/2to1/2.png"",""time"":199},{""stimulus"":""img/2to1/3.png"",""time"":298},{""stimulus"":""img/2to1/4.png"",""time"":397},{""stimulus"":""img/2to1/5.png"",""time"":497},{""stimulus"":""img/2to1/6.png"",""time"":597},{""stimulus"":""img/2to1/7.png"",""time"":697},{""stimulus"":""img/2to1/8.png"",""time"":797},{""stimulus"":""img/2to1/9.png"",""time"":897},{""stimulus"":""img/2to1/10.png"",""time"":997},{""stimulus"":""img/2to1/11.png"",""time"":1097},{""stimulus"":""img/2to1/12.png"",""time"":1197}]","[]",""
"image-keyboard-response","6","49972","0.0-5.0-1.1","63bc9e8cd8106f8d94c636d4","bdp_cybrbll","Sun Mar 26 2023 17:15:41 GMT-0400 (Eastern Daylight Time)","464264","1","3","","null","","","","observe","","img/1to3/1.png","null","224","355","0.5","0.5","1","2","","",""
"animation","7","51270","0.0-5.0-2.1","63bc9e8cd8106f8d94c636d4","bdp_cybrbll","Sun Mar 26 2023 17:15:41 GMT-0400 (Eastern Daylight Time)","464264","1","3","","","","","","","","","","224","","","","1","2","[{""stimulus"":""img/1to2/1.png"",""time"":99},{""stimulus"":""img/1to2/2.png"",""time"":199},{""stimulus"":""img/1to2/3.png"",""time"":299},{""stimulus"":""img/1to2/4.png"",""time"":399},{""stimulus"":""img/1to2/5.png"",""time"":499},{""stimulus"":""img/1to2/6.png"",""time"":598},{""stimulus"":""img/1to2/7.png"",""time"":697},{""stimulus"":""img/1to2/8.png"",""time"":798},{""stimulus"":""img/1to2/9.png"",""time"":897},{""stimulus"":""img/1to2/10.png"",""time"":998},{""stimulus"":""img/1to2/11.png"",""time"":1098},{""stimulus"":""img/1to2/12.png"",""time"":1198}]","[]",""
"image-keyboard-response","8","52729","0.0-5.0-1.2","63bc9e8cd8106f8d94c636d4","bdp_cybrbll","Sun Mar 26 2023 17:15:41 GMT-0400 (Eastern Daylight Time)","464264","1","3","","1459","","","","choice","","img/2to1/1.png","1","223","372","0.5","0.5","2","1","","",""
"animation","9","54026","0.0-5.0-2.2","63bc9e8cd8106f8d94c636d4","bdp_cybrbll","Sun Mar 26 2023 17:15:41 GMT-0400 (Eastern Daylight Time)","464264","1","3","","","","","","","","","","223","","","","2","1","[{""stimulus"":""img/2to1/1.png"",""time"":100},{""stimulus"":""img/2to1/2.png"",""time"":199},{""stimulus"":""img/2to1/3.png"",""time"":298},{""stimulus"":""img/2to1/4.png"",""time"":398},{""stimulus"":""img/2to1/5.png"",""time"":498},{""stimulus"":""img/2to1/6.png"",""time"":598},{""stimulus"":""img/2to1/7.png"",""time"":697},{""stimulus"":""img/2to1/8.png"",""time"":798},{""stimulus"":""img/2to1/9.png"",""time"":897},{""stimulus"":""img/2to1/10.png"",""time"":997},{""stimulus"":""img/2to1/11.png"",""time"":1097},{""stimulus"":""img/2to1/12.png"",""time"":1197}]","[]",""
"image-keyboard-response","10","54654","0.0-5.0-1.3","63bc9e8cd8106f8d94c636d4","bdp_cybrbll","Sun Mar 26 2023 17:15:41 GMT-0400 (Eastern Daylight Time)","464264","1","3","","null","","","","observe","","img/1to3/1.png","null","222","627","0.5","0.5","1","2","","",""
"animation","11","55950","0.0-5.0-2.3","63bc9e8cd8106f8d94c636d4","bdp_cybrbll","Sun Mar 26 2023 17:15:41 GMT-0400 (Eastern Daylight Time)","464264","1","3","","","","","","","","","","222","","","","1","2","[{""stimulus"":""img/1to2/1.png"",""time"":99},{""stimulus"":""img/1to2/2.png"",""time"":199},{""stimulus"":""img/1to2/3.png"",""time"":298},{""stimulus"":""img/1to2/4.png"",""time"":398},{""stimulus"":""img/1to2/5.png"",""time"":498},{""stimulus"":""img/1to2/6.png"",""time"":598},{""stimulus"":""img/1to2/7.png"",""time"":698},{""stimulus"":""img/1to2/8.png"",""time"":799},{""stimulus"":""img/1to2/9.png"",""time"":899},{""stimulus"":""img/1to2/10.png"",""time"":998},{""stimulus"":""img/1to2/11.png"",""time"":1097},{""stimulus"":""img/1to2/12.png"",""time"":1196}]","[]",""
"image-keyboard-response","12","56383","0.0-5.0-1.4","63bc9e8cd8106f8d94c636d4","bdp_cybrbll","Sun Mar 26 2023 17:15:41 GMT-0400 (Eastern Daylight Time)","464264","1","3","","432","","","","choice","","img/2to1/1.png","2","221","388","0.5","0.5","2","3","","",""
"animation","13","57683","0.0-5.0-2.4","63bc9e8cd8106f8d94c636d4","bdp_cybrbll","Sun Mar 26 2023 17:15:41 GMT-0400 (Eastern Daylight Time)","464264","1","3","","","","","","","","","","221","","","","2","3","[{""stimulus"":""img/2to3/1.png"",""time"":99},{""stimulus"":""img/2to3/2.png"",""time"":200},{""stimulus"":""img/2to3/3.png"",""time"":299},{""stimulus"":""img/2to3/4.png"",""time"":399},{""stimulus"":""img/2to3/5.png"",""time"":499},{""stimulus"":""img/2to3/6.png"",""time"":599},{""stimulus"":""img/2to3/7.png"",""time"":699},{""stimulus"":""img/2to3/8.png"",""time"":800},{""stimulus"":""img/2to3/9.png"",""time"":900},{""stimulus"":""img/2to3/10.png"",""time"":999},{""stimulus"":""img/2to3/11.png"",""time"":1099},{""stimulus"":""img/2to3/12.png"",""time"":1199}]","[]",""
"image-keyboard-response","14","58631","0.0-5.0-1.5","63bc9e8cd8106f8d94c636d4","bdp_cybrbll","Sun Mar 26 2023 17:15:41 GMT-0400 (Eastern Daylight Time)","464264","1","3","","null","","","","observe","","img/3to2/1.png","null","220","946","0.5","0.5","3","1","","",""
"animation","15","59930","0.0-5.0-2.5","63bc9e8cd8106f8d94c636d4","bdp_cybrbll","Sun Mar 26 2023 17:15:41 GMT-0400 (Eastern Daylight Time)","464264","1","3","","","","","","","","","","220","","","","3","1","[{""stimulus"":""img/3to1/1.png"",""time"":100},{""stimulus"":""img/3to1/2.png"",""time"":199},{""stimulus"":""img/3to1/3.png"",""time"":299},{""stimulus"":""img/3to1/4.png"",""time"":399},{""stimulus"":""img/3to1/5.png"",""time"":499},{""stimulus"":""img/3to1/6.png"",""time"":599},{""stimulus"":""img/3to1/7.png"",""time"":699},{""stimulus"":""img/3to1/8.png"",""time"":799},{""stimulus"":""img/3to1/9.png"",""time"":899},{""stimulus"":""img/3to1/10.png"",""time"":999},{""stimulus"":""img/3to1/11.png"",""time"":1099},{""stimulus"":""img/3to1/12.png"",""time"":1198}]","[]",""
"image-keyboard-response","16","60725","0.0-5.0-1.6","63bc9e8cd8106f8d94c636d4","bdp_cybrbll","Sun Mar 26 2023 17:15:41 GMT-0400 (Eastern Daylight Time)","464264","1","3","","null","","","","observe","","img/1to3/1.png","null","219","795","0.5","0.5","1","2","","",""
"animation","17","62022","0.0-5.0-2.6","63bc9e8cd8106f8d94c636d4","bdp_cybrbll","Sun Mar 26 2023 17:15:41 GMT-0400 (Eastern Daylight Time)","464264","1","3","","","","","","","","","","219","","","","1","2","[{""stimulus"":""img/1to2/1.png"",""time"":99},{""stimulus"":""img/1to2/2.png"",""time"":199},{""stimulus"":""img/1to2/3.png"",""time"":298},{""stimulus"":""img/1to2/4.png"",""time"":398},{""stimulus"":""img/1to2/5.png"",""time"":498},{""stimulus"":""img/1to2/6.png"",""time"":597},{""stimulus"":""img/1to2/7.png"",""time"":697},{""stimulus"":""img/1to2/8.png"",""time"":797},{""stimulus"":""img/1to2/9.png"",""time"":896},{""stimulus"":""img/1to2/10.png"",""time"":996},{""stimulus"":""img/1to2/11.png"",""time"":1096},{""stimulus"":""img/1to2/12.png"",""time"":1196}]","[]",""
"image-keyboard-response","18","62423","0.0-5.0-1.7","63bc9e8cd8106f8d94c636d4","bdp_cybrbll","Sun Mar 26 2023 17:15:41 GMT-0400 (Eastern Daylight Time)","464264","1","3","","400","","","","choice","","img/2to1/1.png","2","218","579","0.5","0.5","2","3","","",""
"animation","19","63720","0.0-5.0-2.7","63bc9e8cd8106f8d94c636d4","bdp_cybrbll","Sun Mar 26 2023 17:15:41 GMT-0400 (Eastern Daylight Time)","464264","1","3","","","","","","","","","","218","","","","2","3","[{""stimulus"":""img/2to3/1.png"",""time"":100},{""stimulus"":""img/2to3/2.png"",""time"":200},{""stimulus"":""img/2to3/3.png"",""time"":300},{""stimulus"":""img/2to3/4.png"",""time"":400},{""stimulus"":""img/2to3/5.png"",""time"":499},{""stimulus"":""img/2to3/6.png"",""time"":599},{""stimulus"":""img/2to3/7.png"",""time"":699},{""stimulus"":""img/2to3/8.png"",""time"":799},{""stimulus"":""img/2to3/9.png"",""time"":898},{""stimulus"":""img/2to3/10.png"",""time"":998},{""stimulus"":""img/2to3/11.png"",""time"":1098},{""stimulus"":""img/2to3/12.png"",""time"":1197}]","[]",""
"image-keyboard-response","20","64134","0.0-5.0-1.8","63bc9e8cd8106f8d94c636d4","bdp_cybrbll","Sun Mar 26 2023 17:15:41 GMT-0400 (Eastern Daylight Time)","464264","1","3","","null","","","","observe","","img/3to2/1.png","null","217","413","0.5","0.5","3","2","","",""
"animation","21","65430","0.0-5.0-2.8","63bc9e8cd8106f8d94c636d4","bdp_cybrbll","Sun Mar 26 2023 17:15:41 GMT-0400 (Eastern Daylight Time)","464264","1","3","","","","","","","","","","217","","","","3","2","[{""stimulus"":""img/3to2/1.png"",""time"":100},{""stimulus"":""img/3to2/2.png"",""time"":199},{""stimulus"":""img/3to2/3.png"",""time"":299},{""stimulus"":""img/3to2/4.png"",""time"":398},{""stimulus"":""img/3to2/5.png"",""time"":498},{""stimulus"":""img/3to2/6.png"",""time"":597},{""stimulus"":""img/3to2/7.png"",""time"":696},{""stimulus"":""img/3to2/8.png"",""time"":796},{""stimulus"":""img/3to2/9.png"",""time"":896},{""stimulus"":""img/3to2/10.png"",""time"":995},{""stimulus"":""img/3to2/11.png"",""time"":1096},{""stimulus"":""img/3to2/12.png"",""time"":1196}]","[]",""
"image-keyboard-response","22","66386","0.0-5.0-1.9","63bc9e8cd8106f8d94c636d4","bdp_cybrbll","Sun Mar 26 2023 17:15:41 GMT-0400 (Eastern Daylight Time)","464264","1","3","","956","","","","choice","","img/2to1/1.png","1","216","305","0.5","0.5","2","1","","",""
"animation","23","67683","0.0-5.0-2.9","63bc9e8cd8106f8d94c636d4","bdp_cybrbll","Sun Mar 26 2023 17:15:41 GMT-0400 (Eastern Daylight Time)","464264","1","3","","","","","","","","","","216","","","","2","1","[{""stimulus"":""img/2to1/1.png"",""time"":100},{""stimulus"":""img/2to1/2.png"",""time"":199},{""stimulus"":""img/2to1/3.png"",""time"":298},{""stimulus"":""img/2to1/4.png"",""time"":398},{""stimulus"":""img/2to1/5.png"",""time"":498},{""stimulus"":""img/2to1/6.png"",""time"":598},{""stimulus"":""img/2to1/7.png"",""time"":698},{""stimulus"":""img/2to1/8.png"",""time"":797},{""stimulus"":""img/2to1/9.png"",""time"":897},{""stimulus"":""img/2to1/10.png"",""time"":996},{""stimulus"":""img/2to1/11.png"",""time"":1096},{""stimulus"":""img/2to1/12.png"",""time"":1196}]","[]",""
"image-keyboard-response","24","67973","0.0-5.0-1.10","63bc9e8cd8106f8d94c636d4","bdp_cybrbll","Sun Mar 26 2023 17:15:41 GMT-0400 (Eastern Daylight Time)","464264","1","3","","null","","","","observe","","img/1to3/1.png","null","215","289","0.5","0.5","1","3","","",""
"animation","25","69270","0.0-5.0-2.10","63bc9e8cd8106f8d94c636d4","bdp_cybrbll","Sun Mar 26 2023 17:15:41 GMT-0400 (Eastern Daylight Time)","464264","1","3","","","","","","","","","","215","","","","1","3","[{""stimulus"":""img/1to3/1.png"",""time"":100},{""stimulus"":""img/1to3/2.png"",""time"":199},{""stimulus"":""img/1to3/3.png"",""time"":299},{""stimulus"":""img/1to3/4.png"",""time"":398},{""stimulus"":""img/1to3/5.png"",""time"":499},{""stimulus"":""img/1to3/6.png"",""time"":599},{""stimulus"":""img/1to3/7.png"",""time"":699},{""stimulus"":""img/1to3/8.png"",""time"":798},{""stimulus"":""img/1to3/9.png"",""time"":897},{""stimulus"":""img/1to3/10.png"",""time"":996},{""stimulus"":""img/1to3/11.png"",""time"":1096},{""stimulus"":""img/1to3/12.png"",""time"":1197}]","[]",""
"image-keyboard-response","26","69815","0.0-5.0-1.11","63bc9e8cd8106f8d94c636d4","bdp_cybrbll","Sun Mar 26 2023 17:15:41 GMT-0400 (Eastern Daylight Time)","464264","1","3","","null","","","","observe","","img/3to2/1.png","null","214","544","0.5","0.5","3","1","","",""
"animation","27","71114","0.0-5.0-2.11","63bc9e8cd8106f8d94c636d4","bdp_cybrbll","Sun Mar 26 2023 17:15:41 GMT-0400 (Eastern Daylight Time)","464264","1","3","","","","","","","","","","214","","","","3","1","[{""stimulus"":""img/3to1/1.png"",""time"":101},{""stimulus"":""img/3to1/2.png"",""time"":201},{""stimulus"":""img/3to1/3.png"",""time"":300},{""stimulus"":""img/3to1/4.png"",""time"":399},{""stimulus"":""img/3to1/5.png"",""time"":500},{""stimulus"":""img/3to1/6.png"",""time"":600},{""stimulus"":""img/3to1/7.png"",""time"":700},{""stimulus"":""img/3to1/8.png"",""time"":800},{""stimulus"":""img/3to1/9.png"",""time"":900},{""stimulus"":""img/3to1/10.png"",""time"":1000},{""stimulus"":""img/3to1/11.png"",""time"":1100},{""stimulus"":""img/3to1/12.png"",""time"":1200}]","[]",""
"image-keyboard-response","28","71406","0.0-5.0-1.12","63bc9e8cd8106f8d94c636d4","bdp_cybrbll","Sun Mar 26 2023 17:15:41 GMT-0400 (Eastern Daylight Time)","464264","1","3","","null","","","","observe","","img/1to3/1.png","null","213","290","0.5","0.5","1","2","","",""
"animation","29","72704","0.0-5.0-2.12","63bc9e8cd8106f8d94c636d4","bdp_cybrbll","Sun Mar 26 2023 17:15:41 GMT-0400 (Eastern Daylight Time)","464264","1","3","","","","","","","","","","213","","","","1","2","[{""stimulus"":""img/1to2/1.png"",""time"":100},{""stimulus"":""img/1to2/2.png"",""time"":199},{""stimulus"":""img/1to2/3.png"",""time"":299},{""stimulus"":""img/1to2/4.png"",""time"":398},{""stimulus"":""img/1to2/5.png"",""time"":498},{""stimulus"":""img/1to2/6.png"",""time"":598},{""stimulus"":""img/1to2/7.png"",""time"":698},{""stimulus"":""img/1to2/8.png"",""time"":798},{""stimulus"":""img/1to2/9.png"",""time"":898},{""stimulus"":""img/1to2/10.png"",""time"":998},{""stimulus"":""img/1to2/11.png"",""time"":1098},{""stimulus"":""img/1to2/12.png"",""time"":1199}]","[]",""
"image-keyboard-response","30","73207","0.0-5.0-1.13","63bc9e8cd8106f8d94c636d4","bdp_cybrbll","Sun Mar 26 2023 17:15:41 GMT-0400 (Eastern Daylight Time)","464264","1","3","","503","","","","choice","","img/2to1/1.png","2","212","783","0.5","0.5","2","3","","",""
"animation","31","74504","0.0-5.0-2.13","63bc9e8cd8106f8d94c636d4","bdp_cybrbll","Sun Mar 26 2023 17:15:41 GMT-0400 (Eastern Daylight Time)","464264","1","3","","","","","","","","","","212","","","","2","3","[{""stimulus"":""img/2to3/1.png"",""time"":99},{""stimulus"":""img/2to3/2.png"",""time"":200},{""stimulus"":""img/2to3/3.png"",""time"":299},{""stimulus"":""img/2to3/4.png"",""time"":399},{""stimulus"":""img/2to3/5.png"",""time"":498},{""stimulus"":""img/2to3/6.png"",""time"":598},{""stimulus"":""img/2to3/7.png"",""time"":697},{""stimulus"":""img/2to3/8.png"",""time"":797},{""stimulus"":""img/2to3/9.png"",""time"":897},{""stimulus"":""img/2to3/10.png"",""time"":996},{""stimulus"":""img/2to3/11.png"",""time"":1096},{""stimulus"":""img/2to3/12.png"",""time"":1196}]","[]",""
"image-keyboard-response","32","75282","0.0-5.0-1.14","63bc9e8cd8106f8d94c636d4","bdp_cybrbll","Sun Mar 26 2023 17:15:41 GMT-0400 (Eastern Daylight Time)","464264","1","3","","null","","","","observe","","img/3to2/1.png","null","211","776","0.5","0.5","3","2","","",""
"animation","33","76583","0.0-5.0-2.14","63bc9e8cd8106f8d94c636d4","bdp_cybrbll","Sun Mar 26 2023 17:15:41 GMT-0400 (Eastern Daylight Time)","464264","1","3","","","","","","","","","","211","","","","3","2","[{""stimulus"":""img/3to2/1.png"",""time"":101},{""stimulus"":""img/3to2/2.png"",""time"":200},{""stimulus"":""img/3to2/3.png"",""time"":301},{""stimulus"":""img/3to2/4.png"",""time"":401},{""stimulus"":""img/3to2/5.png"",""time"":501},{""stimulus"":""img/3to2/6.png"",""time"":601},{""stimulus"":""img/3to2/7.png"",""time"":701},{""stimulus"":""img/3to2/8.png"",""time"":801},{""stimulus"":""img/3to2/9.png"",""time"":901},{""stimulus"":""img/3to2/10.png"",""time"":1001},{""stimulus"":""img/3to2/11.png"",""time"":1100},{""stimulus"":""img/3to2/12.png"",""time"":1201}]","[]",""
"image-keyboard-response","34","76796","0.0-5.0-1.15","63bc9e8cd8106f8d94c636d4","bdp_cybrbll","Sun Mar 26 2023 17:15:41 GMT-0400 (Eastern Daylight Time)","464264","1","3","","213","","","","choice","","img/2to1/1.png","1","210","197","0.5","0.5","2","1","","",""
"animation","35","78093","0.0-5.0-2.15","63bc9e8cd8106f8d94c636d4","bdp_cybrbll","Sun Mar 26 2023 17:15:41 GMT-0400 (Eastern Daylight Time)","464264","1","3","","","","","","","","","","210","","","","2","1","[{""stimulus"":""img/2to1/1.png"",""time"":100},{""stimulus"":""img/2to1/2.png"",""time"":199},{""stimulus"":""img/2to1/3.png"",""time"":299},{""stimulus"":""img/2to1/4.png"",""time"":399},{""stimulus"":""img/2to1/5.png"",""time"":499},{""stimulus"":""img/2to1/6.png"",""time"":598},{""stimulus"":""img/2to1/7.png"",""time"":697},{""stimulus"":""img/2to1/8.png"",""time"":797},{""stimulus"":""img/2to1/9.png"",""time"":897},{""stimulus"":""img/2to1/10.png"",""time"":997},{""stimulus"":""img/2to1/11.png"",""time"":1097},{""stimulus"":""img/2to1/12.png"",""time"":1197}]","[]",""
"image-keyboard-response","36","78428","0.0-5.0-1.16","63bc9e8cd8106f8d94c636d4","bdp_cybrbll","Sun Mar 26 2023 17:15:41 GMT-0400 (Eastern Daylight Time)","464264","1","3","","null","","","","observe","","img/1to3/1.png","null","209","334","0.5","0.5","1","2","","",""
"animation","37","79730","0.0-5.0-2.16","63bc9e8cd8106f8d94c636d4","bdp_cybrbll","Sun Mar 26 2023 17:15:41 GMT-0400 (Eastern Daylight Time)","464264","1","3","","","","","","","","","","209","","","","1","2","[{""stimulus"":""img/1to2/1.png"",""time"":100},{""stimulus"":""img/1to2/2.png"",""time"":203},{""stimulus"":""img/1to2/3.png"",""time"":303},{""stimulus"":""img/1to2/4.png"",""time"":403},{""stimulus"":""img/1to2/5.png"",""time"":503},{""stimulus"":""img/1to2/6.png"",""time"":602},{""stimulus"":""img/1to2/7.png"",""time"":702},{""stimulus"":""img/1to2/8.png"",""time"":801},{""stimulus"":""img/1to2/9.png"",""time"":901},{""stimulus"":""img/1to2/10.png"",""time"":1001},{""stimulus"":""img/1to2/11.png"",""time"":1101},{""stimulus"":""img/1to2/12.png"",""time"":1201}]","[]",""
"image-keyboard-response","38","79931","0.0-5.0-1.17","63bc9e8cd8106f8d94c636d4","bdp_cybrbll","Sun Mar 26 2023 17:15:41 GMT-0400 (Eastern Daylight Time)","464264","1","3","","201","","","","choice","","img/2to1/1.png","2","208","281","0.5","0.5","2","3","","",""
"animation","39","81230","0.0-5.0-2.17","63bc9e8cd8106f8d94c636d4","bdp_cybrbll","Sun Mar 26 2023 17:15:41 GMT-0400 (Eastern Daylight Time)","464264","1","3","","","","","","","","","","208","","","","2","3","[{""stimulus"":""img/2to3/1.png"",""time"":100},{""stimulus"":""img/2to3/2.png"",""time"":199},{""stimulus"":""img/2to3/3.png"",""time"":299},{""stimulus"":""img/2to3/4.png"",""time"":399},{""stimulus"":""img/2to3/5.png"",""time"":499},{""stimulus"":""img/2to3/6.png"",""time"":599},{""stimulus"":""img/2to3/7.png"",""time"":701},{""stimulus"":""img/2to3/8.png"",""time"":801},{""stimulus"":""img/2to3/9.png"",""time"":900},{""stimulus"":""img/2to3/10.png"",""time"":1000},{""stimulus"":""img/2to3/11.png"",""time"":1099},{""stimulus"":""img/2to3/12.png"",""time"":1199}]","[]",""
"image-keyboard-response","40","81633","0.0-5.0-1.18","63bc9e8cd8106f8d94c636d4","bdp_cybrbll","Sun Mar 26 2023 17:15:41 GMT-0400 (Eastern Daylight Time)","464264","1","3","","null","","","","observe","","img/3to2/1.png","null","207","402","0.5","0.5","3","1","","",""
"animation","41","82932","0.0-5.0-2.18","63bc9e8cd8106f8d94c636d4","bdp_cybrbll","Sun Mar 26 2023 17:15:41 GMT-0400 (Eastern Daylight Time)","464264","1","3","","","","","","","","","","207","","","","3","1","[{""stimulus"":""img/3to1/1.png"",""time"":99},{""stimulus"":""img/3to1/2.png"",""time"":199},{""stimulus"":""img/3to1/3.png"",""time"":299},{""stimulus"":""img/3to1/4.png"",""time"":399},{""stimulus"":""img/3to1/5.png"",""time"":499},{""stimulus"":""img/3to1/6.png"",""time"":599},{""stimulus"":""img/3to1/7.png"",""time"":699},{""stimulus"":""img/3to1/8.png"",""time"":799},{""stimulus"":""img/3to1/9.png"",""time"":899},{""stimulus"":""img/3to1/10.png"",""time"":1000},{""stimulus"":""img/3to1/11.png"",""time"":1099},{""stimulus"":""img/3to1/12.png"",""time"":1199}]","[]",""
"image-keyboard-response","42","84064","0.0-5.0-1.19","63bc9e8cd8106f8d94c636d4","bdp_cybrbll","Sun Mar 26 2023 17:15:41 GMT-0400 (Eastern Daylight Time)","464264","1","3","","null","","","","observe","","img/1to3/1.png","null","206","1132","0.5","0.5","1","3","","",""
"animation","43","85362","0.0-5.0-2.19","63bc9e8cd8106f8d94c636d4","bdp_cybrbll","Sun Mar 26 2023 17:15:41 GMT-0400 (Eastern Daylight Time)","464264","1","3","","","","","","","","","","206","","","","1","3","[{""stimulus"":""img/1to3/1.png"",""time"":100},{""stimulus"":""img/1to3/2.png"",""time"":200},{""stimulus"":""img/1to3/3.png"",""time"":300},{""stimulus"":""img/1to3/4.png"",""time"":400},{""stimulus"":""img/1to3/5.png"",""time"":500},{""stimulus"":""img/1to3/6.png"",""time"":600},{""stimulus"":""img/1to3/7.png"",""time"":700},{""stimulus"":""img/1to3/8.png"",""time"":799},{""stimulus"":""img/1to3/9.png"",""time"":899},{""stimulus"":""img/1to3/10.png"",""time"":999},{""stimulus"":""img/1to3/11.png"",""time"":1098},{""stimulus"":""img/1to3/12.png"",""time"":1198}]","[]",""
"image-keyboard-response","44","85771","0.0-5.0-1.20","63bc9e8cd8106f8d94c636d4","bdp_cybrbll","Sun Mar 26 2023 17:15:41 GMT-0400 (Eastern Daylight Time)","464264","1","3","","null","","","","observe","","img/3to2/1.png","null","205","408","0.5","0.5","3","1","","",""
"animation","45","87071","0.0-5.0-2.20","63bc9e8cd8106f8d94c636d4","bdp_cybrbll","Sun Mar 26 2023 17:15:41 GMT-0400 (Eastern Daylight Time)","464264","1","3","","","","","","","","","","205","","","","3","1","[{""stimulus"":""img/3to1/1.png"",""time"":100},{""stimulus"":""img/3to1/2.png"",""time"":200},{""stimulus"":""img/3to1/3.png"",""time"":300},{""stimulus"":""img/3to1/4.png"",""time"":400},{""stimulus"":""img/3to1/5.png"",""time"":500},{""stimulus"":""img/3to1/6.png"",""time"":600},{""stimulus"":""img/3to1/7.png"",""time"":700},{""stimulus"":""img/3to1/8.png"",""time"":799},{""stimulus"":""img/3to1/9.png"",""time"":899},{""stimulus"":""img/3to1/10.png"",""time"":1000},{""stimulus"":""img/3to1/11.png"",""time"":1100},{""stimulus"":""img/3to1/12.png"",""time"":1200}]","[]",""
"image-keyboard-response","46","87388","0.0-5.0-1.21","63bc9e8cd8106f8d94c636d4","bdp_cybrbll","Sun Mar 26 2023 17:15:41 GMT-0400 (Eastern Daylight Time)","464264","1","3","","null","","","","observe","","img/1to3/1.png","null","204","317","0.5","0.5","1","3","","",""
"animation","47","88682","0.0-5.0-2.21","63bc9e8cd8106f8d94c636d4","bdp_cybrbll","Sun Mar 26 2023 17:15:41 GMT-0400 (Eastern Daylight Time)","464264","1","3","","","","","","","","","","204","","","","1","3","[{""stimulus"":""img/1to3/1.png"",""time"":99},{""stimulus"":""img/1to3/2.png"",""time"":198},{""stimulus"":""img/1to3/3.png"",""time"":298},{""stimulus"":""img/1to3/4.png"",""time"":397},{""stimulus"":""img/1to3/5.png"",""time"":497},{""stimulus"":""img/1to3/6.png"",""time"":597},{""stimulus"":""img/1to3/7.png"",""time"":696},{""stimulus"":""img/1to3/8.png"",""time"":795},{""stimulus"":""img/1to3/9.png"",""time"":894},{""stimulus"":""img/1to3/10.png"",""time"":994},{""stimulus"":""img/1to3/11.png"",""time"":1094},{""stimulus"":""img/1to3/12.png"",""time"":1194}]","[]",""
"image-keyboard-response","48","89252","0.0-5.0-1.22","63bc9e8cd8106f8d94c636d4","bdp_cybrbll","Sun Mar 26 2023 17:15:41 GMT-0400 (Eastern Daylight Time)","464264","1","3","","null","","","","observe","","img/3to2/1.png","null","203","568","0.5","0.5","3","2","","",""
"animation","49","90548","0.0-5.0-2.22","63bc9e8cd8106f8d94c636d4","bdp_cybrbll","Sun Mar 26 2023 17:15:41 GMT-0400 (Eastern Daylight Time)","464264","1","3","","","","","","","","","","203","","","","3","2","[{""stimulus"":""img/3to2/1.png"",""time"":100},{""stimulus"":""img/3to2/2.png"",""time"":199},{""stimulus"":""img/3to2/3.png"",""time"":299},{""stimulus"":""img/3to2/4.png"",""time"":399},{""stimulus"":""img/3to2/5.png"",""time"":499},{""stimulus"":""img/3to2/6.png"",""time"":599},{""stimulus"":""img/3to2/7.png"",""time"":700},{""stimulus"":""img/3to2/8.png"",""time"":799},{""stimulus"":""img/3to2/9.png"",""time"":898},{""stimulus"":""img/3to2/10.png"",""time"":997},{""stimulus"":""img/3to2/11.png"",""time"":1097},{""stimulus"":""img/3to2/12.png"",""time"":1196}]","[]",""
"image-keyboard-response","50","90885","0.0-5.0-1.23","63bc9e8cd8106f8d94c636d4","bdp_cybrbll","Sun Mar 26 2023 17:15:41 GMT-0400 (Eastern Daylight Time)","464264","1","3","","337","","","","choice","","img/2to1/1.png","1","202","389","0.5","0.5","2","1","","",""
"animation","51","92182","0.0-5.0-2.23","63bc9e8cd8106f8d94c636d4","bdp_cybrbll","Sun Mar 26 2023 17:15:41 GMT-0400 (Eastern Daylight Time)","464264","1","3","","","","","","","","","","202","","","","2","1","[{""stimulus"":""img/2to1/1.png"",""time"":100},{""stimulus"":""img/2to1/2.png"",""time"":199},{""stimulus"":""img/2to1/3.png"",""time"":299},{""stimulus"":""img/2to1/4.png"",""time"":398},{""stimulus"":""img/2to1/5.png"",""time"":497},{""stimulus"":""img/2to1/6.png"",""time"":597},{""stimulus"":""img/2to1/7.png"",""time"":698},{""stimulus"":""img/2to1/8.png"",""time"":797},{""stimulus"":""img/2to1/9.png"",""time"":897},{""stimulus"":""img/2to1/10.png"",""time"":997},{""stimulus"":""img/2to1/11.png"",""time"":1097},{""stimulus"":""img/2to1/12.png"",""time"":1197}]","[]",""
"image-keyboard-response","52","92483","0.0-5.0-1.24","63bc9e8cd8106f8d94c636d4","bdp_cybrbll","Sun Mar 26 2023 17:15:41 GMT-0400 (Eastern Daylight Time)","464264","1","3","","null","","","","observe","","img/1to3/1.png","null","201","300","0.5","0.5","1","3","","",""
"animation","53","93782","0.0-5.0-2.24","63bc9e8cd8106f8d94c636d4","bdp_cybrbll","Sun Mar 26 2023 17:15:41 GMT-0400 (Eastern Daylight Time)","464264","1","3","","","","","","","","","","201","","","","1","3","[{""stimulus"":""img/1to3/1.png"",""time"":100},{""stimulus"":""img/1to3/2.png"",""time"":199},{""stimulus"":""img/1to3/3.png"",""time"":298},{""stimulus"":""img/1to3/4.png"",""time"":399},{""stimulus"":""img/1to3/5.png"",""time"":499},{""stimulus"":""img/1to3/6.png"",""time"":599},{""stimulus"":""img/1to3/7.png"",""time"":699},{""stimulus"":""img/1to3/8.png"",""time"":799},{""stimulus"":""img/1to3/9.png"",""time"":899},{""stimulus"":""img/1to3/10.png"",""time"":999},{""stimulus"":""img/1to3/11.png"",""time"":1099},{""stimulus"":""img/1to3/12.png"",""time"":1198}]","[]",""
"image-keyboard-response","54","94880","0.0-5.0-1.25","63bc9e8cd8106f8d94c636d4","bdp_cybrbll","Sun Mar 26 2023 17:15:41 GMT-0400 (Eastern Daylight Time)","464264","1","3","","null","","","","observe","","img/3to2/1.png","null","200","1098","0.5","0.5","3","2","","",""
"animation","55","96179","0.0-5.0-2.25","63bc9e8cd8106f8d94c636d4","bdp_cybrbll","Sun Mar 26 2023 17:15:41 GMT-0400 (Eastern Daylight Time)","464264","1","3","","","","","","","","","","200","","","","3","2","[{""stimulus"":""img/3to2/1.png"",""time"":100},{""stimulus"":""img/3to2/2.png"",""time"":200},{""stimulus"":""img/3to2/3.png"",""time"":299},{""stimulus"":""img/3to2/4.png"",""time"":399},{""stimulus"":""img/3to2/5.png"",""time"":499},{""stimulus"":""img/3to2/6.png"",""time"":599},{""stimulus"":""img/3to2/7.png"",""time"":699},{""stimulus"":""img/3to2/8.png"",""time"":800},{""stimulus"":""img/3to2/9.png"",""time"":900},{""stimulus"":""img/3to2/10.png"",""time"":1000},{""stimulus"":""img/3to2/11.png"",""time"":1100},{""stimulus"":""img/3to2/12.png"",""time"":1200}]","[]",""
"image-keyboard-response","56","96740","0.0-5.0-1.26","63bc9e8cd8106f8d94c636d4","bdp_cybrbll","Sun Mar 26 2023 17:15:41 GMT-0400 (Eastern Daylight Time)","464264","1","3","","560","","","","choice","","img/2to1/1.png","1","199","488","0.5","0.5","2","1","","",""
"animation","57","98041","0.0-5.0-2.26","63bc9e8cd8106f8d94c636d4","bdp_cybrbll","Sun Mar 26 2023 17:15:41 GMT-0400 (Eastern Daylight Time)","464264","1","3","","","","","","","","","","199","","","","2","1","[{""stimulus"":""img/2to1/1.png"",""time"":100},{""stimulus"":""img/2to1/2.png"",""time"":200},{""stimulus"":""img/2to1/3.png"",""time"":300},{""stimulus"":""img/2to1/4.png"",""time"":400},{""stimulus"":""img/2to1/5.png"",""time"":500},{""stimulus"":""img/2to1/6.png"",""time"":600},{""stimulus"":""img/2to1/7.png"",""time"":699},{""stimulus"":""img/2to1/8.png"",""time"":799},{""stimulus"":""img/2to1/9.png"",""time"":899},{""stimulus"":""img/2to1/10.png"",""time"":999},{""stimulus"":""img/2to1/11.png"",""time"":1099},{""stimulus"":""img/2to1/12.png"",""time"":1200}]","[]",""
"image-keyboard-response","58","98952","0.0-5.0-1.27","63bc9e8cd8106f8d94c636d4","bdp_cybrbll","Sun Mar 26 2023 17:15:41 GMT-0400 (Eastern Daylight Time)","464264","1","3","","null","","","","observe","","img/1to3/1.png","null","198","911","0.5","0.5","1","2","","",""
"animation","59","100249","0.0-5.0-2.27","63bc9e8cd8106f8d94c636d4","bdp_cybrbll","Sun Mar 26 2023 17:15:41 GMT-0400 (Eastern Daylight Time)","464264","1","3","","","","","","","","","","198","","","","1","2","[{""stimulus"":""img/1to2/1.png"",""time"":101},{""stimulus"":""img/1to2/2.png"",""time"":200},{""stimulus"":""img/1to2/3.png"",""time"":301},{""stimulus"":""img/1to2/4.png"",""time"":401},{""stimulus"":""img/1to2/5.png"",""time"":501},{""stimulus"":""img/1to2/6.png"",""time"":601},{""stimulus"":""img/1to2/7.png"",""time"":701},{""stimulus"":""img/1to2/8.png"",""time"":801},{""stimulus"":""img/1to2/9.png"",""time"":900},{""stimulus"":""img/1to2/10.png"",""time"":999},{""stimulus"":""img/1to2/11.png"",""time"":1099},{""stimulus"":""img/1to2/12.png"",""time"":1198}]","[]",""
"image-keyboard-response","60","100360","0.0-5.0-1.28","63bc9e8cd8106f8d94c636d4","bdp_cybrbll","Sun Mar 26 2023 17:15:41 GMT-0400 (Eastern Daylight Time)","464264","1","3","","110","","","","choice","","img/2to1/1.png","2","197","282","0.5","0.5","2","3","","",""
"animation","61","101657","0.0-5.0-2.28","63bc9e8cd8106f8d94c636d4","bdp_cybrbll","Sun Mar 26 2023 17:15:41 GMT-0400 (Eastern Daylight Time)","464264","1","3","","","","","","","","","","197","","","","2","3","[{""stimulus"":""img/2to3/1.png"",""time"":100},{""stimulus"":""img/2to3/2.png"",""time"":200},{""stimulus"":""img/2to3/3.png"",""time"":300},{""stimulus"":""img/2to3/4.png"",""time"":400},{""stimulus"":""img/2to3/5.png"",""time"":499},{""stimulus"":""img/2to3/6.png"",""time"":599},{""stimulus"":""img/2to3/7.png"",""time"":698},{""stimulus"":""img/2to3/8.png"",""time"":798},{""stimulus"":""img/2to3/9.png"",""time"":897},{""stimulus"":""img/2to3/10.png"",""time"":997},{""stimulus"":""img/2to3/11.png"",""time"":1097},{""stimulus"":""img/2to3/12.png"",""time"":1197}]","[]",""
"image-keyboard-response","62","102066","0.0-5.0-1.29","63bc9e8cd8106f8d94c636d4","bdp_cybrbll","Sun Mar 26 2023 17:15:41 GMT-0400 (Eastern Daylight Time)","464264","1","3","","null","","","","observe","","img/3to2/1.png","null","196","409","0.5","0.5","3","2","","",""
"animation","63","103361","0.0-5.0-2.29","63bc9e8cd8106f8d94c636d4","bdp_cybrbll","Sun Mar 26 2023 17:15:41 GMT-0400 (Eastern Daylight Time)","464264","1","3","","","","","","","","","","196","","","","3","2","[{""stimulus"":""img/3to2/1.png"",""time"":100},{""stimulus"":""img/3to2/2.png"",""time"":199},{""stimulus"":""img/3to2/3.png"",""time"":299},{""stimulus"":""img/3to2/4.png"",""time"":399},{""stimulus"":""img/3to2/5.png"",""time"":499},{""stimulus"":""img/3to2/6.png"",""time"":598},{""stimulus"":""img/3to2/7.png"",""time"":698},{""stimulus"":""img/3to2/8.png"",""time"":798},{""stimulus"":""img/3to2/9.png"",""time"":898},{""stimulus"":""img/3to2/10.png"",""time"":997},{""stimulus"":""img/3to2/11.png"",""time"":1096},{""stimulus"":""img/3to2/12.png"",""time"":1196}]","[]",""
"image-keyboard-response","64","103577","0.0-5.0-1.30","63bc9e8cd8106f8d94c636d4","bdp_cybrbll","Sun Mar 26 2023 17:15:41 GMT-0400 (Eastern Daylight Time)","464264","1","3","","216","","","","choice","","img/2to1/1.png","1","195","610","0.5","0.5","2","1","","",""
"animation","65","104875","0.0-5.0-2.30","63bc9e8cd8106f8d94c636d4","bdp_cybrbll","Sun Mar 26 2023 17:15:41 GMT-0400 (Eastern Daylight Time)","464264","1","3","","","","","","","","","","195","","","","2","1","[{""stimulus"":""img/2to1/1.png"",""time"":100},{""stimulus"":""img/2to1/2.png"",""time"":201},{""stimulus"":""img/2to1/3.png"",""time"":301},{""stimulus"":""img/2to1/4.png"",""time"":401},{""stimulus"":""img/2to1/5.png"",""time"":501},{""stimulus"":""img/2to1/6.png"",""time"":600},{""stimulus"":""img/2to1/7.png"",""time"":699},{""stimulus"":""img/2to1/8.png"",""time"":799},{""stimulus"":""img/2to1/9.png"",""time"":899},{""stimulus"":""img/2to1/10.png"",""time"":999},{""stimulus"":""img/2to1/11.png"",""time"":1099},{""stimulus"":""img/2to1/12.png"",""time"":1198}]","[]",""
"image-keyboard-response","66","105326","0.0-5.0-1.31","63bc9e8cd8106f8d94c636d4","bdp_cybrbll","Sun Mar 26 2023 17:15:41 GMT-0400 (Eastern Daylight Time)","464264","1","3","","null","","","","observe","","img/1to3/1.png","null","194","449","0.5","0.5","1","2","","",""
"animation","67","106621","0.0-5.0-2.31","63bc9e8cd8106f8d94c636d4","bdp_cybrbll","Sun Mar 26 2023 17:15:41 GMT-0400 (Eastern Daylight Time)","464264","1","3","","","","","","","","","","194","","","","1","2","[{""stimulus"":""img/1to2/1.png"",""time"":100},{""stimulus"":""img/1to2/2.png"",""time"":200},{""stimulus"":""img/1to2/3.png"",""time"":299},{""stimulus"":""img/1to2/4.png"",""time"":398},{""stimulus"":""img/1to2/5.png"",""time"":498},{""stimulus"":""img/1to2/6.png"",""time"":598},{""stimulus"":""img/1to2/7.png"",""time"":697},{""stimulus"":""img/1to2/8.png"",""time"":796},{""stimulus"":""img/1to2/9.png"",""time"":897},{""stimulus"":""img/1to2/10.png"",""time"":996},{""stimulus"":""img/1to2/11.png"",""time"":1096},{""stimulus"":""img/1to2/12.png"",""time"":1196}]","[]",""
"image-keyboard-response","68","106805","0.0-5.0-1.32","63bc9e8cd8106f8d94c636d4","bdp_cybrbll","Sun Mar 26 2023 17:15:41 GMT-0400 (Eastern Daylight Time)","464264","1","3","","184","","","","choice","","img/2to1/1.png","2","193","149","0.5","0.5","2","3","","",""
"animation","69","108104","0.0-5.0-2.32","63bc9e8cd8106f8d94c636d4","bdp_cybrbll","Sun Mar 26 2023 17:15:41 GMT-0400 (Eastern Daylight Time)","464264","1","3","","","","","","","","","","193","","","","2","3","[{""stimulus"":""img/2to3/1.png"",""time"":100},{""stimulus"":""img/2to3/2.png"",""time"":200},{""stimulus"":""img/2to3/3.png"",""time"":300},{""stimulus"":""img/2to3/4.png"",""time"":399},{""stimulus"":""img/2to3/5.png"",""time"":499},{""stimulus"":""img/2to3/6.png"",""time"":599},{""stimulus"":""img/2to3/7.png"",""time"":699},{""stimulus"":""img/2to3/8.png"",""time"":800},{""stimulus"":""img/2to3/9.png"",""time"":900},{""stimulus"":""img/2to3/10.png"",""time"":999},{""stimulus"":""img/2to3/11.png"",""time"":1099},{""stimulus"":""img/2to3/12.png"",""time"":1199}]","[]",""
"image-keyboard-response","70","109263","0.0-5.0-1.33","63bc9e8cd8106f8d94c636d4","bdp_cybrbll","Sun Mar 26 2023 17:15:41 GMT-0400 (Eastern Daylight Time)","464264","1","3","","null","","","","observe","","img/3to2/1.png","null","192","1158","0.5","0.5","3","1","","",""
"animation","71","110562","0.0-5.0-2.33","63bc9e8cd8106f8d94c636d4","bdp_cybrbll","Sun Mar 26 2023 17:15:41 GMT-0400 (Eastern Daylight Time)","464264","1","3","","","","","","","","","","192","","","","3","1","[{""stimulus"":""img/3to1/1.png"",""time"":100},{""stimulus"":""img/3to1/2.png"",""time"":201},{""stimulus"":""img/3to1/3.png"",""time"":300},{""stimulus"":""img/3to1/4.png"",""time"":399},{""stimulus"":""img/3to1/5.png"",""time"":499},{""stimulus"":""img/3to1/6.png"",""time"":599},{""stimulus"":""img/3to1/7.png"",""time"":698},{""stimulus"":""img/3to1/8.png"",""time"":799},{""stimulus"":""img/3to1/9.png"",""time"":899},{""stimulus"":""img/3to1/10.png"",""time"":999},{""stimulus"":""img/3to1/11.png"",""time"":1099},{""stimulus"":""img/3to1/12.png"",""time"":1199}]","[]",""
"image-keyboard-response","72","111564","0.0-5.0-1.34","63bc9e8cd8106f8d94c636d4","bdp_cybrbll","Sun Mar 26 2023 17:15:41 GMT-0400 (Eastern Daylight Time)","464264","1","3","","null","","","","observe","","img/1to3/1.png","null","191","1001","0.5","0.5","1","2","","",""
"animation","73","112861","0.0-5.0-2.34","63bc9e8cd8106f8d94c636d4","bdp_cybrbll","Sun Mar 26 2023 17:15:41 GMT-0400 (Eastern Daylight Time)","464264","1","3","","","","","","","","","","191","","","","1","2","[{""stimulus"":""img/1to2/1.png"",""time"":99},{""stimulus"":""img/1to2/2.png"",""time"":198},{""stimulus"":""img/1to2/3.png"",""time"":298},{""stimulus"":""img/1to2/4.png"",""time"":398},{""stimulus"":""img/1to2/5.png"",""time"":498},{""stimulus"":""img/1to2/6.png"",""time"":597},{""stimulus"":""img/1to2/7.png"",""time"":698},{""stimulus"":""img/1to2/8.png"",""time"":797},{""stimulus"":""img/1to2/9.png"",""time"":896},{""stimulus"":""img/1to2/10.png"",""time"":997},{""stimulus"":""img/1to2/11.png"",""time"":1097},{""stimulus"":""img/1to2/12.png"",""time"":1197}]","[]",""
"image-keyboard-response","74","113279","0.0-5.0-1.35","63bc9e8cd8106f8d94c636d4","bdp_cybrbll","Sun Mar 26 2023 17:15:41 GMT-0400 (Eastern Daylight Time)","464264","1","3","","418","","","","choice","","img/2to1/1.png","2","190","298","0.5","0.5","2","3","","",""
"animation","75","114579","0.0-5.0-2.35","63bc9e8cd8106f8d94c636d4","bdp_cybrbll","Sun Mar 26 2023 17:15:41 GMT-0400 (Eastern Daylight Time)","464264","1","3","","","","","","","","","","190","","","","2","3","[{""stimulus"":""img/2to3/1.png"",""time"":100},{""stimulus"":""img/2to3/2.png"",""time"":200},{""stimulus"":""img/2to3/3.png"",""time"":300},{""stimulus"":""img/2to3/4.png"",""time"":400},{""stimulus"":""img/2to3/5.png"",""time"":501},{""stimulus"":""img/2to3/6.png"",""time"":601},{""stimulus"":""img/2to3/7.png"",""time"":701},{""stimulus"":""img/2to3/8.png"",""time"":801},{""stimulus"":""img/2to3/9.png"",""time"":900},{""stimulus"":""img/2to3/10.png"",""time"":1001},{""stimulus"":""img/2to3/11.png"",""time"":1100},{""stimulus"":""img/2to3/12.png"",""time"":1200}]","[]",""
"image-keyboard-response","76","114900","0.0-5.0-1.36","63bc9e8cd8106f8d94c636d4","bdp_cybrbll","Sun Mar 26 2023 17:15:41 GMT-0400 (Eastern Daylight Time)","464264","1","3","","null","","","","observe","","img/3to2/1.png","null","189","319","0.5","0.5","3","2","","",""
"animation","77","116200","0.0-5.0-2.36","63bc9e8cd8106f8d94c636d4","bdp_cybrbll","Sun Mar 26 2023 17:15:41 GMT-0400 (Eastern Daylight Time)","464264","1","3","","","","","","","","","","189","","","","3","2","[{""stimulus"":""img/3to2/1.png"",""time"":100},{""stimulus"":""img/3to2/2.png"",""time"":200},{""stimulus"":""img/3to2/3.png"",""time"":300},{""stimulus"":""img/3to2/4.png"",""time"":400},{""stimulus"":""img/3to2/5.png"",""time"":501},{""stimulus"":""img/3to2/6.png"",""time"":601},{""stimulus"":""img/3to2/7.png"",""time"":701},{""stimulus"":""img/3to2/8.png"",""time"":801},{""stimulus"":""img/3to2/9.png"",""time"":901},{""stimulus"":""img/3to2/10.png"",""time"":1000},{""stimulus"":""img/3to2/11.png"",""time"":1100},{""stimulus"":""img/3to2/12.png"",""time"":1200}]","[]",""
"image-keyboard-response","78","116232","0.0-5.0-1.37","63bc9e8cd8106f8d94c636d4","bdp_cybrbll","Sun Mar 26 2023 17:15:41 GMT-0400 (Eastern Daylight Time)","464264","1","3","","31","","","","choice","","img/2to1/1.png","1","188","1031","0.5","0.5","2","1","","",""
"animation","79","117529","0.0-5.0-2.37","63bc9e8cd8106f8d94c636d4","bdp_cybrbll","Sun Mar 26 2023 17:15:41 GMT-0400 (Eastern Daylight Time)","464264","1","3","","","","","","","","","","188","","","","2","1","[{""stimulus"":""img/2to1/1.png"",""time"":100},{""stimulus"":""img/2to1/2.png"",""time"":200},{""stimulus"":""img/2to1/3.png"",""time"":300},{""stimulus"":""img/2to1/4.png"",""time"":399},{""stimulus"":""img/2to1/5.png"",""time"":498},{""stimulus"":""img/2to1/6.png"",""time"":598},{""stimulus"":""img/2to1/7.png"",""time"":698},{""stimulus"":""img/2to1/8.png"",""time"":798},{""stimulus"":""img/2to1/9.png"",""time"":898},{""stimulus"":""img/2to1/10.png"",""time"":998},{""stimulus"":""img/2to1/11.png"",""time"":1097},{""stimulus"":""img/2to1/12.png"",""time"":1197}]","[]",""
"image-keyboard-response","80","118010","0.0-5.0-1.38","63bc9e8cd8106f8d94c636d4","bdp_cybrbll","Sun Mar 26 2023 17:15:41 GMT-0400 (Eastern Daylight Time)","464264","1","3","","null","","","","observe","","img/1to3/1.png","null","187","480","0.5","0.5","1","2","","",""
"animation","81","119310","0.0-5.0-2.38","63bc9e8cd8106f8d94c636d4","bdp_cybrbll","Sun Mar 26 2023 17:15:41 GMT-0400 (Eastern Daylight Time)","464264","1","3","","","","","","","","","","187","","","","1","2","[{""stimulus"":""img/1to2/1.png"",""time"":100},{""stimulus"":""img/1to2/2.png"",""time"":200},{""stimulus"":""img/1to2/3.png"",""time"":300},{""stimulus"":""img/1to2/4.png"",""time"":400},{""stimulus"":""img/1to2/5.png"",""time"":501},{""stimulus"":""img/1to2/6.png"",""time"":601},{""stimulus"":""img/1to2/7.png"",""time"":701},{""stimulus"":""img/1to2/8.png"",""time"":801},{""stimulus"":""img/1to2/9.png"",""time"":901},{""stimulus"":""img/1to2/10.png"",""time"":1001},{""stimulus"":""img/1to2/11.png"",""time"":1101},{""stimulus"":""img/1to2/12.png"",""time"":1201}]","[]",""
"image-keyboard-response","82","119606","0.0-5.0-1.39","63bc9e8cd8106f8d94c636d4","bdp_cybrbll","Sun Mar 26 2023 17:15:41 GMT-0400 (Eastern Daylight Time)","464264","1","3","","296","","","","choice","","img/2to1/1.png","2","186","225","0.5","0.5","2","3","","",""
"animation","83","120904","0.0-5.0-2.39","63bc9e8cd8106f8d94c636d4","bdp_cybrbll","Sun Mar 26 2023 17:15:41 GMT-0400 (Eastern Daylight Time)","464264","1","3","","","","","","","","","","186","","","","2","3","[{""stimulus"":""img/2to3/1.png"",""time"":101},{""stimulus"":""img/2to3/2.png"",""time"":200},{""stimulus"":""img/2to3/3.png"",""time"":300},{""stimulus"":""img/2to3/4.png"",""time"":400},{""stimulus"":""img/2to3/5.png"",""time"":500},{""stimulus"":""img/2to3/6.png"",""time"":599},{""stimulus"":""img/2to3/7.png"",""time"":700},{""stimulus"":""img/2to3/8.png"",""time"":799},{""stimulus"":""img/2to3/9.png"",""time"":899},{""stimulus"":""img/2to3/10.png"",""time"":999},{""stimulus"":""img/2to3/11.png"",""time"":1098},{""stimulus"":""img/2to3/12.png"",""time"":1198}]","[]",""
"image-keyboard-response","84","121454","0.0-5.0-1.40","63bc9e8cd8106f8d94c636d4","bdp_cybrbll","Sun Mar 26 2023 17:15:41 GMT-0400 (Eastern Daylight Time)","464264","1","3","","null","","","","observe","","img/3to2/1.png","null","185","549","0.5","0.5","3","1","","",""
"animation","85","122754","0.0-5.0-2.40","63bc9e8cd8106f8d94c636d4","bdp_cybrbll","Sun Mar 26 2023 17:15:41 GMT-0400 (Eastern Daylight Time)","464264","1","3","","","","","","","","","","185","","","","3","1","[{""stimulus"":""img/3to1/1.png"",""time"":100},{""stimulus"":""img/3to1/2.png"",""time"":199},{""stimulus"":""img/3to1/3.png"",""time"":299},{""stimulus"":""img/3to1/4.png"",""time"":399},{""stimulus"":""img/3to1/5.png"",""time"":499},{""stimulus"":""img/3to1/6.png"",""time"":599},{""stimulus"":""img/3to1/7.png"",""time"":700},{""stimulus"":""img/3to1/8.png"",""time"":799},{""stimulus"":""img/3to1/9.png"",""time"":900},{""stimulus"":""img/3to1/10.png"",""time"":1000},{""stimulus"":""img/3to1/11.png"",""time"":1100},{""stimulus"":""img/3to1/12.png"",""time"":1200}]","[]",""
"image-keyboard-response","86","123292","0.0-5.0-1.41","63bc9e8cd8106f8d94c636d4","bdp_cybrbll","Sun Mar 26 2023 17:15:41 GMT-0400 (Eastern Daylight Time)","464264","1","3","","null","","","","observe","","img/1to3/1.png","null","184","538","0.5","0.5","1","3","","",""
"animation","87","124594","0.0-5.0-2.41","63bc9e8cd8106f8d94c636d4","bdp_cybrbll","Sun Mar 26 2023 17:15:41 GMT-0400 (Eastern Daylight Time)","464264","1","3","","","","","","","","","","184","","","","1","3","[{""stimulus"":""img/1to3/1.png"",""time"":101},{""stimulus"":""img/1to3/2.png"",""time"":201},{""stimulus"":""img/1to3/3.png"",""time"":301},{""stimulus"":""img/1to3/4.png"",""time"":401},{""stimulus"":""img/1to3/5.png"",""time"":501},{""stimulus"":""img/1to3/6.png"",""time"":601},{""stimulus"":""img/1to3/7.png"",""time"":701},{""stimulus"":""img/1to3/8.png"",""time"":802},{""stimulus"":""img/1to3/9.png"",""time"":902},{""stimulus"":""img/1to3/10.png"",""time"":1002},{""stimulus"":""img/1to3/11.png"",""time"":1102},{""stimulus"":""img/1to3/12.png"",""time"":1202}]","[]",""
"image-keyboard-response","88","125214","0.0-5.0-1.42","63bc9e8cd8106f8d94c636d4","bdp_cybrbll","Sun Mar 26 2023 17:15:41 GMT-0400 (Eastern Daylight Time)","464264","1","3","","null","","","","observe","","img/3to2/1.png","null","183","618","0.5","0.5","3","1","","",""
"animation","89","126514","0.0-5.0-2.42","63bc9e8cd8106f8d94c636d4","bdp_cybrbll","Sun Mar 26 2023 17:15:41 GMT-0400 (Eastern Daylight Time)","464264","1","3","","","","","","","","","","183","","","","3","1","[{""stimulus"":""img/3to1/1.png"",""time"":100},{""stimulus"":""img/3to1/2.png"",""time"":200},{""stimulus"":""img/3to1/3.png"",""time"":301},{""stimulus"":""img/3to1/4.png"",""time"":401},{""stimulus"":""img/3to1/5.png"",""time"":501},{""stimulus"":""img/3to1/6.png"",""time"":601},{""stimulus"":""img/3to1/7.png"",""time"":701},{""stimulus"":""img/3to1/8.png"",""time"":800},{""stimulus"":""img/3to1/9.png"",""time"":900},{""stimulus"":""img/3to1/10.png"",""time"":1000},{""stimulus"":""img/3to1/11.png"",""time"":1100},{""stimulus"":""img/3to1/12.png"",""time"":1200}]","[]",""
"image-keyboard-response","90","126986","0.0-5.0-1.43","63bc9e8cd8106f8d94c636d4","bdp_cybrbll","Sun Mar 26 2023 17:15:41 GMT-0400 (Eastern Daylight Time)","464264","1","3","","null","","","","observe","","img/1to3/1.png","null","182","471","0.5","0.5","1","3","","",""
"animation","91","128284","0.0-5.0-2.43","63bc9e8cd8106f8d94c636d4","bdp_cybrbll","Sun Mar 26 2023 17:15:41 GMT-0400 (Eastern Daylight Time)","464264","1","3","","","","","","","","","","182","","","","1","3","[{""stimulus"":""img/1to3/1.png"",""time"":100},{""stimulus"":""img/1to3/2.png"",""time"":199},{""stimulus"":""img/1to3/3.png"",""time"":298},{""stimulus"":""img/1to3/4.png"",""time"":398},{""stimulus"":""img/1to3/5.png"",""time"":498},{""stimulus"":""img/1to3/6.png"",""time"":597},{""stimulus"":""img/1to3/7.png"",""time"":698},{""stimulus"":""img/1to3/8.png"",""time"":797},{""stimulus"":""img/1to3/9.png"",""time"":897},{""stimulus"":""img/1to3/10.png"",""time"":997},{""stimulus"":""img/1to3/11.png"",""time"":1097},{""stimulus"":""img/1to3/12.png"",""time"":1197}]","[]",""
"image-keyboard-response","92","128466","0.0-5.0-1.44","63bc9e8cd8106f8d94c636d4","bdp_cybrbll","Sun Mar 26 2023 17:15:41 GMT-0400 (Eastern Daylight Time)","464264","1","3","","null","","","","observe","","img/3to2/1.png","null","181","181","0.5","0.5","3","2","","",""
"animation","93","129762","0.0-5.0-2.44","63bc9e8cd8106f8d94c636d4","bdp_cybrbll","Sun Mar 26 2023 17:15:41 GMT-0400 (Eastern Daylight Time)","464264","1","3","","","","","","","","","","181","","","","3","2","[{""stimulus"":""img/3to2/1.png"",""time"":100},{""stimulus"":""img/3to2/2.png"",""time"":199},{""stimulus"":""img/3to2/3.png"",""time"":298},{""stimulus"":""img/3to2/4.png"",""time"":398},{""stimulus"":""img/3to2/5.png"",""time"":498},{""stimulus"":""img/3to2/6.png"",""time"":598},{""stimulus"":""img/3to2/7.png"",""time"":698},{""stimulus"":""img/3to2/8.png"",""time"":798},{""stimulus"":""img/3to2/9.png"",""time"":898},{""stimulus"":""img/3to2/10.png"",""time"":997},{""stimulus"":""img/3to2/11.png"",""time"":1098},{""stimulus"":""img/3to2/12.png"",""time"":1197}]","[]",""
"image-keyboard-response","94","129910","0.0-5.0-1.45","63bc9e8cd8106f8d94c636d4","bdp_cybrbll","Sun Mar 26 2023 17:15:41 GMT-0400 (Eastern Daylight Time)","464264","1","3","","147","","","","choice","","img/2to1/1.png","1","180","191","0.5","0.5","2","1","","",""
"animation","95","131206","0.0-5.0-2.45","63bc9e8cd8106f8d94c636d4","bdp_cybrbll","Sun Mar 26 2023 17:15:41 GMT-0400 (Eastern Daylight Time)","464264","1","3","","","","","","","","","","180","","","","2","1","[{""stimulus"":""img/2to1/1.png"",""time"":100},{""stimulus"":""img/2to1/2.png"",""time"":200},{""stimulus"":""img/2to1/3.png"",""time"":299},{""stimulus"":""img/2to1/4.png"",""time"":399},{""stimulus"":""img/2to1/5.png"",""time"":499},{""stimulus"":""img/2to1/6.png"",""time"":600},{""stimulus"":""img/2to1/7.png"",""time"":699},{""stimulus"":""img/2to1/8.png"",""time"":798},{""stimulus"":""img/2to1/9.png"",""time"":897},{""stimulus"":""img/2to1/10.png"",""time"":997},{""stimulus"":""img/2to1/11.png"",""time"":1097},{""stimulus"":""img/2to1/12.png"",""time"":1196}]","[]",""
"image-keyboard-response","96","131512","0.0-5.0-1.46","63bc9e8cd8106f8d94c636d4","bdp_cybrbll","Sun Mar 26 2023 17:15:41 GMT-0400 (Eastern Daylight Time)","464264","1","3","","null","","","","observe","","img/1to3/1.png","null","179","304","0.5","0.5","1","2","","",""
"animation","97","132810","0.0-5.0-2.46","63bc9e8cd8106f8d94c636d4","bdp_cybrbll","Sun Mar 26 2023 17:15:41 GMT-0400 (Eastern Daylight Time)","464264","1","3","","","","","","","","","","179","","","","1","2","[{""stimulus"":""img/1to2/1.png"",""time"":99},{""stimulus"":""img/1to2/2.png"",""time"":199},{""stimulus"":""img/1to2/3.png"",""time"":299},{""stimulus"":""img/1to2/4.png"",""time"":399},{""stimulus"":""img/1to2/5.png"",""time"":500},{""stimulus"":""img/1to2/6.png"",""time"":600},{""stimulus"":""img/1to2/7.png"",""time"":699},{""stimulus"":""img/1to2/8.png"",""time"":798},{""stimulus"":""img/1to2/9.png"",""time"":899},{""stimulus"":""img/1to2/10.png"",""time"":999},{""stimulus"":""img/1to2/11.png"",""time"":1099},{""stimulus"":""img/1to2/12.png"",""time"":1199}]","[]",""
"image-keyboard-response","98","133012","0.0-5.0-1.47","63bc9e8cd8106f8d94c636d4","bdp_cybrbll","Sun Mar 26 2023 17:15:41 GMT-0400 (Eastern Daylight Time)","464264","1","3","","202","","","","choice","","img/2to1/1.png","2","178","1632","0.5","0.5","2","3","","",""
"animation","99","134309","0.0-5.0-2.47","63bc9e8cd8106f8d94c636d4","bdp_cybrbll","Sun Mar 26 2023 17:15:41 GMT-0400 (Eastern Daylight Time)","464264","1","3","","","","","","","","","","178","","","","2","3","[{""stimulus"":""img/2to3/1.png"",""time"":99},{""stimulus"":""img/2to3/2.png"",""time"":198},{""stimulus"":""img/2to3/3.png"",""time"":298},{""stimulus"":""img/2to3/4.png"",""time"":398},{""stimulus"":""img/2to3/5.png"",""time"":497},{""stimulus"":""img/2to3/6.png"",""time"":598},{""stimulus"":""img/2to3/7.png"",""time"":698},{""stimulus"":""img/2to3/8.png"",""time"":797},{""stimulus"":""img/2to3/9.png"",""time"":897},{""stimulus"":""img/2to3/10.png"",""time"":997},{""stimulus"":""img/2to3/11.png"",""time"":1097},{""stimulus"":""img/2to3/12.png"",""time"":1197}]","[]",""
"image-keyboard-response","100","134764","0.0-5.0-1.48","63bc9e8cd8106f8d94c636d4","bdp_cybrbll","Sun Mar 26 2023 17:15:41 GMT-0400 (Eastern Daylight Time)","464264","1","3","","null","","","","observe","","img/3to2/1.png","null","177","455","0.5","0.5","3","1","","",""
"animation","101","136061","0.0-5.0-2.48","63bc9e8cd8106f8d94c636d4","bdp_cybrbll","Sun Mar 26 2023 17:15:41 GMT-0400 (Eastern Daylight Time)","464264","1","3","","","","","","","","","","177","","","","3","1","[{""stimulus"":""img/3to1/1.png"",""time"":100},{""stimulus"":""img/3to1/2.png"",""time"":200},{""stimulus"":""img/3to1/3.png"",""time"":299},{""stimulus"":""img/3to1/4.png"",""time"":398},{""stimulus"":""img/3to1/5.png"",""time"":498},{""stimulus"":""img/3to1/6.png"",""time"":598},{""stimulus"":""img/3to1/7.png"",""time"":698},{""stimulus"":""img/3to1/8.png"",""time"":797},{""stimulus"":""img/3to1/9.png"",""time"":897},{""stimulus"":""img/3to1/10.png"",""time"":996},{""stimulus"":""img/3to1/11.png"",""time"":1096},{""stimulus"":""img/3to1/12.png"",""time"":1196}]","[]",""
"image-keyboard-response","102","136493","0.0-5.0-1.49","63bc9e8cd8106f8d94c636d4","bdp_cybrbll","Sun Mar 26 2023 17:15:41 GMT-0400 (Eastern Daylight Time)","464264","1","3","","null","","","","observe","","img/1to3/1.png","null","176","431","0.5","0.5","1","3","","",""
"animation","103","137795","0.0-5.0-2.49","63bc9e8cd8106f8d94c636d4","bdp_cybrbll","Sun Mar 26 2023 17:15:41 GMT-0400 (Eastern Daylight Time)","464264","1","3","","","","","","","","","","176","","","","1","3","[{""stimulus"":""img/1to3/1.png"",""time"":101},{""stimulus"":""img/1to3/2.png"",""time"":200},{""stimulus"":""img/1to3/3.png"",""time"":301},{""stimulus"":""img/1to3/4.png"",""time"":401},{""stimulus"":""img/1to3/5.png"",""time"":501},{""stimulus"":""img/1to3/6.png"",""time"":601},{""stimulus"":""img/1to3/7.png"",""time"":701},{""stimulus"":""img/1to3/8.png"",""time"":801},{""stimulus"":""img/1to3/9.png"",""time"":901},{""stimulus"":""img/1to3/10.png"",""time"":1001},{""stimulus"":""img/1to3/11.png"",""time"":1102},{""stimulus"":""img/1to3/12.png"",""time"":1202}]","[]",""
"image-keyboard-response","104","138284","0.0-5.0-1.50","63bc9e8cd8106f8d94c636d4","bdp_cybrbll","Sun Mar 26 2023 17:15:41 GMT-0400 (Eastern Daylight Time)","464264","1","3","","null","","","","observe","","img/3to2/1.png","null","175","488","0.5","0.5","3","2","","",""
"animation","105","139580","0.0-5.0-2.50","63bc9e8cd8106f8d94c636d4","bdp_cybrbll","Sun Mar 26 2023 17:15:41 GMT-0400 (Eastern Daylight Time)","464264","1","3","","","","","","","","","","175","","","","3","2","[{""stimulus"":""img/3to2/1.png"",""time"":99},{""stimulus"":""img/3to2/2.png"",""time"":200},{""stimulus"":""img/3to2/3.png"",""time"":299},{""stimulus"":""img/3to2/4.png"",""time"":399},{""stimulus"":""img/3to2/5.png"",""time"":499},{""stimulus"":""img/3to2/6.png"",""time"":598},{""stimulus"":""img/3to2/7.png"",""time"":698},{""stimulus"":""img/3to2/8.png"",""time"":798},{""stimulus"":""img/3to2/9.png"",""time"":898},{""stimulus"":""img/3to2/10.png"",""time"":997},{""stimulus"":""img/3to2/11.png"",""time"":1096},{""stimulus"":""img/3to2/12.png"",""time"":1196}]","[]",""
"image-keyboard-response","106","140765","0.0-5.0-1.51","63bc9e8cd8106f8d94c636d4","bdp_cybrbll","Sun Mar 26 2023 17:15:41 GMT-0400 (Eastern Daylight Time)","464264","1","3","","1185","","","","choice","","img/2to1/1.png","1","174","495","0.5","0.5","2","1","","",""
"animation","107","142062","0.0-5.0-2.51","63bc9e8cd8106f8d94c636d4","bdp_cybrbll","Sun Mar 26 2023 17:15:41 GMT-0400 (Eastern Daylight Time)","464264","1","3","","","","","","","","","","174","","","","2","1","[{""stimulus"":""img/2to1/1.png"",""time"":99},{""stimulus"":""img/2to1/2.png"",""time"":199},{""stimulus"":""img/2to1/3.png"",""time"":298},{""stimulus"":""img/2to1/4.png"",""time"":397},{""stimulus"":""img/2to1/5.png"",""time"":498},{""stimulus"":""img/2to1/6.png"",""time"":597},{""stimulus"":""img/2to1/7.png"",""time"":696},{""stimulus"":""img/2to1/8.png"",""time"":796},{""stimulus"":""img/2to1/9.png"",""time"":896},{""stimulus"":""img/2to1/10.png"",""time"":995},{""stimulus"":""img/2to1/11.png"",""time"":1095},{""stimulus"":""img/2to1/12.png"",""time"":1195}]","[]",""
"image-keyboard-response","108","142503","0.0-5.0-1.52","63bc9e8cd8106f8d94c636d4","bdp_cybrbll","Sun Mar 26 2023 17:15:41 GMT-0400 (Eastern Daylight Time)","464264","1","3","","null","","","","observe","","img/1to3/1.png","null","173","440","0.5","0.5","1","2","","",""
"animation","109","143800","0.0-5.0-2.52","63bc9e8cd8106f8d94c636d4","bdp_cybrbll","Sun Mar 26 2023 17:15:41 GMT-0400 (Eastern Daylight Time)","464264","1","3","","","","","","","","","","173","","","","1","2","[{""stimulus"":""img/1to2/1.png"",""time"":99},{""stimulus"":""img/1to2/2.png"",""time"":199},{""stimulus"":""img/1to2/3.png"",""time"":300},{""stimulus"":""img/1to2/4.png"",""time"":399},{""stimulus"":""img/1to2/5.png"",""time"":498},{""stimulus"":""img/1to2/6.png"",""time"":598},{""stimulus"":""img/1to2/7.png"",""time"":698},{""stimulus"":""img/1to2/8.png"",""time"":798},{""stimulus"":""img/1to2/9.png"",""time"":898},{""stimulus"":""img/1to2/10.png"",""time"":998},{""stimulus"":""img/1to2/11.png"",""time"":1098},{""stimulus"":""img/1to2/12.png"",""time"":1197}]","[]",""
"image-keyboard-response","110","146154","0.0-5.0-1.53","63bc9e8cd8106f8d94c636d4","bdp_cybrbll","Sun Mar 26 2023 17:15:41 GMT-0400 (Eastern Daylight Time)","464264","1","3","","2354","","","","choice","","img/2to1/1.png","2","172","1062","0.5","0.5","2","3","","",""
"animation","111","147451","0.0-5.0-2.53","63bc9e8cd8106f8d94c636d4","bdp_cybrbll","Sun Mar 26 2023 17:15:41 GMT-0400 (Eastern Daylight Time)","464264","1","3","","","","","","","","","","172","","","","2","3","[{""stimulus"":""img/2to3/1.png"",""time"":99},{""stimulus"":""img/2to3/2.png"",""time"":198},{""stimulus"":""img/2to3/3.png"",""time"":298},{""stimulus"":""img/2to3/4.png"",""time"":397},{""stimulus"":""img/2to3/5.png"",""time"":501},{""stimulus"":""img/2to3/6.png"",""time"":596},{""stimulus"":""img/2to3/7.png"",""time"":696},{""stimulus"":""img/2to3/8.png"",""time"":796},{""stimulus"":""img/2to3/9.png"",""time"":896},{""stimulus"":""img/2to3/10.png"",""time"":996},{""stimulus"":""img/2to3/11.png"",""time"":1096},{""stimulus"":""img/2to3/12.png"",""time"":1196}]","[]",""
"image-keyboard-response","112","147807","0.0-5.0-1.54","63bc9e8cd8106f8d94c636d4","bdp_cybrbll","Sun Mar 26 2023 17:15:41 GMT-0400 (Eastern Daylight Time)","464264","1","3","","null","","","","observe","","img/3to2/1.png","null","171","354","0.5","0.5","3","1","","",""
"animation","113","149104","0.0-5.0-2.54","63bc9e8cd8106f8d94c636d4","bdp_cybrbll","Sun Mar 26 2023 17:15:41 GMT-0400 (Eastern Daylight Time)","464264","1","3","","","","","","","","","","171","","","","3","1","[{""stimulus"":""img/3to1/1.png"",""time"":100},{""stimulus"":""img/3to1/2.png"",""time"":200},{""stimulus"":""img/3to1/3.png"",""time"":300},{""stimulus"":""img/3to1/4.png"",""time"":400},{""stimulus"":""img/3to1/5.png"",""time"":500},{""stimulus"":""img/3to1/6.png"",""time"":600},{""stimulus"":""img/3to1/7.png"",""time"":700},{""stimulus"":""img/3to1/8.png"",""time"":799},{""stimulus"":""img/3to1/9.png"",""time"":898},{""stimulus"":""img/3to1/10.png"",""time"":998},{""stimulus"":""img/3to1/11.png"",""time"":1097},{""stimulus"":""img/3to1/12.png"",""time"":1197}]","[]",""
"image-keyboard-response","114","149359","0.0-5.0-1.55","63bc9e8cd8106f8d94c636d4","bdp_cybrbll","Sun Mar 26 2023 17:15:41 GMT-0400 (Eastern Daylight Time)","464264","1","3","","null","","","","observe","","img/1to3/1.png","null","170","253","0.5","0.5","1","3","","",""
"animation","115","150658","0.0-5.0-2.55","63bc9e8cd8106f8d94c636d4","bdp_cybrbll","Sun Mar 26 2023 17:15:41 GMT-0400 (Eastern Daylight Time)","464264","1","3","","","","","","","","","","170","","","","1","3","[{""stimulus"":""img/1to3/1.png"",""time"":100},{""stimulus"":""img/1to3/2.png"",""time"":200},{""stimulus"":""img/1to3/3.png"",""time"":299},{""stimulus"":""img/1to3/4.png"",""time"":399},{""stimulus"":""img/1to3/5.png"",""time"":499},{""stimulus"":""img/1to3/6.png"",""time"":598},{""stimulus"":""img/1to3/7.png"",""time"":698},{""stimulus"":""img/1to3/8.png"",""time"":798},{""stimulus"":""img/1to3/9.png"",""time"":898},{""stimulus"":""img/1to3/10.png"",""time"":998},{""stimulus"":""img/1to3/11.png"",""time"":1098},{""stimulus"":""img/1to3/12.png"",""time"":1198}]","[]",""
"image-keyboard-response","116","151278","0.0-5.0-1.56","63bc9e8cd8106f8d94c636d4","bdp_cybrbll","Sun Mar 26 2023 17:15:41 GMT-0400 (Eastern Daylight Time)","464264","1","3","","null","","","","observe","","img/3to2/1.png","null","169","620","0.5","0.5","3","1","","",""
"animation","117","152579","0.0-5.0-2.56","63bc9e8cd8106f8d94c636d4","bdp_cybrbll","Sun Mar 26 2023 17:15:41 GMT-0400 (Eastern Daylight Time)","464264","1","3","","","","","","","","","","169","","","","3","1","[{""stimulus"":""img/3to1/1.png"",""time"":101},{""stimulus"":""img/3to1/2.png"",""time"":201},{""stimulus"":""img/3to1/3.png"",""time"":301},{""stimulus"":""img/3to1/4.png"",""time"":400},{""stimulus"":""img/3to1/5.png"",""time"":500},{""stimulus"":""img/3to1/6.png"",""time"":600},{""stimulus"":""img/3to1/7.png"",""time"":700},{""stimulus"":""img/3to1/8.png"",""time"":800},{""stimulus"":""img/3to1/9.png"",""time"":900},{""stimulus"":""img/3to1/10.png"",""time"":1000},{""stimulus"":""img/3to1/11.png"",""time"":1101},{""stimulus"":""img/3to1/12.png"",""time"":1201}]","[]",""
"image-keyboard-response","118","153158","0.0-5.0-1.57","63bc9e8cd8106f8d94c636d4","bdp_cybrbll","Sun Mar 26 2023 17:15:41 GMT-0400 (Eastern Daylight Time)","464264","1","3","","null","","","","observe","","img/1to3/1.png","null","168","579","0.5","0.5","1","3","","",""
"animation","119","154457","0.0-5.0-2.57","63bc9e8cd8106f8d94c636d4","bdp_cybrbll","Sun Mar 26 2023 17:15:41 GMT-0400 (Eastern Daylight Time)","464264","1","3","","","","","","","","","","168","","","","1","3","[{""stimulus"":""img/1to3/1.png"",""time"":99},{""stimulus"":""img/1to3/2.png"",""time"":199},{""stimulus"":""img/1to3/3.png"",""time"":299},{""stimulus"":""img/1to3/4.png"",""time"":398},{""stimulus"":""img/1to3/5.png"",""time"":498},{""stimulus"":""img/1to3/6.png"",""time"":598},{""stimulus"":""img/1to3/7.png"",""time"":698},{""stimulus"":""img/1to3/8.png"",""time"":798},{""stimulus"":""img/1to3/9.png"",""time"":897},{""stimulus"":""img/1to3/10.png"",""time"":998},{""stimulus"":""img/1to3/11.png"",""time"":1097},{""stimulus"":""img/1to3/12.png"",""time"":1198}]","[]",""
"image-keyboard-response","120","154857","0.0-5.0-1.58","63bc9e8cd8106f8d94c636d4","bdp_cybrbll","Sun Mar 26 2023 17:15:41 GMT-0400 (Eastern Daylight Time)","464264","1","3","","null","","","","observe","","img/3to2/1.png","null","167","399","0.5","0.5","3","2","","",""
"animation","121","156156","0.0-5.0-2.58","63bc9e8cd8106f8d94c636d4","bdp_cybrbll","Sun Mar 26 2023 17:15:41 GMT-0400 (Eastern Daylight Time)","464264","1","3","","","","","","","","","","167","","","","3","2","[{""stimulus"":""img/3to2/1.png"",""time"":100},{""stimulus"":""img/3to2/2.png"",""time"":200},{""stimulus"":""img/3to2/3.png"",""time"":299},{""stimulus"":""img/3to2/4.png"",""time"":399},{""stimulus"":""img/3to2/5.png"",""time"":499},{""stimulus"":""img/3to2/6.png"",""time"":600},{""stimulus"":""img/3to2/7.png"",""time"":700},{""stimulus"":""img/3to2/8.png"",""time"":800},{""stimulus"":""img/3to2/9.png"",""time"":900},{""stimulus"":""img/3to2/10.png"",""time"":1000},{""stimulus"":""img/3to2/11.png"",""time"":1100},{""stimulus"":""img/3to2/12.png"",""time"":1199}]","[]",""
"image-keyboard-response","122","156266","0.0-5.0-1.59","63bc9e8cd8106f8d94c636d4","bdp_cybrbll","Sun Mar 26 2023 17:15:41 GMT-0400 (Eastern Daylight Time)","464264","1","3","","110","","","","choice","","img/2to1/1.png","2","166","453","0.5","0.5","2","3","","",""
"animation","123","157566","0.0-5.0-2.59","63bc9e8cd8106f8d94c636d4","bdp_cybrbll","Sun Mar 26 2023 17:15:41 GMT-0400 (Eastern Daylight Time)","464264","1","3","","","","","","","","","","166","","","","2","3","[{""stimulus"":""img/2to3/1.png"",""time"":101},{""stimulus"":""img/2to3/2.png"",""time"":200},{""stimulus"":""img/2to3/3.png"",""time"":300},{""stimulus"":""img/2to3/4.png"",""time"":399},{""stimulus"":""img/2to3/5.png"",""time"":500},{""stimulus"":""img/2to3/6.png"",""time"":600},{""stimulus"":""img/2to3/7.png"",""time"":700},{""stimulus"":""img/2to3/8.png"",""time"":800},{""stimulus"":""img/2to3/9.png"",""time"":900},{""stimulus"":""img/2to3/10.png"",""time"":1000},{""stimulus"":""img/2to3/11.png"",""time"":1100},{""stimulus"":""img/2to3/12.png"",""time"":1200}]","[]",""
"image-keyboard-response","124","157891","0.0-5.0-1.60","63bc9e8cd8106f8d94c636d4","bdp_cybrbll","Sun Mar 26 2023 17:15:41 GMT-0400 (Eastern Daylight Time)","464264","1","3","","null","","","","observe","","img/3to2/1.png","null","165","325","0.5","0.5","3","2","","",""
"animation","125","159189","0.0-5.0-2.60","63bc9e8cd8106f8d94c636d4","bdp_cybrbll","Sun Mar 26 2023 17:15:41 GMT-0400 (Eastern Daylight Time)","464264","1","3","","","","","","","","","","165","","","","3","2","[{""stimulus"":""img/3to2/1.png"",""time"":100},{""stimulus"":""img/3to2/2.png"",""time"":199},{""stimulus"":""img/3to2/3.png"",""time"":298},{""stimulus"":""img/3to2/4.png"",""time"":398},{""stimulus"":""img/3to2/5.png"",""time"":497},{""stimulus"":""img/3to2/6.png"",""time"":596},{""stimulus"":""img/3to2/7.png"",""time"":696},{""stimulus"":""img/3to2/8.png"",""time"":797},{""stimulus"":""img/3to2/9.png"",""time"":897},{""stimulus"":""img/3to2/10.png"",""time"":997},{""stimulus"":""img/3to2/11.png"",""time"":1097},{""stimulus"":""img/3to2/12.png"",""time"":1197}]","[]",""
"image-keyboard-response","126","159765","0.0-5.0-1.61","63bc9e8cd8106f8d94c636d4","bdp_cybrbll","Sun Mar 26 2023 17:15:41 GMT-0400 (Eastern Daylight Time)","464264","1","3","","576","","","","choice","","img/2to1/1.png","1","164","356","0.5","0.5","2","1","","",""
"animation","127","161066","0.0-5.0-2.61","63bc9e8cd8106f8d94c636d4","bdp_cybrbll","Sun Mar 26 2023 17:15:41 GMT-0400 (Eastern Daylight Time)","464264","1","3","","","","","","","","","","164","","","","2","1","[{""stimulus"":""img/2to1/1.png"",""time"":101},{""stimulus"":""img/2to1/2.png"",""time"":201},{""stimulus"":""img/2to1/3.png"",""time"":301},{""stimulus"":""img/2to1/4.png"",""time"":401},{""stimulus"":""img/2to1/5.png"",""time"":501},{""stimulus"":""img/2to1/6.png"",""time"":601},{""stimulus"":""img/2to1/7.png"",""time"":701},{""stimulus"":""img/2to1/8.png"",""time"":801},{""stimulus"":""img/2to1/9.png"",""time"":901},{""stimulus"":""img/2to1/10.png"",""time"":1001},{""stimulus"":""img/2to1/11.png"",""time"":1100},{""stimulus"":""img/2to1/12.png"",""time"":1201}]","[]",""
"image-keyboard-response","128","161245","0.0-5.0-1.62","63bc9e8cd8106f8d94c636d4","bdp_cybrbll","Sun Mar 26 2023 17:15:41 GMT-0400 (Eastern Daylight Time)","464264","1","3","","null","","","","observe","","img/1to3/1.png","null","163","178","0.5","0.5","1","3","","",""
"animation","129","162543","0.0-5.0-2.62","63bc9e8cd8106f8d94c636d4","bdp_cybrbll","Sun Mar 26 2023 17:15:41 GMT-0400 (Eastern Daylight Time)","464264","1","3","","","","","","","","","","163","","","","1","3","[{""stimulus"":""img/1to3/1.png"",""time"":100},{""stimulus"":""img/1to3/2.png"",""time"":200},{""stimulus"":""img/1to3/3.png"",""time"":300},{""stimulus"":""img/1to3/4.png"",""time"":400},{""stimulus"":""img/1to3/5.png"",""time"":499},{""stimulus"":""img/1to3/6.png"",""time"":599},{""stimulus"":""img/1to3/7.png"",""time"":699},{""stimulus"":""img/1to3/8.png"",""time"":798},{""stimulus"":""img/1to3/9.png"",""time"":898},{""stimulus"":""img/1to3/10.png"",""time"":998},{""stimulus"":""img/1to3/11.png"",""time"":1098},{""stimulus"":""img/1to3/12.png"",""time"":1198}]","[]",""
"image-keyboard-response","130","162855","0.0-5.0-1.63","63bc9e8cd8106f8d94c636d4","bdp_cybrbll","Sun Mar 26 2023 17:15:41 GMT-0400 (Eastern Daylight Time)","464264","1","3","","null","","","","observe","","img/3to2/1.png","null","162","311","0.5","0.5","3","2","","",""
"animation","131","164153","0.0-5.0-2.63","63bc9e8cd8106f8d94c636d4","bdp_cybrbll","Sun Mar 26 2023 17:15:41 GMT-0400 (Eastern Daylight Time)","464264","1","3","","","","","","","","","","162","","","","3","2","[{""stimulus"":""img/3to2/1.png"",""time"":99},{""stimulus"":""img/3to2/2.png"",""time"":199},{""stimulus"":""img/3to2/3.png"",""time"":299},{""stimulus"":""img/3to2/4.png"",""time"":399},{""stimulus"":""img/3to2/5.png"",""time"":499},{""stimulus"":""img/3to2/6.png"",""time"":598},{""stimulus"":""img/3to2/7.png"",""time"":698},{""stimulus"":""img/3to2/8.png"",""time"":797},{""stimulus"":""img/3to2/9.png"",""time"":898},{""stimulus"":""img/3to2/10.png"",""time"":998},{""stimulus"":""img/3to2/11.png"",""time"":1098},{""stimulus"":""img/3to2/12.png"",""time"":1197}]","[]",""
"image-keyboard-response","132","164642","0.0-5.0-1.64","63bc9e8cd8106f8d94c636d4","bdp_cybrbll","Sun Mar 26 2023 17:15:41 GMT-0400 (Eastern Daylight Time)","464264","1","3","","489","","","","choice","","img/2to1/1.png","2","161","416","0.5","0.5","2","3","","",""
"animation","133","165938","0.0-5.0-2.64","63bc9e8cd8106f8d94c636d4","bdp_cybrbll","Sun Mar 26 2023 17:15:41 GMT-0400 (Eastern Daylight Time)","464264","1","3","","","","","","","","","","161","","","","2","3","[{""stimulus"":""img/2to3/1.png"",""time"":99},{""stimulus"":""img/2to3/2.png"",""time"":199},{""stimulus"":""img/2to3/3.png"",""time"":299},{""stimulus"":""img/2to3/4.png"",""time"":399},{""stimulus"":""img/2to3/5.png"",""time"":498},{""stimulus"":""img/2to3/6.png"",""time"":598},{""stimulus"":""img/2to3/7.png"",""time"":698},{""stimulus"":""img/2to3/8.png"",""time"":798},{""stimulus"":""img/2to3/9.png"",""time"":897},{""stimulus"":""img/2to3/10.png"",""time"":997},{""stimulus"":""img/2to3/11.png"",""time"":1096},{""stimulus"":""img/2to3/12.png"",""time"":1195}]","[]",""
"image-keyboard-response","134","166104","0.0-5.0-1.65","63bc9e8cd8106f8d94c636d4","bdp_cybrbll","Sun Mar 26 2023 17:15:41 GMT-0400 (Eastern Daylight Time)","464264","1","3","","null","","","","observe","","img/3to2/1.png","null","160","165","0.5","0.5","3","2","","",""
"animation","135","167402","0.0-5.0-2.65","63bc9e8cd8106f8d94c636d4","bdp_cybrbll","Sun Mar 26 2023 17:15:41 GMT-0400 (Eastern Daylight Time)","464264","1","3","","","","","","","","","","160","","","","3","2","[{""stimulus"":""img/3to2/1.png"",""time"":101},{""stimulus"":""img/3to2/2.png"",""time"":201},{""stimulus"":""img/3to2/3.png"",""time"":301},{""stimulus"":""img/3to2/4.png"",""time"":400},{""stimulus"":""img/3to2/5.png"",""time"":500},{""stimulus"":""img/3to2/6.png"",""time"":599},{""stimulus"":""img/3to2/7.png"",""time"":699},{""stimulus"":""img/3to2/8.png"",""time"":798},{""stimulus"":""img/3to2/9.png"",""time"":898},{""stimulus"":""img/3to2/10.png"",""time"":999},{""stimulus"":""img/3to2/11.png"",""time"":1098},{""stimulus"":""img/3to2/12.png"",""time"":1197}]","[]",""
"image-keyboard-response","136","167646","0.0-5.0-1.66","63bc9e8cd8106f8d94c636d4","bdp_cybrbll","Sun Mar 26 2023 17:15:41 GMT-0400 (Eastern Daylight Time)","464264","1","3","","244","","","","choice","","img/2to1/1.png","1","159","422","0.5","0.5","2","1","","",""
"animation","137","168944","0.0-5.0-2.66","63bc9e8cd8106f8d94c636d4","bdp_cybrbll","Sun Mar 26 2023 17:15:41 GMT-0400 (Eastern Daylight Time)","464264","1","3","","","","","","","","","","159","","","","2","1","[{""stimulus"":""img/2to1/1.png"",""time"":100},{""stimulus"":""img/2to1/2.png"",""time"":200},{""stimulus"":""img/2to1/3.png"",""time"":300},{""stimulus"":""img/2to1/4.png"",""time"":400},{""stimulus"":""img/2to1/5.png"",""time"":500},{""stimulus"":""img/2to1/6.png"",""time"":600},{""stimulus"":""img/2to1/7.png"",""time"":700},{""stimulus"":""img/2to1/8.png"",""time"":800},{""stimulus"":""img/2to1/9.png"",""time"":899},{""stimulus"":""img/2to1/10.png"",""time"":999},{""stimulus"":""img/2to1/11.png"",""time"":1098},{""stimulus"":""img/2to1/12.png"",""time"":1198}]","[]",""
"image-keyboard-response","138","169376","0.0-5.0-1.67","63bc9e8cd8106f8d94c636d4","bdp_cybrbll","Sun Mar 26 2023 17:15:41 GMT-0400 (Eastern Daylight Time)","464264","1","3","","null","","","","observe","","img/1to3/1.png","null","158","432","0.5","0.5","1","2","","",""
"animation","139","170675","0.0-5.0-2.67","63bc9e8cd8106f8d94c636d4","bdp_cybrbll","Sun Mar 26 2023 17:15:41 GMT-0400 (Eastern Daylight Time)","464264","1","3","","","","","","","","","","158","","","","1","2","[{""stimulus"":""img/1to2/1.png"",""time"":101},{""stimulus"":""img/1to2/2.png"",""time"":200},{""stimulus"":""img/1to2/3.png"",""time"":300},{""stimulus"":""img/1to2/4.png"",""time"":400},{""stimulus"":""img/1to2/5.png"",""time"":500},{""stimulus"":""img/1to2/6.png"",""time"":600},{""stimulus"":""img/1to2/7.png"",""time"":700},{""stimulus"":""img/1to2/8.png"",""time"":801},{""stimulus"":""img/1to2/9.png"",""time"":900},{""stimulus"":""img/1to2/10.png"",""time"":1000},{""stimulus"":""img/1to2/11.png"",""time"":1100},{""stimulus"":""img/1to2/12.png"",""time"":1200}]","[]",""
"image-keyboard-response","140","170900","0.0-5.0-1.68","63bc9e8cd8106f8d94c636d4","bdp_cybrbll","Sun Mar 26 2023 17:15:41 GMT-0400 (Eastern Daylight Time)","464264","1","3","","225","","","","choice","","img/2to1/1.png","2","157","245","0.5","0.5","2","3","","",""
"animation","141","172201","0.0-5.0-2.68","63bc9e8cd8106f8d94c636d4","bdp_cybrbll","Sun Mar 26 2023 17:15:41 GMT-0400 (Eastern Daylight Time)","464264","1","3","","","","","","","","","","157","","","","2","3","[{""stimulus"":""img/2to3/1.png"",""time"":100},{""stimulus"":""img/2to3/2.png"",""time"":200},{""stimulus"":""img/2to3/3.png"",""time"":300},{""stimulus"":""img/2to3/4.png"",""time"":400},{""stimulus"":""img/2to3/5.png"",""time"":500},{""stimulus"":""img/2to3/6.png"",""time"":600},{""stimulus"":""img/2to3/7.png"",""time"":700},{""stimulus"":""img/2to3/8.png"",""time"":800},{""stimulus"":""img/2to3/9.png"",""time"":901},{""stimulus"":""img/2to3/10.png"",""time"":1001},{""stimulus"":""img/2to3/11.png"",""time"":1101},{""stimulus"":""img/2to3/12.png"",""time"":1201}]","[]",""
"image-keyboard-response","142","172755","0.0-5.0-1.69","63bc9e8cd8106f8d94c636d4","bdp_cybrbll","Sun Mar 26 2023 17:15:41 GMT-0400 (Eastern Daylight Time)","464264","1","3","","null","","","","observe","","img/3to2/1.png","null","156","554","0.5","0.5","3","2","","",""
"animation","143","174053","0.0-5.0-2.69","63bc9e8cd8106f8d94c636d4","bdp_cybrbll","Sun Mar 26 2023 17:15:41 GMT-0400 (Eastern Daylight Time)","464264","1","3","","","","","","","","","","156","","","","3","2","[{""stimulus"":""img/3to2/1.png"",""time"":100},{""stimulus"":""img/3to2/2.png"",""time"":199},{""stimulus"":""img/3to2/3.png"",""time"":299},{""stimulus"":""img/3to2/4.png"",""time"":398},{""stimulus"":""img/3to2/5.png"",""time"":497},{""stimulus"":""img/3to2/6.png"",""time"":598},{""stimulus"":""img/3to2/7.png"",""time"":698},{""stimulus"":""img/3to2/8.png"",""time"":797},{""stimulus"":""img/3to2/9.png"",""time"":897},{""stimulus"":""img/3to2/10.png"",""time"":997},{""stimulus"":""img/3to2/11.png"",""time"":1096},{""stimulus"":""img/3to2/12.png"",""time"":1197}]","[]",""
"image-keyboard-response","144","174248","0.0-5.0-1.70","63bc9e8cd8106f8d94c636d4","bdp_cybrbll","Sun Mar 26 2023 17:15:41 GMT-0400 (Eastern Daylight Time)","464264","1","3","","195","","","","choice","","img/2to1/1.png","1","155","229","0.5","0.5","2","1","","",""
"animation","145","175542","0.0-5.0-2.70","63bc9e8cd8106f8d94c636d4","bdp_cybrbll","Sun Mar 26 2023 17:15:41 GMT-0400 (Eastern Daylight Time)","464264","1","3","","","","","","","","","","155","","","","2","1","[{""stimulus"":""img/2to1/1.png"",""time"":100},{""stimulus"":""img/2to1/2.png"",""time"":199},{""stimulus"":""img/2to1/3.png"",""time"":298},{""stimulus"":""img/2to1/4.png"",""time"":398},{""stimulus"":""img/2to1/5.png"",""time"":497},{""stimulus"":""img/2to1/6.png"",""time"":596},{""stimulus"":""img/2to1/7.png"",""time"":695},{""stimulus"":""img/2to1/8.png"",""time"":796},{""stimulus"":""img/2to1/9.png"",""time"":895},{""stimulus"":""img/2to1/10.png"",""time"":995},{""stimulus"":""img/2to1/11.png"",""time"":1095},{""stimulus"":""img/2to1/12.png"",""time"":1194}]","[]",""
"image-keyboard-response","146","176500","0.0-5.0-1.71","63bc9e8cd8106f8d94c636d4","bdp_cybrbll","Sun Mar 26 2023 17:15:41 GMT-0400 (Eastern Daylight Time)","464264","1","3","","null","","","","observe","","img/1to3/1.png","null","154","957","0.5","0.5","1","3","","",""
"animation","147","177800","0.0-5.0-2.71","63bc9e8cd8106f8d94c636d4","bdp_cybrbll","Sun Mar 26 2023 17:15:41 GMT-0400 (Eastern Daylight Time)","464264","1","3","","","","","","","","","","154","","","","1","3","[{""stimulus"":""img/1to3/1.png"",""time"":100},{""stimulus"":""img/1to3/2.png"",""time"":200},{""stimulus"":""img/1to3/3.png"",""time"":300},{""stimulus"":""img/1to3/4.png"",""time"":400},{""stimulus"":""img/1to3/5.png"",""time"":500},{""stimulus"":""img/1to3/6.png"",""time"":601},{""stimulus"":""img/1to3/7.png"",""time"":701},{""stimulus"":""img/1to3/8.png"",""time"":801},{""stimulus"":""img/1to3/9.png"",""time"":901},{""stimulus"":""img/1to3/10.png"",""time"":1001},{""stimulus"":""img/1to3/11.png"",""time"":1101},{""stimulus"":""img/1to3/12.png"",""time"":1201}]","[]",""
"image-keyboard-response","148","178077","0.0-5.0-1.72","63bc9e8cd8106f8d94c636d4","bdp_cybrbll","Sun Mar 26 2023 17:15:41 GMT-0400 (Eastern Daylight Time)","464264","1","3","","null","","","","observe","","img/3to2/1.png","null","153","276","0.5","0.5","3","2","","",""
"animation","149","179372","0.0-5.0-2.72","63bc9e8cd8106f8d94c636d4","bdp_cybrbll","Sun Mar 26 2023 17:15:41 GMT-0400 (Eastern Daylight Time)","464264","1","3","","","","","","","","","","153","","","","3","2","[{""stimulus"":""img/3to2/1.png"",""time"":101},{""stimulus"":""img/3to2/2.png"",""time"":200},{""stimulus"":""img/3to2/3.png"",""time"":300},{""stimulus"":""img/3to2/4.png"",""time"":399},{""stimulus"":""img/3to2/5.png"",""time"":499},{""stimulus"":""img/3to2/6.png"",""time"":598},{""stimulus"":""img/3to2/7.png"",""time"":697},{""stimulus"":""img/3to2/8.png"",""time"":797},{""stimulus"":""img/3to2/9.png"",""time"":897},{""stimulus"":""img/3to2/10.png"",""time"":996},{""stimulus"":""img/3to2/11.png"",""time"":1095},{""stimulus"":""img/3to2/12.png"",""time"":1194}]","[]",""
"image-keyboard-response","150","179692","0.0-5.0-1.73","63bc9e8cd8106f8d94c636d4","bdp_cybrbll","Sun Mar 26 2023 17:15:41 GMT-0400 (Eastern Daylight Time)","464264","1","3","","320","","","","choice","","img/2to1/1.png","1","152","500","0.5","0.5","2","1","","",""
"animation","151","180991","0.0-5.0-2.73","63bc9e8cd8106f8d94c636d4","bdp_cybrbll","Sun Mar 26 2023 17:15:41 GMT-0400 (Eastern Daylight Time)","464264","1","3","","","","","","","","","","152","","","","2","1","[{""stimulus"":""img/2to1/1.png"",""time"":99},{""stimulus"":""img/2to1/2.png"",""time"":199},{""stimulus"":""img/2to1/3.png"",""time"":300},{""stimulus"":""img/2to1/4.png"",""time"":400},{""stimulus"":""img/2to1/5.png"",""time"":500},{""stimulus"":""img/2to1/6.png"",""time"":600},{""stimulus"":""img/2to1/7.png"",""time"":700},{""stimulus"":""img/2to1/8.png"",""time"":800},{""stimulus"":""img/2to1/9.png"",""time"":900},{""stimulus"":""img/2to1/10.png"",""time"":1000},{""stimulus"":""img/2to1/11.png"",""time"":1099},{""stimulus"":""img/2to1/12.png"",""time"":1199}]","[]",""
"image-keyboard-response","152","181325","0.0-5.0-1.74","63bc9e8cd8106f8d94c636d4","bdp_cybrbll","Sun Mar 26 2023 17:15:41 GMT-0400 (Eastern Daylight Time)","464264","1","3","","null","","","","observe","","img/1to3/1.png","null","151","333","0.5","0.5","1","3","","",""
"animation","153","182623","0.0-5.0-2.74","63bc9e8cd8106f8d94c636d4","bdp_cybrbll","Sun Mar 26 2023 17:15:41 GMT-0400 (Eastern Daylight Time)","464264","1","3","","","","","","","","","","151","","","","1","3","[{""stimulus"":""img/1to3/1.png"",""time"":100},{""stimulus"":""img/1to3/2.png"",""time"":200},{""stimulus"":""img/1to3/3.png"",""time"":300},{""stimulus"":""img/1to3/4.png"",""time"":399},{""stimulus"":""img/1to3/5.png"",""time"":499},{""stimulus"":""img/1to3/6.png"",""time"":599},{""stimulus"":""img/1to3/7.png"",""time"":698},{""stimulus"":""img/1to3/8.png"",""time"":797},{""stimulus"":""img/1to3/9.png"",""time"":897},{""stimulus"":""img/1to3/10.png"",""time"":997},{""stimulus"":""img/1to3/11.png"",""time"":1097},{""stimulus"":""img/1to3/12.png"",""time"":1198}]","[]",""
"image-keyboard-response","154","182881","0.0-5.0-1.75","63bc9e8cd8106f8d94c636d4","bdp_cybrbll","Sun Mar 26 2023 17:15:41 GMT-0400 (Eastern Daylight Time)","464264","1","3","","null","","","","observe","","img/3to2/1.png","null","150","257","0.5","0.5","3","2","","",""
"animation","155","184178","0.0-5.0-2.75","63bc9e8cd8106f8d94c636d4","bdp_cybrbll","Sun Mar 26 2023 17:15:41 GMT-0400 (Eastern Daylight Time)","464264","1","3","","","","","","","","","","150","","","","3","2","[{""stimulus"":""img/3to2/1.png"",""time"":100},{""stimulus"":""img/3to2/2.png"",""time"":200},{""stimulus"":""img/3to2/3.png"",""time"":300},{""stimulus"":""img/3to2/4.png"",""time"":400},{""stimulus"":""img/3to2/5.png"",""time"":499},{""stimulus"":""img/3to2/6.png"",""time"":599},{""stimulus"":""img/3to2/7.png"",""time"":698},{""stimulus"":""img/3to2/8.png"",""time"":798},{""stimulus"":""img/3to2/9.png"",""time"":898},{""stimulus"":""img/3to2/10.png"",""time"":998},{""stimulus"":""img/3to2/11.png"",""time"":1097},{""stimulus"":""img/3to2/12.png"",""time"":1197}]","[]",""
"image-keyboard-response","156","184655","0.0-5.0-1.76","63bc9e8cd8106f8d94c636d4","bdp_cybrbll","Sun Mar 26 2023 17:15:41 GMT-0400 (Eastern Daylight Time)","464264","1","3","","476","","","","choice","","img/2to1/1.png","1","149","325","0.5","0.1","2","1","","",""
"animation","157","185949","0.0-5.0-2.76","63bc9e8cd8106f8d94c636d4","bdp_cybrbll","Sun Mar 26 2023 17:15:41 GMT-0400 (Eastern Daylight Time)","464264","1","3","","","","","","","","","","149","","","","2","1","[{""stimulus"":""img/2to1/1.png"",""time"":99},{""stimulus"":""img/2to1/2.png"",""time"":198},{""stimulus"":""img/2to1/3.png"",""time"":297},{""stimulus"":""img/2to1/4.png"",""time"":398},{""stimulus"":""img/2to1/5.png"",""time"":497},{""stimulus"":""img/2to1/6.png"",""time"":596},{""stimulus"":""img/2to1/7.png"",""time"":696},{""stimulus"":""img/2to1/8.png"",""time"":795},{""stimulus"":""img/2to1/9.png"",""time"":895},{""stimulus"":""img/2to1/10.png"",""time"":994},{""stimulus"":""img/2to1/11.png"",""time"":1093},{""stimulus"":""img/2to1/12.png"",""time"":1193}]","[]",""
"image-keyboard-response","158","186158","0.0-5.0-1.77","63bc9e8cd8106f8d94c636d4","bdp_cybrbll","Sun Mar 26 2023 17:15:41 GMT-0400 (Eastern Daylight Time)","464264","1","3","","null","","","","observe","","img/1to3/1.png","null","148","208","0.5","0.1","1","2","","",""
"animation","159","187455","0.0-5.0-2.77","63bc9e8cd8106f8d94c636d4","bdp_cybrbll","Sun Mar 26 2023 17:15:41 GMT-0400 (Eastern Daylight Time)","464264","1","3","","","","","","","","","","148","","","","1","2","[{""stimulus"":""img/1to2/1.png"",""time"":99},{""stimulus"":""img/1to2/2.png"",""time"":199},{""stimulus"":""img/1to2/3.png"",""time"":299},{""stimulus"":""img/1to2/4.png"",""time"":399},{""stimulus"":""img/1to2/5.png"",""time"":499},{""stimulus"":""img/1to2/6.png"",""time"":599},{""stimulus"":""img/1to2/7.png"",""time"":698},{""stimulus"":""img/1to2/8.png"",""time"":798},{""stimulus"":""img/1to2/9.png"",""time"":898},{""stimulus"":""img/1to2/10.png"",""time"":998},{""stimulus"":""img/1to2/11.png"",""time"":1098},{""stimulus"":""img/1to2/12.png"",""time"":1198}]","[]",""
"image-keyboard-response","160","187595","0.0-5.0-1.78","63bc9e8cd8106f8d94c636d4","bdp_cybrbll","Sun Mar 26 2023 17:15:41 GMT-0400 (Eastern Daylight Time)","464264","1","3","","140","","","","choice","","img/2to1/1.png","2","147","680","0.5","0.1","2","3","","",""
"animation","161","188894","0.0-5.0-2.78","63bc9e8cd8106f8d94c636d4","bdp_cybrbll","Sun Mar 26 2023 17:15:41 GMT-0400 (Eastern Daylight Time)","464264","1","3","","","","","","","","","","147","","","","2","3","[{""stimulus"":""img/2to3/1.png"",""time"":100},{""stimulus"":""img/2to3/2.png"",""time"":200},{""stimulus"":""img/2to3/3.png"",""time"":300},{""stimulus"":""img/2to3/4.png"",""time"":400},{""stimulus"":""img/2to3/5.png"",""time"":500},{""stimulus"":""img/2to3/6.png"",""time"":600},{""stimulus"":""img/2to3/7.png"",""time"":700},{""stimulus"":""img/2to3/8.png"",""time"":801},{""stimulus"":""img/2to3/9.png"",""time"":900},{""stimulus"":""img/2to3/10.png"",""time"":1000},{""stimulus"":""img/2to3/11.png"",""time"":1100},{""stimulus"":""img/2to3/12.png"",""time"":1200}]","[]",""
"image-keyboard-response","162","189905","0.0-5.0-1.79","63bc9e8cd8106f8d94c636d4","bdp_cybrbll","Sun Mar 26 2023 17:15:41 GMT-0400 (Eastern Daylight Time)","464264","1","3","","null","","","","observe","","img/3to2/1.png","null","146","1010","0.5","0.1","3","2","","",""
"animation","163","191201","0.0-5.0-2.79","63bc9e8cd8106f8d94c636d4","bdp_cybrbll","Sun Mar 26 2023 17:15:41 GMT-0400 (Eastern Daylight Time)","464264","1","3","","","","","","","","","","146","","","","3","2","[{""stimulus"":""img/3to2/1.png"",""time"":99},{""stimulus"":""img/3to2/2.png"",""time"":199},{""stimulus"":""img/3to2/3.png"",""time"":299},{""stimulus"":""img/3to2/4.png"",""time"":398},{""stimulus"":""img/3to2/5.png"",""time"":498},{""stimulus"":""img/3to2/6.png"",""time"":598},{""stimulus"":""img/3to2/7.png"",""time"":697},{""stimulus"":""img/3to2/8.png"",""time"":798},{""stimulus"":""img/3to2/9.png"",""time"":897},{""stimulus"":""img/3to2/10.png"",""time"":997},{""stimulus"":""img/3to2/11.png"",""time"":1096},{""stimulus"":""img/3to2/12.png"",""time"":1196}]","[]",""
"image-keyboard-response","164","191640","0.0-5.0-1.80","63bc9e8cd8106f8d94c636d4","bdp_cybrbll","Sun Mar 26 2023 17:15:41 GMT-0400 (Eastern Daylight Time)","464264","1","3","","439","","","","choice","","img/2to1/1.png","1","145","228","0.5","0.1","2","1","","",""
"animation","165","192938","0.0-5.0-2.80","63bc9e8cd8106f8d94c636d4","bdp_cybrbll","Sun Mar 26 2023 17:15:41 GMT-0400 (Eastern Daylight Time)","464264","1","3","","","","","","","","","","145","","","","2","1","[{""stimulus"":""img/2to1/1.png"",""time"":99},{""stimulus"":""img/2to1/2.png"",""time"":199},{""stimulus"":""img/2to1/3.png"",""time"":299},{""stimulus"":""img/2to1/4.png"",""time"":399},{""stimulus"":""img/2to1/5.png"",""time"":499},{""stimulus"":""img/2to1/6.png"",""time"":599},{""stimulus"":""img/2to1/7.png"",""time"":698},{""stimulus"":""img/2to1/8.png"",""time"":798},{""stimulus"":""img/2to1/9.png"",""time"":897},{""stimulus"":""img/2to1/10.png"",""time"":997},{""stimulus"":""img/2to1/11.png"",""time"":1097},{""stimulus"":""img/2to1/12.png"",""time"":1197}]","[]",""
"image-keyboard-response","166","193530","0.0-5.0-1.81","63bc9e8cd8106f8d94c636d4","bdp_cybrbll","Sun Mar 26 2023 17:15:41 GMT-0400 (Eastern Daylight Time)","464264","1","3","","null","","","","observe","","img/1to3/1.png","null","144","591","0.5","0.1","1","2","","",""
"animation","167","194829","0.0-5.0-2.81","63bc9e8cd8106f8d94c636d4","bdp_cybrbll","Sun Mar 26 2023 17:15:41 GMT-0400 (Eastern Daylight Time)","464264","1","3","","","","","","","","","","144","","","","1","2","[{""stimulus"":""img/1to2/1.png"",""time"":101},{""stimulus"":""img/1to2/2.png"",""time"":200},{""stimulus"":""img/1to2/3.png"",""time"":300},{""stimulus"":""img/1to2/4.png"",""time"":401},{""stimulus"":""img/1to2/5.png"",""time"":500},{""stimulus"":""img/1to2/6.png"",""time"":600},{""stimulus"":""img/1to2/7.png"",""time"":700},{""stimulus"":""img/1to2/8.png"",""time"":799},{""stimulus"":""img/1to2/9.png"",""time"":899},{""stimulus"":""img/1to2/10.png"",""time"":999},{""stimulus"":""img/1to2/11.png"",""time"":1099},{""stimulus"":""img/1to2/12.png"",""time"":1198}]","[]",""
"image-keyboard-response","168","195141","0.0-5.0-1.82","63bc9e8cd8106f8d94c636d4","bdp_cybrbll","Sun Mar 26 2023 17:15:41 GMT-0400 (Eastern Daylight Time)","464264","1","3","","312","","","","choice","","img/2to1/1.png","2","143","142","0.5","0.1","2","3","","",""
"animation","169","196440","0.0-5.0-2.82","63bc9e8cd8106f8d94c636d4","bdp_cybrbll","Sun Mar 26 2023 17:15:41 GMT-0400 (Eastern Daylight Time)","464264","1","3","","","","","","","","","","143","","","","2","3","[{""stimulus"":""img/2to3/1.png"",""time"":100},{""stimulus"":""img/2to3/2.png"",""time"":199},{""stimulus"":""img/2to3/3.png"",""time"":299},{""stimulus"":""img/2to3/4.png"",""time"":399},{""stimulus"":""img/2to3/5.png"",""time"":498},{""stimulus"":""img/2to3/6.png"",""time"":598},{""stimulus"":""img/2to3/7.png"",""time"":699},{""stimulus"":""img/2to3/8.png"",""time"":799},{""stimulus"":""img/2to3/9.png"",""time"":899},{""stimulus"":""img/2to3/10.png"",""time"":998},{""stimulus"":""img/2to3/11.png"",""time"":1098},{""stimulus"":""img/2to3/12.png"",""time"":1198}]","[]",""
"image-keyboard-response","170","196722","0.0-5.0-1.83","63bc9e8cd8106f8d94c636d4","bdp_cybrbll","Sun Mar 26 2023 17:15:41 GMT-0400 (Eastern Daylight Time)","464264","1","3","","null","","","","observe","","img/3to2/1.png","null","142","281","0.5","0.1","3","1","","",""
"animation","171","198022","0.0-5.0-2.83","63bc9e8cd8106f8d94c636d4","bdp_cybrbll","Sun Mar 26 2023 17:15:41 GMT-0400 (Eastern Daylight Time)","464264","1","3","","","","","","","","","","142","","","","3","1","[{""stimulus"":""img/3to1/1.png"",""time"":100},{""stimulus"":""img/3to1/2.png"",""time"":200},{""stimulus"":""img/3to1/3.png"",""time"":300},{""stimulus"":""img/3to1/4.png"",""time"":400},{""stimulus"":""img/3to1/5.png"",""time"":500},{""stimulus"":""img/3to1/6.png"",""time"":600},{""stimulus"":""img/3to1/7.png"",""time"":700},{""stimulus"":""img/3to1/8.png"",""time"":800},{""stimulus"":""img/3to1/9.png"",""time"":901},{""stimulus"":""img/3to1/10.png"",""time"":1001},{""stimulus"":""img/3to1/11.png"",""time"":1100},{""stimulus"":""img/3to1/12.png"",""time"":1200}]","[]",""
"image-keyboard-response","172","198330","0.0-5.0-1.84","63bc9e8cd8106f8d94c636d4","bdp_cybrbll","Sun Mar 26 2023 17:15:41 GMT-0400 (Eastern Daylight Time)","464264","1","3","","null","","","","observe","","img/1to3/1.png","null","141","307","0.5","0.1","1","3","","",""
"animation","173","199630","0.0-5.0-2.84","63bc9e8cd8106f8d94c636d4","bdp_cybrbll","Sun Mar 26 2023 17:15:41 GMT-0400 (Eastern Daylight Time)","464264","1","3","","","","","","","","","","141","","","","1","3","[{""stimulus"":""img/1to3/1.png"",""time"":100},{""stimulus"":""img/1to3/2.png"",""time"":200},{""stimulus"":""img/1to3/3.png"",""time"":300},{""stimulus"":""img/1to3/4.png"",""time"":400},{""stimulus"":""img/1to3/5.png"",""time"":500},{""stimulus"":""img/1to3/6.png"",""time"":600},{""stimulus"":""img/1to3/7.png"",""time"":700},{""stimulus"":""img/1to3/8.png"",""time"":800},{""stimulus"":""img/1to3/9.png"",""time"":901},{""stimulus"":""img/1to3/10.png"",""time"":1001},{""stimulus"":""img/1to3/11.png"",""time"":1100},{""stimulus"":""img/1to3/12.png"",""time"":1200}]","[]",""
"image-keyboard-response","174","200824","0.0-5.0-1.85","63bc9e8cd8106f8d94c636d4","bdp_cybrbll","Sun Mar 26 2023 17:15:41 GMT-0400 (Eastern Daylight Time)","464264","1","3","","null","","","","observe","","img/3to2/1.png","null","140","1194","0.5","0.1","3","1","","",""
"animation","175","202121","0.0-5.0-2.85","63bc9e8cd8106f8d94c636d4","bdp_cybrbll","Sun Mar 26 2023 17:15:41 GMT-0400 (Eastern Daylight Time)","464264","1","3","","","","","","","","","","140","","","","3","1","[{""stimulus"":""img/3to1/1.png"",""time"":101},{""stimulus"":""img/3to1/2.png"",""time"":200},{""stimulus"":""img/3to1/3.png"",""time"":300},{""stimulus"":""img/3to1/4.png"",""time"":399},{""stimulus"":""img/3to1/5.png"",""time"":498},{""stimulus"":""img/3to1/6.png"",""time"":598},{""stimulus"":""img/3to1/7.png"",""time"":698},{""stimulus"":""img/3to1/8.png"",""time"":798},{""stimulus"":""img/3to1/9.png"",""time"":897},{""stimulus"":""img/3to1/10.png"",""time"":997},{""stimulus"":""img/3to1/11.png"",""time"":1097},{""stimulus"":""img/3to1/12.png"",""time"":1198}]","[]",""
"image-keyboard-response","176","202489","0.0-5.0-1.86","63bc9e8cd8106f8d94c636d4","bdp_cybrbll","Sun Mar 26 2023 17:15:41 GMT-0400 (Eastern Daylight Time)","464264","1","3","","null","","","","observe","","img/1to3/1.png","null","139","366","0.5","0.1","1","2","","",""
"animation","177","203786","0.0-5.0-2.86","63bc9e8cd8106f8d94c636d4","bdp_cybrbll","Sun Mar 26 2023 17:15:41 GMT-0400 (Eastern Daylight Time)","464264","1","3","","","","","","","","","","139","","","","1","2","[{""stimulus"":""img/1to2/1.png"",""time"":100},{""stimulus"":""img/1to2/2.png"",""time"":199},{""stimulus"":""img/1to2/3.png"",""time"":299},{""stimulus"":""img/1to2/4.png"",""time"":399},{""stimulus"":""img/1to2/5.png"",""time"":499},{""stimulus"":""img/1to2/6.png"",""time"":599},{""stimulus"":""img/1to2/7.png"",""time"":699},{""stimulus"":""img/1to2/8.png"",""time"":799},{""stimulus"":""img/1to2/9.png"",""time"":898},{""stimulus"":""img/1to2/10.png"",""time"":998},{""stimulus"":""img/1to2/11.png"",""time"":1098},{""stimulus"":""img/1to2/12.png"",""time"":1198}]","[]",""
"image-keyboard-response","178","205279","0.0-5.0-1.87","63bc9e8cd8106f8d94c636d4","bdp_cybrbll","Sun Mar 26 2023 17:15:41 GMT-0400 (Eastern Daylight Time)","464264","1","3","","1493","","","","choice","","img/2to1/1.png","2","138","222","0.5","0.1","2","3","","",""
"animation","179","206575","0.0-5.0-2.87","63bc9e8cd8106f8d94c636d4","bdp_cybrbll","Sun Mar 26 2023 17:15:41 GMT-0400 (Eastern Daylight Time)","464264","1","3","","","","","","","","","","138","","","","2","3","[{""stimulus"":""img/2to3/1.png"",""time"":100},{""stimulus"":""img/2to3/2.png"",""time"":199},{""stimulus"":""img/2to3/3.png"",""time"":299},{""stimulus"":""img/2to3/4.png"",""time"":399},{""stimulus"":""img/2to3/5.png"",""time"":499},{""stimulus"":""img/2to3/6.png"",""time"":598},{""stimulus"":""img/2to3/7.png"",""time"":697},{""stimulus"":""img/2to3/8.png"",""time"":797},{""stimulus"":""img/2to3/9.png"",""time"":897},{""stimulus"":""img/2to3/10.png"",""time"":997},{""stimulus"":""img/2to3/11.png"",""time"":1097},{""stimulus"":""img/2to3/12.png"",""time"":1196}]","[]",""
"image-keyboard-response","180","206798","0.0-5.0-1.88","63bc9e8cd8106f8d94c636d4","bdp_cybrbll","Sun Mar 26 2023 17:15:41 GMT-0400 (Eastern Daylight Time)","464264","1","3","","null","","","","observe","","img/3to2/1.png","null","137","222","0.5","0.1","3","2","","",""
"animation","181","208095","0.0-5.0-2.88","63bc9e8cd8106f8d94c636d4","bdp_cybrbll","Sun Mar 26 2023 17:15:41 GMT-0400 (Eastern Daylight Time)","464264","1","3","","","","","","","","","","137","","","","3","2","[{""stimulus"":""img/3to2/1.png"",""time"":100},{""stimulus"":""img/3to2/2.png"",""time"":200},{""stimulus"":""img/3to2/3.png"",""time"":300},{""stimulus"":""img/3to2/4.png"",""time"":400},{""stimulus"":""img/3to2/5.png"",""time"":500},{""stimulus"":""img/3to2/6.png"",""time"":600},{""stimulus"":""img/3to2/7.png"",""time"":700},{""stimulus"":""img/3to2/8.png"",""time"":800},{""stimulus"":""img/3to2/9.png"",""time"":899},{""stimulus"":""img/3to2/10.png"",""time"":998},{""stimulus"":""img/3to2/11.png"",""time"":1098},{""stimulus"":""img/3to2/12.png"",""time"":1198}]","[]",""
"image-keyboard-response","182","208778","0.0-5.0-1.89","63bc9e8cd8106f8d94c636d4","bdp_cybrbll","Sun Mar 26 2023 17:15:41 GMT-0400 (Eastern Daylight Time)","464264","1","3","","683","","","","choice","","img/2to1/1.png","1","136","453","0.5","0.1","2","1","","",""
"animation","183","210076","0.0-5.0-2.89","63bc9e8cd8106f8d94c636d4","bdp_cybrbll","Sun Mar 26 2023 17:15:41 GMT-0400 (Eastern Daylight Time)","464264","1","3","","","","","","","","","","136","","","","2","1","[{""stimulus"":""img/2to1/1.png"",""time"":100},{""stimulus"":""img/2to1/2.png"",""time"":199},{""stimulus"":""img/2to1/3.png"",""time"":299},{""stimulus"":""img/2to1/4.png"",""time"":400},{""stimulus"":""img/2to1/5.png"",""time"":499},{""stimulus"":""img/2to1/6.png"",""time"":599},{""stimulus"":""img/2to1/7.png"",""time"":698},{""stimulus"":""img/2to1/8.png"",""time"":798},{""stimulus"":""img/2to1/9.png"",""time"":898},{""stimulus"":""img/2to1/10.png"",""time"":997},{""stimulus"":""img/2to1/11.png"",""time"":1098},{""stimulus"":""img/2to1/12.png"",""time"":1198}]","[]",""
"image-keyboard-response","184","210274","0.0-5.0-1.90","63bc9e8cd8106f8d94c636d4","bdp_cybrbll","Sun Mar 26 2023 17:15:41 GMT-0400 (Eastern Daylight Time)","464264","1","3","","null","","","","observe","","img/1to3/1.png","null","135","197","0.5","0.1","1","3","","",""
"animation","185","211575","0.0-5.0-2.90","63bc9e8cd8106f8d94c636d4","bdp_cybrbll","Sun Mar 26 2023 17:15:41 GMT-0400 (Eastern Daylight Time)","464264","1","3","","","","","","","","","","135","","","","1","3","[{""stimulus"":""img/1to3/1.png"",""time"":100},{""stimulus"":""img/1to3/2.png"",""time"":200},{""stimulus"":""img/1to3/3.png"",""time"":300},{""stimulus"":""img/1to3/4.png"",""time"":400},{""stimulus"":""img/1to3/5.png"",""time"":500},{""stimulus"":""img/1to3/6.png"",""time"":601},{""stimulus"":""img/1to3/7.png"",""time"":701},{""stimulus"":""img/1to3/8.png"",""time"":801},{""stimulus"":""img/1to3/9.png"",""time"":901},{""stimulus"":""img/1to3/10.png"",""time"":1000},{""stimulus"":""img/1to3/11.png"",""time"":1100},{""stimulus"":""img/1to3/12.png"",""time"":1200}]","[]",""
"image-keyboard-response","186","211970","0.0-5.0-1.91","63bc9e8cd8106f8d94c636d4","bdp_cybrbll","Sun Mar 26 2023 17:15:41 GMT-0400 (Eastern Daylight Time)","464264","1","3","","null","","","","observe","","img/3to2/1.png","null","134","394","0.5","0.1","3","1","","",""
"animation","187","213270","0.0-5.0-2.91","63bc9e8cd8106f8d94c636d4","bdp_cybrbll","Sun Mar 26 2023 17:15:41 GMT-0400 (Eastern Daylight Time)","464264","1","3","","","","","","","","","","134","","","","3","1","[{""stimulus"":""img/3to1/1.png"",""time"":100},{""stimulus"":""img/3to1/2.png"",""time"":199},{""stimulus"":""img/3to1/3.png"",""time"":299},{""stimulus"":""img/3to1/4.png"",""time"":399},{""stimulus"":""img/3to1/5.png"",""time"":498},{""stimulus"":""img/3to1/6.png"",""time"":598},{""stimulus"":""img/3to1/7.png"",""time"":698},{""stimulus"":""img/3to1/8.png"",""time"":798},{""stimulus"":""img/3to1/9.png"",""time"":898},{""stimulus"":""img/3to1/10.png"",""time"":997},{""stimulus"":""img/3to1/11.png"",""time"":1097},{""stimulus"":""img/3to1/12.png"",""time"":1197}]","[]",""
"image-keyboard-response","188","213754","0.0-5.0-1.92","63bc9e8cd8106f8d94c636d4","bdp_cybrbll","Sun Mar 26 2023 17:15:41 GMT-0400 (Eastern Daylight Time)","464264","1","3","","null","","","","observe","","img/1to3/1.png","null","133","483","0.5","0.1","1","3","","",""
"animation","189","215054","0.0-5.0-2.92","63bc9e8cd8106f8d94c636d4","bdp_cybrbll","Sun Mar 26 2023 17:15:41 GMT-0400 (Eastern Daylight Time)","464264","1","3","","","","","","","","","","133","","","","1","3","[{""stimulus"":""img/1to3/1.png"",""time"":100},{""stimulus"":""img/1to3/2.png"",""time"":200},{""stimulus"":""img/1to3/3.png"",""time"":300},{""stimulus"":""img/1to3/4.png"",""time"":400},{""stimulus"":""img/1to3/5.png"",""time"":500},{""stimulus"":""img/1to3/6.png"",""time"":599},{""stimulus"":""img/1to3/7.png"",""time"":699},{""stimulus"":""img/1to3/8.png"",""time"":799},{""stimulus"":""img/1to3/9.png"",""time"":899},{""stimulus"":""img/1to3/10.png"",""time"":999},{""stimulus"":""img/1to3/11.png"",""time"":1100},{""stimulus"":""img/1to3/12.png"",""time"":1200}]","[]",""
