"trial_type","trial_index","time_elapsed","internal_node_id","subject_id","task","startTime","totalTime","fairPartner","unfairPartner","view_history","rt","event","trial","time","trialtype","success","stimulus","key_press","throwsLeft","rtDur","pFair","pUnfair","holder","receiver","animation_sequence","responses"
"pavlovia","0","3","0.0-0.0","5b9b422307c6960001614c35","bdp_cybrbll","Tue Mar 28 2023 22:33:16 GMT-0400 (Eastern Daylight Time)","636704","1","3","","","","","","","","","","","","","","","","",""
"instructions","1","9949","0.0-1.0","5b9b422307c6960001614c35","bdp_cybrbll","Tue Mar 28 2023 22:33:16 GMT-0400 (Eastern Daylight Time)","636704","1","3","[{""page_index"":0,""viewing_time"":9946}]","9946","","","","","","","","","","","","","","",""
"","","","","5b9b422307c6960001614c35","bdp_cybrbll","Tue Mar 28 2023 22:33:16 GMT-0400 (Eastern Daylight Time)","636704","1","3","","","fullscreenenter","2","11733","fullscreenenter","","","","","","","","","","",""
"fullscreen","2","12728","0.0-2.0","5b9b422307c6960001614c35","bdp_cybrbll","Tue Mar 28 2023 22:33:16 GMT-0400 (Eastern Daylight Time)","636704","1","3","","","","","","","true","","","","","","","","","",""
"instructions","3","235157","0.0-4.0","5b9b422307c6960001614c35","bdp_cybrbll","Tue Mar 28 2023 22:33:16 GMT-0400 (Eastern Daylight Time)","636704","1","3","[{""page_index"":0,""viewing_time"":222426}]","222427","","","","","","","","","","","","","","",""
"image-keyboard-response","4","238121","0.0-5.0-1.0","5b9b422307c6960001614c35","bdp_cybrbll","Tue Mar 28 2023 22:33:16 GMT-0400 (Eastern Daylight Time)","636704","1","3","","2960","","","","choice","","img/2to1/1.png","2","225","290","0.5","0.5","2","3","",""
"animation","5","239414","0.0-5.0-2.0","5b9b422307c6960001614c35","bdp_cybrbll","Tue Mar 28 2023 22:33:16 GMT-0400 (Eastern Daylight Time)","636704","1","3","","","","","","","","","","225","","","","2","3","[{""stimulus"":""img/2to3/1.png"",""time"":104},{""stimulus"":""img/2to3/2.png"",""time"":205},{""stimulus"":""img/2to3/3.png"",""time"":305},{""stimulus"":""img/2to3/4.png"",""time"":406},{""stimulus"":""img/2to3/5.png"",""time"":503},{""stimulus"":""img/2to3/6.png"",""time"":601},{""stimulus"":""img/2to3/7.png"",""time"":705},{""stimulus"":""img/2to3/8.png"",""time"":797},{""stimulus"":""img/2to3/9.png"",""time"":896},{""stimulus"":""img/2to3/10.png"",""time"":998},{""stimulus"":""img/2to3/11.png"",""time"":1094},{""stimulus"":""img/2to3/12.png"",""time"":1199}]","[]"
"image-keyboard-response","6","241298","0.0-5.0-1.1","5b9b422307c6960001614c35","bdp_cybrbll","Tue Mar 28 2023 22:33:16 GMT-0400 (Eastern Daylight Time)","636704","1","3","","null","","","","observe","","img/3to2/1.png","null","224","1869","0.5","0.5","3","1","",""
"animation","7","242594","0.0-5.0-2.1","5b9b422307c6960001614c35","bdp_cybrbll","Tue Mar 28 2023 22:33:16 GMT-0400 (Eastern Daylight Time)","636704","1","3","","","","","","","","","","224","","","","3","1","[{""stimulus"":""img/3to1/1.png"",""time"":111},{""stimulus"":""img/3to1/2.png"",""time"":206},{""stimulus"":""img/3to1/3.png"",""time"":303},{""stimulus"":""img/3to1/4.png"",""time"":408},{""stimulus"":""img/3to1/5.png"",""time"":500},{""stimulus"":""img/3to1/6.png"",""time"":599},{""stimulus"":""img/3to1/7.png"",""time"":703},{""stimulus"":""img/3to1/8.png"",""time"":797},{""stimulus"":""img/3to1/9.png"",""time"":901},{""stimulus"":""img/3to1/10.png"",""time"":999},{""stimulus"":""img/3to1/11.png"",""time"":1096},{""stimulus"":""img/3to1/12.png"",""time"":1197}]","[]"
"image-keyboard-response","8","243017","0.0-5.0-1.2","5b9b422307c6960001614c35","bdp_cybrbll","Tue Mar 28 2023 22:33:16 GMT-0400 (Eastern Daylight Time)","636704","1","3","","null","","","","observe","","img/1to3/1.png","null","223","417","0.5","0.5","1","2","",""
"animation","9","244314","0.0-5.0-2.2","5b9b422307c6960001614c35","bdp_cybrbll","Tue Mar 28 2023 22:33:16 GMT-0400 (Eastern Daylight Time)","636704","1","3","","","","","","","","","","223","","","","1","2","[{""stimulus"":""img/1to2/1.png"",""time"":104},{""stimulus"":""img/1to2/2.png"",""time"":207},{""stimulus"":""img/1to2/3.png"",""time"":301},{""stimulus"":""img/1to2/4.png"",""time"":407},{""stimulus"":""img/1to2/5.png"",""time"":503},{""stimulus"":""img/1to2/6.png"",""time"":598},{""stimulus"":""img/1to2/7.png"",""time"":703},{""stimulus"":""img/1to2/8.png"",""time"":798},{""stimulus"":""img/1to2/9.png"",""time"":897},{""stimulus"":""img/1to2/10.png"",""time"":1000},{""stimulus"":""img/1to2/11.png"",""time"":1097},{""stimulus"":""img/1to2/12.png"",""time"":1198}]","[]"
"image-keyboard-response","10","245025","0.0-5.0-1.3","5b9b422307c6960001614c35","bdp_cybrbll","Tue Mar 28 2023 22:33:16 GMT-0400 (Eastern Daylight Time)","636704","1","3","","709","","","","choice","","img/2to1/1.png","1","222","569","0.5","0.5","2","1","",""
"animation","11","246320","0.0-5.0-2.3","5b9b422307c6960001614c35","bdp_cybrbll","Tue Mar 28 2023 22:33:16 GMT-0400 (Eastern Daylight Time)","636704","1","3","","","","","","","","","","222","","","","2","1","[{""stimulus"":""img/2to1/1.png"",""time"":102},{""stimulus"":""img/2to1/2.png"",""time"":209},{""stimulus"":""img/2to1/3.png"",""time"":303},{""stimulus"":""img/2to1/4.png"",""time"":409},{""stimulus"":""img/2to1/5.png"",""time"":502},{""stimulus"":""img/2to1/6.png"",""time"":599},{""stimulus"":""img/2to1/7.png"",""time"":703},{""stimulus"":""img/2to1/8.png"",""time"":799},{""stimulus"":""img/2to1/9.png"",""time"":895},{""stimulus"":""img/2to1/10.png"",""time"":999},{""stimulus"":""img/2to1/11.png"",""time"":1092},{""stimulus"":""img/2to1/12.png"",""time"":1199}]","[]"
"image-keyboard-response","12","246680","0.0-5.0-1.4","5b9b422307c6960001614c35","bdp_cybrbll","Tue Mar 28 2023 22:33:16 GMT-0400 (Eastern Daylight Time)","636704","1","3","","null","","","","observe","","img/1to3/1.png","null","221","350","0.5","0.5","1","3","",""
"animation","13","247974","0.0-5.0-2.4","5b9b422307c6960001614c35","bdp_cybrbll","Tue Mar 28 2023 22:33:16 GMT-0400 (Eastern Daylight Time)","636704","1","3","","","","","","","","","","221","","","","1","3","[{""stimulus"":""img/1to3/1.png"",""time"":104},{""stimulus"":""img/1to3/2.png"",""time"":210},{""stimulus"":""img/1to3/3.png"",""time"":304},{""stimulus"":""img/1to3/4.png"",""time"":410},{""stimulus"":""img/1to3/5.png"",""time"":505},{""stimulus"":""img/1to3/6.png"",""time"":601},{""stimulus"":""img/1to3/7.png"",""time"":704},{""stimulus"":""img/1to3/8.png"",""time"":801},{""stimulus"":""img/1to3/9.png"",""time"":895},{""stimulus"":""img/1to3/10.png"",""time"":1002},{""stimulus"":""img/1to3/11.png"",""time"":1097},{""stimulus"":""img/1to3/12.png"",""time"":1202}]","[]"
"image-keyboard-response","14","248329","0.0-5.0-1.5","5b9b422307c6960001614c35","bdp_cybrbll","Tue Mar 28 2023 22:33:16 GMT-0400 (Eastern Daylight Time)","636704","1","3","","null","","","","observe","","img/3to2/1.png","null","220","345","0.5","0.5","3","1","",""
"animation","15","249624","0.0-5.0-2.5","5b9b422307c6960001614c35","bdp_cybrbll","Tue Mar 28 2023 22:33:16 GMT-0400 (Eastern Daylight Time)","636704","1","3","","","","","","","","","","220","","","","3","1","[{""stimulus"":""img/3to1/1.png"",""time"":105},{""stimulus"":""img/3to1/2.png"",""time"":209},{""stimulus"":""img/3to1/3.png"",""time"":303},{""stimulus"":""img/3to1/4.png"",""time"":405},{""stimulus"":""img/3to1/5.png"",""time"":503},{""stimulus"":""img/3to1/6.png"",""time"":597},{""stimulus"":""img/3to1/7.png"",""time"":703},{""stimulus"":""img/3to1/8.png"",""time"":801},{""stimulus"":""img/3to1/9.png"",""time"":893},{""stimulus"":""img/3to1/10.png"",""time"":997},{""stimulus"":""img/3to1/11.png"",""time"":1097},{""stimulus"":""img/3to1/12.png"",""time"":1197}]","[]"
"image-keyboard-response","16","249959","0.0-5.0-1.6","5b9b422307c6960001614c35","bdp_cybrbll","Tue Mar 28 2023 22:33:16 GMT-0400 (Eastern Daylight Time)","636704","1","3","","null","","","","observe","","img/1to3/1.png","null","219","325","0.5","0.5","1","3","",""
"animation","17","251254","0.0-5.0-2.6","5b9b422307c6960001614c35","bdp_cybrbll","Tue Mar 28 2023 22:33:16 GMT-0400 (Eastern Daylight Time)","636704","1","3","","","","","","","","","","219","","","","1","3","[{""stimulus"":""img/1to3/1.png"",""time"":105},{""stimulus"":""img/1to3/2.png"",""time"":210},{""stimulus"":""img/1to3/3.png"",""time"":306},{""stimulus"":""img/1to3/4.png"",""time"":402},{""stimulus"":""img/1to3/5.png"",""time"":505},{""stimulus"":""img/1to3/6.png"",""time"":599},{""stimulus"":""img/1to3/7.png"",""time"":698},{""stimulus"":""img/1to3/8.png"",""time"":802},{""stimulus"":""img/1to3/9.png"",""time"":898},{""stimulus"":""img/1to3/10.png"",""time"":999},{""stimulus"":""img/1to3/11.png"",""time"":1098},{""stimulus"":""img/1to3/12.png"",""time"":1191}]","[]"
"image-keyboard-response","18","251504","0.0-5.0-1.7","5b9b422307c6960001614c35","bdp_cybrbll","Tue Mar 28 2023 22:33:16 GMT-0400 (Eastern Daylight Time)","636704","1","3","","null","","","","observe","","img/3to2/1.png","null","218","243","0.5","0.5","3","2","",""
"animation","19","252798","0.0-5.0-2.7","5b9b422307c6960001614c35","bdp_cybrbll","Tue Mar 28 2023 22:33:16 GMT-0400 (Eastern Daylight Time)","636704","1","3","","","","","","","","","","218","","","","3","2","[{""stimulus"":""img/3to2/1.png"",""time"":105},{""stimulus"":""img/3to2/2.png"",""time"":209},{""stimulus"":""img/3to2/3.png"",""time"":303},{""stimulus"":""img/3to2/4.png"",""time"":400},{""stimulus"":""img/3to2/5.png"",""time"":505},{""stimulus"":""img/3to2/6.png"",""time"":600},{""stimulus"":""img/3to2/7.png"",""time"":703},{""stimulus"":""img/3to2/8.png"",""time"":800},{""stimulus"":""img/3to2/9.png"",""time"":895},{""stimulus"":""img/3to2/10.png"",""time"":1000},{""stimulus"":""img/3to2/11.png"",""time"":1098},{""stimulus"":""img/3to2/12.png"",""time"":1191}]","[]"
"image-keyboard-response","20","253574","0.0-5.0-1.8","5b9b422307c6960001614c35","bdp_cybrbll","Tue Mar 28 2023 22:33:16 GMT-0400 (Eastern Daylight Time)","636704","1","3","","774","","","","choice","","img/2to1/1.png","2","217","579","0.5","0.5","2","3","",""
"animation","21","254873","0.0-5.0-2.8","5b9b422307c6960001614c35","bdp_cybrbll","Tue Mar 28 2023 22:33:16 GMT-0400 (Eastern Daylight Time)","636704","1","3","","","","","","","","","","217","","","","2","3","[{""stimulus"":""img/2to3/1.png"",""time"":107},{""stimulus"":""img/2to3/2.png"",""time"":204},{""stimulus"":""img/2to3/3.png"",""time"":307},{""stimulus"":""img/2to3/4.png"",""time"":403},{""stimulus"":""img/2to3/5.png"",""time"":507},{""stimulus"":""img/2to3/6.png"",""time"":601},{""stimulus"":""img/2to3/7.png"",""time"":699},{""stimulus"":""img/2to3/8.png"",""time"":803},{""stimulus"":""img/2to3/9.png"",""time"":899},{""stimulus"":""img/2to3/10.png"",""time"":995},{""stimulus"":""img/2to3/11.png"",""time"":1099},{""stimulus"":""img/2to3/12.png"",""time"":1198}]","[]"
"image-keyboard-response","22","255254","0.0-5.0-1.9","5b9b422307c6960001614c35","bdp_cybrbll","Tue Mar 28 2023 22:33:16 GMT-0400 (Eastern Daylight Time)","636704","1","3","","null","","","","observe","","img/3to2/1.png","null","216","371","0.5","0.5","3","1","",""
"animation","23","256549","0.0-5.0-2.9","5b9b422307c6960001614c35","bdp_cybrbll","Tue Mar 28 2023 22:33:16 GMT-0400 (Eastern Daylight Time)","636704","1","3","","","","","","","","","","216","","","","3","1","[{""stimulus"":""img/3to1/1.png"",""time"":105},{""stimulus"":""img/3to1/2.png"",""time"":210},{""stimulus"":""img/3to1/3.png"",""time"":308},{""stimulus"":""img/3to1/4.png"",""time"":403},{""stimulus"":""img/3to1/5.png"",""time"":505},{""stimulus"":""img/3to1/6.png"",""time"":604},{""stimulus"":""img/3to1/7.png"",""time"":696},{""stimulus"":""img/3to1/8.png"",""time"":802},{""stimulus"":""img/3to1/9.png"",""time"":900},{""stimulus"":""img/3to1/10.png"",""time"":1000},{""stimulus"":""img/3to1/11.png"",""time"":1097},{""stimulus"":""img/3to1/12.png"",""time"":1196}]","[]"
"image-keyboard-response","24","257040","0.0-5.0-1.10","5b9b422307c6960001614c35","bdp_cybrbll","Tue Mar 28 2023 22:33:16 GMT-0400 (Eastern Daylight Time)","636704","1","3","","null","","","","observe","","img/1to3/1.png","null","215","484","0.5","0.5","1","3","",""
"animation","25","258336","0.0-5.0-2.10","5b9b422307c6960001614c35","bdp_cybrbll","Tue Mar 28 2023 22:33:16 GMT-0400 (Eastern Daylight Time)","636704","1","3","","","","","","","","","","215","","","","1","3","[{""stimulus"":""img/1to3/1.png"",""time"":104},{""stimulus"":""img/1to3/2.png"",""time"":208},{""stimulus"":""img/1to3/3.png"",""time"":304},{""stimulus"":""img/1to3/4.png"",""time"":400},{""stimulus"":""img/1to3/5.png"",""time"":504},{""stimulus"":""img/1to3/6.png"",""time"":600},{""stimulus"":""img/1to3/7.png"",""time"":704},{""stimulus"":""img/1to3/8.png"",""time"":800},{""stimulus"":""img/1to3/9.png"",""time"":896},{""stimulus"":""img/1to3/10.png"",""time"":1000},{""stimulus"":""img/1to3/11.png"",""time"":1094},{""stimulus"":""img/1to3/12.png"",""time"":1192}]","[]"
"image-keyboard-response","26","259232","0.0-5.0-1.11","5b9b422307c6960001614c35","bdp_cybrbll","Tue Mar 28 2023 22:33:16 GMT-0400 (Eastern Daylight Time)","636704","1","3","","null","","","","observe","","img/3to2/1.png","null","214","885","0.5","0.5","3","2","",""
"animation","27","260526","0.0-5.0-2.11","5b9b422307c6960001614c35","bdp_cybrbll","Tue Mar 28 2023 22:33:16 GMT-0400 (Eastern Daylight Time)","636704","1","3","","","","","","","","","","214","","","","3","2","[{""stimulus"":""img/3to2/1.png"",""time"":103},{""stimulus"":""img/3to2/2.png"",""time"":207},{""stimulus"":""img/3to2/3.png"",""time"":303},{""stimulus"":""img/3to2/4.png"",""time"":400},{""stimulus"":""img/3to2/5.png"",""time"":502},{""stimulus"":""img/3to2/6.png"",""time"":601},{""stimulus"":""img/3to2/7.png"",""time"":703},{""stimulus"":""img/3to2/8.png"",""time"":800},{""stimulus"":""img/3to2/9.png"",""time"":894},{""stimulus"":""img/3to2/10.png"",""time"":1000},{""stimulus"":""img/3to2/11.png"",""time"":1096},{""stimulus"":""img/3to2/12.png"",""time"":1192}]","[]"
"image-keyboard-response","28","261163","0.0-5.0-1.12","5b9b422307c6960001614c35","bdp_cybrbll","Tue Mar 28 2023 22:33:16 GMT-0400 (Eastern Daylight Time)","636704","1","3","","636","","","","choice","","img/2to1/1.png","2","213","246","0.5","0.5","2","3","",""
"animation","29","262454","0.0-5.0-2.12","5b9b422307c6960001614c35","bdp_cybrbll","Tue Mar 28 2023 22:33:16 GMT-0400 (Eastern Daylight Time)","636704","1","3","","","","","","","","","","213","","","","2","3","[{""stimulus"":""img/2to3/1.png"",""time"":101},{""stimulus"":""img/2to3/2.png"",""time"":203},{""stimulus"":""img/2to3/3.png"",""time"":310},{""stimulus"":""img/2to3/4.png"",""time"":402},{""stimulus"":""img/2to3/5.png"",""time"":502},{""stimulus"":""img/2to3/6.png"",""time"":603},{""stimulus"":""img/2to3/7.png"",""time"":702},{""stimulus"":""img/2to3/8.png"",""time"":795},{""stimulus"":""img/2to3/9.png"",""time"":902},{""stimulus"":""img/2to3/10.png"",""time"":995},{""stimulus"":""img/2to3/11.png"",""time"":1101},{""stimulus"":""img/2to3/12.png"",""time"":1196}]","[]"
"image-keyboard-response","30","262777","0.0-5.0-1.13","5b9b422307c6960001614c35","bdp_cybrbll","Tue Mar 28 2023 22:33:16 GMT-0400 (Eastern Daylight Time)","636704","1","3","","null","","","","observe","","img/3to2/1.png","null","212","311","0.5","0.5","3","1","",""
"animation","31","264073","0.0-5.0-2.13","5b9b422307c6960001614c35","bdp_cybrbll","Tue Mar 28 2023 22:33:16 GMT-0400 (Eastern Daylight Time)","636704","1","3","","","","","","","","","","212","","","","3","1","[{""stimulus"":""img/3to1/1.png"",""time"":113},{""stimulus"":""img/3to1/2.png"",""time"":207},{""stimulus"":""img/3to1/3.png"",""time"":305},{""stimulus"":""img/3to1/4.png"",""time"":407},{""stimulus"":""img/3to1/5.png"",""time"":496},{""stimulus"":""img/3to1/6.png"",""time"":597},{""stimulus"":""img/3to1/7.png"",""time"":704},{""stimulus"":""img/3to1/8.png"",""time"":797},{""stimulus"":""img/3to1/9.png"",""time"":904},{""stimulus"":""img/3to1/10.png"",""time"":1000},{""stimulus"":""img/3to1/11.png"",""time"":1096},{""stimulus"":""img/3to1/12.png"",""time"":1199}]","[]"
"image-keyboard-response","32","264565","0.0-5.0-1.14","5b9b422307c6960001614c35","bdp_cybrbll","Tue Mar 28 2023 22:33:16 GMT-0400 (Eastern Daylight Time)","636704","1","3","","null","","","","observe","","img/1to3/1.png","null","211","488","0.5","0.5","1","2","",""
"animation","33","265865","0.0-5.0-2.14","5b9b422307c6960001614c35","bdp_cybrbll","Tue Mar 28 2023 22:33:16 GMT-0400 (Eastern Daylight Time)","636704","1","3","","","","","","","","","","211","","","","1","2","[{""stimulus"":""img/1to2/1.png"",""time"":104},{""stimulus"":""img/1to2/2.png"",""time"":203},{""stimulus"":""img/1to2/3.png"",""time"":308},{""stimulus"":""img/1to2/4.png"",""time"":400},{""stimulus"":""img/1to2/5.png"",""time"":508},{""stimulus"":""img/1to2/6.png"",""time"":604},{""stimulus"":""img/1to2/7.png"",""time"":700},{""stimulus"":""img/1to2/8.png"",""time"":800},{""stimulus"":""img/1to2/9.png"",""time"":900},{""stimulus"":""img/1to2/10.png"",""time"":993},{""stimulus"":""img/1to2/11.png"",""time"":1099},{""stimulus"":""img/1to2/12.png"",""time"":1196}]","[]"
"image-keyboard-response","34","266233","0.0-5.0-1.15","5b9b422307c6960001614c35","bdp_cybrbll","Tue Mar 28 2023 22:33:16 GMT-0400 (Eastern Daylight Time)","636704","1","3","","367","","","","choice","","img/2to1/1.png","1","210","317","0.5","0.5","2","1","",""
"animation","35","267525","0.0-5.0-2.15","5b9b422307c6960001614c35","bdp_cybrbll","Tue Mar 28 2023 22:33:16 GMT-0400 (Eastern Daylight Time)","636704","1","3","","","","","","","","","","210","","","","2","1","[{""stimulus"":""img/2to1/1.png"",""time"":110},{""stimulus"":""img/2to1/2.png"",""time"":206},{""stimulus"":""img/2to1/3.png"",""time"":300},{""stimulus"":""img/2to1/4.png"",""time"":404},{""stimulus"":""img/2to1/5.png"",""time"":502},{""stimulus"":""img/2to1/6.png"",""time"":598},{""stimulus"":""img/2to1/7.png"",""time"":702},{""stimulus"":""img/2to1/8.png"",""time"":798},{""stimulus"":""img/2to1/9.png"",""time"":903},{""stimulus"":""img/2to1/10.png"",""time"":998},{""stimulus"":""img/2to1/11.png"",""time"":1094},{""stimulus"":""img/2to1/12.png"",""time"":1198}]","[]"
"image-keyboard-response","36","268223","0.0-5.0-1.16","5b9b422307c6960001614c35","bdp_cybrbll","Tue Mar 28 2023 22:33:16 GMT-0400 (Eastern Daylight Time)","636704","1","3","","null","","","","observe","","img/1to3/1.png","null","209","691","0.5","0.5","1","3","",""
"animation","37","269517","0.0-5.0-2.16","5b9b422307c6960001614c35","bdp_cybrbll","Tue Mar 28 2023 22:33:16 GMT-0400 (Eastern Daylight Time)","636704","1","3","","","","","","","","","","209","","","","1","3","[{""stimulus"":""img/1to3/1.png"",""time"":103},{""stimulus"":""img/1to3/2.png"",""time"":208},{""stimulus"":""img/1to3/3.png"",""time"":302},{""stimulus"":""img/1to3/4.png"",""time"":400},{""stimulus"":""img/1to3/5.png"",""time"":502},{""stimulus"":""img/1to3/6.png"",""time"":600},{""stimulus"":""img/1to3/7.png"",""time"":701},{""stimulus"":""img/1to3/8.png"",""time"":800},{""stimulus"":""img/1to3/9.png"",""time"":894},{""stimulus"":""img/1to3/10.png"",""time"":1000},{""stimulus"":""img/1to3/11.png"",""time"":1095},{""stimulus"":""img/1to3/12.png"",""time"":1190}]","[]"
"image-keyboard-response","38","270150","0.0-5.0-1.17","5b9b422307c6960001614c35","bdp_cybrbll","Tue Mar 28 2023 22:33:16 GMT-0400 (Eastern Daylight Time)","636704","1","3","","null","","","","observe","","img/3to2/1.png","null","208","627","0.5","0.5","3","1","",""
"animation","39","271448","0.0-5.0-2.17","5b9b422307c6960001614c35","bdp_cybrbll","Tue Mar 28 2023 22:33:16 GMT-0400 (Eastern Daylight Time)","636704","1","3","","","","","","","","","","208","","","","3","1","[{""stimulus"":""img/3to1/1.png"",""time"":105},{""stimulus"":""img/3to1/2.png"",""time"":208},{""stimulus"":""img/3to1/3.png"",""time"":307},{""stimulus"":""img/3to1/4.png"",""time"":400},{""stimulus"":""img/3to1/5.png"",""time"":504},{""stimulus"":""img/3to1/6.png"",""time"":603},{""stimulus"":""img/3to1/7.png"",""time"":699},{""stimulus"":""img/3to1/8.png"",""time"":800},{""stimulus"":""img/3to1/9.png"",""time"":899},{""stimulus"":""img/3to1/10.png"",""time"":1000},{""stimulus"":""img/3to1/11.png"",""time"":1099},{""stimulus"":""img/3to1/12.png"",""time"":1194}]","[]"
"image-keyboard-response","40","271777","0.0-5.0-1.18","5b9b422307c6960001614c35","bdp_cybrbll","Tue Mar 28 2023 22:33:16 GMT-0400 (Eastern Daylight Time)","636704","1","3","","null","","","","observe","","img/1to3/1.png","null","207","321","0.5","0.5","1","3","",""
"animation","41","273073","0.0-5.0-2.18","5b9b422307c6960001614c35","bdp_cybrbll","Tue Mar 28 2023 22:33:16 GMT-0400 (Eastern Daylight Time)","636704","1","3","","","","","","","","","","207","","","","1","3","[{""stimulus"":""img/1to3/1.png"",""time"":113},{""stimulus"":""img/1to3/2.png"",""time"":207},{""stimulus"":""img/1to3/3.png"",""time"":304},{""stimulus"":""img/1to3/4.png"",""time"":407},{""stimulus"":""img/1to3/5.png"",""time"":504},{""stimulus"":""img/1to3/6.png"",""time"":597},{""stimulus"":""img/1to3/7.png"",""time"":704},{""stimulus"":""img/1to3/8.png"",""time"":799},{""stimulus"":""img/1to3/9.png"",""time"":904},{""stimulus"":""img/1to3/10.png"",""time"":1000},{""stimulus"":""img/1to3/11.png"",""time"":1096},{""stimulus"":""img/1to3/12.png"",""time"":1200}]","[]"
"image-keyboard-response","42","273263","0.0-5.0-1.19","5b9b422307c6960001614c35","bdp_cybrbll","Tue Mar 28 2023 22:33:16 GMT-0400 (Eastern Daylight Time)","636704","1","3","","null","","","","observe","","img/3to2/1.png","null","206","180","0.5","0.5","3","1","",""
"animation","43","274561","0.0-5.0-2.19","5b9b422307c6960001614c35","bdp_cybrbll","Tue Mar 28 2023 22:33:16 GMT-0400 (Eastern Daylight Time)","636704","1","3","","","","","","","","","","206","","","","3","1","[{""stimulus"":""img/3to1/1.png"",""time"":101},{""stimulus"":""img/3to1/2.png"",""time"":209},{""stimulus"":""img/3to1/3.png"",""time"":305},{""stimulus"":""img/3to1/4.png"",""time"":398},{""stimulus"":""img/3to1/5.png"",""time"":501},{""stimulus"":""img/3to1/6.png"",""time"":601},{""stimulus"":""img/3to1/7.png"",""time"":705},{""stimulus"":""img/3to1/8.png"",""time"":801},{""stimulus"":""img/3to1/9.png"",""time"":897},{""stimulus"":""img/3to1/10.png"",""time"":1001},{""stimulus"":""img/3to1/11.png"",""time"":1094},{""stimulus"":""img/3to1/12.png"",""time"":1193}]","[]"
"image-keyboard-response","44","275463","0.0-5.0-1.20","5b9b422307c6960001614c35","bdp_cybrbll","Tue Mar 28 2023 22:33:16 GMT-0400 (Eastern Daylight Time)","636704","1","3","","null","","","","observe","","img/1to3/1.png","null","205","897","0.5","0.5","1","3","",""
"animation","45","276761","0.0-5.0-2.20","5b9b422307c6960001614c35","bdp_cybrbll","Tue Mar 28 2023 22:33:16 GMT-0400 (Eastern Daylight Time)","636704","1","3","","","","","","","","","","205","","","","1","3","[{""stimulus"":""img/1to3/1.png"",""time"":101},{""stimulus"":""img/1to3/2.png"",""time"":201},{""stimulus"":""img/1to3/3.png"",""time"":305},{""stimulus"":""img/1to3/4.png"",""time"":401},{""stimulus"":""img/1to3/5.png"",""time"":502},{""stimulus"":""img/1to3/6.png"",""time"":601},{""stimulus"":""img/1to3/7.png"",""time"":705},{""stimulus"":""img/1to3/8.png"",""time"":801},{""stimulus"":""img/1to3/9.png"",""time"":897},{""stimulus"":""img/1to3/10.png"",""time"":1001},{""stimulus"":""img/1to3/11.png"",""time"":1094},{""stimulus"":""img/1to3/12.png"",""time"":1193}]","[]"
"image-keyboard-response","46","277556","0.0-5.0-1.21","5b9b422307c6960001614c35","bdp_cybrbll","Tue Mar 28 2023 22:33:16 GMT-0400 (Eastern Daylight Time)","636704","1","3","","null","","","","observe","","img/3to2/1.png","null","204","789","0.5","0.5","3","1","",""
"animation","47","278848","0.0-5.0-2.21","5b9b422307c6960001614c35","bdp_cybrbll","Tue Mar 28 2023 22:33:16 GMT-0400 (Eastern Daylight Time)","636704","1","3","","","","","","","","","","204","","","","3","1","[{""stimulus"":""img/3to1/1.png"",""time"":108},{""stimulus"":""img/3to1/2.png"",""time"":204},{""stimulus"":""img/3to1/3.png"",""time"":309},{""stimulus"":""img/3to1/4.png"",""time"":402},{""stimulus"":""img/3to1/5.png"",""time"":500},{""stimulus"":""img/3to1/6.png"",""time"":604},{""stimulus"":""img/3to1/7.png"",""time"":698},{""stimulus"":""img/3to1/8.png"",""time"":801},{""stimulus"":""img/3to1/9.png"",""time"":900},{""stimulus"":""img/3to1/10.png"",""time"":994},{""stimulus"":""img/3to1/11.png"",""time"":1101},{""stimulus"":""img/3to1/12.png"",""time"":1197}]","[]"
"image-keyboard-response","48","279486","0.0-5.0-1.22","5b9b422307c6960001614c35","bdp_cybrbll","Tue Mar 28 2023 22:33:16 GMT-0400 (Eastern Daylight Time)","636704","1","3","","null","","","","observe","","img/1to3/1.png","null","203","621","0.5","0.5","1","2","",""
"animation","49","280783","0.0-5.0-2.22","5b9b422307c6960001614c35","bdp_cybrbll","Tue Mar 28 2023 22:33:16 GMT-0400 (Eastern Daylight Time)","636704","1","3","","","","","","","","","","203","","","","1","2","[{""stimulus"":""img/1to2/1.png"",""time"":103},{""stimulus"":""img/1to2/2.png"",""time"":207},{""stimulus"":""img/1to2/3.png"",""time"":304},{""stimulus"":""img/1to2/4.png"",""time"":403},{""stimulus"":""img/1to2/5.png"",""time"":503},{""stimulus"":""img/1to2/6.png"",""time"":603},{""stimulus"":""img/1to2/7.png"",""time"":697},{""stimulus"":""img/1to2/8.png"",""time"":802},{""stimulus"":""img/1to2/9.png"",""time"":896},{""stimulus"":""img/1to2/10.png"",""time"":1003},{""stimulus"":""img/1to2/11.png"",""time"":1097},{""stimulus"":""img/1to2/12.png"",""time"":1194}]","[]"
"image-keyboard-response","50","281014","0.0-5.0-1.23","5b9b422307c6960001614c35","bdp_cybrbll","Tue Mar 28 2023 22:33:16 GMT-0400 (Eastern Daylight Time)","636704","1","3","","229","","","","choice","","img/2to1/1.png","2","202","739","0.5","0.5","2","3","",""
"animation","51","282310","0.0-5.0-2.23","5b9b422307c6960001614c35","bdp_cybrbll","Tue Mar 28 2023 22:33:16 GMT-0400 (Eastern Daylight Time)","636704","1","3","","","","","","","","","","202","","","","2","3","[{""stimulus"":""img/2to3/1.png"",""time"":106},{""stimulus"":""img/2to3/2.png"",""time"":210},{""stimulus"":""img/2to3/3.png"",""time"":306},{""stimulus"":""img/2to3/4.png"",""time"":402},{""stimulus"":""img/2to3/5.png"",""time"":506},{""stimulus"":""img/2to3/6.png"",""time"":599},{""stimulus"":""img/2to3/7.png"",""time"":698},{""stimulus"":""img/2to3/8.png"",""time"":803},{""stimulus"":""img/2to3/9.png"",""time"":895},{""stimulus"":""img/2to3/10.png"",""time"":999},{""stimulus"":""img/2to3/11.png"",""time"":1098},{""stimulus"":""img/2to3/12.png"",""time"":1191}]","[]"
"image-keyboard-response","52","282848","0.0-5.0-1.24","5b9b422307c6960001614c35","bdp_cybrbll","Tue Mar 28 2023 22:33:16 GMT-0400 (Eastern Daylight Time)","636704","1","3","","null","","","","observe","","img/3to2/1.png","null","201","530","0.5","0.5","3","1","",""
"animation","53","284145","0.0-5.0-2.24","5b9b422307c6960001614c35","bdp_cybrbll","Tue Mar 28 2023 22:33:16 GMT-0400 (Eastern Daylight Time)","636704","1","3","","","","","","","","","","201","","","","3","1","[{""stimulus"":""img/3to1/1.png"",""time"":102},{""stimulus"":""img/3to1/2.png"",""time"":206},{""stimulus"":""img/3to1/3.png"",""time"":305},{""stimulus"":""img/3to1/4.png"",""time"":409},{""stimulus"":""img/3to1/5.png"",""time"":502},{""stimulus"":""img/3to1/6.png"",""time"":601},{""stimulus"":""img/3to1/7.png"",""time"":705},{""stimulus"":""img/3to1/8.png"",""time"":801},{""stimulus"":""img/3to1/9.png"",""time"":896},{""stimulus"":""img/3to1/10.png"",""time"":1001},{""stimulus"":""img/3to1/11.png"",""time"":1096},{""stimulus"":""img/3to1/12.png"",""time"":1201}]","[]"
"image-keyboard-response","54","284750","0.0-5.0-1.25","5b9b422307c6960001614c35","bdp_cybrbll","Tue Mar 28 2023 22:33:16 GMT-0400 (Eastern Daylight Time)","636704","1","3","","null","","","","observe","","img/1to3/1.png","null","200","599","0.5","0.5","1","3","",""
"animation","55","286048","0.0-5.0-2.25","5b9b422307c6960001614c35","bdp_cybrbll","Tue Mar 28 2023 22:33:16 GMT-0400 (Eastern Daylight Time)","636704","1","3","","","","","","","","","","200","","","","1","3","[{""stimulus"":""img/1to3/1.png"",""time"":107},{""stimulus"":""img/1to3/2.png"",""time"":210},{""stimulus"":""img/1to3/3.png"",""time"":307},{""stimulus"":""img/1to3/4.png"",""time"":400},{""stimulus"":""img/1to3/5.png"",""time"":504},{""stimulus"":""img/1to3/6.png"",""time"":603},{""stimulus"":""img/1to3/7.png"",""time"":698},{""stimulus"":""img/1to3/8.png"",""time"":800},{""stimulus"":""img/1to3/9.png"",""time"":898},{""stimulus"":""img/1to3/10.png"",""time"":1003},{""stimulus"":""img/1to3/11.png"",""time"":1098},{""stimulus"":""img/1to3/12.png"",""time"":1194}]","[]"
"image-keyboard-response","56","286664","0.0-5.0-1.26","5b9b422307c6960001614c35","bdp_cybrbll","Tue Mar 28 2023 22:33:16 GMT-0400 (Eastern Daylight Time)","636704","1","3","","null","","","","observe","","img/3to2/1.png","null","199","607","0.5","0.5","3","1","",""
"animation","57","287958","0.0-5.0-2.26","5b9b422307c6960001614c35","bdp_cybrbll","Tue Mar 28 2023 22:33:16 GMT-0400 (Eastern Daylight Time)","636704","1","3","","","","","","","","","","199","","","","3","1","[{""stimulus"":""img/3to1/1.png"",""time"":105},{""stimulus"":""img/3to1/2.png"",""time"":209},{""stimulus"":""img/3to1/3.png"",""time"":302},{""stimulus"":""img/3to1/4.png"",""time"":401},{""stimulus"":""img/3to1/5.png"",""time"":506},{""stimulus"":""img/3to1/6.png"",""time"":601},{""stimulus"":""img/3to1/7.png"",""time"":697},{""stimulus"":""img/3to1/8.png"",""time"":801},{""stimulus"":""img/3to1/9.png"",""time"":894},{""stimulus"":""img/3to1/10.png"",""time"":1000},{""stimulus"":""img/3to1/11.png"",""time"":1094},{""stimulus"":""img/3to1/12.png"",""time"":1192}]","[]"
"image-keyboard-response","58","288406","0.0-5.0-1.27","5b9b422307c6960001614c35","bdp_cybrbll","Tue Mar 28 2023 22:33:16 GMT-0400 (Eastern Daylight Time)","636704","1","3","","null","","","","observe","","img/1to3/1.png","null","198","443","0.5","0.5","1","3","",""
"animation","59","289703","0.0-5.0-2.27","5b9b422307c6960001614c35","bdp_cybrbll","Tue Mar 28 2023 22:33:16 GMT-0400 (Eastern Daylight Time)","636704","1","3","","","","","","","","","","198","","","","1","3","[{""stimulus"":""img/1to3/1.png"",""time"":104},{""stimulus"":""img/1to3/2.png"",""time"":203},{""stimulus"":""img/1to3/3.png"",""time"":304},{""stimulus"":""img/1to3/4.png"",""time"":400},{""stimulus"":""img/1to3/5.png"",""time"":504},{""stimulus"":""img/1to3/6.png"",""time"":600},{""stimulus"":""img/1to3/7.png"",""time"":698},{""stimulus"":""img/1to3/8.png"",""time"":800},{""stimulus"":""img/1to3/9.png"",""time"":898},{""stimulus"":""img/1to3/10.png"",""time"":995},{""stimulus"":""img/1to3/11.png"",""time"":1098},{""stimulus"":""img/1to3/12.png"",""time"":1192}]","[]"
"image-keyboard-response","60","290623","0.0-5.0-1.28","5b9b422307c6960001614c35","bdp_cybrbll","Tue Mar 28 2023 22:33:16 GMT-0400 (Eastern Daylight Time)","636704","1","3","","null","","","","observe","","img/3to2/1.png","null","197","911","0.5","0.5","3","1","",""
"animation","61","291917","0.0-5.0-2.28","5b9b422307c6960001614c35","bdp_cybrbll","Tue Mar 28 2023 22:33:16 GMT-0400 (Eastern Daylight Time)","636704","1","3","","","","","","","","","","197","","","","3","1","[{""stimulus"":""img/3to1/1.png"",""time"":104},{""stimulus"":""img/3to1/2.png"",""time"":208},{""stimulus"":""img/3to1/3.png"",""time"":301},{""stimulus"":""img/3to1/4.png"",""time"":400},{""stimulus"":""img/3to1/5.png"",""time"":505},{""stimulus"":""img/3to1/6.png"",""time"":600},{""stimulus"":""img/3to1/7.png"",""time"":702},{""stimulus"":""img/3to1/8.png"",""time"":800},{""stimulus"":""img/3to1/9.png"",""time"":893},{""stimulus"":""img/3to1/10.png"",""time"":1000},{""stimulus"":""img/3to1/11.png"",""time"":1097},{""stimulus"":""img/3to1/12.png"",""time"":1191}]","[]"
"image-keyboard-response","62","292069","0.0-5.0-1.29","5b9b422307c6960001614c35","bdp_cybrbll","Tue Mar 28 2023 22:33:16 GMT-0400 (Eastern Daylight Time)","636704","1","3","","null","","","","observe","","img/1to3/1.png","null","196","149","0.5","0.5","1","2","",""
"animation","63","293369","0.0-5.0-2.29","5b9b422307c6960001614c35","bdp_cybrbll","Tue Mar 28 2023 22:33:16 GMT-0400 (Eastern Daylight Time)","636704","1","3","","","","","","","","","","196","","","","1","2","[{""stimulus"":""img/1to2/1.png"",""time"":106},{""stimulus"":""img/1to2/2.png"",""time"":204},{""stimulus"":""img/1to2/3.png"",""time"":308},{""stimulus"":""img/1to2/4.png"",""time"":404},{""stimulus"":""img/1to2/5.png"",""time"":505},{""stimulus"":""img/1to2/6.png"",""time"":604},{""stimulus"":""img/1to2/7.png"",""time"":696},{""stimulus"":""img/1to2/8.png"",""time"":804},{""stimulus"":""img/1to2/9.png"",""time"":900},{""stimulus"":""img/1to2/10.png"",""time"":996},{""stimulus"":""img/1to2/11.png"",""time"":1096},{""stimulus"":""img/1to2/12.png"",""time"":1196}]","[]"
"image-keyboard-response","64","293504","0.0-5.0-1.30","5b9b422307c6960001614c35","bdp_cybrbll","Tue Mar 28 2023 22:33:16 GMT-0400 (Eastern Daylight Time)","636704","1","3","","134","","","","choice","","img/2to1/1.png","2","195","163","0.5","0.5","2","3","",""
"animation","65","294797","0.0-5.0-2.30","5b9b422307c6960001614c35","bdp_cybrbll","Tue Mar 28 2023 22:33:16 GMT-0400 (Eastern Daylight Time)","636704","1","3","","","","","","","","","","195","","","","2","3","[{""stimulus"":""img/2to3/1.png"",""time"":104},{""stimulus"":""img/2to3/2.png"",""time"":208},{""stimulus"":""img/2to3/3.png"",""time"":302},{""stimulus"":""img/2to3/4.png"",""time"":405},{""stimulus"":""img/2to3/5.png"",""time"":504},{""stimulus"":""img/2to3/6.png"",""time"":600},{""stimulus"":""img/2to3/7.png"",""time"":702},{""stimulus"":""img/2to3/8.png"",""time"":800},{""stimulus"":""img/2to3/9.png"",""time"":895},{""stimulus"":""img/2to3/10.png"",""time"":1000},{""stimulus"":""img/2to3/11.png"",""time"":1096},{""stimulus"":""img/2to3/12.png"",""time"":1200}]","[]"
"image-keyboard-response","66","295592","0.0-5.0-1.31","5b9b422307c6960001614c35","bdp_cybrbll","Tue Mar 28 2023 22:33:16 GMT-0400 (Eastern Daylight Time)","636704","1","3","","null","","","","observe","","img/3to2/1.png","null","194","783","0.5","0.5","3","2","",""
"animation","67","296886","0.0-5.0-2.31","5b9b422307c6960001614c35","bdp_cybrbll","Tue Mar 28 2023 22:33:16 GMT-0400 (Eastern Daylight Time)","636704","1","3","","","","","","","","","","194","","","","3","2","[{""stimulus"":""img/3to2/1.png"",""time"":104},{""stimulus"":""img/3to2/2.png"",""time"":205},{""stimulus"":""img/3to2/3.png"",""time"":301},{""stimulus"":""img/3to2/4.png"",""time"":405},{""stimulus"":""img/3to2/5.png"",""time"":501},{""stimulus"":""img/3to2/6.png"",""time"":600},{""stimulus"":""img/3to2/7.png"",""time"":701},{""stimulus"":""img/3to2/8.png"",""time"":797},{""stimulus"":""img/3to2/9.png"",""time"":893},{""stimulus"":""img/3to2/10.png"",""time"":998},{""stimulus"":""img/3to2/11.png"",""time"":1093},{""stimulus"":""img/3to2/12.png"",""time"":1197}]","[]"
"image-keyboard-response","68","297132","0.0-5.0-1.32","5b9b422307c6960001614c35","bdp_cybrbll","Tue Mar 28 2023 22:33:16 GMT-0400 (Eastern Daylight Time)","636704","1","3","","244","","","","choice","","img/2to1/1.png","1","193","610","0.5","0.5","2","1","",""
"animation","69","298425","0.0-5.0-2.32","5b9b422307c6960001614c35","bdp_cybrbll","Tue Mar 28 2023 22:33:16 GMT-0400 (Eastern Daylight Time)","636704","1","3","","","","","","","","","","193","","","","2","1","[{""stimulus"":""img/2to1/1.png"",""time"":109},{""stimulus"":""img/2to1/2.png"",""time"":202},{""stimulus"":""img/2to1/3.png"",""time"":307},{""stimulus"":""img/2to1/4.png"",""time"":405},{""stimulus"":""img/2to1/5.png"",""time"":500},{""stimulus"":""img/2to1/6.png"",""time"":604},{""stimulus"":""img/2to1/7.png"",""time"":701},{""stimulus"":""img/2to1/8.png"",""time"":794},{""stimulus"":""img/2to1/9.png"",""time"":900},{""stimulus"":""img/2to1/10.png"",""time"":997},{""stimulus"":""img/2to1/11.png"",""time"":1100},{""stimulus"":""img/2to1/12.png"",""time"":1194}]","[]"
"image-keyboard-response","70","298886","0.0-5.0-1.33","5b9b422307c6960001614c35","bdp_cybrbll","Tue Mar 28 2023 22:33:16 GMT-0400 (Eastern Daylight Time)","636704","1","3","","null","","","","observe","","img/1to3/1.png","null","192","450","0.5","0.5","1","2","",""
"animation","71","300183","0.0-5.0-2.33","5b9b422307c6960001614c35","bdp_cybrbll","Tue Mar 28 2023 22:33:16 GMT-0400 (Eastern Daylight Time)","636704","1","3","","","","","","","","","","192","","","","1","2","[{""stimulus"":""img/1to2/1.png"",""time"":103},{""stimulus"":""img/1to2/2.png"",""time"":211},{""stimulus"":""img/1to2/3.png"",""time"":307},{""stimulus"":""img/1to2/4.png"",""time"":400},{""stimulus"":""img/1to2/5.png"",""time"":503},{""stimulus"":""img/1to2/6.png"",""time"":602},{""stimulus"":""img/1to2/7.png"",""time"":698},{""stimulus"":""img/1to2/8.png"",""time"":799},{""stimulus"":""img/1to2/9.png"",""time"":898},{""stimulus"":""img/1to2/10.png"",""time"":1002},{""stimulus"":""img/1to2/11.png"",""time"":1098},{""stimulus"":""img/1to2/12.png"",""time"":1195}]","[]"
"image-keyboard-response","72","300433","0.0-5.0-1.34","5b9b422307c6960001614c35","bdp_cybrbll","Tue Mar 28 2023 22:33:16 GMT-0400 (Eastern Daylight Time)","636704","1","3","","248","","","","choice","","img/2to1/1.png","2","191","335","0.5","0.5","2","3","",""
"animation","73","301728","0.0-5.0-2.34","5b9b422307c6960001614c35","bdp_cybrbll","Tue Mar 28 2023 22:33:16 GMT-0400 (Eastern Daylight Time)","636704","1","3","","","","","","","","","","191","","","","2","3","[{""stimulus"":""img/2to3/1.png"",""time"":111},{""stimulus"":""img/2to3/2.png"",""time"":207},{""stimulus"":""img/2to3/3.png"",""time"":303},{""stimulus"":""img/2to3/4.png"",""time"":405},{""stimulus"":""img/2to3/5.png"",""time"":501},{""stimulus"":""img/2to3/6.png"",""time"":599},{""stimulus"":""img/2to3/7.png"",""time"":703},{""stimulus"":""img/2to3/8.png"",""time"":798},{""stimulus"":""img/2to3/9.png"",""time"":901},{""stimulus"":""img/2to3/10.png"",""time"":999},{""stimulus"":""img/2to3/11.png"",""time"":1092},{""stimulus"":""img/2to3/12.png"",""time"":1199}]","[]"
"image-keyboard-response","74","302048","0.0-5.0-1.35","5b9b422307c6960001614c35","bdp_cybrbll","Tue Mar 28 2023 22:33:16 GMT-0400 (Eastern Daylight Time)","636704","1","3","","null","","","","observe","","img/3to2/1.png","null","190","309","0.5","0.5","3","2","",""
"animation","75","303343","0.0-5.0-2.35","5b9b422307c6960001614c35","bdp_cybrbll","Tue Mar 28 2023 22:33:16 GMT-0400 (Eastern Daylight Time)","636704","1","3","","","","","","","","","","190","","","","3","2","[{""stimulus"":""img/3to2/1.png"",""time"":103},{""stimulus"":""img/3to2/2.png"",""time"":209},{""stimulus"":""img/3to2/3.png"",""time"":302},{""stimulus"":""img/3to2/4.png"",""time"":406},{""stimulus"":""img/3to2/5.png"",""time"":504},{""stimulus"":""img/3to2/6.png"",""time"":600},{""stimulus"":""img/3to2/7.png"",""time"":702},{""stimulus"":""img/3to2/8.png"",""time"":798},{""stimulus"":""img/3to2/9.png"",""time"":896},{""stimulus"":""img/3to2/10.png"",""time"":1000},{""stimulus"":""img/3to2/11.png"",""time"":1096},{""stimulus"":""img/3to2/12.png"",""time"":1201}]","[]"
"image-keyboard-response","76","303433","0.0-5.0-1.36","5b9b422307c6960001614c35","bdp_cybrbll","Tue Mar 28 2023 22:33:16 GMT-0400 (Eastern Daylight Time)","636704","1","3","","88","","","","choice","","img/2to1/1.png","1","189","853","0.5","0.5","2","1","",""
"animation","77","304725","0.0-5.0-2.36","5b9b422307c6960001614c35","bdp_cybrbll","Tue Mar 28 2023 22:33:16 GMT-0400 (Eastern Daylight Time)","636704","1","3","","","","","","","","","","189","","","","2","1","[{""stimulus"":""img/2to1/1.png"",""time"":105},{""stimulus"":""img/2to1/2.png"",""time"":205},{""stimulus"":""img/2to1/3.png"",""time"":304},{""stimulus"":""img/2to1/4.png"",""time"":408},{""stimulus"":""img/2to1/5.png"",""time"":501},{""stimulus"":""img/2to1/6.png"",""time"":600},{""stimulus"":""img/2to1/7.png"",""time"":704},{""stimulus"":""img/2to1/8.png"",""time"":799},{""stimulus"":""img/2to1/9.png"",""time"":901},{""stimulus"":""img/2to1/10.png"",""time"":998},{""stimulus"":""img/2to1/11.png"",""time"":1093},{""stimulus"":""img/2to1/12.png"",""time"":1199}]","[]"
"image-keyboard-response","78","304934","0.0-5.0-1.37","5b9b422307c6960001614c35","bdp_cybrbll","Tue Mar 28 2023 22:33:16 GMT-0400 (Eastern Daylight Time)","636704","1","3","","null","","","","observe","","img/1to3/1.png","null","188","200","0.5","0.5","1","2","",""
"animation","79","306233","0.0-5.0-2.37","5b9b422307c6960001614c35","bdp_cybrbll","Tue Mar 28 2023 22:33:16 GMT-0400 (Eastern Daylight Time)","636704","1","3","","","","","","","","","","188","","","","1","2","[{""stimulus"":""img/1to2/1.png"",""time"":103},{""stimulus"":""img/1to2/2.png"",""time"":210},{""stimulus"":""img/1to2/3.png"",""time"":306},{""stimulus"":""img/1to2/4.png"",""time"":400},{""stimulus"":""img/1to2/5.png"",""time"":498},{""stimulus"":""img/1to2/6.png"",""time"":602},{""stimulus"":""img/1to2/7.png"",""time"":697},{""stimulus"":""img/1to2/8.png"",""time"":800},{""stimulus"":""img/1to2/9.png"",""time"":898},{""stimulus"":""img/1to2/10.png"",""time"":1003},{""stimulus"":""img/1to2/11.png"",""time"":1098},{""stimulus"":""img/1to2/12.png"",""time"":1195}]","[]"
"image-keyboard-response","80","306375","0.0-5.0-1.38","5b9b422307c6960001614c35","bdp_cybrbll","Tue Mar 28 2023 22:33:16 GMT-0400 (Eastern Daylight Time)","636704","1","3","","141","","","","choice","","img/2to1/1.png","2","187","906","0.5","0.5","2","3","",""
"animation","81","307673","0.0-5.0-2.38","5b9b422307c6960001614c35","bdp_cybrbll","Tue Mar 28 2023 22:33:16 GMT-0400 (Eastern Daylight Time)","636704","1","3","","","","","","","","","","187","","","","2","3","[{""stimulus"":""img/2to3/1.png"",""time"":102},{""stimulus"":""img/2to3/2.png"",""time"":209},{""stimulus"":""img/2to3/3.png"",""time"":306},{""stimulus"":""img/2to3/4.png"",""time"":402},{""stimulus"":""img/2to3/5.png"",""time"":506},{""stimulus"":""img/2to3/6.png"",""time"":601},{""stimulus"":""img/2to3/7.png"",""time"":706},{""stimulus"":""img/2to3/8.png"",""time"":799},{""stimulus"":""img/2to3/9.png"",""time"":898},{""stimulus"":""img/2to3/10.png"",""time"":1001},{""stimulus"":""img/2to3/11.png"",""time"":1098},{""stimulus"":""img/2to3/12.png"",""time"":1193}]","[]"
"image-keyboard-response","82","308254","0.0-5.0-1.39","5b9b422307c6960001614c35","bdp_cybrbll","Tue Mar 28 2023 22:33:16 GMT-0400 (Eastern Daylight Time)","636704","1","3","","null","","","","observe","","img/3to2/1.png","null","186","573","0.5","0.5","3","1","",""
"animation","83","309549","0.0-5.0-2.39","5b9b422307c6960001614c35","bdp_cybrbll","Tue Mar 28 2023 22:33:16 GMT-0400 (Eastern Daylight Time)","636704","1","3","","","","","","","","","","186","","","","3","1","[{""stimulus"":""img/3to1/1.png"",""time"":104},{""stimulus"":""img/3to1/2.png"",""time"":210},{""stimulus"":""img/3to1/3.png"",""time"":307},{""stimulus"":""img/3to1/4.png"",""time"":400},{""stimulus"":""img/3to1/5.png"",""time"":504},{""stimulus"":""img/3to1/6.png"",""time"":602},{""stimulus"":""img/3to1/7.png"",""time"":696},{""stimulus"":""img/3to1/8.png"",""time"":800},{""stimulus"":""img/3to1/9.png"",""time"":899},{""stimulus"":""img/3to1/10.png"",""time"":1003},{""stimulus"":""img/3to1/11.png"",""time"":1096},{""stimulus"":""img/3to1/12.png"",""time"":1194}]","[]"
"image-keyboard-response","84","309865","0.0-5.0-1.40","5b9b422307c6960001614c35","bdp_cybrbll","Tue Mar 28 2023 22:33:16 GMT-0400 (Eastern Daylight Time)","636704","1","3","","null","","","","observe","","img/1to3/1.png","null","185","307","0.5","0.5","1","3","",""
"animation","85","311161","0.0-5.0-2.40","5b9b422307c6960001614c35","bdp_cybrbll","Tue Mar 28 2023 22:33:16 GMT-0400 (Eastern Daylight Time)","636704","1","3","","","","","","","","","","185","","","","1","3","[{""stimulus"":""img/1to3/1.png"",""time"":112},{""stimulus"":""img/1to3/2.png"",""time"":208},{""stimulus"":""img/1to3/3.png"",""time"":304},{""stimulus"":""img/1to3/4.png"",""time"":408},{""stimulus"":""img/1to3/5.png"",""time"":500},{""stimulus"":""img/1to3/6.png"",""time"":600},{""stimulus"":""img/1to3/7.png"",""time"":700},{""stimulus"":""img/1to3/8.png"",""time"":800},{""stimulus"":""img/1to3/9.png"",""time"":902},{""stimulus"":""img/1to3/10.png"",""time"":1000},{""stimulus"":""img/1to3/11.png"",""time"":1093},{""stimulus"":""img/1to3/12.png"",""time"":1199}]","[]"
"image-keyboard-response","86","311543","0.0-5.0-1.41","5b9b422307c6960001614c35","bdp_cybrbll","Tue Mar 28 2023 22:33:16 GMT-0400 (Eastern Daylight Time)","636704","1","3","","null","","","","observe","","img/3to2/1.png","null","184","372","0.5","0.5","3","1","",""
"animation","87","312839","0.0-5.0-2.41","5b9b422307c6960001614c35","bdp_cybrbll","Tue Mar 28 2023 22:33:16 GMT-0400 (Eastern Daylight Time)","636704","1","3","","","","","","","","","","184","","","","3","1","[{""stimulus"":""img/3to1/1.png"",""time"":105},{""stimulus"":""img/3to1/2.png"",""time"":206},{""stimulus"":""img/3to1/3.png"",""time"":304},{""stimulus"":""img/3to1/4.png"",""time"":401},{""stimulus"":""img/3to1/5.png"",""time"":504},{""stimulus"":""img/3to1/6.png"",""time"":600},{""stimulus"":""img/3to1/7.png"",""time"":704},{""stimulus"":""img/3to1/8.png"",""time"":800},{""stimulus"":""img/3to1/9.png"",""time"":895},{""stimulus"":""img/3to1/10.png"",""time"":1000},{""stimulus"":""img/3to1/11.png"",""time"":1094},{""stimulus"":""img/3to1/12.png"",""time"":1190}]","[]"
"image-keyboard-response","88","313143","0.0-5.0-1.42","5b9b422307c6960001614c35","bdp_cybrbll","Tue Mar 28 2023 22:33:16 GMT-0400 (Eastern Daylight Time)","636704","1","3","","null","","","","observe","","img/1to3/1.png","null","183","298","0.5","0.5","1","2","",""
"animation","89","314441","0.0-5.0-2.42","5b9b422307c6960001614c35","bdp_cybrbll","Tue Mar 28 2023 22:33:16 GMT-0400 (Eastern Daylight Time)","636704","1","3","","","","","","","","","","183","","","","1","2","[{""stimulus"":""img/1to2/1.png"",""time"":105},{""stimulus"":""img/1to2/2.png"",""time"":206},{""stimulus"":""img/1to2/3.png"",""time"":304},{""stimulus"":""img/1to2/4.png"",""time"":400},{""stimulus"":""img/1to2/5.png"",""time"":504},{""stimulus"":""img/1to2/6.png"",""time"":600},{""stimulus"":""img/1to2/7.png"",""time"":704},{""stimulus"":""img/1to2/8.png"",""time"":800},{""stimulus"":""img/1to2/9.png"",""time"":897},{""stimulus"":""img/1to2/10.png"",""time"":1001},{""stimulus"":""img/1to2/11.png"",""time"":1094},{""stimulus"":""img/1to2/12.png"",""time"":1193}]","[]"
"image-keyboard-response","90","314685","0.0-5.0-1.43","5b9b422307c6960001614c35","bdp_cybrbll","Tue Mar 28 2023 22:33:16 GMT-0400 (Eastern Daylight Time)","636704","1","3","","243","","","","choice","","img/2to1/1.png","2","182","286","0.5","0.5","2","3","",""
"animation","91","315985","0.0-5.0-2.43","5b9b422307c6960001614c35","bdp_cybrbll","Tue Mar 28 2023 22:33:16 GMT-0400 (Eastern Daylight Time)","636704","1","3","","","","","","","","","","182","","","","2","3","[{""stimulus"":""img/2to3/1.png"",""time"":105},{""stimulus"":""img/2to3/2.png"",""time"":203},{""stimulus"":""img/2to3/3.png"",""time"":308},{""stimulus"":""img/2to3/4.png"",""time"":401},{""stimulus"":""img/2to3/5.png"",""time"":507},{""stimulus"":""img/2to3/6.png"",""time"":604},{""stimulus"":""img/2to3/7.png"",""time"":699},{""stimulus"":""img/2to3/8.png"",""time"":801},{""stimulus"":""img/2to3/9.png"",""time"":899},{""stimulus"":""img/2to3/10.png"",""time"":996},{""stimulus"":""img/2to3/11.png"",""time"":1099},{""stimulus"":""img/2to3/12.png"",""time"":1196}]","[]"
"image-keyboard-response","92","316783","0.0-5.0-1.44","5b9b422307c6960001614c35","bdp_cybrbll","Tue Mar 28 2023 22:33:16 GMT-0400 (Eastern Daylight Time)","636704","1","3","","null","","","","observe","","img/3to2/1.png","null","181","791","0.5","0.5","3","2","",""
"animation","93","318081","0.0-5.0-2.44","5b9b422307c6960001614c35","bdp_cybrbll","Tue Mar 28 2023 22:33:16 GMT-0400 (Eastern Daylight Time)","636704","1","3","","","","","","","","","","181","","","","3","2","[{""stimulus"":""img/3to2/1.png"",""time"":101},{""stimulus"":""img/3to2/2.png"",""time"":205},{""stimulus"":""img/3to2/3.png"",""time"":304},{""stimulus"":""img/3to2/4.png"",""time"":399},{""stimulus"":""img/3to2/5.png"",""time"":502},{""stimulus"":""img/3to2/6.png"",""time"":599},{""stimulus"":""img/3to2/7.png"",""time"":697},{""stimulus"":""img/3to2/8.png"",""time"":800},{""stimulus"":""img/3to2/9.png"",""time"":897},{""stimulus"":""img/3to2/10.png"",""time"":1001},{""stimulus"":""img/3to2/11.png"",""time"":1097},{""stimulus"":""img/3to2/12.png"",""time"":1193}]","[]"
"image-keyboard-response","94","318311","0.0-5.0-1.45","5b9b422307c6960001614c35","bdp_cybrbll","Tue Mar 28 2023 22:33:16 GMT-0400 (Eastern Daylight Time)","636704","1","3","","229","","","","choice","","img/2to1/1.png","1","180","215","0.5","0.5","2","1","",""
"animation","95","319607","0.0-5.0-2.45","5b9b422307c6960001614c35","bdp_cybrbll","Tue Mar 28 2023 22:33:16 GMT-0400 (Eastern Daylight Time)","636704","1","3","","","","","","","","","","180","","","","2","1","[{""stimulus"":""img/2to1/1.png"",""time"":103},{""stimulus"":""img/2to1/2.png"",""time"":206},{""stimulus"":""img/2to1/3.png"",""time"":303},{""stimulus"":""img/2to1/4.png"",""time"":399},{""stimulus"":""img/2to1/5.png"",""time"":503},{""stimulus"":""img/2to1/6.png"",""time"":599},{""stimulus"":""img/2to1/7.png"",""time"":704},{""stimulus"":""img/2to1/8.png"",""time"":797},{""stimulus"":""img/2to1/9.png"",""time"":895},{""stimulus"":""img/2to1/10.png"",""time"":1000},{""stimulus"":""img/2to1/11.png"",""time"":1095},{""stimulus"":""img/2to1/12.png"",""time"":1193}]","[]"
"image-keyboard-response","96","320165","0.0-5.0-1.46","5b9b422307c6960001614c35","bdp_cybrbll","Tue Mar 28 2023 22:33:16 GMT-0400 (Eastern Daylight Time)","636704","1","3","","null","","","","observe","","img/1to3/1.png","null","179","556","0.5","0.5","1","3","",""
"animation","97","321465","0.0-5.0-2.46","5b9b422307c6960001614c35","bdp_cybrbll","Tue Mar 28 2023 22:33:16 GMT-0400 (Eastern Daylight Time)","636704","1","3","","","","","","","","","","179","","","","1","3","[{""stimulus"":""img/1to3/1.png"",""time"":105},{""stimulus"":""img/1to3/2.png"",""time"":203},{""stimulus"":""img/1to3/3.png"",""time"":308},{""stimulus"":""img/1to3/4.png"",""time"":400},{""stimulus"":""img/1to3/5.png"",""time"":508},{""stimulus"":""img/1to3/6.png"",""time"":604},{""stimulus"":""img/1to3/7.png"",""time"":700},{""stimulus"":""img/1to3/8.png"",""time"":795},{""stimulus"":""img/1to3/9.png"",""time"":899},{""stimulus"":""img/1to3/10.png"",""time"":993},{""stimulus"":""img/1to3/11.png"",""time"":1099},{""stimulus"":""img/1to3/12.png"",""time"":1196}]","[]"
"image-keyboard-response","98","321839","0.0-5.0-1.47","5b9b422307c6960001614c35","bdp_cybrbll","Tue Mar 28 2023 22:33:16 GMT-0400 (Eastern Daylight Time)","636704","1","3","","null","","","","observe","","img/3to2/1.png","null","178","363","0.5","0.5","3","1","",""
"animation","99","323137","0.0-5.0-2.47","5b9b422307c6960001614c35","bdp_cybrbll","Tue Mar 28 2023 22:33:16 GMT-0400 (Eastern Daylight Time)","636704","1","3","","","","","","","","","","178","","","","3","1","[{""stimulus"":""img/3to1/1.png"",""time"":105},{""stimulus"":""img/3to1/2.png"",""time"":209},{""stimulus"":""img/3to1/3.png"",""time"":305},{""stimulus"":""img/3to1/4.png"",""time"":398},{""stimulus"":""img/3to1/5.png"",""time"":505},{""stimulus"":""img/3to1/6.png"",""time"":601},{""stimulus"":""img/3to1/7.png"",""time"":706},{""stimulus"":""img/3to1/8.png"",""time"":799},{""stimulus"":""img/3to1/9.png"",""time"":898},{""stimulus"":""img/3to1/10.png"",""time"":1002},{""stimulus"":""img/3to1/11.png"",""time"":1095},{""stimulus"":""img/3to1/12.png"",""time"":1193}]","[]"
"image-keyboard-response","100","324712","0.0-5.0-1.48","5b9b422307c6960001614c35","bdp_cybrbll","Tue Mar 28 2023 22:33:16 GMT-0400 (Eastern Daylight Time)","636704","1","3","","null","","","","observe","","img/1to3/1.png","null","177","1569","0.5","0.5","1","3","",""
"animation","101","326005","0.0-5.0-2.48","5b9b422307c6960001614c35","bdp_cybrbll","Tue Mar 28 2023 22:33:16 GMT-0400 (Eastern Daylight Time)","636704","1","3","","","","","","","","","","177","","","","1","3","[{""stimulus"":""img/1to3/1.png"",""time"":103},{""stimulus"":""img/1to3/2.png"",""time"":207},{""stimulus"":""img/1to3/3.png"",""time"":302},{""stimulus"":""img/1to3/4.png"",""time"":405},{""stimulus"":""img/1to3/5.png"",""time"":502},{""stimulus"":""img/1to3/6.png"",""time"":598},{""stimulus"":""img/1to3/7.png"",""time"":702},{""stimulus"":""img/1to3/8.png"",""time"":799},{""stimulus"":""img/1to3/9.png"",""time"":894},{""stimulus"":""img/1to3/10.png"",""time"":997},{""stimulus"":""img/1to3/11.png"",""time"":1095},{""stimulus"":""img/1to3/12.png"",""time"":1200}]","[]"
"image-keyboard-response","102","326695","0.0-5.0-1.49","5b9b422307c6960001614c35","bdp_cybrbll","Tue Mar 28 2023 22:33:16 GMT-0400 (Eastern Daylight Time)","636704","1","3","","null","","","","observe","","img/3to2/1.png","null","176","685","0.5","0.5","3","2","",""
"animation","103","327989","0.0-5.0-2.49","5b9b422307c6960001614c35","bdp_cybrbll","Tue Mar 28 2023 22:33:16 GMT-0400 (Eastern Daylight Time)","636704","1","3","","","","","","","","","","176","","","","3","2","[{""stimulus"":""img/3to2/1.png"",""time"":105},{""stimulus"":""img/3to2/2.png"",""time"":209},{""stimulus"":""img/3to2/3.png"",""time"":303},{""stimulus"":""img/3to2/4.png"",""time"":401},{""stimulus"":""img/3to2/5.png"",""time"":506},{""stimulus"":""img/3to2/6.png"",""time"":599},{""stimulus"":""img/3to2/7.png"",""time"":703},{""stimulus"":""img/3to2/8.png"",""time"":801},{""stimulus"":""img/3to2/9.png"",""time"":894},{""stimulus"":""img/3to2/10.png"",""time"":999},{""stimulus"":""img/3to2/11.png"",""time"":1098},{""stimulus"":""img/3to2/12.png"",""time"":1191}]","[]"
"image-keyboard-response","104","328581","0.0-5.0-1.50","5b9b422307c6960001614c35","bdp_cybrbll","Tue Mar 28 2023 22:33:16 GMT-0400 (Eastern Daylight Time)","636704","1","3","","591","","","","choice","","img/2to1/1.png","1","175","1293","0.5","0.5","2","1","",""
"animation","105","329881","0.0-5.0-2.50","5b9b422307c6960001614c35","bdp_cybrbll","Tue Mar 28 2023 22:33:16 GMT-0400 (Eastern Daylight Time)","636704","1","3","","","","","","","","","","175","","","","2","1","[{""stimulus"":""img/2to1/1.png"",""time"":105},{""stimulus"":""img/2to1/2.png"",""time"":204},{""stimulus"":""img/2to1/3.png"",""time"":300},{""stimulus"":""img/2to1/4.png"",""time"":403},{""stimulus"":""img/2to1/5.png"",""time"":506},{""stimulus"":""img/2to1/6.png"",""time"":603},{""stimulus"":""img/2to1/7.png"",""time"":700},{""stimulus"":""img/2to1/8.png"",""time"":803},{""stimulus"":""img/2to1/9.png"",""time"":900},{""stimulus"":""img/2to1/10.png"",""time"":993},{""stimulus"":""img/2to1/11.png"",""time"":1100},{""stimulus"":""img/2to1/12.png"",""time"":1193}]","[]"
"image-keyboard-response","106","330109","0.0-5.0-1.51","5b9b422307c6960001614c35","bdp_cybrbll","Tue Mar 28 2023 22:33:16 GMT-0400 (Eastern Daylight Time)","636704","1","3","","null","","","","observe","","img/1to3/1.png","null","174","225","0.5","0.5","1","3","",""
"animation","107","331409","0.0-5.0-2.51","5b9b422307c6960001614c35","bdp_cybrbll","Tue Mar 28 2023 22:33:16 GMT-0400 (Eastern Daylight Time)","636704","1","3","","","","","","","","","","174","","","","1","3","[{""stimulus"":""img/1to3/1.png"",""time"":105},{""stimulus"":""img/1to3/2.png"",""time"":203},{""stimulus"":""img/1to3/3.png"",""time"":308},{""stimulus"":""img/1to3/4.png"",""time"":400},{""stimulus"":""img/1to3/5.png"",""time"":505},{""stimulus"":""img/1to3/6.png"",""time"":604},{""stimulus"":""img/1to3/7.png"",""time"":697},{""stimulus"":""img/1to3/8.png"",""time"":801},{""stimulus"":""img/1to3/9.png"",""time"":899},{""stimulus"":""img/1to3/10.png"",""time"":995},{""stimulus"":""img/1to3/11.png"",""time"":1096},{""stimulus"":""img/1to3/12.png"",""time"":1195}]","[]"
"image-keyboard-response","108","331885","0.0-5.0-1.52","5b9b422307c6960001614c35","bdp_cybrbll","Tue Mar 28 2023 22:33:16 GMT-0400 (Eastern Daylight Time)","636704","1","3","","null","","","","observe","","img/3to2/1.png","null","173","471","0.5","0.5","3","1","",""
"animation","109","333183","0.0-5.0-2.52","5b9b422307c6960001614c35","bdp_cybrbll","Tue Mar 28 2023 22:33:16 GMT-0400 (Eastern Daylight Time)","636704","1","3","","","","","","","","","","173","","","","3","1","[{""stimulus"":""img/3to1/1.png"",""time"":105},{""stimulus"":""img/3to1/2.png"",""time"":203},{""stimulus"":""img/3to1/3.png"",""time"":307},{""stimulus"":""img/3to1/4.png"",""time"":401},{""stimulus"":""img/3to1/5.png"",""time"":504},{""stimulus"":""img/3to1/6.png"",""time"":603},{""stimulus"":""img/3to1/7.png"",""time"":699},{""stimulus"":""img/3to1/8.png"",""time"":801},{""stimulus"":""img/3to1/9.png"",""time"":900},{""stimulus"":""img/3to1/10.png"",""time"":996},{""stimulus"":""img/3to1/11.png"",""time"":1099},{""stimulus"":""img/3to1/12.png"",""time"":1196}]","[]"
"image-keyboard-response","110","333777","0.0-5.0-1.53","5b9b422307c6960001614c35","bdp_cybrbll","Tue Mar 28 2023 22:33:16 GMT-0400 (Eastern Daylight Time)","636704","1","3","","null","","","","observe","","img/1to3/1.png","null","172","585","0.5","0.5","1","2","",""
"animation","111","335070","0.0-5.0-2.53","5b9b422307c6960001614c35","bdp_cybrbll","Tue Mar 28 2023 22:33:16 GMT-0400 (Eastern Daylight Time)","636704","1","3","","","","","","","","","","172","","","","1","2","[{""stimulus"":""img/1to2/1.png"",""time"":111},{""stimulus"":""img/1to2/2.png"",""time"":207},{""stimulus"":""img/1to2/3.png"",""time"":304},{""stimulus"":""img/1to2/4.png"",""time"":407},{""stimulus"":""img/1to2/5.png"",""time"":504},{""stimulus"":""img/1to2/6.png"",""time"":598},{""stimulus"":""img/1to2/7.png"",""time"":704},{""stimulus"":""img/1to2/8.png"",""time"":797},{""stimulus"":""img/1to2/9.png"",""time"":904},{""stimulus"":""img/1to2/10.png"",""time"":1000},{""stimulus"":""img/1to2/11.png"",""time"":1096},{""stimulus"":""img/1to2/12.png"",""time"":1197}]","[]"
"image-keyboard-response","112","335151","0.0-5.0-1.54","5b9b422307c6960001614c35","bdp_cybrbll","Tue Mar 28 2023 22:33:16 GMT-0400 (Eastern Daylight Time)","636704","1","3","","80","","","","choice","","img/2to1/1.png","2","171","215","0.5","0.5","2","3","",""
"animation","113","336448","0.0-5.0-2.54","5b9b422307c6960001614c35","bdp_cybrbll","Tue Mar 28 2023 22:33:16 GMT-0400 (Eastern Daylight Time)","636704","1","3","","","","","","","","","","171","","","","2","3","[{""stimulus"":""img/2to3/1.png"",""time"":103},{""stimulus"":""img/2to3/2.png"",""time"":207},{""stimulus"":""img/2to3/3.png"",""time"":303},{""stimulus"":""img/2to3/4.png"",""time"":397},{""stimulus"":""img/2to3/5.png"",""time"":503},{""stimulus"":""img/2to3/6.png"",""time"":600},{""stimulus"":""img/2to3/7.png"",""time"":705},{""stimulus"":""img/2to3/8.png"",""time"":797},{""stimulus"":""img/2to3/9.png"",""time"":897},{""stimulus"":""img/2to3/10.png"",""time"":1001},{""stimulus"":""img/2to3/11.png"",""time"":1097},{""stimulus"":""img/2to3/12.png"",""time"":1192}]","[]"
"image-keyboard-response","114","337365","0.0-5.0-1.55","5b9b422307c6960001614c35","bdp_cybrbll","Tue Mar 28 2023 22:33:16 GMT-0400 (Eastern Daylight Time)","636704","1","3","","null","","","","observe","","img/3to2/1.png","null","170","909","0.5","0.5","3","1","",""
"animation","115","338665","0.0-5.0-2.55","5b9b422307c6960001614c35","bdp_cybrbll","Tue Mar 28 2023 22:33:16 GMT-0400 (Eastern Daylight Time)","636704","1","3","","","","","","","","","","170","","","","3","1","[{""stimulus"":""img/3to1/1.png"",""time"":104},{""stimulus"":""img/3to1/2.png"",""time"":200},{""stimulus"":""img/3to1/3.png"",""time"":308},{""stimulus"":""img/3to1/4.png"",""time"":400},{""stimulus"":""img/3to1/5.png"",""time"":508},{""stimulus"":""img/3to1/6.png"",""time"":603},{""stimulus"":""img/3to1/7.png"",""time"":700},{""stimulus"":""img/3to1/8.png"",""time"":800},{""stimulus"":""img/3to1/9.png"",""time"":900},{""stimulus"":""img/3to1/10.png"",""time"":993},{""stimulus"":""img/3to1/11.png"",""time"":1099},{""stimulus"":""img/3to1/12.png"",""time"":1196}]","[]"
"image-keyboard-response","116","338903","0.0-5.0-1.56","5b9b422307c6960001614c35","bdp_cybrbll","Tue Mar 28 2023 22:33:16 GMT-0400 (Eastern Daylight Time)","636704","1","3","","null","","","","observe","","img/1to3/1.png","null","169","231","0.5","0.5","1","3","",""
"animation","117","340198","0.0-5.0-2.56","5b9b422307c6960001614c35","bdp_cybrbll","Tue Mar 28 2023 22:33:16 GMT-0400 (Eastern Daylight Time)","636704","1","3","","","","","","","","","","169","","","","1","3","[{""stimulus"":""img/1to3/1.png"",""time"":103},{""stimulus"":""img/1to3/2.png"",""time"":208},{""stimulus"":""img/1to3/3.png"",""time"":301},{""stimulus"":""img/1to3/4.png"",""time"":400},{""stimulus"":""img/1to3/5.png"",""time"":504},{""stimulus"":""img/1to3/6.png"",""time"":600},{""stimulus"":""img/1to3/7.png"",""time"":702},{""stimulus"":""img/1to3/8.png"",""time"":800},{""stimulus"":""img/1to3/9.png"",""time"":894},{""stimulus"":""img/1to3/10.png"",""time"":1000},{""stimulus"":""img/1to3/11.png"",""time"":1095},{""stimulus"":""img/1to3/12.png"",""time"":1190}]","[]"
"image-keyboard-response","118","340494","0.0-5.0-1.57","5b9b422307c6960001614c35","bdp_cybrbll","Tue Mar 28 2023 22:33:16 GMT-0400 (Eastern Daylight Time)","636704","1","3","","null","","","","observe","","img/3to2/1.png","null","168","291","0.5","0.5","3","2","",""
"animation","119","341789","0.0-5.0-2.57","5b9b422307c6960001614c35","bdp_cybrbll","Tue Mar 28 2023 22:33:16 GMT-0400 (Eastern Daylight Time)","636704","1","3","","","","","","","","","","168","","","","3","2","[{""stimulus"":""img/3to2/1.png"",""time"":104},{""stimulus"":""img/3to2/2.png"",""time"":210},{""stimulus"":""img/3to2/3.png"",""time"":304},{""stimulus"":""img/3to2/4.png"",""time"":400},{""stimulus"":""img/3to2/5.png"",""time"":506},{""stimulus"":""img/3to2/6.png"",""time"":600},{""stimulus"":""img/3to2/7.png"",""time"":698},{""stimulus"":""img/3to2/8.png"",""time"":800},{""stimulus"":""img/3to2/9.png"",""time"":895},{""stimulus"":""img/3to2/10.png"",""time"":1001},{""stimulus"":""img/3to2/11.png"",""time"":1097},{""stimulus"":""img/3to2/12.png"",""time"":1192}]","[]"
"image-keyboard-response","120","342023","0.0-5.0-1.58","5b9b422307c6960001614c35","bdp_cybrbll","Tue Mar 28 2023 22:33:16 GMT-0400 (Eastern Daylight Time)","636704","1","3","","233","","","","choice","","img/2to1/1.png","1","167","324","0.5","0.5","2","1","",""
"animation","121","343321","0.0-5.0-2.58","5b9b422307c6960001614c35","bdp_cybrbll","Tue Mar 28 2023 22:33:16 GMT-0400 (Eastern Daylight Time)","636704","1","3","","","","","","","","","","167","","","","2","1","[{""stimulus"":""img/2to1/1.png"",""time"":101},{""stimulus"":""img/2to1/2.png"",""time"":208},{""stimulus"":""img/2to1/3.png"",""time"":304},{""stimulus"":""img/2to1/4.png"",""time"":408},{""stimulus"":""img/2to1/5.png"",""time"":502},{""stimulus"":""img/2to1/6.png"",""time"":600},{""stimulus"":""img/2to1/7.png"",""time"":705},{""stimulus"":""img/2to1/8.png"",""time"":800},{""stimulus"":""img/2to1/9.png"",""time"":896},{""stimulus"":""img/2to1/10.png"",""time"":1001},{""stimulus"":""img/2to1/11.png"",""time"":1093},{""stimulus"":""img/2to1/12.png"",""time"":1200}]","[]"
"image-keyboard-response","122","343576","0.0-5.0-1.59","5b9b422307c6960001614c35","bdp_cybrbll","Tue Mar 28 2023 22:33:16 GMT-0400 (Eastern Daylight Time)","636704","1","3","","null","","","","observe","","img/1to3/1.png","null","166","249","0.5","0.5","1","2","",""
"animation","123","344872","0.0-5.0-2.59","5b9b422307c6960001614c35","bdp_cybrbll","Tue Mar 28 2023 22:33:16 GMT-0400 (Eastern Daylight Time)","636704","1","3","","","","","","","","","","166","","","","1","2","[{""stimulus"":""img/1to2/1.png"",""time"":105},{""stimulus"":""img/1to2/2.png"",""time"":209},{""stimulus"":""img/1to2/3.png"",""time"":305},{""stimulus"":""img/1to2/4.png"",""time"":407},{""stimulus"":""img/1to2/5.png"",""time"":505},{""stimulus"":""img/1to2/6.png"",""time"":598},{""stimulus"":""img/1to2/7.png"",""time"":705},{""stimulus"":""img/1to2/8.png"",""time"":798},{""stimulus"":""img/1to2/9.png"",""time"":897},{""stimulus"":""img/1to2/10.png"",""time"":998},{""stimulus"":""img/1to2/11.png"",""time"":1097},{""stimulus"":""img/1to2/12.png"",""time"":1198}]","[]"
"image-keyboard-response","124","345024","0.0-5.0-1.60","5b9b422307c6960001614c35","bdp_cybrbll","Tue Mar 28 2023 22:33:16 GMT-0400 (Eastern Daylight Time)","636704","1","3","","150","","","","choice","","img/2to1/1.png","2","165","1269","0.5","0.5","2","3","",""
"animation","125","346317","0.0-5.0-2.60","5b9b422307c6960001614c35","bdp_cybrbll","Tue Mar 28 2023 22:33:16 GMT-0400 (Eastern Daylight Time)","636704","1","3","","","","","","","","","","165","","","","2","3","[{""stimulus"":""img/2to3/1.png"",""time"":102},{""stimulus"":""img/2to3/2.png"",""time"":208},{""stimulus"":""img/2to3/3.png"",""time"":302},{""stimulus"":""img/2to3/4.png"",""time"":408},{""stimulus"":""img/2to3/5.png"",""time"":502},{""stimulus"":""img/2to3/6.png"",""time"":600},{""stimulus"":""img/2to3/7.png"",""time"":702},{""stimulus"":""img/2to3/8.png"",""time"":800},{""stimulus"":""img/2to3/9.png"",""time"":893},{""stimulus"":""img/2to3/10.png"",""time"":999},{""stimulus"":""img/2to3/11.png"",""time"":1097},{""stimulus"":""img/2to3/12.png"",""time"":1200}]","[]"
"image-keyboard-response","126","346600","0.0-5.0-1.61","5b9b422307c6960001614c35","bdp_cybrbll","Tue Mar 28 2023 22:33:16 GMT-0400 (Eastern Daylight Time)","636704","1","3","","null","","","","observe","","img/3to2/1.png","null","164","273","0.5","0.5","3","2","",""
"animation","127","347894","0.0-5.0-2.61","5b9b422307c6960001614c35","bdp_cybrbll","Tue Mar 28 2023 22:33:16 GMT-0400 (Eastern Daylight Time)","636704","1","3","","","","","","","","","","164","","","","3","2","[{""stimulus"":""img/3to2/1.png"",""time"":110},{""stimulus"":""img/3to2/2.png"",""time"":205},{""stimulus"":""img/3to2/3.png"",""time"":303},{""stimulus"":""img/3to2/4.png"",""time"":406},{""stimulus"":""img/3to2/5.png"",""time"":503},{""stimulus"":""img/3to2/6.png"",""time"":597},{""stimulus"":""img/3to2/7.png"",""time"":703},{""stimulus"":""img/3to2/8.png"",""time"":797},{""stimulus"":""img/3to2/9.png"",""time"":903},{""stimulus"":""img/3to2/10.png"",""time"":997},{""stimulus"":""img/3to2/11.png"",""time"":1093},{""stimulus"":""img/3to2/12.png"",""time"":1197}]","[]"
"image-keyboard-response","128","348382","0.0-5.0-1.62","5b9b422307c6960001614c35","bdp_cybrbll","Tue Mar 28 2023 22:33:16 GMT-0400 (Eastern Daylight Time)","636704","1","3","","487","","","","choice","","img/2to1/1.png","1","163","507","0.5","0.5","2","1","",""
"animation","129","349681","0.0-5.0-2.62","5b9b422307c6960001614c35","bdp_cybrbll","Tue Mar 28 2023 22:33:16 GMT-0400 (Eastern Daylight Time)","636704","1","3","","","","","","","","","","163","","","","2","1","[{""stimulus"":""img/2to1/1.png"",""time"":105},{""stimulus"":""img/2to1/2.png"",""time"":210},{""stimulus"":""img/2to1/3.png"",""time"":304},{""stimulus"":""img/2to1/4.png"",""time"":402},{""stimulus"":""img/2to1/5.png"",""time"":506},{""stimulus"":""img/2to1/6.png"",""time"":602},{""stimulus"":""img/2to1/7.png"",""time"":699},{""stimulus"":""img/2to1/8.png"",""time"":802},{""stimulus"":""img/2to1/9.png"",""time"":899},{""stimulus"":""img/2to1/10.png"",""time"":1002},{""stimulus"":""img/2to1/11.png"",""time"":1099},{""stimulus"":""img/2to1/12.png"",""time"":1192}]","[]"
"image-keyboard-response","130","350079","0.0-5.0-1.63","5b9b422307c6960001614c35","bdp_cybrbll","Tue Mar 28 2023 22:33:16 GMT-0400 (Eastern Daylight Time)","636704","1","3","","null","","","","observe","","img/1to3/1.png","null","162","390","0.5","0.5","1","2","",""
"animation","131","351374","0.0-5.0-2.63","5b9b422307c6960001614c35","bdp_cybrbll","Tue Mar 28 2023 22:33:16 GMT-0400 (Eastern Daylight Time)","636704","1","3","","","","","","","","","","162","","","","1","2","[{""stimulus"":""img/1to2/1.png"",""time"":105},{""stimulus"":""img/1to2/2.png"",""time"":207},{""stimulus"":""img/1to2/3.png"",""time"":305},{""stimulus"":""img/1to2/4.png"",""time"":402},{""stimulus"":""img/1to2/5.png"",""time"":504},{""stimulus"":""img/1to2/6.png"",""time"":602},{""stimulus"":""img/1to2/7.png"",""time"":705},{""stimulus"":""img/1to2/8.png"",""time"":802},{""stimulus"":""img/1to2/9.png"",""time"":895},{""stimulus"":""img/1to2/10.png"",""time"":1002},{""stimulus"":""img/1to2/11.png"",""time"":1090},{""stimulus"":""img/1to2/12.png"",""time"":1194}]","[]"
"image-keyboard-response","132","351502","0.0-5.0-1.64","5b9b422307c6960001614c35","bdp_cybrbll","Tue Mar 28 2023 22:33:16 GMT-0400 (Eastern Daylight Time)","636704","1","3","","127","","","","choice","","img/2to1/1.png","2","161","839","0.5","0.5","2","3","",""
"animation","133","352800","0.0-5.0-2.64","5b9b422307c6960001614c35","bdp_cybrbll","Tue Mar 28 2023 22:33:16 GMT-0400 (Eastern Daylight Time)","636704","1","3","","","","","","","","","","161","","","","2","3","[{""stimulus"":""img/2to3/1.png"",""time"":103},{""stimulus"":""img/2to3/2.png"",""time"":209},{""stimulus"":""img/2to3/3.png"",""time"":305},{""stimulus"":""img/2to3/4.png"",""time"":401},{""stimulus"":""img/2to3/5.png"",""time"":502},{""stimulus"":""img/2to3/6.png"",""time"":601},{""stimulus"":""img/2to3/7.png"",""time"":705},{""stimulus"":""img/2to3/8.png"",""time"":801},{""stimulus"":""img/2to3/9.png"",""time"":897},{""stimulus"":""img/2to3/10.png"",""time"":1001},{""stimulus"":""img/2to3/11.png"",""time"":1097},{""stimulus"":""img/2to3/12.png"",""time"":1193}]","[]"
"image-keyboard-response","134","352983","0.0-5.0-1.65","5b9b422307c6960001614c35","bdp_cybrbll","Tue Mar 28 2023 22:33:16 GMT-0400 (Eastern Daylight Time)","636704","1","3","","null","","","","observe","","img/3to2/1.png","null","160","177","0.5","0.5","3","2","",""
"animation","135","354281","0.0-5.0-2.65","5b9b422307c6960001614c35","bdp_cybrbll","Tue Mar 28 2023 22:33:16 GMT-0400 (Eastern Daylight Time)","636704","1","3","","","","","","","","","","160","","","","3","2","[{""stimulus"":""img/3to2/1.png"",""time"":101},{""stimulus"":""img/3to2/2.png"",""time"":200},{""stimulus"":""img/3to2/3.png"",""time"":304},{""stimulus"":""img/3to2/4.png"",""time"":409},{""stimulus"":""img/3to2/5.png"",""time"":501},{""stimulus"":""img/3to2/6.png"",""time"":600},{""stimulus"":""img/3to2/7.png"",""time"":704},{""stimulus"":""img/3to2/8.png"",""time"":801},{""stimulus"":""img/3to2/9.png"",""time"":897},{""stimulus"":""img/3to2/10.png"",""time"":999},{""stimulus"":""img/3to2/11.png"",""time"":1097},{""stimulus"":""img/3to2/12.png"",""time"":1200}]","[]"
"image-keyboard-response","136","354653","0.0-5.0-1.66","5b9b422307c6960001614c35","bdp_cybrbll","Tue Mar 28 2023 22:33:16 GMT-0400 (Eastern Daylight Time)","636704","1","3","","371","","","","choice","","img/2to1/1.png","1","159","1472","0.5","0.5","2","1","",""
"animation","137","355952","0.0-5.0-2.66","5b9b422307c6960001614c35","bdp_cybrbll","Tue Mar 28 2023 22:33:16 GMT-0400 (Eastern Daylight Time)","636704","1","3","","","","","","","","","","159","","","","2","1","[{""stimulus"":""img/2to1/1.png"",""time"":102},{""stimulus"":""img/2to1/2.png"",""time"":211},{""stimulus"":""img/2to1/3.png"",""time"":306},{""stimulus"":""img/2to1/4.png"",""time"":400},{""stimulus"":""img/2to1/5.png"",""time"":503},{""stimulus"":""img/2to1/6.png"",""time"":602},{""stimulus"":""img/2to1/7.png"",""time"":694},{""stimulus"":""img/2to1/8.png"",""time"":800},{""stimulus"":""img/2to1/9.png"",""time"":898},{""stimulus"":""img/2to1/10.png"",""time"":1002},{""stimulus"":""img/2to1/11.png"",""time"":1094},{""stimulus"":""img/2to1/12.png"",""time"":1194}]","[]"
"image-keyboard-response","138","356280","0.0-5.0-1.67","5b9b422307c6960001614c35","bdp_cybrbll","Tue Mar 28 2023 22:33:16 GMT-0400 (Eastern Daylight Time)","636704","1","3","","null","","","","observe","","img/1to3/1.png","null","158","318","0.5","0.5","1","2","",""
"animation","139","357574","0.0-5.0-2.67","5b9b422307c6960001614c35","bdp_cybrbll","Tue Mar 28 2023 22:33:16 GMT-0400 (Eastern Daylight Time)","636704","1","3","","","","","","","","","","158","","","","1","2","[{""stimulus"":""img/1to2/1.png"",""time"":103},{""stimulus"":""img/1to2/2.png"",""time"":206},{""stimulus"":""img/1to2/3.png"",""time"":305},{""stimulus"":""img/1to2/4.png"",""time"":404},{""stimulus"":""img/1to2/5.png"",""time"":503},{""stimulus"":""img/1to2/6.png"",""time"":601},{""stimulus"":""img/1to2/7.png"",""time"":704},{""stimulus"":""img/1to2/8.png"",""time"":801},{""stimulus"":""img/1to2/9.png"",""time"":894},{""stimulus"":""img/1to2/10.png"",""time"":1001},{""stimulus"":""img/1to2/11.png"",""time"":1094},{""stimulus"":""img/1to2/12.png"",""time"":1201}]","[]"
"image-keyboard-response","140","357770","0.0-5.0-1.68","5b9b422307c6960001614c35","bdp_cybrbll","Tue Mar 28 2023 22:33:16 GMT-0400 (Eastern Daylight Time)","636704","1","3","","195","","","","choice","","img/2to1/1.png","2","157","475","0.5","0.5","2","3","",""
"animation","141","359064","0.0-5.0-2.68","5b9b422307c6960001614c35","bdp_cybrbll","Tue Mar 28 2023 22:33:16 GMT-0400 (Eastern Daylight Time)","636704","1","3","","","","","","","","","","157","","","","2","3","[{""stimulus"":""img/2to3/1.png"",""time"":110},{""stimulus"":""img/2to3/2.png"",""time"":203},{""stimulus"":""img/2to3/3.png"",""time"":310},{""stimulus"":""img/2to3/4.png"",""time"":405},{""stimulus"":""img/2to3/5.png"",""time"":502},{""stimulus"":""img/2to3/6.png"",""time"":603},{""stimulus"":""img/2to3/7.png"",""time"":701},{""stimulus"":""img/2to3/8.png"",""time"":794},{""stimulus"":""img/2to3/9.png"",""time"":902},{""stimulus"":""img/2to3/10.png"",""time"":996},{""stimulus"":""img/2to3/11.png"",""time"":1102},{""stimulus"":""img/2to3/12.png"",""time"":1197}]","[]"
"image-keyboard-response","142","359654","0.0-5.0-1.69","5b9b422307c6960001614c35","bdp_cybrbll","Tue Mar 28 2023 22:33:16 GMT-0400 (Eastern Daylight Time)","636704","1","3","","null","","","","observe","","img/3to2/1.png","null","156","584","0.5","0.5","3","1","",""
"animation","143","360950","0.0-5.0-2.69","5b9b422307c6960001614c35","bdp_cybrbll","Tue Mar 28 2023 22:33:16 GMT-0400 (Eastern Daylight Time)","636704","1","3","","","","","","","","","","156","","","","3","1","[{""stimulus"":""img/3to1/1.png"",""time"":106},{""stimulus"":""img/3to1/2.png"",""time"":211},{""stimulus"":""img/3to1/3.png"",""time"":304},{""stimulus"":""img/3to1/4.png"",""time"":402},{""stimulus"":""img/3to1/5.png"",""time"":503},{""stimulus"":""img/3to1/6.png"",""time"":602},{""stimulus"":""img/3to1/7.png"",""time"":698},{""stimulus"":""img/3to1/8.png"",""time"":803},{""stimulus"":""img/3to1/9.png"",""time"":896},{""stimulus"":""img/3to1/10.png"",""time"":1000},{""stimulus"":""img/3to1/11.png"",""time"":1099},{""stimulus"":""img/3to1/12.png"",""time"":1194}]","[]"
"image-keyboard-response","144","361694","0.0-5.0-1.70","5b9b422307c6960001614c35","bdp_cybrbll","Tue Mar 28 2023 22:33:16 GMT-0400 (Eastern Daylight Time)","636704","1","3","","null","","","","observe","","img/1to3/1.png","null","155","736","0.5","0.5","1","3","",""
"animation","145","362989","0.0-5.0-2.70","5b9b422307c6960001614c35","bdp_cybrbll","Tue Mar 28 2023 22:33:16 GMT-0400 (Eastern Daylight Time)","636704","1","3","","","","","","","","","","155","","","","1","3","[{""stimulus"":""img/1to3/1.png"",""time"":104},{""stimulus"":""img/1to3/2.png"",""time"":210},{""stimulus"":""img/1to3/3.png"",""time"":304},{""stimulus"":""img/1to3/4.png"",""time"":400},{""stimulus"":""img/1to3/5.png"",""time"":504},{""stimulus"":""img/1to3/6.png"",""time"":600},{""stimulus"":""img/1to3/7.png"",""time"":695},{""stimulus"":""img/1to3/8.png"",""time"":800},{""stimulus"":""img/1to3/9.png"",""time"":895},{""stimulus"":""img/1to3/10.png"",""time"":1000},{""stimulus"":""img/1to3/11.png"",""time"":1097},{""stimulus"":""img/1to3/12.png"",""time"":1192}]","[]"
"image-keyboard-response","146","364096","0.0-5.0-1.71","5b9b422307c6960001614c35","bdp_cybrbll","Tue Mar 28 2023 22:33:16 GMT-0400 (Eastern Daylight Time)","636704","1","3","","null","","","","observe","","img/3to2/1.png","null","154","1098","0.5","0.5","3","2","",""
"animation","147","365391","0.0-5.0-2.71","5b9b422307c6960001614c35","bdp_cybrbll","Tue Mar 28 2023 22:33:16 GMT-0400 (Eastern Daylight Time)","636704","1","3","","","","","","","","","","154","","","","3","2","[{""stimulus"":""img/3to2/1.png"",""time"":110},{""stimulus"":""img/3to2/2.png"",""time"":206},{""stimulus"":""img/3to2/3.png"",""time"":302},{""stimulus"":""img/3to2/4.png"",""time"":407},{""stimulus"":""img/3to2/5.png"",""time"":501},{""stimulus"":""img/3to2/6.png"",""time"":597},{""stimulus"":""img/3to2/7.png"",""time"":701},{""stimulus"":""img/3to2/8.png"",""time"":797},{""stimulus"":""img/3to2/9.png"",""time"":901},{""stimulus"":""img/3to2/10.png"",""time"":997},{""stimulus"":""img/3to2/11.png"",""time"":1095},{""stimulus"":""img/3to2/12.png"",""time"":1198}]","[]"
"image-keyboard-response","148","365722","0.0-5.0-1.72","5b9b422307c6960001614c35","bdp_cybrbll","Tue Mar 28 2023 22:33:16 GMT-0400 (Eastern Daylight Time)","636704","1","3","","330","","","","choice","","img/2to1/1.png","1","153","578","0.5","0.5","2","1","",""
"animation","149","367016","0.0-5.0-2.72","5b9b422307c6960001614c35","bdp_cybrbll","Tue Mar 28 2023 22:33:16 GMT-0400 (Eastern Daylight Time)","636704","1","3","","","","","","","","","","153","","","","2","1","[{""stimulus"":""img/2to1/1.png"",""time"":110},{""stimulus"":""img/2to1/2.png"",""time"":203},{""stimulus"":""img/2to1/3.png"",""time"":309},{""stimulus"":""img/2to1/4.png"",""time"":407},{""stimulus"":""img/2to1/5.png"",""time"":502},{""stimulus"":""img/2to1/6.png"",""time"":604},{""stimulus"":""img/2to1/7.png"",""time"":701},{""stimulus"":""img/2to1/8.png"",""time"":795},{""stimulus"":""img/2to1/9.png"",""time"":902},{""stimulus"":""img/2to1/10.png"",""time"":999},{""stimulus"":""img/2to1/11.png"",""time"":1102},{""stimulus"":""img/2to1/12.png"",""time"":1195}]","[]"
"image-keyboard-response","150","368032","0.0-5.0-1.73","5b9b422307c6960001614c35","bdp_cybrbll","Tue Mar 28 2023 22:33:16 GMT-0400 (Eastern Daylight Time)","636704","1","3","","null","","","","observe","","img/1to3/1.png","null","152","1008","0.5","0.5","1","3","",""
"animation","151","369326","0.0-5.0-2.73","5b9b422307c6960001614c35","bdp_cybrbll","Tue Mar 28 2023 22:33:16 GMT-0400 (Eastern Daylight Time)","636704","1","3","","","","","","","","","","152","","","","1","3","[{""stimulus"":""img/1to3/1.png"",""time"":112},{""stimulus"":""img/1to3/2.png"",""time"":207},{""stimulus"":""img/1to3/3.png"",""time"":302},{""stimulus"":""img/1to3/4.png"",""time"":407},{""stimulus"":""img/1to3/5.png"",""time"":502},{""stimulus"":""img/1to3/6.png"",""time"":599},{""stimulus"":""img/1to3/7.png"",""time"":702},{""stimulus"":""img/1to3/8.png"",""time"":800},{""stimulus"":""img/1to3/9.png"",""time"":902},{""stimulus"":""img/1to3/10.png"",""time"":999},{""stimulus"":""img/1to3/11.png"",""time"":1094},{""stimulus"":""img/1to3/12.png"",""time"":1199}]","[]"
"image-keyboard-response","152","369623","0.0-5.0-1.74","5b9b422307c6960001614c35","bdp_cybrbll","Tue Mar 28 2023 22:33:16 GMT-0400 (Eastern Daylight Time)","636704","1","3","","null","","","","observe","","img/3to2/1.png","null","151","289","0.5","0.5","3","1","",""
"animation","153","370917","0.0-5.0-2.74","5b9b422307c6960001614c35","bdp_cybrbll","Tue Mar 28 2023 22:33:16 GMT-0400 (Eastern Daylight Time)","636704","1","3","","","","","","","","","","151","","","","3","1","[{""stimulus"":""img/3to1/1.png"",""time"":105},{""stimulus"":""img/3to1/2.png"",""time"":209},{""stimulus"":""img/3to1/3.png"",""time"":302},{""stimulus"":""img/3to1/4.png"",""time"":408},{""stimulus"":""img/3to1/5.png"",""time"":505},{""stimulus"":""img/3to1/6.png"",""time"":602},{""stimulus"":""img/3to1/7.png"",""time"":702},{""stimulus"":""img/3to1/8.png"",""time"":800},{""stimulus"":""img/3to1/9.png"",""time"":894},{""stimulus"":""img/3to1/10.png"",""time"":1001},{""stimulus"":""img/3to1/11.png"",""time"":1097},{""stimulus"":""img/3to1/12.png"",""time"":1202}]","[]"
"image-keyboard-response","154","371598","0.0-5.0-1.75","5b9b422307c6960001614c35","bdp_cybrbll","Tue Mar 28 2023 22:33:16 GMT-0400 (Eastern Daylight Time)","636704","1","3","","null","","","","observe","","img/1to3/1.png","null","150","675","0.5","0.5","1","3","",""
"animation","155","372894","0.0-5.0-2.75","5b9b422307c6960001614c35","bdp_cybrbll","Tue Mar 28 2023 22:33:16 GMT-0400 (Eastern Daylight Time)","636704","1","3","","","","","","","","","","150","","","","1","3","[{""stimulus"":""img/1to3/1.png"",""time"":106},{""stimulus"":""img/1to3/2.png"",""time"":208},{""stimulus"":""img/1to3/3.png"",""time"":306},{""stimulus"":""img/1to3/4.png"",""time"":400},{""stimulus"":""img/1to3/5.png"",""time"":506},{""stimulus"":""img/1to3/6.png"",""time"":602},{""stimulus"":""img/1to3/7.png"",""time"":696},{""stimulus"":""img/1to3/8.png"",""time"":800},{""stimulus"":""img/1to3/9.png"",""time"":899},{""stimulus"":""img/1to3/10.png"",""time"":1003},{""stimulus"":""img/1to3/11.png"",""time"":1096},{""stimulus"":""img/1to3/12.png"",""time"":1194}]","[]"
"image-keyboard-response","156","373231","0.0-5.0-1.76","5b9b422307c6960001614c35","bdp_cybrbll","Tue Mar 28 2023 22:33:16 GMT-0400 (Eastern Daylight Time)","636704","1","3","","null","","","","observe","","img/3to2/1.png","null","149","329","0.5","0.1","3","1","",""
"animation","157","374528","0.0-5.0-2.76","5b9b422307c6960001614c35","bdp_cybrbll","Tue Mar 28 2023 22:33:16 GMT-0400 (Eastern Daylight Time)","636704","1","3","","","","","","","","","","149","","","","3","1","[{""stimulus"":""img/3to1/1.png"",""time"":103},{""stimulus"":""img/3to1/2.png"",""time"":206},{""stimulus"":""img/3to1/3.png"",""time"":305},{""stimulus"":""img/3to1/4.png"",""time"":408},{""stimulus"":""img/3to1/5.png"",""time"":503},{""stimulus"":""img/3to1/6.png"",""time"":600},{""stimulus"":""img/3to1/7.png"",""time"":705},{""stimulus"":""img/3to1/8.png"",""time"":800},{""stimulus"":""img/3to1/9.png"",""time"":897},{""stimulus"":""img/3to1/10.png"",""time"":1000},{""stimulus"":""img/3to1/11.png"",""time"":1094},{""stimulus"":""img/3to1/12.png"",""time"":1200}]","[]"
"image-keyboard-response","158","375288","0.0-5.0-1.77","5b9b422307c6960001614c35","bdp_cybrbll","Tue Mar 28 2023 22:33:16 GMT-0400 (Eastern Daylight Time)","636704","1","3","","null","","","","observe","","img/1to3/1.png","null","148","747","0.5","0.1","1","3","",""
"animation","159","376583","0.0-5.0-2.77","5b9b422307c6960001614c35","bdp_cybrbll","Tue Mar 28 2023 22:33:16 GMT-0400 (Eastern Daylight Time)","636704","1","3","","","","","","","","","","148","","","","1","3","[{""stimulus"":""img/1to3/1.png"",""time"":109},{""stimulus"":""img/1to3/2.png"",""time"":205},{""stimulus"":""img/1to3/3.png"",""time"":302},{""stimulus"":""img/1to3/4.png"",""time"":405},{""stimulus"":""img/1to3/5.png"",""time"":501},{""stimulus"":""img/1to3/6.png"",""time"":597},{""stimulus"":""img/1to3/7.png"",""time"":702},{""stimulus"":""img/1to3/8.png"",""time"":796},{""stimulus"":""img/1to3/9.png"",""time"":903},{""stimulus"":""img/1to3/10.png"",""time"":998},{""stimulus"":""img/1to3/11.png"",""time"":1094},{""stimulus"":""img/1to3/12.png"",""time"":1197}]","[]"
"image-keyboard-response","160","377359","0.0-5.0-1.78","5b9b422307c6960001614c35","bdp_cybrbll","Tue Mar 28 2023 22:33:16 GMT-0400 (Eastern Daylight Time)","636704","1","3","","null","","","","observe","","img/3to2/1.png","null","147","764","0.5","0.1","3","1","",""
"animation","161","378655","0.0-5.0-2.78","5b9b422307c6960001614c35","bdp_cybrbll","Tue Mar 28 2023 22:33:16 GMT-0400 (Eastern Daylight Time)","636704","1","3","","","","","","","","","","147","","","","3","1","[{""stimulus"":""img/3to1/1.png"",""time"":104},{""stimulus"":""img/3to1/2.png"",""time"":206},{""stimulus"":""img/3to1/3.png"",""time"":306},{""stimulus"":""img/3to1/4.png"",""time"":397},{""stimulus"":""img/3to1/5.png"",""time"":506},{""stimulus"":""img/3to1/6.png"",""time"":600},{""stimulus"":""img/3to1/7.png"",""time"":704},{""stimulus"":""img/3to1/8.png"",""time"":797},{""stimulus"":""img/3to1/9.png"",""time"":895},{""stimulus"":""img/3to1/10.png"",""time"":1000},{""stimulus"":""img/3to1/11.png"",""time"":1095},{""stimulus"":""img/3to1/12.png"",""time"":1194}]","[]"
"image-keyboard-response","162","379198","0.0-5.0-1.79","5b9b422307c6960001614c35","bdp_cybrbll","Tue Mar 28 2023 22:33:16 GMT-0400 (Eastern Daylight Time)","636704","1","3","","null","","","","observe","","img/1to3/1.png","null","146","532","0.5","0.1","1","3","",""
"animation","163","380495","0.0-5.0-2.79","5b9b422307c6960001614c35","bdp_cybrbll","Tue Mar 28 2023 22:33:16 GMT-0400 (Eastern Daylight Time)","636704","1","3","","","","","","","","","","146","","","","1","3","[{""stimulus"":""img/1to3/1.png"",""time"":106},{""stimulus"":""img/1to3/2.png"",""time"":208},{""stimulus"":""img/1to3/3.png"",""time"":305},{""stimulus"":""img/1to3/4.png"",""time"":402},{""stimulus"":""img/1to3/5.png"",""time"":505},{""stimulus"":""img/1to3/6.png"",""time"":600},{""stimulus"":""img/1to3/7.png"",""time"":696},{""stimulus"":""img/1to3/8.png"",""time"":800},{""stimulus"":""img/1to3/9.png"",""time"":897},{""stimulus"":""img/1to3/10.png"",""time"":1002},{""stimulus"":""img/1to3/11.png"",""time"":1096},{""stimulus"":""img/1to3/12.png"",""time"":1193}]","[]"
"image-keyboard-response","164","380768","0.0-5.0-1.80","5b9b422307c6960001614c35","bdp_cybrbll","Tue Mar 28 2023 22:33:16 GMT-0400 (Eastern Daylight Time)","636704","1","3","","null","","","","observe","","img/3to2/1.png","null","145","265","0.5","0.1","3","1","",""
"animation","165","382064","0.0-5.0-2.80","5b9b422307c6960001614c35","bdp_cybrbll","Tue Mar 28 2023 22:33:16 GMT-0400 (Eastern Daylight Time)","636704","1","3","","","","","","","","","","145","","","","3","1","[{""stimulus"":""img/3to1/1.png"",""time"":111},{""stimulus"":""img/3to1/2.png"",""time"":206},{""stimulus"":""img/3to1/3.png"",""time"":305},{""stimulus"":""img/3to1/4.png"",""time"":406},{""stimulus"":""img/3to1/5.png"",""time"":505},{""stimulus"":""img/3to1/6.png"",""time"":598},{""stimulus"":""img/3to1/7.png"",""time"":705},{""stimulus"":""img/3to1/8.png"",""time"":797},{""stimulus"":""img/3to1/9.png"",""time"":905},{""stimulus"":""img/3to1/10.png"",""time"":999},{""stimulus"":""img/3to1/11.png"",""time"":1097},{""stimulus"":""img/3to1/12.png"",""time"":1197}]","[]"
"image-keyboard-response","166","382583","0.0-5.0-1.81","5b9b422307c6960001614c35","bdp_cybrbll","Tue Mar 28 2023 22:33:16 GMT-0400 (Eastern Daylight Time)","636704","1","3","","null","","","","observe","","img/1to3/1.png","null","144","511","0.5","0.1","1","2","",""
"animation","167","383880","0.0-5.0-2.81","5b9b422307c6960001614c35","bdp_cybrbll","Tue Mar 28 2023 22:33:16 GMT-0400 (Eastern Daylight Time)","636704","1","3","","","","","","","","","","144","","","","1","2","[{""stimulus"":""img/1to2/1.png"",""time"":102},{""stimulus"":""img/1to2/2.png"",""time"":206},{""stimulus"":""img/1to2/3.png"",""time"":304},{""stimulus"":""img/1to2/4.png"",""time"":409},{""stimulus"":""img/1to2/5.png"",""time"":502},{""stimulus"":""img/1to2/6.png"",""time"":600},{""stimulus"":""img/1to2/7.png"",""time"":705},{""stimulus"":""img/1to2/8.png"",""time"":800},{""stimulus"":""img/1to2/9.png"",""time"":897},{""stimulus"":""img/1to2/10.png"",""time"":1001},{""stimulus"":""img/1to2/11.png"",""time"":1101},{""stimulus"":""img/1to2/12.png"",""time"":1200}]","[]"
"image-keyboard-response","168","384232","0.0-5.0-1.82","5b9b422307c6960001614c35","bdp_cybrbll","Tue Mar 28 2023 22:33:16 GMT-0400 (Eastern Daylight Time)","636704","1","3","","351","","","","choice","","img/2to1/1.png","2","143","693","0.5","0.1","2","3","",""
"animation","169","385528","0.0-5.0-2.82","5b9b422307c6960001614c35","bdp_cybrbll","Tue Mar 28 2023 22:33:16 GMT-0400 (Eastern Daylight Time)","636704","1","3","","","","","","","","","","143","","","","2","3","[{""stimulus"":""img/2to3/1.png"",""time"":111},{""stimulus"":""img/2to3/2.png"",""time"":206},{""stimulus"":""img/2to3/3.png"",""time"":303},{""stimulus"":""img/2to3/4.png"",""time"":408},{""stimulus"":""img/2to3/5.png"",""time"":501},{""stimulus"":""img/2to3/6.png"",""time"":598},{""stimulus"":""img/2to3/7.png"",""time"":704},{""stimulus"":""img/2to3/8.png"",""time"":798},{""stimulus"":""img/2to3/9.png"",""time"":901},{""stimulus"":""img/2to3/10.png"",""time"":999},{""stimulus"":""img/2to3/11.png"",""time"":1092},{""stimulus"":""img/2to3/12.png"",""time"":1197}]","[]"
"image-keyboard-response","170","385725","0.0-5.0-1.83","5b9b422307c6960001614c35","bdp_cybrbll","Tue Mar 28 2023 22:33:16 GMT-0400 (Eastern Daylight Time)","636704","1","3","","null","","","","observe","","img/3to2/1.png","null","142","188","0.5","0.1","3","1","",""
"animation","171","387023","0.0-5.0-2.83","5b9b422307c6960001614c35","bdp_cybrbll","Tue Mar 28 2023 22:33:16 GMT-0400 (Eastern Daylight Time)","636704","1","3","","","","","","","","","","142","","","","3","1","[{""stimulus"":""img/3to1/1.png"",""time"":107},{""stimulus"":""img/3to1/2.png"",""time"":200},{""stimulus"":""img/3to1/3.png"",""time"":306},{""stimulus"":""img/3to1/4.png"",""time"":400},{""stimulus"":""img/3to1/5.png"",""time"":506},{""stimulus"":""img/3to1/6.png"",""time"":601},{""stimulus"":""img/3to1/7.png"",""time"":699},{""stimulus"":""img/3to1/8.png"",""time"":802},{""stimulus"":""img/3to1/9.png"",""time"":898},{""stimulus"":""img/3to1/10.png"",""time"":996},{""stimulus"":""img/3to1/11.png"",""time"":1098},{""stimulus"":""img/3to1/12.png"",""time"":1191}]","[]"
"image-keyboard-response","172","387333","0.0-5.0-1.84","5b9b422307c6960001614c35","bdp_cybrbll","Tue Mar 28 2023 22:33:16 GMT-0400 (Eastern Daylight Time)","636704","1","3","","null","","","","observe","","img/1to3/1.png","null","141","306","0.5","0.1","1","3","",""
"animation","173","388632","0.0-5.0-2.84","5b9b422307c6960001614c35","bdp_cybrbll","Tue Mar 28 2023 22:33:16 GMT-0400 (Eastern Daylight Time)","636704","1","3","","","","","","","","","","141","","","","1","3","[{""stimulus"":""img/1to3/1.png"",""time"":103},{""stimulus"":""img/1to3/2.png"",""time"":211},{""stimulus"":""img/1to3/3.png"",""time"":302},{""stimulus"":""img/1to3/4.png"",""time"":400},{""stimulus"":""img/1to3/5.png"",""time"":505},{""stimulus"":""img/1to3/6.png"",""time"":600},{""stimulus"":""img/1to3/7.png"",""time"":697},{""stimulus"":""img/1to3/8.png"",""time"":800},{""stimulus"":""img/1to3/9.png"",""time"":898},{""stimulus"":""img/1to3/10.png"",""time"":1000},{""stimulus"":""img/1to3/11.png"",""time"":1097},{""stimulus"":""img/1to3/12.png"",""time"":1191}]","[]"
"image-keyboard-response","174","388988","0.0-5.0-1.85","5b9b422307c6960001614c35","bdp_cybrbll","Tue Mar 28 2023 22:33:16 GMT-0400 (Eastern Daylight Time)","636704","1","3","","null","","","","observe","","img/3to2/1.png","null","140","352","0.5","0.1","3","1","",""
"animation","175","390280","0.0-5.0-2.85","5b9b422307c6960001614c35","bdp_cybrbll","Tue Mar 28 2023 22:33:16 GMT-0400 (Eastern Daylight Time)","636704","1","3","","","","","","","","","","140","","","","3","1","[{""stimulus"":""img/3to1/1.png"",""time"":106},{""stimulus"":""img/3to1/2.png"",""time"":204},{""stimulus"":""img/3to1/3.png"",""time"":308},{""stimulus"":""img/3to1/4.png"",""time"":401},{""stimulus"":""img/3to1/5.png"",""time"":500},{""stimulus"":""img/3to1/6.png"",""time"":604},{""stimulus"":""img/3to1/7.png"",""time"":697},{""stimulus"":""img/3to1/8.png"",""time"":801},{""stimulus"":""img/3to1/9.png"",""time"":900},{""stimulus"":""img/3to1/10.png"",""time"":996},{""stimulus"":""img/3to1/11.png"",""time"":1097},{""stimulus"":""img/3to1/12.png"",""time"":1195}]","[]"
"image-keyboard-response","176","390703","0.0-5.0-1.86","5b9b422307c6960001614c35","bdp_cybrbll","Tue Mar 28 2023 22:33:16 GMT-0400 (Eastern Daylight Time)","636704","1","3","","null","","","","observe","","img/1to3/1.png","null","139","415","0.5","0.1","1","2","",""
"animation","177","391998","0.0-5.0-2.86","5b9b422307c6960001614c35","bdp_cybrbll","Tue Mar 28 2023 22:33:16 GMT-0400 (Eastern Daylight Time)","636704","1","3","","","","","","","","","","139","","","","1","2","[{""stimulus"":""img/1to2/1.png"",""time"":103},{""stimulus"":""img/1to2/2.png"",""time"":207},{""stimulus"":""img/1to2/3.png"",""time"":305},{""stimulus"":""img/1to2/4.png"",""time"":400},{""stimulus"":""img/1to2/5.png"",""time"":502},{""stimulus"":""img/1to2/6.png"",""time"":600},{""stimulus"":""img/1to2/7.png"",""time"":702},{""stimulus"":""img/1to2/8.png"",""time"":800},{""stimulus"":""img/1to2/9.png"",""time"":898},{""stimulus"":""img/1to2/10.png"",""time"":1000},{""stimulus"":""img/1to2/11.png"",""time"":1095},{""stimulus"":""img/1to2/12.png"",""time"":1194}]","[]"
"image-keyboard-response","178","392361","0.0-5.0-1.87","5b9b422307c6960001614c35","bdp_cybrbll","Tue Mar 28 2023 22:33:16 GMT-0400 (Eastern Daylight Time)","636704","1","3","","363","","","","choice","","img/2to1/1.png","1","138","858","0.5","0.1","2","1","",""
"animation","179","393655","0.0-5.0-2.87","5b9b422307c6960001614c35","bdp_cybrbll","Tue Mar 28 2023 22:33:16 GMT-0400 (Eastern Daylight Time)","636704","1","3","","","","","","","","","","138","","","","2","1","[{""stimulus"":""img/2to1/1.png"",""time"":103},{""stimulus"":""img/2to1/2.png"",""time"":204},{""stimulus"":""img/2to1/3.png"",""time"":304},{""stimulus"":""img/2to1/4.png"",""time"":407},{""stimulus"":""img/2to1/5.png"",""time"":504},{""stimulus"":""img/2to1/6.png"",""time"":604},{""stimulus"":""img/2to1/7.png"",""time"":704},{""stimulus"":""img/2to1/8.png"",""time"":795},{""stimulus"":""img/2to1/9.png"",""time"":902},{""stimulus"":""img/2to1/10.png"",""time"":999},{""stimulus"":""img/2to1/11.png"",""time"":1093},{""stimulus"":""img/2to1/12.png"",""time"":1196}]","[]"
"image-keyboard-response","180","394160","0.0-5.0-1.88","5b9b422307c6960001614c35","bdp_cybrbll","Tue Mar 28 2023 22:33:16 GMT-0400 (Eastern Daylight Time)","636704","1","3","","null","","","","observe","","img/1to3/1.png","null","137","498","0.5","0.1","1","2","",""
"animation","181","395454","0.0-5.0-2.88","5b9b422307c6960001614c35","bdp_cybrbll","Tue Mar 28 2023 22:33:16 GMT-0400 (Eastern Daylight Time)","636704","1","3","","","","","","","","","","137","","","","1","2","[{""stimulus"":""img/1to2/1.png"",""time"":112},{""stimulus"":""img/1to2/2.png"",""time"":205},{""stimulus"":""img/1to2/3.png"",""time"":305},{""stimulus"":""img/1to2/4.png"",""time"":406},{""stimulus"":""img/1to2/5.png"",""time"":505},{""stimulus"":""img/1to2/6.png"",""time"":598},{""stimulus"":""img/1to2/7.png"",""time"":705},{""stimulus"":""img/1to2/8.png"",""time"":796},{""stimulus"":""img/1to2/9.png"",""time"":903},{""stimulus"":""img/1to2/10.png"",""time"":999},{""stimulus"":""img/1to2/11.png"",""time"":1094},{""stimulus"":""img/1to2/12.png"",""time"":1196}]","[]"
"image-keyboard-response","182","395724","0.0-5.0-1.89","5b9b422307c6960001614c35","bdp_cybrbll","Tue Mar 28 2023 22:33:16 GMT-0400 (Eastern Daylight Time)","636704","1","3","","269","","","","choice","","img/2to1/1.png","1","136","282","0.5","0.1","2","1","",""
"animation","183","397023","0.0-5.0-2.89","5b9b422307c6960001614c35","bdp_cybrbll","Tue Mar 28 2023 22:33:16 GMT-0400 (Eastern Daylight Time)","636704","1","3","","","","","","","","","","136","","","","2","1","[{""stimulus"":""img/2to1/1.png"",""time"":107},{""stimulus"":""img/2to1/2.png"",""time"":201},{""stimulus"":""img/2to1/3.png"",""time"":307},{""stimulus"":""img/2to1/4.png"",""time"":405},{""stimulus"":""img/2to1/5.png"",""time"":507},{""stimulus"":""img/2to1/6.png"",""time"":601},{""stimulus"":""img/2to1/7.png"",""time"":699},{""stimulus"":""img/2to1/8.png"",""time"":802},{""stimulus"":""img/2to1/9.png"",""time"":899},{""stimulus"":""img/2to1/10.png"",""time"":997},{""stimulus"":""img/2to1/11.png"",""time"":1099},{""stimulus"":""img/2to1/12.png"",""time"":1193}]","[]"
"image-keyboard-response","184","397263","0.0-5.0-1.90","5b9b422307c6960001614c35","bdp_cybrbll","Tue Mar 28 2023 22:33:16 GMT-0400 (Eastern Daylight Time)","636704","1","3","","null","","","","observe","","img/1to3/1.png","null","135","229","0.5","0.1","1","2","",""
"animation","185","398555","0.0-5.0-2.90","5b9b422307c6960001614c35","bdp_cybrbll","Tue Mar 28 2023 22:33:16 GMT-0400 (Eastern Daylight Time)","636704","1","3","","","","","","","","","","135","","","","1","2","[{""stimulus"":""img/1to2/1.png"",""time"":103},{""stimulus"":""img/1to2/2.png"",""time"":210},{""stimulus"":""img/1to2/3.png"",""time"":305},{""stimulus"":""img/1to2/4.png"",""time"":410},{""stimulus"":""img/1to2/5.png"",""time"":502},{""stimulus"":""img/1to2/6.png"",""time"":602},{""stimulus"":""img/1to2/7.png"",""time"":706},{""stimulus"":""img/1to2/8.png"",""time"":802},{""stimulus"":""img/1to2/9.png"",""time"":897},{""stimulus"":""img/1to2/10.png"",""time"":1002},{""stimulus"":""img/1to2/11.png"",""time"":1095},{""stimulus"":""img/1to2/12.png"",""time"":1200}]","[]"
"image-keyboard-response","186","398873","0.0-5.0-1.91","5b9b422307c6960001614c35","bdp_cybrbll","Tue Mar 28 2023 22:33:16 GMT-0400 (Eastern Daylight Time)","636704","1","3","","317","","","","choice","","img/2to1/1.png","2","134","335","0.5","0.1","2","3","",""
"animation","187","400168","0.0-5.0-2.91","5b9b422307c6960001614c35","bdp_cybrbll","Tue Mar 28 2023 22:33:16 GMT-0400 (Eastern Daylight Time)","636704","1","3","","","","","","","","","","134","","","","2","3","[{""stimulus"":""img/2to3/1.png"",""time"":110},{""stimulus"":""img/2to3/2.png"",""time"":203},{""stimulus"":""img/2to3/3.png"",""time"":300},{""stimulus"":""img/2to3/4.png"",""time"":406},{""stimulus"":""img/2to3/5.png"",""time"":500},{""stimulus"":""img/2to3/6.png"",""time"":603},{""stimulus"":""img/2to3/7.png"",""time"":700},{""stimulus"":""img/2to3/8.png"",""time"":798},{""stimulus"":""img/2to3/9.png"",""time"":900},{""stimulus"":""img/2to3/10.png"",""time"":998},{""stimulus"":""img/2to3/11.png"",""time"":1091},{""stimulus"":""img/2to3/12.png"",""time"":1198}]","[]"
"image-keyboard-response","188","400448","0.0-5.0-1.92","5b9b422307c6960001614c35","bdp_cybrbll","Tue Mar 28 2023 22:33:16 GMT-0400 (Eastern Daylight Time)","636704","1","3","","null","","","","observe","","img/3to2/1.png","null","133","272","0.5","0.1","3","1","",""
"animation","189","401743","0.0-5.0-2.92","5b9b422307c6960001614c35","bdp_cybrbll","Tue Mar 28 2023 22:33:16 GMT-0400 (Eastern Daylight Time)","636704","1","3","","","","","","","","","","133","","","","3","1","[{""stimulus"":""img/3to1/1.png"",""time"":104},{""stimulus"":""img/3to1/2.png"",""time"":208},{""stimulus"":""img/3to1/3.png"",""time"":300},{""stimulus"":""img/3to1/4.png"",""time"":408},{""stimulus"":""img/3to1/5.png"",""time"":504},{""stimulus"":""img/3to1/6.png"",""time"":600},{""stimulus"":""img/3to1/7.png"",""time"":702},{""stimulus"":""img/3to1/8.png"",""time"":800},{""stimulus"":""img/3to1/9.png"",""time"":895},{""stimulus"":""img/3to1/10.png"",""time"":1000},{""stimulus"":""img/3to1/11.png"",""time"":1095},{""stimulus"":""img/3to1/12.png"",""time"":1200}]","[]"
"image-keyboard-response","190","402392","0.0-5.0-1.93","5b9b422307c6960001614c35","bdp_cybrbll","Tue Mar 28 2023 22:33:16 GMT-0400 (Eastern Daylight Time)","636704","1","3","","null","","","","observe","","img/1to3/1.png","null","132","638","0.5","0.1","1","2","",""
