"event","trial","time","trialtype","subject_id","task","startTime","totalTime","fairPartner","unfairPartner","trial_type","trial_index","time_elapsed","internal_node_id","view_history","rt","success","stimulus","key_press","throwsLeft","rtDur","pFair","pUnfair","holder","receiver","animation_sequence","responses","numBlurs"
"focus","0","0","focusevent","63d1b93d9abc8c4b40e2d92f","bdp_cybrbll","Mon Mar 27 2023 10:52:33 GMT-0500 (Central Daylight Time)","466271","3","1","","","","","","","","","","","","","","","","","",""
"focus","0","0","focusevent","63d1b93d9abc8c4b40e2d92f","bdp_cybrbll","Mon Mar 27 2023 10:52:33 GMT-0500 (Central Daylight Time)","466271","3","1","","","","","","","","","","","","","","","","","",""
"","","","","63d1b93d9abc8c4b40e2d92f","bdp_cybrbll","Mon Mar 27 2023 10:52:33 GMT-0500 (Central Daylight Time)","466271","3","1","pavlovia","0","2","0.0-0.0","","","","","","","","","","","","","",""
"","","","","63d1b93d9abc8c4b40e2d92f","bdp_cybrbll","Mon Mar 27 2023 10:52:33 GMT-0500 (Central Daylight Time)","466271","3","1","instructions","1","6295","0.0-1.0","[{""page_index"":0,""viewing_time"":6291}]","6292","","","","","","","","","","","",""
"fullscreenenter","2","12391","fullscreenenter","63d1b93d9abc8c4b40e2d92f","bdp_cybrbll","Mon Mar 27 2023 10:52:33 GMT-0500 (Central Daylight Time)","466271","3","1","","","","","","","","","","","","","","","","","",""
"","","","","63d1b93d9abc8c4b40e2d92f","bdp_cybrbll","Mon Mar 27 2023 10:52:33 GMT-0500 (Central Daylight Time)","466271","3","1","fullscreen","2","13384","0.0-2.0","","","true","","","","","","","","","","",""
"","","","","63d1b93d9abc8c4b40e2d92f","bdp_cybrbll","Mon Mar 27 2023 10:52:33 GMT-0500 (Central Daylight Time)","466271","3","1","instructions","3","56403","0.0-4.0","[{""page_index"":0,""viewing_time"":43017}]","43017","","","","","","","","","","","",""
"","","","choice","63d1b93d9abc8c4b40e2d92f","bdp_cybrbll","Mon Mar 27 2023 10:52:33 GMT-0500 (Central Daylight Time)","466271","3","1","image-keyboard-response","4","57732","0.0-5.0-1.0","","1326","","img/2to1/1.png","2","225","704","0.5","0.5","2","3","","",""
"","","","","63d1b93d9abc8c4b40e2d92f","bdp_cybrbll","Mon Mar 27 2023 10:52:33 GMT-0500 (Central Daylight Time)","466271","3","1","animation","5","59022","0.0-5.0-2.0","","","","","","225","","","","2","3","[{""stimulus"":""img/2to3/1.png"",""time"":104},{""stimulus"":""img/2to3/2.png"",""time"":199},{""stimulus"":""img/2to3/3.png"",""time"":306},{""stimulus"":""img/2to3/4.png"",""time"":397},{""stimulus"":""img/2to3/5.png"",""time"":509},{""stimulus"":""img/2to3/6.png"",""time"":603},{""stimulus"":""img/2to3/7.png"",""time"":696},{""stimulus"":""img/2to3/8.png"",""time"":805},{""stimulus"":""img/2to3/9.png"",""time"":893},{""stimulus"":""img/2to3/10.png"",""time"":992},{""stimulus"":""img/2to3/11.png"",""time"":1091},{""stimulus"":""img/2to3/12.png"",""time"":1189}]","[]",""
"","","","observe","63d1b93d9abc8c4b40e2d92f","bdp_cybrbll","Mon Mar 27 2023 10:52:33 GMT-0500 (Central Daylight Time)","466271","3","1","image-keyboard-response","6","59552","0.0-5.0-1.1","","null","","img/3to2/1.png","null","224","520","0.5","0.5","3","1","","",""
"","","","","63d1b93d9abc8c4b40e2d92f","bdp_cybrbll","Mon Mar 27 2023 10:52:33 GMT-0500 (Central Daylight Time)","466271","3","1","animation","7","60841","0.0-5.0-2.1","","","","","","224","","","","3","1","[{""stimulus"":""img/3to1/1.png"",""time"":107},{""stimulus"":""img/3to1/2.png"",""time"":199},{""stimulus"":""img/3to1/3.png"",""time"":311},{""stimulus"":""img/3to1/4.png"",""time"":404},{""stimulus"":""img/3to1/5.png"",""time"":499},{""stimulus"":""img/3to1/6.png"",""time"":595},{""stimulus"":""img/3to1/7.png"",""time"":693},{""stimulus"":""img/3to1/8.png"",""time"":793},{""stimulus"":""img/3to1/9.png"",""time"":903},{""stimulus"":""img/3to1/10.png"",""time"":995},{""stimulus"":""img/3to1/11.png"",""time"":1103},{""stimulus"":""img/3to1/12.png"",""time"":1189}]","[]",""
"","","","observe","63d1b93d9abc8c4b40e2d92f","bdp_cybrbll","Mon Mar 27 2023 10:52:33 GMT-0500 (Central Daylight Time)","466271","3","1","image-keyboard-response","8","61256","0.0-5.0-1.2","","null","","img/1to3/1.png","null","223","413","0.5","0.5","1","3","","",""
"","","","","63d1b93d9abc8c4b40e2d92f","bdp_cybrbll","Mon Mar 27 2023 10:52:33 GMT-0500 (Central Daylight Time)","466271","3","1","animation","9","62546","0.0-5.0-2.2","","","","","","223","","","","1","3","[{""stimulus"":""img/1to3/1.png"",""time"":103},{""stimulus"":""img/1to3/2.png"",""time"":199},{""stimulus"":""img/1to3/3.png"",""time"":307},{""stimulus"":""img/1to3/4.png"",""time"":399},{""stimulus"":""img/1to3/5.png"",""time"":510},{""stimulus"":""img/1to3/6.png"",""time"":603},{""stimulus"":""img/1to3/7.png"",""time"":698},{""stimulus"":""img/1to3/8.png"",""time"":806},{""stimulus"":""img/1to3/9.png"",""time"":899},{""stimulus"":""img/1to3/10.png"",""time"":994},{""stimulus"":""img/1to3/11.png"",""time"":1102},{""stimulus"":""img/1to3/12.png"",""time"":1196}]","[]",""
"","","","observe","63d1b93d9abc8c4b40e2d92f","bdp_cybrbll","Mon Mar 27 2023 10:52:33 GMT-0500 (Central Daylight Time)","466271","3","1","image-keyboard-response","10","63004","0.0-5.0-1.3","","null","","img/3to2/1.png","null","222","455","0.5","0.5","3","1","","",""
"","","","","63d1b93d9abc8c4b40e2d92f","bdp_cybrbll","Mon Mar 27 2023 10:52:33 GMT-0500 (Central Daylight Time)","466271","3","1","animation","11","64293","0.0-5.0-2.3","","","","","","222","","","","3","1","[{""stimulus"":""img/3to1/1.png"",""time"":104},{""stimulus"":""img/3to1/2.png"",""time"":201},{""stimulus"":""img/3to1/3.png"",""time"":300},{""stimulus"":""img/3to1/4.png"",""time"":397},{""stimulus"":""img/3to1/5.png"",""time"":509},{""stimulus"":""img/3to1/6.png"",""time"":596},{""stimulus"":""img/3to1/7.png"",""time"":695},{""stimulus"":""img/3to1/8.png"",""time"":794},{""stimulus"":""img/3to1/9.png"",""time"":893},{""stimulus"":""img/3to1/10.png"",""time"":991},{""stimulus"":""img/3to1/11.png"",""time"":1090},{""stimulus"":""img/3to1/12.png"",""time"":1195}]","[]",""
"","","","observe","63d1b93d9abc8c4b40e2d92f","bdp_cybrbll","Mon Mar 27 2023 10:52:33 GMT-0500 (Central Daylight Time)","466271","3","1","image-keyboard-response","12","65229","0.0-5.0-1.4","","null","","img/1to3/1.png","null","221","921","0.5","0.5","1","3","","",""
"","","","","63d1b93d9abc8c4b40e2d92f","bdp_cybrbll","Mon Mar 27 2023 10:52:33 GMT-0500 (Central Daylight Time)","466271","3","1","animation","13","66521","0.0-5.0-2.4","","","","","","221","","","","1","3","[{""stimulus"":""img/1to3/1.png"",""time"":107},{""stimulus"":""img/1to3/2.png"",""time"":202},{""stimulus"":""img/1to3/3.png"",""time"":312},{""stimulus"":""img/1to3/4.png"",""time"":406},{""stimulus"":""img/1to3/5.png"",""time"":497},{""stimulus"":""img/1to3/6.png"",""time"":608},{""stimulus"":""img/1to3/7.png"",""time"":703},{""stimulus"":""img/1to3/8.png"",""time"":795},{""stimulus"":""img/1to3/9.png"",""time"":904},{""stimulus"":""img/1to3/10.png"",""time"":991},{""stimulus"":""img/1to3/11.png"",""time"":1091},{""stimulus"":""img/1to3/12.png"",""time"":1199}]","[]",""
"","","","observe","63d1b93d9abc8c4b40e2d92f","bdp_cybrbll","Mon Mar 27 2023 10:52:33 GMT-0500 (Central Daylight Time)","466271","3","1","image-keyboard-response","14","67053","0.0-5.0-1.5","","null","","img/3to2/1.png","null","220","526","0.5","0.5","3","1","","",""
"","","","","63d1b93d9abc8c4b40e2d92f","bdp_cybrbll","Mon Mar 27 2023 10:52:33 GMT-0500 (Central Daylight Time)","466271","3","1","animation","15","68348","0.0-5.0-2.5","","","","","","220","","","","3","1","[{""stimulus"":""img/3to1/1.png"",""time"":110},{""stimulus"":""img/3to1/2.png"",""time"":199},{""stimulus"":""img/3to1/3.png"",""time"":313},{""stimulus"":""img/3to1/4.png"",""time"":406},{""stimulus"":""img/3to1/5.png"",""time"":500},{""stimulus"":""img/3to1/6.png"",""time"":595},{""stimulus"":""img/3to1/7.png"",""time"":694},{""stimulus"":""img/3to1/8.png"",""time"":798},{""stimulus"":""img/3to1/9.png"",""time"":892},{""stimulus"":""img/3to1/10.png"",""time"":991},{""stimulus"":""img/3to1/11.png"",""time"":1091},{""stimulus"":""img/3to1/12.png"",""time"":1203}]","[]",""
"","","","observe","63d1b93d9abc8c4b40e2d92f","bdp_cybrbll","Mon Mar 27 2023 10:52:33 GMT-0500 (Central Daylight Time)","466271","3","1","image-keyboard-response","16","68984","0.0-5.0-1.6","","null","","img/1to3/1.png","null","219","628","0.5","0.5","1","3","","",""
"","","","","63d1b93d9abc8c4b40e2d92f","bdp_cybrbll","Mon Mar 27 2023 10:52:33 GMT-0500 (Central Daylight Time)","466271","3","1","animation","17","70279","0.0-5.0-2.6","","","","","","219","","","","1","3","[{""stimulus"":""img/1to3/1.png"",""time"":110},{""stimulus"":""img/1to3/2.png"",""time"":198},{""stimulus"":""img/1to3/3.png"",""time"":298},{""stimulus"":""img/1to3/4.png"",""time"":398},{""stimulus"":""img/1to3/5.png"",""time"":496},{""stimulus"":""img/1to3/6.png"",""time"":610},{""stimulus"":""img/1to3/7.png"",""time"":694},{""stimulus"":""img/1to3/8.png"",""time"":793},{""stimulus"":""img/1to3/9.png"",""time"":907},{""stimulus"":""img/1to3/10.png"",""time"":1000},{""stimulus"":""img/1to3/11.png"",""time"":1090},{""stimulus"":""img/1to3/12.png"",""time"":1189}]","[]",""
"","","","observe","63d1b93d9abc8c4b40e2d92f","bdp_cybrbll","Mon Mar 27 2023 10:52:33 GMT-0500 (Central Daylight Time)","466271","3","1","image-keyboard-response","18","70544","0.0-5.0-1.7","","null","","img/3to2/1.png","null","218","256","0.5","0.5","3","2","","",""
"","","","","63d1b93d9abc8c4b40e2d92f","bdp_cybrbll","Mon Mar 27 2023 10:52:33 GMT-0500 (Central Daylight Time)","466271","3","1","animation","19","71832","0.0-5.0-2.7","","","","","","218","","","","3","2","[{""stimulus"":""img/3to2/1.png"",""time"":109},{""stimulus"":""img/3to2/2.png"",""time"":199},{""stimulus"":""img/3to2/3.png"",""time"":311},{""stimulus"":""img/3to2/4.png"",""time"":405},{""stimulus"":""img/3to2/5.png"",""time"":498},{""stimulus"":""img/3to2/6.png"",""time"":595},{""stimulus"":""img/3to2/7.png"",""time"":700},{""stimulus"":""img/3to2/8.png"",""time"":794},{""stimulus"":""img/3to2/9.png"",""time"":903},{""stimulus"":""img/3to2/10.png"",""time"":997},{""stimulus"":""img/3to2/11.png"",""time"":1090},{""stimulus"":""img/3to2/12.png"",""time"":1189}]","[]",""
"","","","choice","63d1b93d9abc8c4b40e2d92f","bdp_cybrbll","Mon Mar 27 2023 10:52:33 GMT-0500 (Central Daylight Time)","466271","3","1","image-keyboard-response","20","72417","0.0-5.0-1.8","","584","","img/2to1/1.png","1","217","549","0.5","0.5","2","1","","",""
"","","","","63d1b93d9abc8c4b40e2d92f","bdp_cybrbll","Mon Mar 27 2023 10:52:33 GMT-0500 (Central Daylight Time)","466271","3","1","animation","21","73715","0.0-5.0-2.8","","","","","","217","","","","2","1","[{""stimulus"":""img/2to1/1.png"",""time"":100},{""stimulus"":""img/2to1/2.png"",""time"":206},{""stimulus"":""img/2to1/3.png"",""time"":301},{""stimulus"":""img/2to1/4.png"",""time"":411},{""stimulus"":""img/2to1/5.png"",""time"":496},{""stimulus"":""img/2to1/6.png"",""time"":596},{""stimulus"":""img/2to1/7.png"",""time"":705},{""stimulus"":""img/2to1/8.png"",""time"":793},{""stimulus"":""img/2to1/9.png"",""time"":893},{""stimulus"":""img/2to1/10.png"",""time"":991},{""stimulus"":""img/2to1/11.png"",""time"":1094},{""stimulus"":""img/2to1/12.png"",""time"":1204}]","[]",""
"","","","observe","63d1b93d9abc8c4b40e2d92f","bdp_cybrbll","Mon Mar 27 2023 10:52:33 GMT-0500 (Central Daylight Time)","466271","3","1","image-keyboard-response","22","74891","0.0-5.0-1.9","","null","","img/1to3/1.png","null","216","1163","0.5","0.5","1","3","","",""
"","","","","63d1b93d9abc8c4b40e2d92f","bdp_cybrbll","Mon Mar 27 2023 10:52:33 GMT-0500 (Central Daylight Time)","466271","3","1","animation","23","76182","0.0-5.0-2.9","","","","","","216","","","","1","3","[{""stimulus"":""img/1to3/1.png"",""time"":109},{""stimulus"":""img/1to3/2.png"",""time"":199},{""stimulus"":""img/1to3/3.png"",""time"":298},{""stimulus"":""img/1to3/4.png"",""time"":397},{""stimulus"":""img/1to3/5.png"",""time"":496},{""stimulus"":""img/1to3/6.png"",""time"":608},{""stimulus"":""img/1to3/7.png"",""time"":701},{""stimulus"":""img/1to3/8.png"",""time"":795},{""stimulus"":""img/1to3/9.png"",""time"":903},{""stimulus"":""img/1to3/10.png"",""time"":991},{""stimulus"":""img/1to3/11.png"",""time"":1104},{""stimulus"":""img/1to3/12.png"",""time"":1190}]","[]",""
"","","","observe","63d1b93d9abc8c4b40e2d92f","bdp_cybrbll","Mon Mar 27 2023 10:52:33 GMT-0500 (Central Daylight Time)","466271","3","1","image-keyboard-response","24","76447","0.0-5.0-1.10","","null","","img/3to2/1.png","null","215","248","0.5","0.5","3","1","","",""
"","","","","63d1b93d9abc8c4b40e2d92f","bdp_cybrbll","Mon Mar 27 2023 10:52:33 GMT-0500 (Central Daylight Time)","466271","3","1","animation","25","77735","0.0-5.0-2.10","","","","","","215","","","","3","1","[{""stimulus"":""img/3to1/1.png"",""time"":109},{""stimulus"":""img/3to1/2.png"",""time"":204},{""stimulus"":""img/3to1/3.png"",""time"":313},{""stimulus"":""img/3to1/4.png"",""time"":397},{""stimulus"":""img/3to1/5.png"",""time"":499},{""stimulus"":""img/3to1/6.png"",""time"":608},{""stimulus"":""img/3to1/7.png"",""time"":701},{""stimulus"":""img/3to1/8.png"",""time"":794},{""stimulus"":""img/3to1/9.png"",""time"":905},{""stimulus"":""img/3to1/10.png"",""time"":991},{""stimulus"":""img/3to1/11.png"",""time"":1106},{""stimulus"":""img/3to1/12.png"",""time"":1190}]","[]",""
"","","","observe","63d1b93d9abc8c4b40e2d92f","bdp_cybrbll","Mon Mar 27 2023 10:52:33 GMT-0500 (Central Daylight Time)","466271","3","1","image-keyboard-response","26","78157","0.0-5.0-1.11","","null","","img/1to3/1.png","null","214","413","0.5","0.5","1","3","","",""
"","","","","63d1b93d9abc8c4b40e2d92f","bdp_cybrbll","Mon Mar 27 2023 10:52:33 GMT-0500 (Central Daylight Time)","466271","3","1","animation","27","79452","0.0-5.0-2.11","","","","","","214","","","","1","3","[{""stimulus"":""img/1to3/1.png"",""time"":110},{""stimulus"":""img/1to3/2.png"",""time"":199},{""stimulus"":""img/1to3/3.png"",""time"":312},{""stimulus"":""img/1to3/4.png"",""time"":398},{""stimulus"":""img/1to3/5.png"",""time"":500},{""stimulus"":""img/1to3/6.png"",""time"":594},{""stimulus"":""img/1to3/7.png"",""time"":693},{""stimulus"":""img/1to3/8.png"",""time"":796},{""stimulus"":""img/1to3/9.png"",""time"":892},{""stimulus"":""img/1to3/10.png"",""time"":991},{""stimulus"":""img/1to3/11.png"",""time"":1089},{""stimulus"":""img/1to3/12.png"",""time"":1202}]","[]",""
"","","","observe","63d1b93d9abc8c4b40e2d92f","bdp_cybrbll","Mon Mar 27 2023 10:52:33 GMT-0500 (Central Daylight Time)","466271","3","1","image-keyboard-response","28","80044","0.0-5.0-1.12","","null","","img/3to2/1.png","null","213","575","0.5","0.5","3","1","","",""
"","","","","63d1b93d9abc8c4b40e2d92f","bdp_cybrbll","Mon Mar 27 2023 10:52:33 GMT-0500 (Central Daylight Time)","466271","3","1","animation","29","81333","0.0-5.0-2.12","","","","","","213","","","","3","1","[{""stimulus"":""img/3to1/1.png"",""time"":109},{""stimulus"":""img/3to1/2.png"",""time"":199},{""stimulus"":""img/3to1/3.png"",""time"":298},{""stimulus"":""img/3to1/4.png"",""time"":407},{""stimulus"":""img/3to1/5.png"",""time"":498},{""stimulus"":""img/3to1/6.png"",""time"":611},{""stimulus"":""img/3to1/7.png"",""time"":695},{""stimulus"":""img/3to1/8.png"",""time"":794},{""stimulus"":""img/3to1/9.png"",""time"":893},{""stimulus"":""img/3to1/10.png"",""time"":992},{""stimulus"":""img/3to1/11.png"",""time"":1091},{""stimulus"":""img/3to1/12.png"",""time"":1191}]","[]",""
"","","","observe","63d1b93d9abc8c4b40e2d92f","bdp_cybrbll","Mon Mar 27 2023 10:52:33 GMT-0500 (Central Daylight Time)","466271","3","1","image-keyboard-response","30","81983","0.0-5.0-1.13","","null","","img/1to3/1.png","null","212","641","0.5","0.5","1","2","","",""
"","","","","63d1b93d9abc8c4b40e2d92f","bdp_cybrbll","Mon Mar 27 2023 10:52:33 GMT-0500 (Central Daylight Time)","466271","3","1","animation","31","83271","0.0-5.0-2.13","","","","","","212","","","","1","2","[{""stimulus"":""img/1to2/1.png"",""time"":108},{""stimulus"":""img/1to2/2.png"",""time"":199},{""stimulus"":""img/1to2/3.png"",""time"":311},{""stimulus"":""img/1to2/4.png"",""time"":397},{""stimulus"":""img/1to2/5.png"",""time"":497},{""stimulus"":""img/1to2/6.png"",""time"":595},{""stimulus"":""img/1to2/7.png"",""time"":694},{""stimulus"":""img/1to2/8.png"",""time"":793},{""stimulus"":""img/1to2/9.png"",""time"":901},{""stimulus"":""img/1to2/10.png"",""time"":994},{""stimulus"":""img/1to2/11.png"",""time"":1105},{""stimulus"":""img/1to2/12.png"",""time"":1198}]","[]",""
"","","","choice","63d1b93d9abc8c4b40e2d92f","bdp_cybrbll","Mon Mar 27 2023 10:52:33 GMT-0500 (Central Daylight Time)","466271","3","1","image-keyboard-response","32","83820","0.0-5.0-1.14","","548","","img/2to1/1.png","2","211","394","0.5","0.5","2","3","","",""
"","","","","63d1b93d9abc8c4b40e2d92f","bdp_cybrbll","Mon Mar 27 2023 10:52:33 GMT-0500 (Central Daylight Time)","466271","3","1","animation","33","85113","0.0-5.0-2.14","","","","","","211","","","","2","3","[{""stimulus"":""img/2to3/1.png"",""time"":100},{""stimulus"":""img/2to3/2.png"",""time"":203},{""stimulus"":""img/2to3/3.png"",""time"":298},{""stimulus"":""img/2to3/4.png"",""time"":406},{""stimulus"":""img/2to3/5.png"",""time"":500},{""stimulus"":""img/2to3/6.png"",""time"":608},{""stimulus"":""img/2to3/7.png"",""time"":694},{""stimulus"":""img/2to3/8.png"",""time"":794},{""stimulus"":""img/2to3/9.png"",""time"":902},{""stimulus"":""img/2to3/10.png"",""time"":995},{""stimulus"":""img/2to3/11.png"",""time"":1091},{""stimulus"":""img/2to3/12.png"",""time"":1189}]","[]",""
"","","","observe","63d1b93d9abc8c4b40e2d92f","bdp_cybrbll","Mon Mar 27 2023 10:52:33 GMT-0500 (Central Daylight Time)","466271","3","1","image-keyboard-response","34","85719","0.0-5.0-1.15","","null","","img/3to2/1.png","null","210","594","0.5","0.5","3","1","","",""
"","","","","63d1b93d9abc8c4b40e2d92f","bdp_cybrbll","Mon Mar 27 2023 10:52:33 GMT-0500 (Central Daylight Time)","466271","3","1","animation","35","87006","0.0-5.0-2.15","","","","","","210","","","","3","1","[{""stimulus"":""img/3to1/1.png"",""time"":109},{""stimulus"":""img/3to1/2.png"",""time"":199},{""stimulus"":""img/3to1/3.png"",""time"":299},{""stimulus"":""img/3to1/4.png"",""time"":397},{""stimulus"":""img/3to1/5.png"",""time"":496},{""stimulus"":""img/3to1/6.png"",""time"":595},{""stimulus"":""img/3to1/7.png"",""time"":695},{""stimulus"":""img/3to1/8.png"",""time"":794},{""stimulus"":""img/3to1/9.png"",""time"":904},{""stimulus"":""img/3to1/10.png"",""time"":998},{""stimulus"":""img/3to1/11.png"",""time"":1091},{""stimulus"":""img/3to1/12.png"",""time"":1189}]","[]",""
"","","","observe","63d1b93d9abc8c4b40e2d92f","bdp_cybrbll","Mon Mar 27 2023 10:52:33 GMT-0500 (Central Daylight Time)","466271","3","1","image-keyboard-response","36","87556","0.0-5.0-1.16","","null","","img/1to3/1.png","null","209","546","0.5","0.5","1","2","","",""
"","","","","63d1b93d9abc8c4b40e2d92f","bdp_cybrbll","Mon Mar 27 2023 10:52:33 GMT-0500 (Central Daylight Time)","466271","3","1","animation","37","88851","0.0-5.0-2.16","","","","","","209","","","","1","2","[{""stimulus"":""img/1to2/1.png"",""time"":108},{""stimulus"":""img/1to2/2.png"",""time"":199},{""stimulus"":""img/1to2/3.png"",""time"":313},{""stimulus"":""img/1to2/4.png"",""time"":397},{""stimulus"":""img/1to2/5.png"",""time"":499},{""stimulus"":""img/1to2/6.png"",""time"":595},{""stimulus"":""img/1to2/7.png"",""time"":702},{""stimulus"":""img/1to2/8.png"",""time"":793},{""stimulus"":""img/1to2/9.png"",""time"":905},{""stimulus"":""img/1to2/10.png"",""time"":999},{""stimulus"":""img/1to2/11.png"",""time"":1093},{""stimulus"":""img/1to2/12.png"",""time"":1189}]","[]",""
"","","","choice","63d1b93d9abc8c4b40e2d92f","bdp_cybrbll","Mon Mar 27 2023 10:52:33 GMT-0500 (Central Daylight Time)","466271","3","1","image-keyboard-response","38","89379","0.0-5.0-1.17","","527","","img/2to1/1.png","2","208","282","0.5","0.5","2","3","","",""
"","","","","63d1b93d9abc8c4b40e2d92f","bdp_cybrbll","Mon Mar 27 2023 10:52:33 GMT-0500 (Central Daylight Time)","466271","3","1","animation","39","90681","0.0-5.0-2.17","","","","","","208","","","","2","3","[{""stimulus"":""img/2to3/1.png"",""time"":100},{""stimulus"":""img/2to3/2.png"",""time"":199},{""stimulus"":""img/2to3/3.png"",""time"":309},{""stimulus"":""img/2to3/4.png"",""time"":402},{""stimulus"":""img/2to3/5.png"",""time"":512},{""stimulus"":""img/2to3/6.png"",""time"":595},{""stimulus"":""img/2to3/7.png"",""time"":697},{""stimulus"":""img/2to3/8.png"",""time"":794},{""stimulus"":""img/2to3/9.png"",""time"":899},{""stimulus"":""img/2to3/10.png"",""time"":992},{""stimulus"":""img/2to3/11.png"",""time"":1100},{""stimulus"":""img/2to3/12.png"",""time"":1193}]","[]",""
"","","","observe","63d1b93d9abc8c4b40e2d92f","bdp_cybrbll","Mon Mar 27 2023 10:52:33 GMT-0500 (Central Daylight Time)","466271","3","1","image-keyboard-response","40","91239","0.0-5.0-1.18","","null","","img/3to2/1.png","null","207","552","0.5","0.5","3","2","","",""
"","","","","63d1b93d9abc8c4b40e2d92f","bdp_cybrbll","Mon Mar 27 2023 10:52:33 GMT-0500 (Central Daylight Time)","466271","3","1","animation","41","92527","0.0-5.0-2.18","","","","","","207","","","","3","2","[{""stimulus"":""img/3to2/1.png"",""time"":109},{""stimulus"":""img/3to2/2.png"",""time"":199},{""stimulus"":""img/3to2/3.png"",""time"":298},{""stimulus"":""img/3to2/4.png"",""time"":406},{""stimulus"":""img/3to2/5.png"",""time"":498},{""stimulus"":""img/3to2/6.png"",""time"":595},{""stimulus"":""img/3to2/7.png"",""time"":702},{""stimulus"":""img/3to2/8.png"",""time"":792},{""stimulus"":""img/3to2/9.png"",""time"":904},{""stimulus"":""img/3to2/10.png"",""time"":997},{""stimulus"":""img/3to2/11.png"",""time"":1089},{""stimulus"":""img/3to2/12.png"",""time"":1200}]","[]",""
"","","","choice","63d1b93d9abc8c4b40e2d92f","bdp_cybrbll","Mon Mar 27 2023 10:52:33 GMT-0500 (Central Daylight Time)","466271","3","1","image-keyboard-response","42","93147","0.0-5.0-1.19","","619","","img/2to1/1.png","1","206","581","0.5","0.5","2","1","","",""
"","","","","63d1b93d9abc8c4b40e2d92f","bdp_cybrbll","Mon Mar 27 2023 10:52:33 GMT-0500 (Central Daylight Time)","466271","3","1","animation","43","94435","0.0-5.0-2.19","","","","","","206","","","","2","1","[{""stimulus"":""img/2to1/1.png"",""time"":101},{""stimulus"":""img/2to1/2.png"",""time"":199},{""stimulus"":""img/2to1/3.png"",""time"":302},{""stimulus"":""img/2to1/4.png"",""time"":396},{""stimulus"":""img/2to1/5.png"",""time"":496},{""stimulus"":""img/2to1/6.png"",""time"":600},{""stimulus"":""img/2to1/7.png"",""time"":695},{""stimulus"":""img/2to1/8.png"",""time"":793},{""stimulus"":""img/2to1/9.png"",""time"":891},{""stimulus"":""img/2to1/10.png"",""time"":991},{""stimulus"":""img/2to1/11.png"",""time"":1090},{""stimulus"":""img/2to1/12.png"",""time"":1188}]","[]",""
"","","","observe","63d1b93d9abc8c4b40e2d92f","bdp_cybrbll","Mon Mar 27 2023 10:52:33 GMT-0500 (Central Daylight Time)","466271","3","1","image-keyboard-response","44","94598","0.0-5.0-1.20","","null","","img/1to3/1.png","null","205","160","0.5","0.5","1","3","","",""
"","","","","63d1b93d9abc8c4b40e2d92f","bdp_cybrbll","Mon Mar 27 2023 10:52:33 GMT-0500 (Central Daylight Time)","466271","3","1","animation","45","95887","0.0-5.0-2.20","","","","","","205","","","","1","3","[{""stimulus"":""img/1to3/1.png"",""time"":109},{""stimulus"":""img/1to3/2.png"",""time"":200},{""stimulus"":""img/1to3/3.png"",""time"":311},{""stimulus"":""img/1to3/4.png"",""time"":405},{""stimulus"":""img/1to3/5.png"",""time"":497},{""stimulus"":""img/1to3/6.png"",""time"":606},{""stimulus"":""img/1to3/7.png"",""time"":699},{""stimulus"":""img/1to3/8.png"",""time"":808},{""stimulus"":""img/1to3/9.png"",""time"":902},{""stimulus"":""img/1to3/10.png"",""time"":996},{""stimulus"":""img/1to3/11.png"",""time"":1105},{""stimulus"":""img/1to3/12.png"",""time"":1198}]","[]",""
"","","","observe","63d1b93d9abc8c4b40e2d92f","bdp_cybrbll","Mon Mar 27 2023 10:52:33 GMT-0500 (Central Daylight Time)","466271","3","1","image-keyboard-response","46","96214","0.0-5.0-1.21","","null","","img/3to2/1.png","null","204","319","0.5","0.5","3","1","","",""
"","","","","63d1b93d9abc8c4b40e2d92f","bdp_cybrbll","Mon Mar 27 2023 10:52:33 GMT-0500 (Central Daylight Time)","466271","3","1","animation","47","97509","0.0-5.0-2.21","","","","","","204","","","","3","1","[{""stimulus"":""img/3to1/1.png"",""time"":109},{""stimulus"":""img/3to1/2.png"",""time"":199},{""stimulus"":""img/3to1/3.png"",""time"":312},{""stimulus"":""img/3to1/4.png"",""time"":404},{""stimulus"":""img/3to1/5.png"",""time"":495},{""stimulus"":""img/3to1/6.png"",""time"":595},{""stimulus"":""img/3to1/7.png"",""time"":695},{""stimulus"":""img/3to1/8.png"",""time"":793},{""stimulus"":""img/3to1/9.png"",""time"":892},{""stimulus"":""img/3to1/10.png"",""time"":991},{""stimulus"":""img/3to1/11.png"",""time"":1093},{""stimulus"":""img/3to1/12.png"",""time"":1202}]","[]",""
"","","","observe","63d1b93d9abc8c4b40e2d92f","bdp_cybrbll","Mon Mar 27 2023 10:52:33 GMT-0500 (Central Daylight Time)","466271","3","1","image-keyboard-response","48","97851","0.0-5.0-1.22","","null","","img/1to3/1.png","null","203","339","0.5","0.5","1","2","","",""
"","","","","63d1b93d9abc8c4b40e2d92f","bdp_cybrbll","Mon Mar 27 2023 10:52:33 GMT-0500 (Central Daylight Time)","466271","3","1","animation","49","99141","0.0-5.0-2.22","","","","","","203","","","","1","2","[{""stimulus"":""img/1to2/1.png"",""time"":109},{""stimulus"":""img/1to2/2.png"",""time"":200},{""stimulus"":""img/1to2/3.png"",""time"":311},{""stimulus"":""img/1to2/4.png"",""time"":405},{""stimulus"":""img/1to2/5.png"",""time"":497},{""stimulus"":""img/1to2/6.png"",""time"":607},{""stimulus"":""img/1to2/7.png"",""time"":700},{""stimulus"":""img/1to2/8.png"",""time"":793},{""stimulus"":""img/1to2/9.png"",""time"":904},{""stimulus"":""img/1to2/10.png"",""time"":992},{""stimulus"":""img/1to2/11.png"",""time"":1105},{""stimulus"":""img/1to2/12.png"",""time"":1190}]","[]",""
"","","","choice","63d1b93d9abc8c4b40e2d92f","bdp_cybrbll","Mon Mar 27 2023 10:52:33 GMT-0500 (Central Daylight Time)","466271","3","1","image-keyboard-response","50","99484","0.0-5.0-1.23","","341","","img/2to1/1.png","2","202","502","0.5","0.5","2","3","","",""
"","","","","63d1b93d9abc8c4b40e2d92f","bdp_cybrbll","Mon Mar 27 2023 10:52:33 GMT-0500 (Central Daylight Time)","466271","3","1","animation","51","100780","0.0-5.0-2.23","","","","","","202","","","","2","3","[{""stimulus"":""img/2to3/1.png"",""time"":100},{""stimulus"":""img/2to3/2.png"",""time"":204},{""stimulus"":""img/2to3/3.png"",""time"":313},{""stimulus"":""img/2to3/4.png"",""time"":405},{""stimulus"":""img/2to3/5.png"",""time"":499},{""stimulus"":""img/2to3/6.png"",""time"":595},{""stimulus"":""img/2to3/7.png"",""time"":694},{""stimulus"":""img/2to3/8.png"",""time"":797},{""stimulus"":""img/2to3/9.png"",""time"":905},{""stimulus"":""img/2to3/10.png"",""time"":999},{""stimulus"":""img/2to3/11.png"",""time"":1092},{""stimulus"":""img/2to3/12.png"",""time"":1203}]","[]",""
"","","","observe","63d1b93d9abc8c4b40e2d92f","bdp_cybrbll","Mon Mar 27 2023 10:52:33 GMT-0500 (Central Daylight Time)","466271","3","1","image-keyboard-response","52","101047","0.0-5.0-1.24","","null","","img/3to2/1.png","null","201","265","0.5","0.5","3","2","","",""
"","","","","63d1b93d9abc8c4b40e2d92f","bdp_cybrbll","Mon Mar 27 2023 10:52:33 GMT-0500 (Central Daylight Time)","466271","3","1","animation","53","102349","0.0-5.0-2.24","","","","","","201","","","","3","2","[{""stimulus"":""img/3to2/1.png"",""time"":107},{""stimulus"":""img/3to2/2.png"",""time"":199},{""stimulus"":""img/3to2/3.png"",""time"":307},{""stimulus"":""img/3to2/4.png"",""time"":397},{""stimulus"":""img/3to2/5.png"",""time"":509},{""stimulus"":""img/3to2/6.png"",""time"":603},{""stimulus"":""img/3to2/7.png"",""time"":696},{""stimulus"":""img/3to2/8.png"",""time"":805},{""stimulus"":""img/3to2/9.png"",""time"":899},{""stimulus"":""img/3to2/10.png"",""time"":992},{""stimulus"":""img/3to2/11.png"",""time"":1091},{""stimulus"":""img/3to2/12.png"",""time"":1190}]","[]",""
"","","","choice","63d1b93d9abc8c4b40e2d92f","bdp_cybrbll","Mon Mar 27 2023 10:52:33 GMT-0500 (Central Daylight Time)","466271","3","1","image-keyboard-response","54","102811","0.0-5.0-1.25","","460","","img/2to1/1.png","1","200","243","0.5","0.5","2","1","","",""
"","","","","63d1b93d9abc8c4b40e2d92f","bdp_cybrbll","Mon Mar 27 2023 10:52:33 GMT-0500 (Central Daylight Time)","466271","3","1","animation","55","104101","0.0-5.0-2.25","","","","","","200","","","","2","1","[{""stimulus"":""img/2to1/1.png"",""time"":101},{""stimulus"":""img/2to1/2.png"",""time"":201},{""stimulus"":""img/2to1/3.png"",""time"":304},{""stimulus"":""img/2to1/4.png"",""time"":399},{""stimulus"":""img/2to1/5.png"",""time"":506},{""stimulus"":""img/2to1/6.png"",""time"":600},{""stimulus"":""img/2to1/7.png"",""time"":694},{""stimulus"":""img/2to1/8.png"",""time"":802},{""stimulus"":""img/2to1/9.png"",""time"":893},{""stimulus"":""img/2to1/10.png"",""time"":1005},{""stimulus"":""img/2to1/11.png"",""time"":1090},{""stimulus"":""img/2to1/12.png"",""time"":1189}]","[]",""
"","","","observe","63d1b93d9abc8c4b40e2d92f","bdp_cybrbll","Mon Mar 27 2023 10:52:33 GMT-0500 (Central Daylight Time)","466271","3","1","image-keyboard-response","56","104660","0.0-5.0-1.26","","null","","img/1to3/1.png","null","199","542","0.5","0.5","1","2","","",""
"","","","","63d1b93d9abc8c4b40e2d92f","bdp_cybrbll","Mon Mar 27 2023 10:52:33 GMT-0500 (Central Daylight Time)","466271","3","1","animation","57","105949","0.0-5.0-2.26","","","","","","199","","","","1","2","[{""stimulus"":""img/1to2/1.png"",""time"":109},{""stimulus"":""img/1to2/2.png"",""time"":199},{""stimulus"":""img/1to2/3.png"",""time"":298},{""stimulus"":""img/1to2/4.png"",""time"":397},{""stimulus"":""img/1to2/5.png"",""time"":499},{""stimulus"":""img/1to2/6.png"",""time"":595},{""stimulus"":""img/1to2/7.png"",""time"":702},{""stimulus"":""img/1to2/8.png"",""time"":795},{""stimulus"":""img/1to2/9.png"",""time"":904},{""stimulus"":""img/1to2/10.png"",""time"":999},{""stimulus"":""img/1to2/11.png"",""time"":1090},{""stimulus"":""img/1to2/12.png"",""time"":1201}]","[]",""
"","","","choice","63d1b93d9abc8c4b40e2d92f","bdp_cybrbll","Mon Mar 27 2023 10:52:33 GMT-0500 (Central Daylight Time)","466271","3","1","image-keyboard-response","58","106355","0.0-5.0-1.27","","406","","img/2to1/1.png","2","198","614","0.5","0.5","2","3","","",""
"","","","","63d1b93d9abc8c4b40e2d92f","bdp_cybrbll","Mon Mar 27 2023 10:52:33 GMT-0500 (Central Daylight Time)","466271","3","1","animation","59","107651","0.0-5.0-2.27","","","","","","198","","","","2","3","[{""stimulus"":""img/2to3/1.png"",""time"":100},{""stimulus"":""img/2to3/2.png"",""time"":199},{""stimulus"":""img/2to3/3.png"",""time"":301},{""stimulus"":""img/2to3/4.png"",""time"":397},{""stimulus"":""img/2to3/5.png"",""time"":503},{""stimulus"":""img/2to3/6.png"",""time"":595},{""stimulus"":""img/2to3/7.png"",""time"":694},{""stimulus"":""img/2to3/8.png"",""time"":799},{""stimulus"":""img/2to3/9.png"",""time"":892},{""stimulus"":""img/2to3/10.png"",""time"":991},{""stimulus"":""img/2to3/11.png"",""time"":1093},{""stimulus"":""img/2to3/12.png"",""time"":1188}]","[]",""
"","","","observe","63d1b93d9abc8c4b40e2d92f","bdp_cybrbll","Mon Mar 27 2023 10:52:33 GMT-0500 (Central Daylight Time)","466271","3","1","image-keyboard-response","60","107980","0.0-5.0-1.28","","null","","img/3to2/1.png","null","197","324","0.5","0.5","3","1","","",""
"","","","","63d1b93d9abc8c4b40e2d92f","bdp_cybrbll","Mon Mar 27 2023 10:52:33 GMT-0500 (Central Daylight Time)","466271","3","1","animation","61","109269","0.0-5.0-2.28","","","","","","197","","","","3","1","[{""stimulus"":""img/3to1/1.png"",""time"":108},{""stimulus"":""img/3to1/2.png"",""time"":199},{""stimulus"":""img/3to1/3.png"",""time"":298},{""stimulus"":""img/3to1/4.png"",""time"":397},{""stimulus"":""img/3to1/5.png"",""time"":496},{""stimulus"":""img/3to1/6.png"",""time"":595},{""stimulus"":""img/3to1/7.png"",""time"":695},{""stimulus"":""img/3to1/8.png"",""time"":793},{""stimulus"":""img/3to1/9.png"",""time"":901},{""stimulus"":""img/3to1/10.png"",""time"":995},{""stimulus"":""img/3to1/11.png"",""time"":1091},{""stimulus"":""img/3to1/12.png"",""time"":1189}]","[]",""
"","","","observe","63d1b93d9abc8c4b40e2d92f","bdp_cybrbll","Mon Mar 27 2023 10:52:33 GMT-0500 (Central Daylight Time)","466271","3","1","image-keyboard-response","62","109595","0.0-5.0-1.29","","null","","img/1to3/1.png","null","196","313","0.5","0.5","1","2","","",""
"","","","","63d1b93d9abc8c4b40e2d92f","bdp_cybrbll","Mon Mar 27 2023 10:52:33 GMT-0500 (Central Daylight Time)","466271","3","1","animation","63","110887","0.0-5.0-2.29","","","","","","196","","","","1","2","[{""stimulus"":""img/1to2/1.png"",""time"":109},{""stimulus"":""img/1to2/2.png"",""time"":199},{""stimulus"":""img/1to2/3.png"",""time"":313},{""stimulus"":""img/1to2/4.png"",""time"":398},{""stimulus"":""img/1to2/5.png"",""time"":496},{""stimulus"":""img/1to2/6.png"",""time"":609},{""stimulus"":""img/1to2/7.png"",""time"":702},{""stimulus"":""img/1to2/8.png"",""time"":795},{""stimulus"":""img/1to2/9.png"",""time"":904},{""stimulus"":""img/1to2/10.png"",""time"":997},{""stimulus"":""img/1to2/11.png"",""time"":1091},{""stimulus"":""img/1to2/12.png"",""time"":1200}]","[]",""
"","","","choice","63d1b93d9abc8c4b40e2d92f","bdp_cybrbll","Mon Mar 27 2023 10:52:33 GMT-0500 (Central Daylight Time)","466271","3","1","image-keyboard-response","64","112284","0.0-5.0-1.30","","1395","","img/2to1/1.png","1","195","142","0.5","0.5","2","1","","",""
"","","","","63d1b93d9abc8c4b40e2d92f","bdp_cybrbll","Mon Mar 27 2023 10:52:33 GMT-0500 (Central Daylight Time)","466271","3","1","animation","65","113579","0.0-5.0-2.30","","","","","","195","","","","2","1","[{""stimulus"":""img/2to1/1.png"",""time"":100},{""stimulus"":""img/2to1/2.png"",""time"":207},{""stimulus"":""img/2to1/3.png"",""time"":300},{""stimulus"":""img/2to1/4.png"",""time"":396},{""stimulus"":""img/2to1/5.png"",""time"":500},{""stimulus"":""img/2to1/6.png"",""time"":609},{""stimulus"":""img/2to1/7.png"",""time"":694},{""stimulus"":""img/2to1/8.png"",""time"":792},{""stimulus"":""img/2to1/9.png"",""time"":892},{""stimulus"":""img/2to1/10.png"",""time"":999},{""stimulus"":""img/2to1/11.png"",""time"":1091},{""stimulus"":""img/2to1/12.png"",""time"":1188}]","[]",""
"","","","observe","63d1b93d9abc8c4b40e2d92f","bdp_cybrbll","Mon Mar 27 2023 10:52:33 GMT-0500 (Central Daylight Time)","466271","3","1","image-keyboard-response","66","115213","0.0-5.0-1.31","","null","","img/1to3/1.png","null","194","1632","0.5","0.5","1","2","","",""
"blur","67","116285","blurevent","63d1b93d9abc8c4b40e2d92f","bdp_cybrbll","Mon Mar 27 2023 10:52:33 GMT-0500 (Central Daylight Time)","466271","3","1","","","","","","","","","","","","","","","","","","1"
"blur","67","116285","","63d1b93d9abc8c4b40e2d92f","bdp_cybrbll","Mon Mar 27 2023 10:52:33 GMT-0500 (Central Daylight Time)","466271","3","1","animation","67","117035","0.0-5.0-2.31","","","","","","194","","","","1","2","[{""stimulus"":""img/1to2/1.png"",""time"":111},{""stimulus"":""img/1to2/2.png"",""time"":200},{""stimulus"":""img/1to2/3.png"",""time"":298},{""stimulus"":""img/1to2/4.png"",""time"":397},{""stimulus"":""img/1to2/5.png"",""time"":501},{""stimulus"":""img/1to2/6.png"",""time"":595},{""stimulus"":""img/1to2/7.png"",""time"":695},{""stimulus"":""img/1to2/8.png"",""time"":794},{""stimulus"":""img/1to2/9.png"",""time"":894},{""stimulus"":""img/1to2/10.png"",""time"":998},{""stimulus"":""img/1to2/11.png"",""time"":1090},{""stimulus"":""img/1to2/12.png"",""time"":1201}]","[]","1"
"focus","68","121694","focusevent","63d1b93d9abc8c4b40e2d92f","bdp_cybrbll","Mon Mar 27 2023 10:52:33 GMT-0500 (Central Daylight Time)","466271","3","1","","","","","","","","","","","","","","","","","",""
"","","","blurwarn","63d1b93d9abc8c4b40e2d92f","bdp_cybrbll","Mon Mar 27 2023 10:52:33 GMT-0500 (Central Daylight Time)","466271","3","1","image-keyboard-response","68","125372","0.0-5.0-0.32-0.32","","8334","","","49","","","","","","","","","1"
"","","","choice","63d1b93d9abc8c4b40e2d92f","bdp_cybrbll","Mon Mar 27 2023 10:52:33 GMT-0500 (Central Daylight Time)","466271","3","1","image-keyboard-response","69","126507","0.0-5.0-1.32","","874","","img/2to1/1.png","2","193","538","0.5","0.5","2","3","","",""
"","","","","63d1b93d9abc8c4b40e2d92f","bdp_cybrbll","Mon Mar 27 2023 10:52:33 GMT-0500 (Central Daylight Time)","466271","3","1","animation","70","127808","0.0-5.0-2.32","","","","","","193","","","","2","3","[{""stimulus"":""img/2to3/1.png"",""time"":104},{""stimulus"":""img/2to3/2.png"",""time"":213},{""stimulus"":""img/2to3/3.png"",""time"":306},{""stimulus"":""img/2to3/4.png"",""time"":398},{""stimulus"":""img/2to3/5.png"",""time"":496},{""stimulus"":""img/2to3/6.png"",""time"":596},{""stimulus"":""img/2to3/7.png"",""time"":709},{""stimulus"":""img/2to3/8.png"",""time"":802},{""stimulus"":""img/2to3/9.png"",""time"":892},{""stimulus"":""img/2to3/10.png"",""time"":1004},{""stimulus"":""img/2to3/11.png"",""time"":1091},{""stimulus"":""img/2to3/12.png"",""time"":1191}]","[]",""
"","","","observe","63d1b93d9abc8c4b40e2d92f","bdp_cybrbll","Mon Mar 27 2023 10:52:33 GMT-0500 (Central Daylight Time)","466271","3","1","image-keyboard-response","71","129164","0.0-5.0-1.33","","null","","img/3to2/1.png","null","192","1353","0.5","0.5","3","2","","",""
"","","","","63d1b93d9abc8c4b40e2d92f","bdp_cybrbll","Mon Mar 27 2023 10:52:33 GMT-0500 (Central Daylight Time)","466271","3","1","animation","72","130457","0.0-5.0-2.33","","","","","","192","","","","3","2","[{""stimulus"":""img/3to2/1.png"",""time"":110},{""stimulus"":""img/3to2/2.png"",""time"":199},{""stimulus"":""img/3to2/3.png"",""time"":311},{""stimulus"":""img/3to2/4.png"",""time"":404},{""stimulus"":""img/3to2/5.png"",""time"":498},{""stimulus"":""img/3to2/6.png"",""time"":607},{""stimulus"":""img/3to2/7.png"",""time"":699},{""stimulus"":""img/3to2/8.png"",""time"":793},{""stimulus"":""img/3to2/9.png"",""time"":892},{""stimulus"":""img/3to2/10.png"",""time"":997},{""stimulus"":""img/3to2/11.png"",""time"":1090},{""stimulus"":""img/3to2/12.png"",""time"":1199}]","[]",""
"","","","choice","63d1b93d9abc8c4b40e2d92f","bdp_cybrbll","Mon Mar 27 2023 10:52:33 GMT-0500 (Central Daylight Time)","466271","3","1","image-keyboard-response","73","130579","0.0-5.0-1.34","","121","","img/2to1/1.png","1","191","432","0.5","0.5","2","1","","",""
"","","","","63d1b93d9abc8c4b40e2d92f","bdp_cybrbll","Mon Mar 27 2023 10:52:33 GMT-0500 (Central Daylight Time)","466271","3","1","animation","74","131872","0.0-5.0-2.34","","","","","","191","","","","2","1","[{""stimulus"":""img/2to1/1.png"",""time"":101},{""stimulus"":""img/2to1/2.png"",""time"":199},{""stimulus"":""img/2to1/3.png"",""time"":313},{""stimulus"":""img/2to1/4.png"",""time"":408},{""stimulus"":""img/2to1/5.png"",""time"":495},{""stimulus"":""img/2to1/6.png"",""time"":608},{""stimulus"":""img/2to1/7.png"",""time"":694},{""stimulus"":""img/2to1/8.png"",""time"":792},{""stimulus"":""img/2to1/9.png"",""time"":892},{""stimulus"":""img/2to1/10.png"",""time"":998},{""stimulus"":""img/2to1/11.png"",""time"":1090},{""stimulus"":""img/2to1/12.png"",""time"":1189}]","[]",""
"","","","observe","63d1b93d9abc8c4b40e2d92f","bdp_cybrbll","Mon Mar 27 2023 10:52:33 GMT-0500 (Central Daylight Time)","466271","3","1","image-keyboard-response","75","132261","0.0-5.0-1.35","","null","","img/1to3/1.png","null","190","376","0.5","0.5","1","3","","",""
"","","","","63d1b93d9abc8c4b40e2d92f","bdp_cybrbll","Mon Mar 27 2023 10:52:33 GMT-0500 (Central Daylight Time)","466271","3","1","animation","76","133554","0.0-5.0-2.35","","","","","","190","","","","1","3","[{""stimulus"":""img/1to3/1.png"",""time"":110},{""stimulus"":""img/1to3/2.png"",""time"":203},{""stimulus"":""img/1to3/3.png"",""time"":312},{""stimulus"":""img/1to3/4.png"",""time"":397},{""stimulus"":""img/1to3/5.png"",""time"":499},{""stimulus"":""img/1to3/6.png"",""time"":609},{""stimulus"":""img/1to3/7.png"",""time"":701},{""stimulus"":""img/1to3/8.png"",""time"":794},{""stimulus"":""img/1to3/9.png"",""time"":904},{""stimulus"":""img/1to3/10.png"",""time"":997},{""stimulus"":""img/1to3/11.png"",""time"":1105},{""stimulus"":""img/1to3/12.png"",""time"":1198}]","[]",""
"","","","observe","63d1b93d9abc8c4b40e2d92f","bdp_cybrbll","Mon Mar 27 2023 10:52:33 GMT-0500 (Central Daylight Time)","466271","3","1","image-keyboard-response","77","134068","0.0-5.0-1.36","","null","","img/3to2/1.png","null","189","499","0.5","0.5","3","2","","",""
"","","","","63d1b93d9abc8c4b40e2d92f","bdp_cybrbll","Mon Mar 27 2023 10:52:33 GMT-0500 (Central Daylight Time)","466271","3","1","animation","78","135359","0.0-5.0-2.36","","","","","","189","","","","3","2","[{""stimulus"":""img/3to2/1.png"",""time"":108},{""stimulus"":""img/3to2/2.png"",""time"":201},{""stimulus"":""img/3to2/3.png"",""time"":298},{""stimulus"":""img/3to2/4.png"",""time"":402},{""stimulus"":""img/3to2/5.png"",""time"":510},{""stimulus"":""img/3to2/6.png"",""time"":595},{""stimulus"":""img/3to2/7.png"",""time"":699},{""stimulus"":""img/3to2/8.png"",""time"":793},{""stimulus"":""img/3to2/9.png"",""time"":902},{""stimulus"":""img/3to2/10.png"",""time"":991},{""stimulus"":""img/3to2/11.png"",""time"":1105},{""stimulus"":""img/3to2/12.png"",""time"":1188}]","[]",""
"","","","choice","63d1b93d9abc8c4b40e2d92f","bdp_cybrbll","Mon Mar 27 2023 10:52:33 GMT-0500 (Central Daylight Time)","466271","3","1","image-keyboard-response","79","135977","0.0-5.0-1.37","","618","","img/2to1/1.png","1","188","463","0.5","0.5","2","1","","",""
"","","","","63d1b93d9abc8c4b40e2d92f","bdp_cybrbll","Mon Mar 27 2023 10:52:33 GMT-0500 (Central Daylight Time)","466271","3","1","animation","80","137265","0.0-5.0-2.37","","","","","","188","","","","2","1","[{""stimulus"":""img/2to1/1.png"",""time"":101},{""stimulus"":""img/2to1/2.png"",""time"":199},{""stimulus"":""img/2to1/3.png"",""time"":303},{""stimulus"":""img/2to1/4.png"",""time"":412},{""stimulus"":""img/2to1/5.png"",""time"":504},{""stimulus"":""img/2to1/6.png"",""time"":598},{""stimulus"":""img/2to1/7.png"",""time"":695},{""stimulus"":""img/2to1/8.png"",""time"":801},{""stimulus"":""img/2to1/9.png"",""time"":895},{""stimulus"":""img/2to1/10.png"",""time"":991},{""stimulus"":""img/2to1/11.png"",""time"":1090},{""stimulus"":""img/2to1/12.png"",""time"":1191}]","[]",""
"","","","observe","63d1b93d9abc8c4b40e2d92f","bdp_cybrbll","Mon Mar 27 2023 10:52:33 GMT-0500 (Central Daylight Time)","466271","3","1","image-keyboard-response","81","137745","0.0-5.0-1.38","","null","","img/1to3/1.png","null","187","463","0.5","0.5","1","3","","",""
"","","","","63d1b93d9abc8c4b40e2d92f","bdp_cybrbll","Mon Mar 27 2023 10:52:33 GMT-0500 (Central Daylight Time)","466271","3","1","animation","82","139033","0.0-5.0-2.38","","","","","","187","","","","1","3","[{""stimulus"":""img/1to3/1.png"",""time"":108},{""stimulus"":""img/1to3/2.png"",""time"":199},{""stimulus"":""img/1to3/3.png"",""time"":312},{""stimulus"":""img/1to3/4.png"",""time"":397},{""stimulus"":""img/1to3/5.png"",""time"":496},{""stimulus"":""img/1to3/6.png"",""time"":594},{""stimulus"":""img/1to3/7.png"",""time"":699},{""stimulus"":""img/1to3/8.png"",""time"":807},{""stimulus"":""img/1to3/9.png"",""time"":903},{""stimulus"":""img/1to3/10.png"",""time"":995},{""stimulus"":""img/1to3/11.png"",""time"":1103},{""stimulus"":""img/1to3/12.png"",""time"":1189}]","[]",""
"","","","observe","63d1b93d9abc8c4b40e2d92f","bdp_cybrbll","Mon Mar 27 2023 10:52:33 GMT-0500 (Central Daylight Time)","466271","3","1","image-keyboard-response","83","139984","0.0-5.0-1.39","","null","","img/3to2/1.png","null","186","935","0.5","0.5","3","2","","",""
"","","","","63d1b93d9abc8c4b40e2d92f","bdp_cybrbll","Mon Mar 27 2023 10:52:33 GMT-0500 (Central Daylight Time)","466271","3","1","animation","84","141272","0.0-5.0-2.39","","","","","","186","","","","3","2","[{""stimulus"":""img/3to2/1.png"",""time"":108},{""stimulus"":""img/3to2/2.png"",""time"":199},{""stimulus"":""img/3to2/3.png"",""time"":313},{""stimulus"":""img/3to2/4.png"",""time"":396},{""stimulus"":""img/3to2/5.png"",""time"":499},{""stimulus"":""img/3to2/6.png"",""time"":608},{""stimulus"":""img/3to2/7.png"",""time"":700},{""stimulus"":""img/3to2/8.png"",""time"":794},{""stimulus"":""img/3to2/9.png"",""time"":903},{""stimulus"":""img/3to2/10.png"",""time"":990},{""stimulus"":""img/3to2/11.png"",""time"":1091},{""stimulus"":""img/3to2/12.png"",""time"":1200}]","[]",""
"","","","choice","63d1b93d9abc8c4b40e2d92f","bdp_cybrbll","Mon Mar 27 2023 10:52:33 GMT-0500 (Central Daylight Time)","466271","3","1","image-keyboard-response","85","141555","0.0-5.0-1.40","","282","","img/2to1/1.png","1","185","1265","0.5","0.5","2","1","","",""
"","","","","63d1b93d9abc8c4b40e2d92f","bdp_cybrbll","Mon Mar 27 2023 10:52:33 GMT-0500 (Central Daylight Time)","466271","3","1","animation","86","142844","0.0-5.0-2.40","","","","","","185","","","","2","1","[{""stimulus"":""img/2to1/1.png"",""time"":100},{""stimulus"":""img/2to1/2.png"",""time"":205},{""stimulus"":""img/2to1/3.png"",""time"":313},{""stimulus"":""img/2to1/4.png"",""time"":407},{""stimulus"":""img/2to1/5.png"",""time"":496},{""stimulus"":""img/2to1/6.png"",""time"":595},{""stimulus"":""img/2to1/7.png"",""time"":704},{""stimulus"":""img/2to1/8.png"",""time"":799},{""stimulus"":""img/2to1/9.png"",""time"":892},{""stimulus"":""img/2to1/10.png"",""time"":1002},{""stimulus"":""img/2to1/11.png"",""time"":1095},{""stimulus"":""img/2to1/12.png"",""time"":1189}]","[]",""
"","","","observe","63d1b93d9abc8c4b40e2d92f","bdp_cybrbll","Mon Mar 27 2023 10:52:33 GMT-0500 (Central Daylight Time)","466271","3","1","image-keyboard-response","87","143480","0.0-5.0-1.41","","null","","img/1to3/1.png","null","184","634","0.5","0.5","1","2","","",""
"","","","","63d1b93d9abc8c4b40e2d92f","bdp_cybrbll","Mon Mar 27 2023 10:52:33 GMT-0500 (Central Daylight Time)","466271","3","1","animation","88","144768","0.0-5.0-2.41","","","","","","184","","","","1","2","[{""stimulus"":""img/1to2/1.png"",""time"":107},{""stimulus"":""img/1to2/2.png"",""time"":201},{""stimulus"":""img/1to2/3.png"",""time"":310},{""stimulus"":""img/1to2/4.png"",""time"":403},{""stimulus"":""img/1to2/5.png"",""time"":510},{""stimulus"":""img/1to2/6.png"",""time"":603},{""stimulus"":""img/1to2/7.png"",""time"":698},{""stimulus"":""img/1to2/8.png"",""time"":794},{""stimulus"":""img/1to2/9.png"",""time"":900},{""stimulus"":""img/1to2/10.png"",""time"":994},{""stimulus"":""img/1to2/11.png"",""time"":1101},{""stimulus"":""img/1to2/12.png"",""time"":1194}]","[]",""
"","","","choice","63d1b93d9abc8c4b40e2d92f","bdp_cybrbll","Mon Mar 27 2023 10:52:33 GMT-0500 (Central Daylight Time)","466271","3","1","image-keyboard-response","89","144860","0.0-5.0-1.42","","91","","img/2to1/1.png","2","183","552","0.5","0.5","2","3","","",""
"","","","","63d1b93d9abc8c4b40e2d92f","bdp_cybrbll","Mon Mar 27 2023 10:52:33 GMT-0500 (Central Daylight Time)","466271","3","1","animation","90","146155","0.0-5.0-2.42","","","","","","183","","","","2","3","[{""stimulus"":""img/2to3/1.png"",""time"":100},{""stimulus"":""img/2to3/2.png"",""time"":199},{""stimulus"":""img/2to3/3.png"",""time"":299},{""stimulus"":""img/2to3/4.png"",""time"":407},{""stimulus"":""img/2to3/5.png"",""time"":500},{""stimulus"":""img/2to3/6.png"",""time"":595},{""stimulus"":""img/2to3/7.png"",""time"":702},{""stimulus"":""img/2to3/8.png"",""time"":793},{""stimulus"":""img/2to3/9.png"",""time"":904},{""stimulus"":""img/2to3/10.png"",""time"":991},{""stimulus"":""img/2to3/11.png"",""time"":1093},{""stimulus"":""img/2to3/12.png"",""time"":1201}]","[]",""
"","","","observe","63d1b93d9abc8c4b40e2d92f","bdp_cybrbll","Mon Mar 27 2023 10:52:33 GMT-0500 (Central Daylight Time)","466271","3","1","image-keyboard-response","91","146609","0.0-5.0-1.43","","null","","img/3to2/1.png","null","182","443","0.5","0.5","3","1","","",""
"","","","","63d1b93d9abc8c4b40e2d92f","bdp_cybrbll","Mon Mar 27 2023 10:52:33 GMT-0500 (Central Daylight Time)","466271","3","1","animation","92","147903","0.0-5.0-2.43","","","","","","182","","","","3","1","[{""stimulus"":""img/3to1/1.png"",""time"":108},{""stimulus"":""img/3to1/2.png"",""time"":202},{""stimulus"":""img/3to1/3.png"",""time"":311},{""stimulus"":""img/3to1/4.png"",""time"":398},{""stimulus"":""img/3to1/5.png"",""time"":496},{""stimulus"":""img/3to1/6.png"",""time"":607},{""stimulus"":""img/3to1/7.png"",""time"":699},{""stimulus"":""img/3to1/8.png"",""time"":794},{""stimulus"":""img/3to1/9.png"",""time"":903},{""stimulus"":""img/3to1/10.png"",""time"":992},{""stimulus"":""img/3to1/11.png"",""time"":1091},{""stimulus"":""img/3to1/12.png"",""time"":1201}]","[]",""
"","","","observe","63d1b93d9abc8c4b40e2d92f","bdp_cybrbll","Mon Mar 27 2023 10:52:33 GMT-0500 (Central Daylight Time)","466271","3","1","image-keyboard-response","93","148137","0.0-5.0-1.44","","null","","img/1to3/1.png","null","181","222","0.5","0.5","1","3","","",""
"","","","","63d1b93d9abc8c4b40e2d92f","bdp_cybrbll","Mon Mar 27 2023 10:52:33 GMT-0500 (Central Daylight Time)","466271","3","1","animation","94","149425","0.0-5.0-2.44","","","","","","181","","","","1","3","[{""stimulus"":""img/1to3/1.png"",""time"":109},{""stimulus"":""img/1to3/2.png"",""time"":200},{""stimulus"":""img/1to3/3.png"",""time"":308},{""stimulus"":""img/1to3/4.png"",""time"":397},{""stimulus"":""img/1to3/5.png"",""time"":512},{""stimulus"":""img/1to3/6.png"",""time"":606},{""stimulus"":""img/1to3/7.png"",""time"":700},{""stimulus"":""img/1to3/8.png"",""time"":794},{""stimulus"":""img/1to3/9.png"",""time"":902},{""stimulus"":""img/1to3/10.png"",""time"":991},{""stimulus"":""img/1to3/11.png"",""time"":1091},{""stimulus"":""img/1to3/12.png"",""time"":1190}]","[]",""
"","","","observe","63d1b93d9abc8c4b40e2d92f","bdp_cybrbll","Mon Mar 27 2023 10:52:33 GMT-0500 (Central Daylight Time)","466271","3","1","image-keyboard-response","95","149809","0.0-5.0-1.45","","null","","img/3to2/1.png","null","180","368","0.5","0.5","3","2","","",""
"","","","","63d1b93d9abc8c4b40e2d92f","bdp_cybrbll","Mon Mar 27 2023 10:52:33 GMT-0500 (Central Daylight Time)","466271","3","1","animation","96","151098","0.0-5.0-2.45","","","","","","180","","","","3","2","[{""stimulus"":""img/3to2/1.png"",""time"":110},{""stimulus"":""img/3to2/2.png"",""time"":200},{""stimulus"":""img/3to2/3.png"",""time"":299},{""stimulus"":""img/3to2/4.png"",""time"":398},{""stimulus"":""img/3to2/5.png"",""time"":497},{""stimulus"":""img/3to2/6.png"",""time"":604},{""stimulus"":""img/3to2/7.png"",""time"":694},{""stimulus"":""img/3to2/8.png"",""time"":804},{""stimulus"":""img/3to2/9.png"",""time"":892},{""stimulus"":""img/3to2/10.png"",""time"":1007},{""stimulus"":""img/3to2/11.png"",""time"":1090},{""stimulus"":""img/3to2/12.png"",""time"":1190}]","[]",""
"","","","choice","63d1b93d9abc8c4b40e2d92f","bdp_cybrbll","Mon Mar 27 2023 10:52:33 GMT-0500 (Central Daylight Time)","466271","3","1","image-keyboard-response","97","151883","0.0-5.0-1.46","","784","","img/2to1/1.png","1","179","285","0.5","0.5","2","1","","",""
"","","","","63d1b93d9abc8c4b40e2d92f","bdp_cybrbll","Mon Mar 27 2023 10:52:33 GMT-0500 (Central Daylight Time)","466271","3","1","animation","98","153183","0.0-5.0-2.46","","","","","","179","","","","2","1","[{""stimulus"":""img/2to1/1.png"",""time"":102},{""stimulus"":""img/2to1/2.png"",""time"":199},{""stimulus"":""img/2to1/3.png"",""time"":306},{""stimulus"":""img/2to1/4.png"",""time"":400},{""stimulus"":""img/2to1/5.png"",""time"":496},{""stimulus"":""img/2to1/6.png"",""time"":602},{""stimulus"":""img/2to1/7.png"",""time"":709},{""stimulus"":""img/2to1/8.png"",""time"":793},{""stimulus"":""img/2to1/9.png"",""time"":893},{""stimulus"":""img/2to1/10.png"",""time"":992},{""stimulus"":""img/2to1/11.png"",""time"":1090},{""stimulus"":""img/2to1/12.png"",""time"":1189}]","[]",""
"","","","observe","63d1b93d9abc8c4b40e2d92f","bdp_cybrbll","Mon Mar 27 2023 10:52:33 GMT-0500 (Central Daylight Time)","466271","3","1","image-keyboard-response","99","153422","0.0-5.0-1.47","","null","","img/1to3/1.png","null","178","238","0.5","0.5","1","3","","",""
"","","","","63d1b93d9abc8c4b40e2d92f","bdp_cybrbll","Mon Mar 27 2023 10:52:33 GMT-0500 (Central Daylight Time)","466271","3","1","animation","100","154721","0.0-5.0-2.47","","","","","","178","","","","1","3","[{""stimulus"":""img/1to3/1.png"",""time"":103},{""stimulus"":""img/1to3/2.png"",""time"":200},{""stimulus"":""img/1to3/3.png"",""time"":298},{""stimulus"":""img/1to3/4.png"",""time"":398},{""stimulus"":""img/1to3/5.png"",""time"":507},{""stimulus"":""img/1to3/6.png"",""time"":600},{""stimulus"":""img/1to3/7.png"",""time"":694},{""stimulus"":""img/1to3/8.png"",""time"":803},{""stimulus"":""img/1to3/9.png"",""time"":892},{""stimulus"":""img/1to3/10.png"",""time"":991},{""stimulus"":""img/1to3/11.png"",""time"":1099},{""stimulus"":""img/1to3/12.png"",""time"":1191}]","[]",""
"","","","observe","63d1b93d9abc8c4b40e2d92f","bdp_cybrbll","Mon Mar 27 2023 10:52:33 GMT-0500 (Central Daylight Time)","466271","3","1","image-keyboard-response","101","155378","0.0-5.0-1.48","","null","","img/3to2/1.png","null","177","644","0.5","0.5","3","2","","",""
"","","","","63d1b93d9abc8c4b40e2d92f","bdp_cybrbll","Mon Mar 27 2023 10:52:33 GMT-0500 (Central Daylight Time)","466271","3","1","animation","102","156666","0.0-5.0-2.48","","","","","","177","","","","3","2","[{""stimulus"":""img/3to2/1.png"",""time"":110},{""stimulus"":""img/3to2/2.png"",""time"":199},{""stimulus"":""img/3to2/3.png"",""time"":312},{""stimulus"":""img/3to2/4.png"",""time"":408},{""stimulus"":""img/3to2/5.png"",""time"":497},{""stimulus"":""img/3to2/6.png"",""time"":596},{""stimulus"":""img/3to2/7.png"",""time"":694},{""stimulus"":""img/3to2/8.png"",""time"":796},{""stimulus"":""img/3to2/9.png"",""time"":891},{""stimulus"":""img/3to2/10.png"",""time"":990},{""stimulus"":""img/3to2/11.png"",""time"":1095},{""stimulus"":""img/3to2/12.png"",""time"":1204}]","[]",""
"","","","choice","63d1b93d9abc8c4b40e2d92f","bdp_cybrbll","Mon Mar 27 2023 10:52:33 GMT-0500 (Central Daylight Time)","466271","3","1","image-keyboard-response","103","157003","0.0-5.0-1.49","","336","","img/2to1/1.png","1","176","318","0.5","0.5","2","1","","",""
"","","","","63d1b93d9abc8c4b40e2d92f","bdp_cybrbll","Mon Mar 27 2023 10:52:33 GMT-0500 (Central Daylight Time)","466271","3","1","animation","104","158298","0.0-5.0-2.49","","","","","","176","","","","2","1","[{""stimulus"":""img/2to1/1.png"",""time"":101},{""stimulus"":""img/2to1/2.png"",""time"":200},{""stimulus"":""img/2to1/3.png"",""time"":311},{""stimulus"":""img/2to1/4.png"",""time"":397},{""stimulus"":""img/2to1/5.png"",""time"":496},{""stimulus"":""img/2to1/6.png"",""time"":595},{""stimulus"":""img/2to1/7.png"",""time"":694},{""stimulus"":""img/2to1/8.png"",""time"":793},{""stimulus"":""img/2to1/9.png"",""time"":902},{""stimulus"":""img/2to1/10.png"",""time"":991},{""stimulus"":""img/2to1/11.png"",""time"":1092},{""stimulus"":""img/2to1/12.png"",""time"":1202}]","[]",""
"","","","observe","63d1b93d9abc8c4b40e2d92f","bdp_cybrbll","Mon Mar 27 2023 10:52:33 GMT-0500 (Central Daylight Time)","466271","3","1","image-keyboard-response","105","159233","0.0-5.0-1.50","","null","","img/1to3/1.png","null","175","919","0.5","0.5","1","3","","",""
"","","","","63d1b93d9abc8c4b40e2d92f","bdp_cybrbll","Mon Mar 27 2023 10:52:33 GMT-0500 (Central Daylight Time)","466271","3","1","animation","106","160521","0.0-5.0-2.50","","","","","","175","","","","1","3","[{""stimulus"":""img/1to3/1.png"",""time"":111},{""stimulus"":""img/1to3/2.png"",""time"":200},{""stimulus"":""img/1to3/3.png"",""time"":298},{""stimulus"":""img/1to3/4.png"",""time"":398},{""stimulus"":""img/1to3/5.png"",""time"":501},{""stimulus"":""img/1to3/6.png"",""time"":596},{""stimulus"":""img/1to3/7.png"",""time"":693},{""stimulus"":""img/1to3/8.png"",""time"":797},{""stimulus"":""img/1to3/9.png"",""time"":892},{""stimulus"":""img/1to3/10.png"",""time"":999},{""stimulus"":""img/1to3/11.png"",""time"":1093},{""stimulus"":""img/1to3/12.png"",""time"":1202}]","[]",""
"","","","observe","63d1b93d9abc8c4b40e2d92f","bdp_cybrbll","Mon Mar 27 2023 10:52:33 GMT-0500 (Central Daylight Time)","466271","3","1","image-keyboard-response","107","161445","0.0-5.0-1.51","","null","","img/3to2/1.png","null","174","916","0.5","0.5","3","1","","",""
"","","","","63d1b93d9abc8c4b40e2d92f","bdp_cybrbll","Mon Mar 27 2023 10:52:33 GMT-0500 (Central Daylight Time)","466271","3","1","animation","108","162734","0.0-5.0-2.51","","","","","","174","","","","3","1","[{""stimulus"":""img/3to1/1.png"",""time"":110},{""stimulus"":""img/3to1/2.png"",""time"":203},{""stimulus"":""img/3to1/3.png"",""time"":313},{""stimulus"":""img/3to1/4.png"",""time"":406},{""stimulus"":""img/3to1/5.png"",""time"":497},{""stimulus"":""img/3to1/6.png"",""time"":607},{""stimulus"":""img/3to1/7.png"",""time"":701},{""stimulus"":""img/3to1/8.png"",""time"":793},{""stimulus"":""img/3to1/9.png"",""time"":904},{""stimulus"":""img/3to1/10.png"",""time"":997},{""stimulus"":""img/3to1/11.png"",""time"":1090},{""stimulus"":""img/3to1/12.png"",""time"":1200}]","[]",""
"","","","observe","63d1b93d9abc8c4b40e2d92f","bdp_cybrbll","Mon Mar 27 2023 10:52:33 GMT-0500 (Central Daylight Time)","466271","3","1","image-keyboard-response","109","163458","0.0-5.0-1.52","","null","","img/1to3/1.png","null","173","708","0.5","0.5","1","2","","",""
"","","","","63d1b93d9abc8c4b40e2d92f","bdp_cybrbll","Mon Mar 27 2023 10:52:33 GMT-0500 (Central Daylight Time)","466271","3","1","animation","110","164750","0.0-5.0-2.52","","","","","","173","","","","1","2","[{""stimulus"":""img/1to2/1.png"",""time"":109},{""stimulus"":""img/1to2/2.png"",""time"":199},{""stimulus"":""img/1to2/3.png"",""time"":298},{""stimulus"":""img/1to2/4.png"",""time"":405},{""stimulus"":""img/1to2/5.png"",""time"":499},{""stimulus"":""img/1to2/6.png"",""time"":595},{""stimulus"":""img/1to2/7.png"",""time"":703},{""stimulus"":""img/1to2/8.png"",""time"":796},{""stimulus"":""img/1to2/9.png"",""time"":905},{""stimulus"":""img/1to2/10.png"",""time"":991},{""stimulus"":""img/1to2/11.png"",""time"":1090},{""stimulus"":""img/1to2/12.png"",""time"":1199}]","[]",""
"","","","choice","63d1b93d9abc8c4b40e2d92f","bdp_cybrbll","Mon Mar 27 2023 10:52:33 GMT-0500 (Central Daylight Time)","466271","3","1","image-keyboard-response","111","164941","0.0-5.0-1.53","","191","","img/2to1/1.png","2","172","413","0.5","0.5","2","3","","",""
"","","","","63d1b93d9abc8c4b40e2d92f","bdp_cybrbll","Mon Mar 27 2023 10:52:33 GMT-0500 (Central Daylight Time)","466271","3","1","animation","112","166231","0.0-5.0-2.53","","","","","","172","","","","2","3","[{""stimulus"":""img/2to3/1.png"",""time"":100},{""stimulus"":""img/2to3/2.png"",""time"":214},{""stimulus"":""img/2to3/3.png"",""time"":298},{""stimulus"":""img/2to3/4.png"",""time"":397},{""stimulus"":""img/2to3/5.png"",""time"":510},{""stimulus"":""img/2to3/6.png"",""time"":602},{""stimulus"":""img/2to3/7.png"",""time"":695},{""stimulus"":""img/2to3/8.png"",""time"":804},{""stimulus"":""img/2to3/9.png"",""time"":898},{""stimulus"":""img/2to3/10.png"",""time"":991},{""stimulus"":""img/2to3/11.png"",""time"":1100},{""stimulus"":""img/2to3/12.png"",""time"":1189}]","[]",""
"","","","observe","63d1b93d9abc8c4b40e2d92f","bdp_cybrbll","Mon Mar 27 2023 10:52:33 GMT-0500 (Central Daylight Time)","466271","3","1","image-keyboard-response","113","166727","0.0-5.0-1.54","","null","","img/3to2/1.png","null","171","493","0.5","0.5","3","2","","",""
"","","","","63d1b93d9abc8c4b40e2d92f","bdp_cybrbll","Mon Mar 27 2023 10:52:33 GMT-0500 (Central Daylight Time)","466271","3","1","animation","114","168015","0.0-5.0-2.54","","","","","","171","","","","3","2","[{""stimulus"":""img/3to2/1.png"",""time"":109},{""stimulus"":""img/3to2/2.png"",""time"":199},{""stimulus"":""img/3to2/3.png"",""time"":299},{""stimulus"":""img/3to2/4.png"",""time"":403},{""stimulus"":""img/3to2/5.png"",""time"":499},{""stimulus"":""img/3to2/6.png"",""time"":595},{""stimulus"":""img/3to2/7.png"",""time"":694},{""stimulus"":""img/3to2/8.png"",""time"":793},{""stimulus"":""img/3to2/9.png"",""time"":892},{""stimulus"":""img/3to2/10.png"",""time"":997},{""stimulus"":""img/3to2/11.png"",""time"":1091},{""stimulus"":""img/3to2/12.png"",""time"":1200}]","[]",""
"","","","choice","63d1b93d9abc8c4b40e2d92f","bdp_cybrbll","Mon Mar 27 2023 10:52:33 GMT-0500 (Central Daylight Time)","466271","3","1","image-keyboard-response","115","168249","0.0-5.0-1.55","","233","","img/2to1/1.png","1","170","471","0.5","0.5","2","1","","",""
"","","","","63d1b93d9abc8c4b40e2d92f","bdp_cybrbll","Mon Mar 27 2023 10:52:33 GMT-0500 (Central Daylight Time)","466271","3","1","animation","116","169537","0.0-5.0-2.55","","","","","","170","","","","2","1","[{""stimulus"":""img/2to1/1.png"",""time"":100},{""stimulus"":""img/2to1/2.png"",""time"":209},{""stimulus"":""img/2to1/3.png"",""time"":303},{""stimulus"":""img/2to1/4.png"",""time"":398},{""stimulus"":""img/2to1/5.png"",""time"":496},{""stimulus"":""img/2to1/6.png"",""time"":601},{""stimulus"":""img/2to1/7.png"",""time"":694},{""stimulus"":""img/2to1/8.png"",""time"":793},{""stimulus"":""img/2to1/9.png"",""time"":893},{""stimulus"":""img/2to1/10.png"",""time"":991},{""stimulus"":""img/2to1/11.png"",""time"":1090},{""stimulus"":""img/2to1/12.png"",""time"":1194}]","[]",""
"","","","observe","63d1b93d9abc8c4b40e2d92f","bdp_cybrbll","Mon Mar 27 2023 10:52:33 GMT-0500 (Central Daylight Time)","466271","3","1","image-keyboard-response","117","170460","0.0-5.0-1.56","","null","","img/1to3/1.png","null","169","921","0.5","0.5","1","3","","",""
"","","","","63d1b93d9abc8c4b40e2d92f","bdp_cybrbll","Mon Mar 27 2023 10:52:33 GMT-0500 (Central Daylight Time)","466271","3","1","animation","118","171749","0.0-5.0-2.56","","","","","","169","","","","1","3","[{""stimulus"":""img/1to3/1.png"",""time"":110},{""stimulus"":""img/1to3/2.png"",""time"":199},{""stimulus"":""img/1to3/3.png"",""time"":299},{""stimulus"":""img/1to3/4.png"",""time"":397},{""stimulus"":""img/1to3/5.png"",""time"":503},{""stimulus"":""img/1to3/6.png"",""time"":595},{""stimulus"":""img/1to3/7.png"",""time"":695},{""stimulus"":""img/1to3/8.png"",""time"":794},{""stimulus"":""img/1to3/9.png"",""time"":892},{""stimulus"":""img/1to3/10.png"",""time"":992},{""stimulus"":""img/1to3/11.png"",""time"":1102},{""stimulus"":""img/1to3/12.png"",""time"":1196}]","[]",""
"","","","observe","63d1b93d9abc8c4b40e2d92f","bdp_cybrbll","Mon Mar 27 2023 10:52:33 GMT-0500 (Central Daylight Time)","466271","3","1","image-keyboard-response","119","171999","0.0-5.0-1.57","","null","","img/3to2/1.png","null","168","238","0.5","0.5","3","1","","",""
"","","","","63d1b93d9abc8c4b40e2d92f","bdp_cybrbll","Mon Mar 27 2023 10:52:33 GMT-0500 (Central Daylight Time)","466271","3","1","animation","120","173290","0.0-5.0-2.57","","","","","","168","","","","3","1","[{""stimulus"":""img/3to1/1.png"",""time"":110},{""stimulus"":""img/3to1/2.png"",""time"":203},{""stimulus"":""img/3to1/3.png"",""time"":298},{""stimulus"":""img/3to1/4.png"",""time"":405},{""stimulus"":""img/3to1/5.png"",""time"":500},{""stimulus"":""img/3to1/6.png"",""time"":607},{""stimulus"":""img/3to1/7.png"",""time"":694},{""stimulus"":""img/3to1/8.png"",""time"":793},{""stimulus"":""img/3to1/9.png"",""time"":902},{""stimulus"":""img/3to1/10.png"",""time"":991},{""stimulus"":""img/3to1/11.png"",""time"":1090},{""stimulus"":""img/3to1/12.png"",""time"":1198}]","[]",""
"","","","observe","63d1b93d9abc8c4b40e2d92f","bdp_cybrbll","Mon Mar 27 2023 10:52:33 GMT-0500 (Central Daylight Time)","466271","3","1","image-keyboard-response","121","173686","0.0-5.0-1.58","","null","","img/1to3/1.png","null","167","395","0.5","0.5","1","2","","",""
"","","","","63d1b93d9abc8c4b40e2d92f","bdp_cybrbll","Mon Mar 27 2023 10:52:33 GMT-0500 (Central Daylight Time)","466271","3","1","animation","122","174988","0.0-5.0-2.58","","","","","","167","","","","1","2","[{""stimulus"":""img/1to2/1.png"",""time"":102},{""stimulus"":""img/1to2/2.png"",""time"":199},{""stimulus"":""img/1to2/3.png"",""time"":304},{""stimulus"":""img/1to2/4.png"",""time"":398},{""stimulus"":""img/1to2/5.png"",""time"":506},{""stimulus"":""img/1to2/6.png"",""time"":599},{""stimulus"":""img/1to2/7.png"",""time"":694},{""stimulus"":""img/1to2/8.png"",""time"":803},{""stimulus"":""img/1to2/9.png"",""time"":897},{""stimulus"":""img/1to2/10.png"",""time"":991},{""stimulus"":""img/1to2/11.png"",""time"":1099},{""stimulus"":""img/1to2/12.png"",""time"":1189}]","[]",""
"","","","choice","63d1b93d9abc8c4b40e2d92f","bdp_cybrbll","Mon Mar 27 2023 10:52:33 GMT-0500 (Central Daylight Time)","466271","3","1","image-keyboard-response","123","175012","0.0-5.0-1.59","","23","","img/2to1/1.png","2","166","472","0.5","0.5","2","3","","",""
"","","","","63d1b93d9abc8c4b40e2d92f","bdp_cybrbll","Mon Mar 27 2023 10:52:33 GMT-0500 (Central Daylight Time)","466271","3","1","animation","124","176299","0.0-5.0-2.59","","","","","","166","","","","2","3","[{""stimulus"":""img/2to3/1.png"",""time"":101},{""stimulus"":""img/2to3/2.png"",""time"":209},{""stimulus"":""img/2to3/3.png"",""time"":304},{""stimulus"":""img/2to3/4.png"",""time"":397},{""stimulus"":""img/2to3/5.png"",""time"":496},{""stimulus"":""img/2to3/6.png"",""time"":599},{""stimulus"":""img/2to3/7.png"",""time"":707},{""stimulus"":""img/2to3/8.png"",""time"":792},{""stimulus"":""img/2to3/9.png"",""time"":893},{""stimulus"":""img/2to3/10.png"",""time"":991},{""stimulus"":""img/2to3/11.png"",""time"":1090},{""stimulus"":""img/2to3/12.png"",""time"":1190}]","[]",""
"","","","observe","63d1b93d9abc8c4b40e2d92f","bdp_cybrbll","Mon Mar 27 2023 10:52:33 GMT-0500 (Central Daylight Time)","466271","3","1","image-keyboard-response","125","177103","0.0-5.0-1.60","","null","","img/3to2/1.png","null","165","800","0.5","0.5","3","2","","",""
"","","","","63d1b93d9abc8c4b40e2d92f","bdp_cybrbll","Mon Mar 27 2023 10:52:33 GMT-0500 (Central Daylight Time)","466271","3","1","animation","126","178396","0.0-5.0-2.60","","","","","","165","","","","3","2","[{""stimulus"":""img/3to2/1.png"",""time"":110},{""stimulus"":""img/3to2/2.png"",""time"":199},{""stimulus"":""img/3to2/3.png"",""time"":298},{""stimulus"":""img/3to2/4.png"",""time"":405},{""stimulus"":""img/3to2/5.png"",""time"":498},{""stimulus"":""img/3to2/6.png"",""time"":595},{""stimulus"":""img/3to2/7.png"",""time"":699},{""stimulus"":""img/3to2/8.png"",""time"":794},{""stimulus"":""img/3to2/9.png"",""time"":901},{""stimulus"":""img/3to2/10.png"",""time"":992},{""stimulus"":""img/3to2/11.png"",""time"":1090},{""stimulus"":""img/3to2/12.png"",""time"":1199}]","[]",""
"","","","choice","63d1b93d9abc8c4b40e2d92f","bdp_cybrbll","Mon Mar 27 2023 10:52:33 GMT-0500 (Central Daylight Time)","466271","3","1","image-keyboard-response","127","178522","0.0-5.0-1.61","","125","","img/2to1/1.png","1","164","363","0.5","0.5","2","1","","",""
"","","","","63d1b93d9abc8c4b40e2d92f","bdp_cybrbll","Mon Mar 27 2023 10:52:33 GMT-0500 (Central Daylight Time)","466271","3","1","animation","128","179811","0.0-5.0-2.61","","","","","","164","","","","2","1","[{""stimulus"":""img/2to1/1.png"",""time"":105},{""stimulus"":""img/2to1/2.png"",""time"":200},{""stimulus"":""img/2to1/3.png"",""time"":307},{""stimulus"":""img/2to1/4.png"",""time"":396},{""stimulus"":""img/2to1/5.png"",""time"":511},{""stimulus"":""img/2to1/6.png"",""time"":605},{""stimulus"":""img/2to1/7.png"",""time"":698},{""stimulus"":""img/2to1/8.png"",""time"":807},{""stimulus"":""img/2to1/9.png"",""time"":892},{""stimulus"":""img/2to1/10.png"",""time"":993},{""stimulus"":""img/2to1/11.png"",""time"":1090},{""stimulus"":""img/2to1/12.png"",""time"":1190}]","[]",""
"","","","observe","63d1b93d9abc8c4b40e2d92f","bdp_cybrbll","Mon Mar 27 2023 10:52:33 GMT-0500 (Central Daylight Time)","466271","3","1","image-keyboard-response","129","180248","0.0-5.0-1.62","","null","","img/1to3/1.png","null","163","423","0.5","0.5","1","3","","",""
"","","","","63d1b93d9abc8c4b40e2d92f","bdp_cybrbll","Mon Mar 27 2023 10:52:33 GMT-0500 (Central Daylight Time)","466271","3","1","animation","130","181536","0.0-5.0-2.62","","","","","","163","","","","1","3","[{""stimulus"":""img/1to3/1.png"",""time"":109},{""stimulus"":""img/1to3/2.png"",""time"":199},{""stimulus"":""img/1to3/3.png"",""time"":299},{""stimulus"":""img/1to3/4.png"",""time"":402},{""stimulus"":""img/1to3/5.png"",""time"":511},{""stimulus"":""img/1to3/6.png"",""time"":604},{""stimulus"":""img/1to3/7.png"",""time"":697},{""stimulus"":""img/1to3/8.png"",""time"":794},{""stimulus"":""img/1to3/9.png"",""time"":892},{""stimulus"":""img/1to3/10.png"",""time"":994},{""stimulus"":""img/1to3/11.png"",""time"":1103},{""stimulus"":""img/1to3/12.png"",""time"":1189}]","[]",""
"","","","observe","63d1b93d9abc8c4b40e2d92f","bdp_cybrbll","Mon Mar 27 2023 10:52:33 GMT-0500 (Central Daylight Time)","466271","3","1","image-keyboard-response","131","182737","0.0-5.0-1.63","","null","","img/3to2/1.png","null","162","1188","0.5","0.5","3","2","","",""
"","","","","63d1b93d9abc8c4b40e2d92f","bdp_cybrbll","Mon Mar 27 2023 10:52:33 GMT-0500 (Central Daylight Time)","466271","3","1","animation","132","184028","0.0-5.0-2.63","","","","","","162","","","","3","2","[{""stimulus"":""img/3to2/1.png"",""time"":110},{""stimulus"":""img/3to2/2.png"",""time"":199},{""stimulus"":""img/3to2/3.png"",""time"":312},{""stimulus"":""img/3to2/4.png"",""time"":405},{""stimulus"":""img/3to2/5.png"",""time"":498},{""stimulus"":""img/3to2/6.png"",""time"":605},{""stimulus"":""img/3to2/7.png"",""time"":694},{""stimulus"":""img/3to2/8.png"",""time"":793},{""stimulus"":""img/3to2/9.png"",""time"":892},{""stimulus"":""img/3to2/10.png"",""time"":994},{""stimulus"":""img/3to2/11.png"",""time"":1089},{""stimulus"":""img/3to2/12.png"",""time"":1189}]","[]",""
"","","","choice","63d1b93d9abc8c4b40e2d92f","bdp_cybrbll","Mon Mar 27 2023 10:52:33 GMT-0500 (Central Daylight Time)","466271","3","1","image-keyboard-response","133","184272","0.0-5.0-1.64","","244","","img/2to1/1.png","1","161","449","0.5","0.5","2","1","","",""
"","","","","63d1b93d9abc8c4b40e2d92f","bdp_cybrbll","Mon Mar 27 2023 10:52:33 GMT-0500 (Central Daylight Time)","466271","3","1","animation","134","185571","0.0-5.0-2.64","","","","","","161","","","","2","1","[{""stimulus"":""img/2to1/1.png"",""time"":99},{""stimulus"":""img/2to1/2.png"",""time"":210},{""stimulus"":""img/2to1/3.png"",""time"":302},{""stimulus"":""img/2to1/4.png"",""time"":410},{""stimulus"":""img/2to1/5.png"",""time"":504},{""stimulus"":""img/2to1/6.png"",""time"":598},{""stimulus"":""img/2to1/7.png"",""time"":706},{""stimulus"":""img/2to1/8.png"",""time"":798},{""stimulus"":""img/2to1/9.png"",""time"":893},{""stimulus"":""img/2to1/10.png"",""time"":1003},{""stimulus"":""img/2to1/11.png"",""time"":1089},{""stimulus"":""img/2to1/12.png"",""time"":1190}]","[]",""
"","","","observe","63d1b93d9abc8c4b40e2d92f","bdp_cybrbll","Mon Mar 27 2023 10:52:33 GMT-0500 (Central Daylight Time)","466271","3","1","image-keyboard-response","135","185881","0.0-5.0-1.65","","null","","img/1to3/1.png","null","160","298","0.5","0.5","1","2","","",""
"","","","","63d1b93d9abc8c4b40e2d92f","bdp_cybrbll","Mon Mar 27 2023 10:52:33 GMT-0500 (Central Daylight Time)","466271","3","1","animation","136","187169","0.0-5.0-2.65","","","","","","160","","","","1","2","[{""stimulus"":""img/1to2/1.png"",""time"":109},{""stimulus"":""img/1to2/2.png"",""time"":199},{""stimulus"":""img/1to2/3.png"",""time"":299},{""stimulus"":""img/1to2/4.png"",""time"":404},{""stimulus"":""img/1to2/5.png"",""time"":512},{""stimulus"":""img/1to2/6.png"",""time"":596},{""stimulus"":""img/1to2/7.png"",""time"":700},{""stimulus"":""img/1to2/8.png"",""time"":795},{""stimulus"":""img/1to2/9.png"",""time"":903},{""stimulus"":""img/1to2/10.png"",""time"":995},{""stimulus"":""img/1to2/11.png"",""time"":1091},{""stimulus"":""img/1to2/12.png"",""time"":1196}]","[]",""
"","","","choice","63d1b93d9abc8c4b40e2d92f","bdp_cybrbll","Mon Mar 27 2023 10:52:33 GMT-0500 (Central Daylight Time)","466271","3","1","image-keyboard-response","137","187452","0.0-5.0-1.66","","282","","img/2to1/1.png","2","159","286","0.5","0.5","2","3","","",""
"","","","","63d1b93d9abc8c4b40e2d92f","bdp_cybrbll","Mon Mar 27 2023 10:52:33 GMT-0500 (Central Daylight Time)","466271","3","1","animation","138","188741","0.0-5.0-2.66","","","","","","159","","","","2","3","[{""stimulus"":""img/2to3/1.png"",""time"":100},{""stimulus"":""img/2to3/2.png"",""time"":199},{""stimulus"":""img/2to3/3.png"",""time"":309},{""stimulus"":""img/2to3/4.png"",""time"":403},{""stimulus"":""img/2to3/5.png"",""time"":497},{""stimulus"":""img/2to3/6.png"",""time"":606},{""stimulus"":""img/2to3/7.png"",""time"":694},{""stimulus"":""img/2to3/8.png"",""time"":793},{""stimulus"":""img/2to3/9.png"",""time"":891},{""stimulus"":""img/2to3/10.png"",""time"":991},{""stimulus"":""img/2to3/11.png"",""time"":1090},{""stimulus"":""img/2to3/12.png"",""time"":1188}]","[]",""
"","","","observe","63d1b93d9abc8c4b40e2d92f","bdp_cybrbll","Mon Mar 27 2023 10:52:33 GMT-0500 (Central Daylight Time)","466271","3","1","image-keyboard-response","139","189117","0.0-5.0-1.67","","null","","img/3to2/1.png","null","158","369","0.5","0.5","3","2","","",""
"","","","","63d1b93d9abc8c4b40e2d92f","bdp_cybrbll","Mon Mar 27 2023 10:52:33 GMT-0500 (Central Daylight Time)","466271","3","1","animation","140","190410","0.0-5.0-2.67","","","","","","158","","","","3","2","[{""stimulus"":""img/3to2/1.png"",""time"":109},{""stimulus"":""img/3to2/2.png"",""time"":200},{""stimulus"":""img/3to2/3.png"",""time"":310},{""stimulus"":""img/3to2/4.png"",""time"":396},{""stimulus"":""img/3to2/5.png"",""time"":511},{""stimulus"":""img/3to2/6.png"",""time"":595},{""stimulus"":""img/3to2/7.png"",""time"":693},{""stimulus"":""img/3to2/8.png"",""time"":793},{""stimulus"":""img/3to2/9.png"",""time"":892},{""stimulus"":""img/3to2/10.png"",""time"":995},{""stimulus"":""img/3to2/11.png"",""time"":1104},{""stimulus"":""img/3to2/12.png"",""time"":1189}]","[]",""
"","","","choice","63d1b93d9abc8c4b40e2d92f","bdp_cybrbll","Mon Mar 27 2023 10:52:33 GMT-0500 (Central Daylight Time)","466271","3","1","image-keyboard-response","141","190680","0.0-5.0-1.68","","270","","img/2to1/1.png","1","157","325","0.5","0.5","2","1","","",""
"","","","","63d1b93d9abc8c4b40e2d92f","bdp_cybrbll","Mon Mar 27 2023 10:52:33 GMT-0500 (Central Daylight Time)","466271","3","1","animation","142","191968","0.0-5.0-2.68","","","","","","157","","","","2","1","[{""stimulus"":""img/2to1/1.png"",""time"":100},{""stimulus"":""img/2to1/2.png"",""time"":211},{""stimulus"":""img/2to1/3.png"",""time"":305},{""stimulus"":""img/2to1/4.png"",""time"":399},{""stimulus"":""img/2to1/5.png"",""time"":496},{""stimulus"":""img/2to1/6.png"",""time"":603},{""stimulus"":""img/2to1/7.png"",""time"":694},{""stimulus"":""img/2to1/8.png"",""time"":793},{""stimulus"":""img/2to1/9.png"",""time"":892},{""stimulus"":""img/2to1/10.png"",""time"":993},{""stimulus"":""img/2to1/11.png"",""time"":1104},{""stimulus"":""img/2to1/12.png"",""time"":1189}]","[]",""
"","","","observe","63d1b93d9abc8c4b40e2d92f","bdp_cybrbll","Mon Mar 27 2023 10:52:33 GMT-0500 (Central Daylight Time)","466271","3","1","image-keyboard-response","143","192626","0.0-5.0-1.69","","null","","img/1to3/1.png","null","156","651","0.5","0.5","1","2","","",""
"","","","","63d1b93d9abc8c4b40e2d92f","bdp_cybrbll","Mon Mar 27 2023 10:52:33 GMT-0500 (Central Daylight Time)","466271","3","1","animation","144","193914","0.0-5.0-2.69","","","","","","156","","","","1","2","[{""stimulus"":""img/1to2/1.png"",""time"":110},{""stimulus"":""img/1to2/2.png"",""time"":199},{""stimulus"":""img/1to2/3.png"",""time"":299},{""stimulus"":""img/1to2/4.png"",""time"":406},{""stimulus"":""img/1to2/5.png"",""time"":496},{""stimulus"":""img/1to2/6.png"",""time"":608},{""stimulus"":""img/1to2/7.png"",""time"":699},{""stimulus"":""img/1to2/8.png"",""time"":795},{""stimulus"":""img/1to2/9.png"",""time"":893},{""stimulus"":""img/1to2/10.png"",""time"":992},{""stimulus"":""img/1to2/11.png"",""time"":1092},{""stimulus"":""img/1to2/12.png"",""time"":1190}]","[]",""
"","","","choice","63d1b93d9abc8c4b40e2d92f","bdp_cybrbll","Mon Mar 27 2023 10:52:33 GMT-0500 (Central Daylight Time)","466271","3","1","image-keyboard-response","145","194003","0.0-5.0-1.70","","87","","img/2to1/1.png","2","155","549","0.5","0.5","2","3","","",""
"","","","","63d1b93d9abc8c4b40e2d92f","bdp_cybrbll","Mon Mar 27 2023 10:52:33 GMT-0500 (Central Daylight Time)","466271","3","1","animation","146","195305","0.0-5.0-2.70","","","","","","155","","","","2","3","[{""stimulus"":""img/2to3/1.png"",""time"":102},{""stimulus"":""img/2to3/2.png"",""time"":200},{""stimulus"":""img/2to3/3.png"",""time"":299},{""stimulus"":""img/2to3/4.png"",""time"":398},{""stimulus"":""img/2to3/5.png"",""time"":496},{""stimulus"":""img/2to3/6.png"",""time"":596},{""stimulus"":""img/2to3/7.png"",""time"":709},{""stimulus"":""img/2to3/8.png"",""time"":793},{""stimulus"":""img/2to3/9.png"",""time"":893},{""stimulus"":""img/2to3/10.png"",""time"":1004},{""stimulus"":""img/2to3/11.png"",""time"":1099},{""stimulus"":""img/2to3/12.png"",""time"":1199}]","[]",""
"","","","observe","63d1b93d9abc8c4b40e2d92f","bdp_cybrbll","Mon Mar 27 2023 10:52:33 GMT-0500 (Central Daylight Time)","466271","3","1","image-keyboard-response","147","195812","0.0-5.0-1.71","","null","","img/3to2/1.png","null","154","506","0.5","0.5","3","2","","",""
"","","","","63d1b93d9abc8c4b40e2d92f","bdp_cybrbll","Mon Mar 27 2023 10:52:33 GMT-0500 (Central Daylight Time)","466271","3","1","animation","148","197115","0.0-5.0-2.71","","","","","","154","","","","3","2","[{""stimulus"":""img/3to2/1.png"",""time"":101},{""stimulus"":""img/3to2/2.png"",""time"":200},{""stimulus"":""img/3to2/3.png"",""time"":303},{""stimulus"":""img/3to2/4.png"",""time"":397},{""stimulus"":""img/3to2/5.png"",""time"":505},{""stimulus"":""img/3to2/6.png"",""time"":598},{""stimulus"":""img/3to2/7.png"",""time"":708},{""stimulus"":""img/3to2/8.png"",""time"":793},{""stimulus"":""img/3to2/9.png"",""time"":896},{""stimulus"":""img/3to2/10.png"",""time"":1005},{""stimulus"":""img/3to2/11.png"",""time"":1090},{""stimulus"":""img/3to2/12.png"",""time"":1190}]","[]",""
"","","","choice","63d1b93d9abc8c4b40e2d92f","bdp_cybrbll","Mon Mar 27 2023 10:52:33 GMT-0500 (Central Daylight Time)","466271","3","1","image-keyboard-response","149","197376","0.0-5.0-1.72","","261","","img/2to1/1.png","1","153","1262","0.5","0.5","2","1","","",""
"","","","","63d1b93d9abc8c4b40e2d92f","bdp_cybrbll","Mon Mar 27 2023 10:52:33 GMT-0500 (Central Daylight Time)","466271","3","1","animation","150","198670","0.0-5.0-2.72","","","","","","153","","","","2","1","[{""stimulus"":""img/2to1/1.png"",""time"":100},{""stimulus"":""img/2to1/2.png"",""time"":200},{""stimulus"":""img/2to1/3.png"",""time"":298},{""stimulus"":""img/2to1/4.png"",""time"":397},{""stimulus"":""img/2to1/5.png"",""time"":500},{""stimulus"":""img/2to1/6.png"",""time"":610},{""stimulus"":""img/2to1/7.png"",""time"":704},{""stimulus"":""img/2to1/8.png"",""time"":794},{""stimulus"":""img/2to1/9.png"",""time"":892},{""stimulus"":""img/2to1/10.png"",""time"":1000},{""stimulus"":""img/2to1/11.png"",""time"":1092},{""stimulus"":""img/2to1/12.png"",""time"":1190}]","[]",""
"","","","observe","63d1b93d9abc8c4b40e2d92f","bdp_cybrbll","Mon Mar 27 2023 10:52:33 GMT-0500 (Central Daylight Time)","466271","3","1","image-keyboard-response","151","198869","0.0-5.0-1.73","","null","","img/1to3/1.png","null","152","197","0.5","0.5","1","3","","",""
"","","","","63d1b93d9abc8c4b40e2d92f","bdp_cybrbll","Mon Mar 27 2023 10:52:33 GMT-0500 (Central Daylight Time)","466271","3","1","animation","152","200166","0.0-5.0-2.73","","","","","","152","","","","1","3","[{""stimulus"":""img/1to3/1.png"",""time"":113},{""stimulus"":""img/1to3/2.png"",""time"":199},{""stimulus"":""img/1to3/3.png"",""time"":297},{""stimulus"":""img/1to3/4.png"",""time"":397},{""stimulus"":""img/1to3/5.png"",""time"":497},{""stimulus"":""img/1to3/6.png"",""time"":594},{""stimulus"":""img/1to3/7.png"",""time"":694},{""stimulus"":""img/1to3/8.png"",""time"":793},{""stimulus"":""img/1to3/9.png"",""time"":892},{""stimulus"":""img/1to3/10.png"",""time"":1000},{""stimulus"":""img/1to3/11.png"",""time"":1093},{""stimulus"":""img/1to3/12.png"",""time"":1203}]","[]",""
"","","","observe","63d1b93d9abc8c4b40e2d92f","bdp_cybrbll","Mon Mar 27 2023 10:52:33 GMT-0500 (Central Daylight Time)","466271","3","1","image-keyboard-response","153","200871","0.0-5.0-1.74","","null","","img/3to2/1.png","null","151","695","0.5","0.5","3","1","","",""
"","","","","63d1b93d9abc8c4b40e2d92f","bdp_cybrbll","Mon Mar 27 2023 10:52:33 GMT-0500 (Central Daylight Time)","466271","3","1","animation","154","202160","0.0-5.0-2.74","","","","","","151","","","","3","1","[{""stimulus"":""img/3to1/1.png"",""time"":108},{""stimulus"":""img/3to1/2.png"",""time"":199},{""stimulus"":""img/3to1/3.png"",""time"":310},{""stimulus"":""img/3to1/4.png"",""time"":396},{""stimulus"":""img/3to1/5.png"",""time"":496},{""stimulus"":""img/3to1/6.png"",""time"":595},{""stimulus"":""img/3to1/7.png"",""time"":694},{""stimulus"":""img/3to1/8.png"",""time"":793},{""stimulus"":""img/3to1/9.png"",""time"":900},{""stimulus"":""img/3to1/10.png"",""time"":993},{""stimulus"":""img/3to1/11.png"",""time"":1102},{""stimulus"":""img/3to1/12.png"",""time"":1194}]","[]",""
"","","","observe","63d1b93d9abc8c4b40e2d92f","bdp_cybrbll","Mon Mar 27 2023 10:52:33 GMT-0500 (Central Daylight Time)","466271","3","1","image-keyboard-response","155","203611","0.0-5.0-1.75","","null","","img/1to3/1.png","null","150","1444","0.5","0.5","1","2","","",""
"","","","","63d1b93d9abc8c4b40e2d92f","bdp_cybrbll","Mon Mar 27 2023 10:52:33 GMT-0500 (Central Daylight Time)","466271","3","1","animation","156","204905","0.0-5.0-2.75","","","","","","150","","","","1","2","[{""stimulus"":""img/1to2/1.png"",""time"":111},{""stimulus"":""img/1to2/2.png"",""time"":200},{""stimulus"":""img/1to2/3.png"",""time"":298},{""stimulus"":""img/1to2/4.png"",""time"":407},{""stimulus"":""img/1to2/5.png"",""time"":501},{""stimulus"":""img/1to2/6.png"",""time"":595},{""stimulus"":""img/1to2/7.png"",""time"":693},{""stimulus"":""img/1to2/8.png"",""time"":799},{""stimulus"":""img/1to2/9.png"",""time"":907},{""stimulus"":""img/1to2/10.png"",""time"":998},{""stimulus"":""img/1to2/11.png"",""time"":1092},{""stimulus"":""img/1to2/12.png"",""time"":1188}]","[]",""
"","","","choice","63d1b93d9abc8c4b40e2d92f","bdp_cybrbll","Mon Mar 27 2023 10:52:33 GMT-0500 (Central Daylight Time)","466271","3","1","image-keyboard-response","157","205754","0.0-5.0-1.76","","847","","img/2to1/1.png","2","149","245","0.5","0.1","2","3","","",""
"","","","","63d1b93d9abc8c4b40e2d92f","bdp_cybrbll","Mon Mar 27 2023 10:52:33 GMT-0500 (Central Daylight Time)","466271","3","1","animation","158","207058","0.0-5.0-2.76","","","","","","149","","","","2","3","[{""stimulus"":""img/2to3/1.png"",""time"":100},{""stimulus"":""img/2to3/2.png"",""time"":212},{""stimulus"":""img/2to3/3.png"",""time"":306},{""stimulus"":""img/2to3/4.png"",""time"":401},{""stimulus"":""img/2to3/5.png"",""time"":508},{""stimulus"":""img/2to3/6.png"",""time"":595},{""stimulus"":""img/2to3/7.png"",""time"":695},{""stimulus"":""img/2to3/8.png"",""time"":804},{""stimulus"":""img/2to3/9.png"",""time"":892},{""stimulus"":""img/2to3/10.png"",""time"":992},{""stimulus"":""img/2to3/11.png"",""time"":1101},{""stimulus"":""img/2to3/12.png"",""time"":1190}]","[]",""
"","","","observe","63d1b93d9abc8c4b40e2d92f","bdp_cybrbll","Mon Mar 27 2023 10:52:33 GMT-0500 (Central Daylight Time)","466271","3","1","image-keyboard-response","159","207804","0.0-5.0-1.77","","null","","img/3to2/1.png","null","148","735","0.5","0.1","3","2","","",""
"","","","","63d1b93d9abc8c4b40e2d92f","bdp_cybrbll","Mon Mar 27 2023 10:52:33 GMT-0500 (Central Daylight Time)","466271","3","1","animation","160","209098","0.0-5.0-2.77","","","","","","148","","","","3","2","[{""stimulus"":""img/3to2/1.png"",""time"":109},{""stimulus"":""img/3to2/2.png"",""time"":201},{""stimulus"":""img/3to2/3.png"",""time"":298},{""stimulus"":""img/3to2/4.png"",""time"":404},{""stimulus"":""img/3to2/5.png"",""time"":497},{""stimulus"":""img/3to2/6.png"",""time"":605},{""stimulus"":""img/3to2/7.png"",""time"":700},{""stimulus"":""img/3to2/8.png"",""time"":793},{""stimulus"":""img/3to2/9.png"",""time"":902},{""stimulus"":""img/3to2/10.png"",""time"":992},{""stimulus"":""img/3to2/11.png"",""time"":1091},{""stimulus"":""img/3to2/12.png"",""time"":1200}]","[]",""
"","","","choice","63d1b93d9abc8c4b40e2d92f","bdp_cybrbll","Mon Mar 27 2023 10:52:33 GMT-0500 (Central Daylight Time)","466271","3","1","image-keyboard-response","161","209355","0.0-5.0-1.78","","255","","img/2to1/1.png","1","147","771","0.5","0.1","2","1","","",""
"","","","","63d1b93d9abc8c4b40e2d92f","bdp_cybrbll","Mon Mar 27 2023 10:52:33 GMT-0500 (Central Daylight Time)","466271","3","1","animation","162","210652","0.0-5.0-2.78","","","","","","147","","","","2","1","[{""stimulus"":""img/2to1/1.png"",""time"":100},{""stimulus"":""img/2to1/2.png"",""time"":210},{""stimulus"":""img/2to1/3.png"",""time"":303},{""stimulus"":""img/2to1/4.png"",""time"":397},{""stimulus"":""img/2to1/5.png"",""time"":496},{""stimulus"":""img/2to1/6.png"",""time"":595},{""stimulus"":""img/2to1/7.png"",""time"":694},{""stimulus"":""img/2to1/8.png"",""time"":800},{""stimulus"":""img/2to1/9.png"",""time"":892},{""stimulus"":""img/2to1/10.png"",""time"":1002},{""stimulus"":""img/2to1/11.png"",""time"":1091},{""stimulus"":""img/2to1/12.png"",""time"":1203}]","[]",""
"","","","observe","63d1b93d9abc8c4b40e2d92f","bdp_cybrbll","Mon Mar 27 2023 10:52:33 GMT-0500 (Central Daylight Time)","466271","3","1","image-keyboard-response","163","211107","0.0-5.0-1.79","","null","","img/1to3/1.png","null","146","453","0.5","0.1","1","3","","",""
"","","","","63d1b93d9abc8c4b40e2d92f","bdp_cybrbll","Mon Mar 27 2023 10:52:33 GMT-0500 (Central Daylight Time)","466271","3","1","animation","164","212410","0.0-5.0-2.79","","","","","","146","","","","1","3","[{""stimulus"":""img/1to3/1.png"",""time"":103},{""stimulus"":""img/1to3/2.png"",""time"":199},{""stimulus"":""img/1to3/3.png"",""time"":304},{""stimulus"":""img/1to3/4.png"",""time"":399},{""stimulus"":""img/1to3/5.png"",""time"":506},{""stimulus"":""img/1to3/6.png"",""time"":600},{""stimulus"":""img/1to3/7.png"",""time"":694},{""stimulus"":""img/1to3/8.png"",""time"":793},{""stimulus"":""img/1to3/9.png"",""time"":892},{""stimulus"":""img/1to3/10.png"",""time"":1004},{""stimulus"":""img/1to3/11.png"",""time"":1098},{""stimulus"":""img/1to3/12.png"",""time"":1189}]","[]",""
"","","","observe","63d1b93d9abc8c4b40e2d92f","bdp_cybrbll","Mon Mar 27 2023 10:52:33 GMT-0500 (Central Daylight Time)","466271","3","1","image-keyboard-response","165","212627","0.0-5.0-1.80","","null","","img/3to2/1.png","null","145","215","0.5","0.1","3","1","","",""
"","","","","63d1b93d9abc8c4b40e2d92f","bdp_cybrbll","Mon Mar 27 2023 10:52:33 GMT-0500 (Central Daylight Time)","466271","3","1","animation","166","213924","0.0-5.0-2.80","","","","","","145","","","","3","1","[{""stimulus"":""img/3to1/1.png"",""time"":112},{""stimulus"":""img/3to1/2.png"",""time"":199},{""stimulus"":""img/3to1/3.png"",""time"":299},{""stimulus"":""img/3to1/4.png"",""time"":407},{""stimulus"":""img/3to1/5.png"",""time"":496},{""stimulus"":""img/3to1/6.png"",""time"":608},{""stimulus"":""img/3to1/7.png"",""time"":703},{""stimulus"":""img/3to1/8.png"",""time"":796},{""stimulus"":""img/3to1/9.png"",""time"":892},{""stimulus"":""img/3to1/10.png"",""time"":992},{""stimulus"":""img/3to1/11.png"",""time"":1090},{""stimulus"":""img/3to1/12.png"",""time"":1204}]","[]",""
"","","","observe","63d1b93d9abc8c4b40e2d92f","bdp_cybrbll","Mon Mar 27 2023 10:52:33 GMT-0500 (Central Daylight Time)","466271","3","1","image-keyboard-response","167","214421","0.0-5.0-1.81","","null","","img/1to3/1.png","null","144","488","0.5","0.1","1","3","","",""
"","","","","63d1b93d9abc8c4b40e2d92f","bdp_cybrbll","Mon Mar 27 2023 10:52:33 GMT-0500 (Central Daylight Time)","466271","3","1","animation","168","215714","0.0-5.0-2.81","","","","","","144","","","","1","3","[{""stimulus"":""img/1to3/1.png"",""time"":109},{""stimulus"":""img/1to3/2.png"",""time"":202},{""stimulus"":""img/1to3/3.png"",""time"":312},{""stimulus"":""img/1to3/4.png"",""time"":406},{""stimulus"":""img/1to3/5.png"",""time"":500},{""stimulus"":""img/1to3/6.png"",""time"":608},{""stimulus"":""img/1to3/7.png"",""time"":701},{""stimulus"":""img/1to3/8.png"",""time"":794},{""stimulus"":""img/1to3/9.png"",""time"":903},{""stimulus"":""img/1to3/10.png"",""time"":996},{""stimulus"":""img/1to3/11.png"",""time"":1091},{""stimulus"":""img/1to3/12.png"",""time"":1189}]","[]",""
"","","","observe","63d1b93d9abc8c4b40e2d92f","bdp_cybrbll","Mon Mar 27 2023 10:52:33 GMT-0500 (Central Daylight Time)","466271","3","1","image-keyboard-response","169","216005","0.0-5.0-1.82","","null","","img/3to2/1.png","null","143","289","0.5","0.1","3","2","","",""
"","","","","63d1b93d9abc8c4b40e2d92f","bdp_cybrbll","Mon Mar 27 2023 10:52:33 GMT-0500 (Central Daylight Time)","466271","3","1","animation","170","217301","0.0-5.0-2.82","","","","","","143","","","","3","2","[{""stimulus"":""img/3to2/1.png"",""time"":113},{""stimulus"":""img/3to2/2.png"",""time"":199},{""stimulus"":""img/3to2/3.png"",""time"":301},{""stimulus"":""img/3to2/4.png"",""time"":397},{""stimulus"":""img/3to2/5.png"",""time"":505},{""stimulus"":""img/3to2/6.png"",""time"":598},{""stimulus"":""img/3to2/7.png"",""time"":706},{""stimulus"":""img/3to2/8.png"",""time"":793},{""stimulus"":""img/3to2/9.png"",""time"":893},{""stimulus"":""img/3to2/10.png"",""time"":991},{""stimulus"":""img/3to2/11.png"",""time"":1091},{""stimulus"":""img/3to2/12.png"",""time"":1204}]","[]",""
"","","","choice","63d1b93d9abc8c4b40e2d92f","bdp_cybrbll","Mon Mar 27 2023 10:52:33 GMT-0500 (Central Daylight Time)","466271","3","1","image-keyboard-response","171","217516","0.0-5.0-1.83","","213","","img/2to1/1.png","1","142","881","0.5","0.1","2","1","","",""
"","","","","63d1b93d9abc8c4b40e2d92f","bdp_cybrbll","Mon Mar 27 2023 10:52:33 GMT-0500 (Central Daylight Time)","466271","3","1","animation","172","218805","0.0-5.0-2.83","","","","","","142","","","","2","1","[{""stimulus"":""img/2to1/1.png"",""time"":101},{""stimulus"":""img/2to1/2.png"",""time"":206},{""stimulus"":""img/2to1/3.png"",""time"":299},{""stimulus"":""img/2to1/4.png"",""time"":409},{""stimulus"":""img/2to1/5.png"",""time"":495},{""stimulus"":""img/2to1/6.png"",""time"":596},{""stimulus"":""img/2to1/7.png"",""time"":706},{""stimulus"":""img/2to1/8.png"",""time"":799},{""stimulus"":""img/2to1/9.png"",""time"":895},{""stimulus"":""img/2to1/10.png"",""time"":990},{""stimulus"":""img/2to1/11.png"",""time"":1096},{""stimulus"":""img/2to1/12.png"",""time"":1190}]","[]",""
"","","","observe","63d1b93d9abc8c4b40e2d92f","bdp_cybrbll","Mon Mar 27 2023 10:52:33 GMT-0500 (Central Daylight Time)","466271","3","1","image-keyboard-response","173","219283","0.0-5.0-1.84","","null","","img/1to3/1.png","null","141","475","0.5","0.1","1","3","","",""
"","","","","63d1b93d9abc8c4b40e2d92f","bdp_cybrbll","Mon Mar 27 2023 10:52:33 GMT-0500 (Central Daylight Time)","466271","3","1","animation","174","220578","0.0-5.0-2.84","","","","","","141","","","","1","3","[{""stimulus"":""img/1to3/1.png"",""time"":110},{""stimulus"":""img/1to3/2.png"",""time"":199},{""stimulus"":""img/1to3/3.png"",""time"":298},{""stimulus"":""img/1to3/4.png"",""time"":406},{""stimulus"":""img/1to3/5.png"",""time"":500},{""stimulus"":""img/1to3/6.png"",""time"":596},{""stimulus"":""img/1to3/7.png"",""time"":695},{""stimulus"":""img/1to3/8.png"",""time"":794},{""stimulus"":""img/1to3/9.png"",""time"":905},{""stimulus"":""img/1to3/10.png"",""time"":997},{""stimulus"":""img/1to3/11.png"",""time"":1091},{""stimulus"":""img/1to3/12.png"",""time"":1189}]","[]",""
"","","","observe","63d1b93d9abc8c4b40e2d92f","bdp_cybrbll","Mon Mar 27 2023 10:52:33 GMT-0500 (Central Daylight Time)","466271","3","1","image-keyboard-response","175","221013","0.0-5.0-1.85","","null","","img/3to2/1.png","null","140","431","0.5","0.1","3","2","","",""
"","","","","63d1b93d9abc8c4b40e2d92f","bdp_cybrbll","Mon Mar 27 2023 10:52:33 GMT-0500 (Central Daylight Time)","466271","3","1","animation","176","222309","0.0-5.0-2.85","","","","","","140","","","","3","2","[{""stimulus"":""img/3to2/1.png"",""time"":111},{""stimulus"":""img/3to2/2.png"",""time"":199},{""stimulus"":""img/3to2/3.png"",""time"":299},{""stimulus"":""img/3to2/4.png"",""time"":397},{""stimulus"":""img/3to2/5.png"",""time"":496},{""stimulus"":""img/3to2/6.png"",""time"":596},{""stimulus"":""img/3to2/7.png"",""time"":694},{""stimulus"":""img/3to2/8.png"",""time"":793},{""stimulus"":""img/3to2/9.png"",""time"":892},{""stimulus"":""img/3to2/10.png"",""time"":1002},{""stimulus"":""img/3to2/11.png"",""time"":1090},{""stimulus"":""img/3to2/12.png"",""time"":1203}]","[]",""
"","","","choice","63d1b93d9abc8c4b40e2d92f","bdp_cybrbll","Mon Mar 27 2023 10:52:33 GMT-0500 (Central Daylight Time)","466271","3","1","image-keyboard-response","177","222562","0.0-5.0-1.86","","252","","img/2to1/1.png","1","139","165","0.5","0.1","2","1","","",""
"","","","","63d1b93d9abc8c4b40e2d92f","bdp_cybrbll","Mon Mar 27 2023 10:52:33 GMT-0500 (Central Daylight Time)","466271","3","1","animation","178","223850","0.0-5.0-2.86","","","","","","139","","","","2","1","[{""stimulus"":""img/2to1/1.png"",""time"":100},{""stimulus"":""img/2to1/2.png"",""time"":199},{""stimulus"":""img/2to1/3.png"",""time"":309},{""stimulus"":""img/2to1/4.png"",""time"":397},{""stimulus"":""img/2to1/5.png"",""time"":496},{""stimulus"":""img/2to1/6.png"",""time"":595},{""stimulus"":""img/2to1/7.png"",""time"":699},{""stimulus"":""img/2to1/8.png"",""time"":808},{""stimulus"":""img/2to1/9.png"",""time"":894},{""stimulus"":""img/2to1/10.png"",""time"":994},{""stimulus"":""img/2to1/11.png"",""time"":1102},{""stimulus"":""img/2to1/12.png"",""time"":1189}]","[]",""
"","","","observe","63d1b93d9abc8c4b40e2d92f","bdp_cybrbll","Mon Mar 27 2023 10:52:33 GMT-0500 (Central Daylight Time)","466271","3","1","image-keyboard-response","179","224332","0.0-5.0-1.87","","null","","img/1to3/1.png","null","138","472","0.5","0.1","1","3","","",""
"","","","","63d1b93d9abc8c4b40e2d92f","bdp_cybrbll","Mon Mar 27 2023 10:52:33 GMT-0500 (Central Daylight Time)","466271","3","1","animation","180","225625","0.0-5.0-2.87","","","","","","138","","","","1","3","[{""stimulus"":""img/1to3/1.png"",""time"":109},{""stimulus"":""img/1to3/2.png"",""time"":199},{""stimulus"":""img/1to3/3.png"",""time"":312},{""stimulus"":""img/1to3/4.png"",""time"":407},{""stimulus"":""img/1to3/5.png"",""time"":496},{""stimulus"":""img/1to3/6.png"",""time"":595},{""stimulus"":""img/1to3/7.png"",""time"":693},{""stimulus"":""img/1to3/8.png"",""time"":793},{""stimulus"":""img/1to3/9.png"",""time"":903},{""stimulus"":""img/1to3/10.png"",""time"":995},{""stimulus"":""img/1to3/11.png"",""time"":1091},{""stimulus"":""img/1to3/12.png"",""time"":1189}]","[]",""
"","","","observe","63d1b93d9abc8c4b40e2d92f","bdp_cybrbll","Mon Mar 27 2023 10:52:33 GMT-0500 (Central Daylight Time)","466271","3","1","image-keyboard-response","181","226174","0.0-5.0-1.88","","null","","img/3to2/1.png","null","137","539","0.5","0.1","3","1","","",""
"","","","","63d1b93d9abc8c4b40e2d92f","bdp_cybrbll","Mon Mar 27 2023 10:52:33 GMT-0500 (Central Daylight Time)","466271","3","1","animation","182","227462","0.0-5.0-2.88","","","","","","137","","","","3","1","[{""stimulus"":""img/3to1/1.png"",""time"":110},{""stimulus"":""img/3to1/2.png"",""time"":199},{""stimulus"":""img/3to1/3.png"",""time"":299},{""stimulus"":""img/3to1/4.png"",""time"":406},{""stimulus"":""img/3to1/5.png"",""time"":496},{""stimulus"":""img/3to1/6.png"",""time"":611},{""stimulus"":""img/3to1/7.png"",""time"":704},{""stimulus"":""img/3to1/8.png"",""time"":798},{""stimulus"":""img/3to1/9.png"",""time"":892},{""stimulus"":""img/3to1/10.png"",""time"":997},{""stimulus"":""img/3to1/11.png"",""time"":1091},{""stimulus"":""img/3to1/12.png"",""time"":1199}]","[]",""
"","","","observe","63d1b93d9abc8c4b40e2d92f","bdp_cybrbll","Mon Mar 27 2023 10:52:33 GMT-0500 (Central Daylight Time)","466271","3","1","image-keyboard-response","183","227879","0.0-5.0-1.89","","null","","img/1to3/1.png","null","136","416","0.5","0.1","1","2","","",""
"","","","","63d1b93d9abc8c4b40e2d92f","bdp_cybrbll","Mon Mar 27 2023 10:52:33 GMT-0500 (Central Daylight Time)","466271","3","1","animation","184","229167","0.0-5.0-2.89","","","","","","136","","","","1","2","[{""stimulus"":""img/1to2/1.png"",""time"":103},{""stimulus"":""img/1to2/2.png"",""time"":212},{""stimulus"":""img/1to2/3.png"",""time"":298},{""stimulus"":""img/1to2/4.png"",""time"":399},{""stimulus"":""img/1to2/5.png"",""time"":508},{""stimulus"":""img/1to2/6.png"",""time"":596},{""stimulus"":""img/1to2/7.png"",""time"":696},{""stimulus"":""img/1to2/8.png"",""time"":794},{""stimulus"":""img/1to2/9.png"",""time"":896},{""stimulus"":""img/1to2/10.png"",""time"":991},{""stimulus"":""img/1to2/11.png"",""time"":1099},{""stimulus"":""img/1to2/12.png"",""time"":1194}]","[]",""
"","","","choice","63d1b93d9abc8c4b40e2d92f","bdp_cybrbll","Mon Mar 27 2023 10:52:33 GMT-0500 (Central Daylight Time)","466271","3","1","image-keyboard-response","185","229188","0.0-5.0-1.90","","19","","img/2to1/1.png","2","135","228","0.5","0.1","2","3","","",""
"","","","","63d1b93d9abc8c4b40e2d92f","bdp_cybrbll","Mon Mar 27 2023 10:52:33 GMT-0500 (Central Daylight Time)","466271","3","1","animation","186","230485","0.0-5.0-2.90","","","","","","135","","","","2","3","[{""stimulus"":""img/2to3/1.png"",""time"":101},{""stimulus"":""img/2to3/2.png"",""time"":207},{""stimulus"":""img/2to3/3.png"",""time"":303},{""stimulus"":""img/2to3/4.png"",""time"":398},{""stimulus"":""img/2to3/5.png"",""time"":503},{""stimulus"":""img/2to3/6.png"",""time"":596},{""stimulus"":""img/2to3/7.png"",""time"":705},{""stimulus"":""img/2to3/8.png"",""time"":794},{""stimulus"":""img/2to3/9.png"",""time"":893},{""stimulus"":""img/2to3/10.png"",""time"":1001},{""stimulus"":""img/2to3/11.png"",""time"":1096},{""stimulus"":""img/2to3/12.png"",""time"":1189}]","[]",""
"","","","observe","63d1b93d9abc8c4b40e2d92f","bdp_cybrbll","Mon Mar 27 2023 10:52:33 GMT-0500 (Central Daylight Time)","466271","3","1","image-keyboard-response","187","230652","0.0-5.0-1.91","","null","","img/3to2/1.png","null","134","165","0.5","0.1","3","2","","",""
"","","","","63d1b93d9abc8c4b40e2d92f","bdp_cybrbll","Mon Mar 27 2023 10:52:33 GMT-0500 (Central Daylight Time)","466271","3","1","animation","188","231950","0.0-5.0-2.91","","","","","","134","","","","3","2","[{""stimulus"":""img/3to2/1.png"",""time"":116},{""stimulus"":""img/3to2/2.png"",""time"":200},{""stimulus"":""img/3to2/3.png"",""time"":302},{""stimulus"":""img/3to2/4.png"",""time"":399},{""stimulus"":""img/3to2/5.png"",""time"":506},{""stimulus"":""img/3to2/6.png"",""time"":600},{""stimulus"":""img/3to2/7.png"",""time"":707},{""stimulus"":""img/3to2/8.png"",""time"":793},{""stimulus"":""img/3to2/9.png"",""time"":894},{""stimulus"":""img/3to2/10.png"",""time"":1003},{""stimulus"":""img/3to2/11.png"",""time"":1090},{""stimulus"":""img/3to2/12.png"",""time"":1205}]","[]",""
