"trial_type","trial_index","time_elapsed","internal_node_id","subject_id","task","startTime","totalTime","fairPartner","unfairPartner","view_history","rt","event","trial","time","trialtype","success","stimulus","key_press","throwsLeft","rtDur","pFair","pUnfair","holder","receiver","animation_sequence","responses"
"pavlovia","0","9","0.0-0.0","580777dd827ca10001db494b","bdp_cybrbll","Sun Mar 26 2023 01:46:51 GMT-0400 (Eastern Daylight Time)","434710","3","1","","","","","","","","","","","","","","","","",""
"instructions","1","5803","0.0-1.0","580777dd827ca10001db494b","bdp_cybrbll","Sun Mar 26 2023 01:46:51 GMT-0400 (Eastern Daylight Time)","434710","3","1","[{""page_index"":0,""viewing_time"":5793}]","5793","","","","","","","","","","","","","","",""
"","","","","580777dd827ca10001db494b","bdp_cybrbll","Sun Mar 26 2023 01:46:51 GMT-0400 (Eastern Daylight Time)","434710","3","1","","","fullscreenenter","2","9681","fullscreenenter","","","","","","","","","","",""
"fullscreen","2","10615","0.0-2.0","580777dd827ca10001db494b","bdp_cybrbll","Sun Mar 26 2023 01:46:51 GMT-0400 (Eastern Daylight Time)","434710","3","1","","","","","","","true","","","","","","","","","",""
"instructions","3","45267","0.0-4.0","580777dd827ca10001db494b","bdp_cybrbll","Sun Mar 26 2023 01:46:51 GMT-0400 (Eastern Daylight Time)","434710","3","1","[{""page_index"":0,""viewing_time"":34645}]","34645","","","","","","","","","","","","","","",""
"image-keyboard-response","4","46698","0.0-5.0-1.0","580777dd827ca10001db494b","bdp_cybrbll","Sun Mar 26 2023 01:46:51 GMT-0400 (Eastern Daylight Time)","434710","3","1","","1425","","","","choice","","img/2to1/1.png","1","225","1131","0.5","0.5","2","1","",""
"animation","5","47988","0.0-5.0-2.0","580777dd827ca10001db494b","bdp_cybrbll","Sun Mar 26 2023 01:46:51 GMT-0400 (Eastern Daylight Time)","434710","3","1","","","","","","","","","","225","","","","2","1","[{""stimulus"":""img/2to1/1.png"",""time"":101},{""stimulus"":""img/2to1/2.png"",""time"":199},{""stimulus"":""img/2to1/3.png"",""time"":297},{""stimulus"":""img/2to1/4.png"",""time"":397},{""stimulus"":""img/2to1/5.png"",""time"":496},{""stimulus"":""img/2to1/6.png"",""time"":595},{""stimulus"":""img/2to1/7.png"",""time"":693},{""stimulus"":""img/2to1/8.png"",""time"":792},{""stimulus"":""img/2to1/9.png"",""time"":892},{""stimulus"":""img/2to1/10.png"",""time"":991},{""stimulus"":""img/2to1/11.png"",""time"":1089},{""stimulus"":""img/2to1/12.png"",""time"":1189}]","[]"
"image-keyboard-response","6","48572","0.0-5.0-1.1","580777dd827ca10001db494b","bdp_cybrbll","Sun Mar 26 2023 01:46:51 GMT-0400 (Eastern Daylight Time)","434710","3","1","","null","","","","observe","","img/1to3/1.png","null","224","581","0.5","0.5","1","3","",""
"animation","7","49861","0.0-5.0-2.1","580777dd827ca10001db494b","bdp_cybrbll","Sun Mar 26 2023 01:46:51 GMT-0400 (Eastern Daylight Time)","434710","3","1","","","","","","","","","","224","","","","1","3","[{""stimulus"":""img/1to3/1.png"",""time"":100},{""stimulus"":""img/1to3/2.png"",""time"":199},{""stimulus"":""img/1to3/3.png"",""time"":298},{""stimulus"":""img/1to3/4.png"",""time"":398},{""stimulus"":""img/1to3/5.png"",""time"":496},{""stimulus"":""img/1to3/6.png"",""time"":595},{""stimulus"":""img/1to3/7.png"",""time"":694},{""stimulus"":""img/1to3/8.png"",""time"":793},{""stimulus"":""img/1to3/9.png"",""time"":892},{""stimulus"":""img/1to3/10.png"",""time"":991},{""stimulus"":""img/1to3/11.png"",""time"":1090},{""stimulus"":""img/1to3/12.png"",""time"":1189}]","[]"
"image-keyboard-response","8","50448","0.0-5.0-1.2","580777dd827ca10001db494b","bdp_cybrbll","Sun Mar 26 2023 01:46:51 GMT-0400 (Eastern Daylight Time)","434710","3","1","","null","","","","observe","","img/3to2/1.png","null","223","585","0.5","0.5","3","2","",""
"animation","9","51738","0.0-5.0-2.2","580777dd827ca10001db494b","bdp_cybrbll","Sun Mar 26 2023 01:46:51 GMT-0400 (Eastern Daylight Time)","434710","3","1","","","","","","","","","","223","","","","3","2","[{""stimulus"":""img/3to2/1.png"",""time"":102},{""stimulus"":""img/3to2/2.png"",""time"":200},{""stimulus"":""img/3to2/3.png"",""time"":299},{""stimulus"":""img/3to2/4.png"",""time"":398},{""stimulus"":""img/3to2/5.png"",""time"":496},{""stimulus"":""img/3to2/6.png"",""time"":596},{""stimulus"":""img/3to2/7.png"",""time"":694},{""stimulus"":""img/3to2/8.png"",""time"":793},{""stimulus"":""img/3to2/9.png"",""time"":892},{""stimulus"":""img/3to2/10.png"",""time"":992},{""stimulus"":""img/3to2/11.png"",""time"":1090},{""stimulus"":""img/3to2/12.png"",""time"":1189}]","[]"
"image-keyboard-response","10","52443","0.0-5.0-1.3","580777dd827ca10001db494b","bdp_cybrbll","Sun Mar 26 2023 01:46:51 GMT-0400 (Eastern Daylight Time)","434710","3","1","","703","","","","choice","","img/2to1/1.png","2","222","247","0.5","0.5","2","3","",""
"animation","11","53731","0.0-5.0-2.3","580777dd827ca10001db494b","bdp_cybrbll","Sun Mar 26 2023 01:46:51 GMT-0400 (Eastern Daylight Time)","434710","3","1","","","","","","","","","","222","","","","2","3","[{""stimulus"":""img/2to3/1.png"",""time"":100},{""stimulus"":""img/2to3/2.png"",""time"":199},{""stimulus"":""img/2to3/3.png"",""time"":298},{""stimulus"":""img/2to3/4.png"",""time"":396},{""stimulus"":""img/2to3/5.png"",""time"":496},{""stimulus"":""img/2to3/6.png"",""time"":595},{""stimulus"":""img/2to3/7.png"",""time"":694},{""stimulus"":""img/2to3/8.png"",""time"":793},{""stimulus"":""img/2to3/9.png"",""time"":892},{""stimulus"":""img/2to3/10.png"",""time"":991},{""stimulus"":""img/2to3/11.png"",""time"":1089},{""stimulus"":""img/2to3/12.png"",""time"":1189}]","[]"
"image-keyboard-response","12","54420","0.0-5.0-1.4","580777dd827ca10001db494b","bdp_cybrbll","Sun Mar 26 2023 01:46:51 GMT-0400 (Eastern Daylight Time)","434710","3","1","","null","","","","observe","","img/3to2/1.png","null","221","687","0.5","0.5","3","1","",""
"animation","13","55708","0.0-5.0-2.4","580777dd827ca10001db494b","bdp_cybrbll","Sun Mar 26 2023 01:46:51 GMT-0400 (Eastern Daylight Time)","434710","3","1","","","","","","","","","","221","","","","3","1","[{""stimulus"":""img/3to1/1.png"",""time"":100},{""stimulus"":""img/3to1/2.png"",""time"":200},{""stimulus"":""img/3to1/3.png"",""time"":298},{""stimulus"":""img/3to1/4.png"",""time"":397},{""stimulus"":""img/3to1/5.png"",""time"":496},{""stimulus"":""img/3to1/6.png"",""time"":595},{""stimulus"":""img/3to1/7.png"",""time"":694},{""stimulus"":""img/3to1/8.png"",""time"":793},{""stimulus"":""img/3to1/9.png"",""time"":891},{""stimulus"":""img/3to1/10.png"",""time"":991},{""stimulus"":""img/3to1/11.png"",""time"":1090},{""stimulus"":""img/3to1/12.png"",""time"":1189}]","[]"
"image-keyboard-response","14","55991","0.0-5.0-1.5","580777dd827ca10001db494b","bdp_cybrbll","Sun Mar 26 2023 01:46:51 GMT-0400 (Eastern Daylight Time)","434710","3","1","","null","","","","observe","","img/1to3/1.png","null","220","281","0.5","0.5","1","2","",""
"animation","15","57278","0.0-5.0-2.5","580777dd827ca10001db494b","bdp_cybrbll","Sun Mar 26 2023 01:46:51 GMT-0400 (Eastern Daylight Time)","434710","3","1","","","","","","","","","","220","","","","1","2","[{""stimulus"":""img/1to2/1.png"",""time"":100},{""stimulus"":""img/1to2/2.png"",""time"":199},{""stimulus"":""img/1to2/3.png"",""time"":299},{""stimulus"":""img/1to2/4.png"",""time"":398},{""stimulus"":""img/1to2/5.png"",""time"":497},{""stimulus"":""img/1to2/6.png"",""time"":596},{""stimulus"":""img/1to2/7.png"",""time"":694},{""stimulus"":""img/1to2/8.png"",""time"":793},{""stimulus"":""img/1to2/9.png"",""time"":893},{""stimulus"":""img/1to2/10.png"",""time"":991},{""stimulus"":""img/1to2/11.png"",""time"":1091},{""stimulus"":""img/1to2/12.png"",""time"":1190}]","[]"
"image-keyboard-response","16","57602","0.0-5.0-1.6","580777dd827ca10001db494b","bdp_cybrbll","Sun Mar 26 2023 01:46:51 GMT-0400 (Eastern Daylight Time)","434710","3","1","","321","","","","choice","","img/2to1/1.png","1","219","265","0.5","0.5","2","1","",""
"animation","17","58890","0.0-5.0-2.6","580777dd827ca10001db494b","bdp_cybrbll","Sun Mar 26 2023 01:46:51 GMT-0400 (Eastern Daylight Time)","434710","3","1","","","","","","","","","","219","","","","2","1","[{""stimulus"":""img/2to1/1.png"",""time"":101},{""stimulus"":""img/2to1/2.png"",""time"":202},{""stimulus"":""img/2to1/3.png"",""time"":298},{""stimulus"":""img/2to1/4.png"",""time"":398},{""stimulus"":""img/2to1/5.png"",""time"":497},{""stimulus"":""img/2to1/6.png"",""time"":596},{""stimulus"":""img/2to1/7.png"",""time"":695},{""stimulus"":""img/2to1/8.png"",""time"":793},{""stimulus"":""img/2to1/9.png"",""time"":892},{""stimulus"":""img/2to1/10.png"",""time"":991},{""stimulus"":""img/2to1/11.png"",""time"":1090},{""stimulus"":""img/2to1/12.png"",""time"":1189}]","[]"
"image-keyboard-response","18","59573","0.0-5.0-1.7","580777dd827ca10001db494b","bdp_cybrbll","Sun Mar 26 2023 01:46:51 GMT-0400 (Eastern Daylight Time)","434710","3","1","","null","","","","observe","","img/1to3/1.png","null","218","681","0.5","0.5","1","2","",""
"animation","19","60861","0.0-5.0-2.7","580777dd827ca10001db494b","bdp_cybrbll","Sun Mar 26 2023 01:46:51 GMT-0400 (Eastern Daylight Time)","434710","3","1","","","","","","","","","","218","","","","1","2","[{""stimulus"":""img/1to2/1.png"",""time"":101},{""stimulus"":""img/1to2/2.png"",""time"":199},{""stimulus"":""img/1to2/3.png"",""time"":298},{""stimulus"":""img/1to2/4.png"",""time"":397},{""stimulus"":""img/1to2/5.png"",""time"":496},{""stimulus"":""img/1to2/6.png"",""time"":595},{""stimulus"":""img/1to2/7.png"",""time"":694},{""stimulus"":""img/1to2/8.png"",""time"":793},{""stimulus"":""img/1to2/9.png"",""time"":892},{""stimulus"":""img/1to2/10.png"",""time"":991},{""stimulus"":""img/1to2/11.png"",""time"":1090},{""stimulus"":""img/1to2/12.png"",""time"":1189}]","[]"
"image-keyboard-response","20","61726","0.0-5.0-1.8","580777dd827ca10001db494b","bdp_cybrbll","Sun Mar 26 2023 01:46:51 GMT-0400 (Eastern Daylight Time)","434710","3","1","","863","","","","choice","","img/2to1/1.png","2","217","305","0.5","0.5","2","3","",""
"animation","21","63014","0.0-5.0-2.8","580777dd827ca10001db494b","bdp_cybrbll","Sun Mar 26 2023 01:46:51 GMT-0400 (Eastern Daylight Time)","434710","3","1","","","","","","","","","","217","","","","2","3","[{""stimulus"":""img/2to3/1.png"",""time"":100},{""stimulus"":""img/2to3/2.png"",""time"":199},{""stimulus"":""img/2to3/3.png"",""time"":298},{""stimulus"":""img/2to3/4.png"",""time"":397},{""stimulus"":""img/2to3/5.png"",""time"":496},{""stimulus"":""img/2to3/6.png"",""time"":595},{""stimulus"":""img/2to3/7.png"",""time"":694},{""stimulus"":""img/2to3/8.png"",""time"":793},{""stimulus"":""img/2to3/9.png"",""time"":892},{""stimulus"":""img/2to3/10.png"",""time"":991},{""stimulus"":""img/2to3/11.png"",""time"":1090},{""stimulus"":""img/2to3/12.png"",""time"":1189}]","[]"
"image-keyboard-response","22","63418","0.0-5.0-1.9","580777dd827ca10001db494b","bdp_cybrbll","Sun Mar 26 2023 01:46:51 GMT-0400 (Eastern Daylight Time)","434710","3","1","","null","","","","observe","","img/3to2/1.png","null","216","402","0.5","0.5","3","2","",""
"animation","23","64706","0.0-5.0-2.9","580777dd827ca10001db494b","bdp_cybrbll","Sun Mar 26 2023 01:46:51 GMT-0400 (Eastern Daylight Time)","434710","3","1","","","","","","","","","","216","","","","3","2","[{""stimulus"":""img/3to2/1.png"",""time"":100},{""stimulus"":""img/3to2/2.png"",""time"":199},{""stimulus"":""img/3to2/3.png"",""time"":298},{""stimulus"":""img/3to2/4.png"",""time"":397},{""stimulus"":""img/3to2/5.png"",""time"":496},{""stimulus"":""img/3to2/6.png"",""time"":595},{""stimulus"":""img/3to2/7.png"",""time"":694},{""stimulus"":""img/3to2/8.png"",""time"":793},{""stimulus"":""img/3to2/9.png"",""time"":892},{""stimulus"":""img/3to2/10.png"",""time"":991},{""stimulus"":""img/3to2/11.png"",""time"":1090},{""stimulus"":""img/3to2/12.png"",""time"":1188}]","[]"
"image-keyboard-response","24","64766","0.0-5.0-1.10","580777dd827ca10001db494b","bdp_cybrbll","Sun Mar 26 2023 01:46:51 GMT-0400 (Eastern Daylight Time)","434710","3","1","","58","","","","choice","","img/2to1/1.png","1","215","395","0.5","0.5","2","1","",""
"animation","25","66053","0.0-5.0-2.10","580777dd827ca10001db494b","bdp_cybrbll","Sun Mar 26 2023 01:46:51 GMT-0400 (Eastern Daylight Time)","434710","3","1","","","","","","","","","","215","","","","2","1","[{""stimulus"":""img/2to1/1.png"",""time"":100},{""stimulus"":""img/2to1/2.png"",""time"":199},{""stimulus"":""img/2to1/3.png"",""time"":298},{""stimulus"":""img/2to1/4.png"",""time"":397},{""stimulus"":""img/2to1/5.png"",""time"":497},{""stimulus"":""img/2to1/6.png"",""time"":596},{""stimulus"":""img/2to1/7.png"",""time"":695},{""stimulus"":""img/2to1/8.png"",""time"":793},{""stimulus"":""img/2to1/9.png"",""time"":892},{""stimulus"":""img/2to1/10.png"",""time"":991},{""stimulus"":""img/2to1/11.png"",""time"":1090},{""stimulus"":""img/2to1/12.png"",""time"":1189}]","[]"
"image-keyboard-response","26","66426","0.0-5.0-1.11","580777dd827ca10001db494b","bdp_cybrbll","Sun Mar 26 2023 01:46:51 GMT-0400 (Eastern Daylight Time)","434710","3","1","","null","","","","observe","","img/1to3/1.png","null","214","370","0.5","0.5","1","2","",""
"animation","27","67714","0.0-5.0-2.11","580777dd827ca10001db494b","bdp_cybrbll","Sun Mar 26 2023 01:46:51 GMT-0400 (Eastern Daylight Time)","434710","3","1","","","","","","","","","","214","","","","1","2","[{""stimulus"":""img/1to2/1.png"",""time"":101},{""stimulus"":""img/1to2/2.png"",""time"":200},{""stimulus"":""img/1to2/3.png"",""time"":299},{""stimulus"":""img/1to2/4.png"",""time"":398},{""stimulus"":""img/1to2/5.png"",""time"":496},{""stimulus"":""img/1to2/6.png"",""time"":596},{""stimulus"":""img/1to2/7.png"",""time"":694},{""stimulus"":""img/1to2/8.png"",""time"":793},{""stimulus"":""img/1to2/9.png"",""time"":892},{""stimulus"":""img/1to2/10.png"",""time"":991},{""stimulus"":""img/1to2/11.png"",""time"":1090},{""stimulus"":""img/1to2/12.png"",""time"":1189}]","[]"
"image-keyboard-response","28","67958","0.0-5.0-1.12","580777dd827ca10001db494b","bdp_cybrbll","Sun Mar 26 2023 01:46:51 GMT-0400 (Eastern Daylight Time)","434710","3","1","","243","","","","choice","","img/2to1/1.png","2","213","388","0.5","0.5","2","3","",""
"animation","29","69247","0.0-5.0-2.12","580777dd827ca10001db494b","bdp_cybrbll","Sun Mar 26 2023 01:46:51 GMT-0400 (Eastern Daylight Time)","434710","3","1","","","","","","","","","","213","","","","2","3","[{""stimulus"":""img/2to3/1.png"",""time"":100},{""stimulus"":""img/2to3/2.png"",""time"":199},{""stimulus"":""img/2to3/3.png"",""time"":298},{""stimulus"":""img/2to3/4.png"",""time"":397},{""stimulus"":""img/2to3/5.png"",""time"":496},{""stimulus"":""img/2to3/6.png"",""time"":595},{""stimulus"":""img/2to3/7.png"",""time"":694},{""stimulus"":""img/2to3/8.png"",""time"":794},{""stimulus"":""img/2to3/9.png"",""time"":892},{""stimulus"":""img/2to3/10.png"",""time"":991},{""stimulus"":""img/2to3/11.png"",""time"":1090},{""stimulus"":""img/2to3/12.png"",""time"":1189}]","[]"
"image-keyboard-response","30","69934","0.0-5.0-1.13","580777dd827ca10001db494b","bdp_cybrbll","Sun Mar 26 2023 01:46:51 GMT-0400 (Eastern Daylight Time)","434710","3","1","","null","","","","observe","","img/3to2/1.png","null","212","685","0.5","0.5","3","2","",""
"animation","31","71222","0.0-5.0-2.13","580777dd827ca10001db494b","bdp_cybrbll","Sun Mar 26 2023 01:46:51 GMT-0400 (Eastern Daylight Time)","434710","3","1","","","","","","","","","","212","","","","3","2","[{""stimulus"":""img/3to2/1.png"",""time"":100},{""stimulus"":""img/3to2/2.png"",""time"":199},{""stimulus"":""img/3to2/3.png"",""time"":298},{""stimulus"":""img/3to2/4.png"",""time"":397},{""stimulus"":""img/3to2/5.png"",""time"":496},{""stimulus"":""img/3to2/6.png"",""time"":595},{""stimulus"":""img/3to2/7.png"",""time"":694},{""stimulus"":""img/3to2/8.png"",""time"":793},{""stimulus"":""img/3to2/9.png"",""time"":892},{""stimulus"":""img/3to2/10.png"",""time"":991},{""stimulus"":""img/3to2/11.png"",""time"":1090},{""stimulus"":""img/3to2/12.png"",""time"":1189}]","[]"
"image-keyboard-response","32","71963","0.0-5.0-1.14","580777dd827ca10001db494b","bdp_cybrbll","Sun Mar 26 2023 01:46:51 GMT-0400 (Eastern Daylight Time)","434710","3","1","","739","","","","choice","","img/2to1/1.png","1","211","1269","0.5","0.5","2","1","",""
"animation","33","73252","0.0-5.0-2.14","580777dd827ca10001db494b","bdp_cybrbll","Sun Mar 26 2023 01:46:51 GMT-0400 (Eastern Daylight Time)","434710","3","1","","","","","","","","","","211","","","","2","1","[{""stimulus"":""img/2to1/1.png"",""time"":100},{""stimulus"":""img/2to1/2.png"",""time"":200},{""stimulus"":""img/2to1/3.png"",""time"":299},{""stimulus"":""img/2to1/4.png"",""time"":398},{""stimulus"":""img/2to1/5.png"",""time"":497},{""stimulus"":""img/2to1/6.png"",""time"":596},{""stimulus"":""img/2to1/7.png"",""time"":695},{""stimulus"":""img/2to1/8.png"",""time"":794},{""stimulus"":""img/2to1/9.png"",""time"":893},{""stimulus"":""img/2to1/10.png"",""time"":992},{""stimulus"":""img/2to1/11.png"",""time"":1091},{""stimulus"":""img/2to1/12.png"",""time"":1189}]","[]"
"image-keyboard-response","34","73760","0.0-5.0-1.15","580777dd827ca10001db494b","bdp_cybrbll","Sun Mar 26 2023 01:46:51 GMT-0400 (Eastern Daylight Time)","434710","3","1","","null","","","","observe","","img/1to3/1.png","null","210","507","0.5","0.5","1","3","",""
"animation","35","75049","0.0-5.0-2.15","580777dd827ca10001db494b","bdp_cybrbll","Sun Mar 26 2023 01:46:51 GMT-0400 (Eastern Daylight Time)","434710","3","1","","","","","","","","","","210","","","","1","3","[{""stimulus"":""img/1to3/1.png"",""time"":102},{""stimulus"":""img/1to3/2.png"",""time"":199},{""stimulus"":""img/1to3/3.png"",""time"":298},{""stimulus"":""img/1to3/4.png"",""time"":397},{""stimulus"":""img/1to3/5.png"",""time"":496},{""stimulus"":""img/1to3/6.png"",""time"":596},{""stimulus"":""img/1to3/7.png"",""time"":694},{""stimulus"":""img/1to3/8.png"",""time"":793},{""stimulus"":""img/1to3/9.png"",""time"":892},{""stimulus"":""img/1to3/10.png"",""time"":992},{""stimulus"":""img/1to3/11.png"",""time"":1090},{""stimulus"":""img/1to3/12.png"",""time"":1189}]","[]"
"image-keyboard-response","36","75311","0.0-5.0-1.16","580777dd827ca10001db494b","bdp_cybrbll","Sun Mar 26 2023 01:46:51 GMT-0400 (Eastern Daylight Time)","434710","3","1","","null","","","","observe","","img/3to2/1.png","null","209","261","0.5","0.5","3","1","",""
"animation","37","76599","0.0-5.0-2.16","580777dd827ca10001db494b","bdp_cybrbll","Sun Mar 26 2023 01:46:51 GMT-0400 (Eastern Daylight Time)","434710","3","1","","","","","","","","","","209","","","","3","1","[{""stimulus"":""img/3to1/1.png"",""time"":100},{""stimulus"":""img/3to1/2.png"",""time"":199},{""stimulus"":""img/3to1/3.png"",""time"":297},{""stimulus"":""img/3to1/4.png"",""time"":397},{""stimulus"":""img/3to1/5.png"",""time"":496},{""stimulus"":""img/3to1/6.png"",""time"":594},{""stimulus"":""img/3to1/7.png"",""time"":694},{""stimulus"":""img/3to1/8.png"",""time"":793},{""stimulus"":""img/3to1/9.png"",""time"":892},{""stimulus"":""img/3to1/10.png"",""time"":990},{""stimulus"":""img/3to1/11.png"",""time"":1089},{""stimulus"":""img/3to1/12.png"",""time"":1189}]","[]"
"image-keyboard-response","38","77252","0.0-5.0-1.17","580777dd827ca10001db494b","bdp_cybrbll","Sun Mar 26 2023 01:46:51 GMT-0400 (Eastern Daylight Time)","434710","3","1","","null","","","","observe","","img/1to3/1.png","null","208","651","0.5","0.5","1","2","",""
"animation","39","78545","0.0-5.0-2.17","580777dd827ca10001db494b","bdp_cybrbll","Sun Mar 26 2023 01:46:51 GMT-0400 (Eastern Daylight Time)","434710","3","1","","","","","","","","","","208","","","","1","2","[{""stimulus"":""img/1to2/1.png"",""time"":102},{""stimulus"":""img/1to2/2.png"",""time"":200},{""stimulus"":""img/1to2/3.png"",""time"":298},{""stimulus"":""img/1to2/4.png"",""time"":398},{""stimulus"":""img/1to2/5.png"",""time"":497},{""stimulus"":""img/1to2/6.png"",""time"":595},{""stimulus"":""img/1to2/7.png"",""time"":695},{""stimulus"":""img/1to2/8.png"",""time"":794},{""stimulus"":""img/1to2/9.png"",""time"":893},{""stimulus"":""img/1to2/10.png"",""time"":992},{""stimulus"":""img/1to2/11.png"",""time"":1091},{""stimulus"":""img/1to2/12.png"",""time"":1190}]","[]"
"image-keyboard-response","40","78832","0.0-5.0-1.18","580777dd827ca10001db494b","bdp_cybrbll","Sun Mar 26 2023 01:46:51 GMT-0400 (Eastern Daylight Time)","434710","3","1","","284","","","","choice","","img/2to1/1.png","2","207","475","0.5","0.5","2","3","",""
"animation","41","80119","0.0-5.0-2.18","580777dd827ca10001db494b","bdp_cybrbll","Sun Mar 26 2023 01:46:51 GMT-0400 (Eastern Daylight Time)","434710","3","1","","","","","","","","","","207","","","","2","3","[{""stimulus"":""img/2to3/1.png"",""time"":101},{""stimulus"":""img/2to3/2.png"",""time"":200},{""stimulus"":""img/2to3/3.png"",""time"":299},{""stimulus"":""img/2to3/4.png"",""time"":397},{""stimulus"":""img/2to3/5.png"",""time"":496},{""stimulus"":""img/2to3/6.png"",""time"":596},{""stimulus"":""img/2to3/7.png"",""time"":695},{""stimulus"":""img/2to3/8.png"",""time"":793},{""stimulus"":""img/2to3/9.png"",""time"":892},{""stimulus"":""img/2to3/10.png"",""time"":991},{""stimulus"":""img/2to3/11.png"",""time"":1090},{""stimulus"":""img/2to3/12.png"",""time"":1189}]","[]"
"image-keyboard-response","42","80388","0.0-5.0-1.19","580777dd827ca10001db494b","bdp_cybrbll","Sun Mar 26 2023 01:46:51 GMT-0400 (Eastern Daylight Time)","434710","3","1","","null","","","","observe","","img/3to2/1.png","null","206","267","0.5","0.5","3","2","",""
"animation","43","81676","0.0-5.0-2.19","580777dd827ca10001db494b","bdp_cybrbll","Sun Mar 26 2023 01:46:51 GMT-0400 (Eastern Daylight Time)","434710","3","1","","","","","","","","","","206","","","","3","2","[{""stimulus"":""img/3to2/1.png"",""time"":103},{""stimulus"":""img/3to2/2.png"",""time"":199},{""stimulus"":""img/3to2/3.png"",""time"":298},{""stimulus"":""img/3to2/4.png"",""time"":397},{""stimulus"":""img/3to2/5.png"",""time"":496},{""stimulus"":""img/3to2/6.png"",""time"":595},{""stimulus"":""img/3to2/7.png"",""time"":695},{""stimulus"":""img/3to2/8.png"",""time"":794},{""stimulus"":""img/3to2/9.png"",""time"":893},{""stimulus"":""img/3to2/10.png"",""time"":992},{""stimulus"":""img/3to2/11.png"",""time"":1091},{""stimulus"":""img/3to2/12.png"",""time"":1189}]","[]"
"image-keyboard-response","44","82028","0.0-5.0-1.20","580777dd827ca10001db494b","bdp_cybrbll","Sun Mar 26 2023 01:46:51 GMT-0400 (Eastern Daylight Time)","434710","3","1","","351","","","","choice","","img/2to1/1.png","1","205","180","0.5","0.5","2","1","",""
"animation","45","83316","0.0-5.0-2.20","580777dd827ca10001db494b","bdp_cybrbll","Sun Mar 26 2023 01:46:51 GMT-0400 (Eastern Daylight Time)","434710","3","1","","","","","","","","","","205","","","","2","1","[{""stimulus"":""img/2to1/1.png"",""time"":101},{""stimulus"":""img/2to1/2.png"",""time"":200},{""stimulus"":""img/2to1/3.png"",""time"":298},{""stimulus"":""img/2to1/4.png"",""time"":398},{""stimulus"":""img/2to1/5.png"",""time"":497},{""stimulus"":""img/2to1/6.png"",""time"":596},{""stimulus"":""img/2to1/7.png"",""time"":695},{""stimulus"":""img/2to1/8.png"",""time"":794},{""stimulus"":""img/2to1/9.png"",""time"":893},{""stimulus"":""img/2to1/10.png"",""time"":992},{""stimulus"":""img/2to1/11.png"",""time"":1090},{""stimulus"":""img/2to1/12.png"",""time"":1189}]","[]"
"image-keyboard-response","46","83819","0.0-5.0-1.21","580777dd827ca10001db494b","bdp_cybrbll","Sun Mar 26 2023 01:46:51 GMT-0400 (Eastern Daylight Time)","434710","3","1","","null","","","","observe","","img/1to3/1.png","null","204","502","0.5","0.5","1","2","",""
"animation","47","85107","0.0-5.0-2.21","580777dd827ca10001db494b","bdp_cybrbll","Sun Mar 26 2023 01:46:51 GMT-0400 (Eastern Daylight Time)","434710","3","1","","","","","","","","","","204","","","","1","2","[{""stimulus"":""img/1to2/1.png"",""time"":101},{""stimulus"":""img/1to2/2.png"",""time"":199},{""stimulus"":""img/1to2/3.png"",""time"":298},{""stimulus"":""img/1to2/4.png"",""time"":397},{""stimulus"":""img/1to2/5.png"",""time"":496},{""stimulus"":""img/1to2/6.png"",""time"":595},{""stimulus"":""img/1to2/7.png"",""time"":694},{""stimulus"":""img/1to2/8.png"",""time"":793},{""stimulus"":""img/1to2/9.png"",""time"":892},{""stimulus"":""img/1to2/10.png"",""time"":991},{""stimulus"":""img/1to2/11.png"",""time"":1090},{""stimulus"":""img/1to2/12.png"",""time"":1189}]","[]"
"image-keyboard-response","48","85348","0.0-5.0-1.22","580777dd827ca10001db494b","bdp_cybrbll","Sun Mar 26 2023 01:46:51 GMT-0400 (Eastern Daylight Time)","434710","3","1","","238","","","","choice","","img/2to1/1.png","2","203","282","0.5","0.5","2","3","",""
"animation","49","86636","0.0-5.0-2.22","580777dd827ca10001db494b","bdp_cybrbll","Sun Mar 26 2023 01:46:51 GMT-0400 (Eastern Daylight Time)","434710","3","1","","","","","","","","","","203","","","","2","3","[{""stimulus"":""img/2to3/1.png"",""time"":100},{""stimulus"":""img/2to3/2.png"",""time"":199},{""stimulus"":""img/2to3/3.png"",""time"":298},{""stimulus"":""img/2to3/4.png"",""time"":397},{""stimulus"":""img/2to3/5.png"",""time"":496},{""stimulus"":""img/2to3/6.png"",""time"":595},{""stimulus"":""img/2to3/7.png"",""time"":693},{""stimulus"":""img/2to3/8.png"",""time"":793},{""stimulus"":""img/2to3/9.png"",""time"":892},{""stimulus"":""img/2to3/10.png"",""time"":990},{""stimulus"":""img/2to3/11.png"",""time"":1089},{""stimulus"":""img/2to3/12.png"",""time"":1188}]","[]"
"image-keyboard-response","50","86954","0.0-5.0-1.23","580777dd827ca10001db494b","bdp_cybrbll","Sun Mar 26 2023 01:46:51 GMT-0400 (Eastern Daylight Time)","434710","3","1","","null","","","","observe","","img/3to2/1.png","null","202","317","0.5","0.5","3","2","",""
"animation","51","88242","0.0-5.0-2.23","580777dd827ca10001db494b","bdp_cybrbll","Sun Mar 26 2023 01:46:51 GMT-0400 (Eastern Daylight Time)","434710","3","1","","","","","","","","","","202","","","","3","2","[{""stimulus"":""img/3to2/1.png"",""time"":99},{""stimulus"":""img/3to2/2.png"",""time"":199},{""stimulus"":""img/3to2/3.png"",""time"":298},{""stimulus"":""img/3to2/4.png"",""time"":397},{""stimulus"":""img/3to2/5.png"",""time"":496},{""stimulus"":""img/3to2/6.png"",""time"":595},{""stimulus"":""img/3to2/7.png"",""time"":694},{""stimulus"":""img/3to2/8.png"",""time"":793},{""stimulus"":""img/3to2/9.png"",""time"":892},{""stimulus"":""img/3to2/10.png"",""time"":991},{""stimulus"":""img/3to2/11.png"",""time"":1090},{""stimulus"":""img/3to2/12.png"",""time"":1188}]","[]"
"image-keyboard-response","52","88734","0.0-5.0-1.24","580777dd827ca10001db494b","bdp_cybrbll","Sun Mar 26 2023 01:46:51 GMT-0400 (Eastern Daylight Time)","434710","3","1","","489","","","","choice","","img/2to1/1.png","1","201","348","0.5","0.5","2","1","",""
"animation","53","90023","0.0-5.0-2.24","580777dd827ca10001db494b","bdp_cybrbll","Sun Mar 26 2023 01:46:51 GMT-0400 (Eastern Daylight Time)","434710","3","1","","","","","","","","","","201","","","","2","1","[{""stimulus"":""img/2to1/1.png"",""time"":100},{""stimulus"":""img/2to1/2.png"",""time"":199},{""stimulus"":""img/2to1/3.png"",""time"":298},{""stimulus"":""img/2to1/4.png"",""time"":397},{""stimulus"":""img/2to1/5.png"",""time"":497},{""stimulus"":""img/2to1/6.png"",""time"":596},{""stimulus"":""img/2to1/7.png"",""time"":695},{""stimulus"":""img/2to1/8.png"",""time"":794},{""stimulus"":""img/2to1/9.png"",""time"":893},{""stimulus"":""img/2to1/10.png"",""time"":992},{""stimulus"":""img/2to1/11.png"",""time"":1090},{""stimulus"":""img/2to1/12.png"",""time"":1190}]","[]"
"image-keyboard-response","54","90641","0.0-5.0-1.25","580777dd827ca10001db494b","bdp_cybrbll","Sun Mar 26 2023 01:46:51 GMT-0400 (Eastern Daylight Time)","434710","3","1","","null","","","","observe","","img/1to3/1.png","null","200","616","0.5","0.5","1","3","",""
"animation","55","91929","0.0-5.0-2.25","580777dd827ca10001db494b","bdp_cybrbll","Sun Mar 26 2023 01:46:51 GMT-0400 (Eastern Daylight Time)","434710","3","1","","","","","","","","","","200","","","","1","3","[{""stimulus"":""img/1to3/1.png"",""time"":101},{""stimulus"":""img/1to3/2.png"",""time"":199},{""stimulus"":""img/1to3/3.png"",""time"":298},{""stimulus"":""img/1to3/4.png"",""time"":398},{""stimulus"":""img/1to3/5.png"",""time"":496},{""stimulus"":""img/1to3/6.png"",""time"":595},{""stimulus"":""img/1to3/7.png"",""time"":694},{""stimulus"":""img/1to3/8.png"",""time"":793},{""stimulus"":""img/1to3/9.png"",""time"":892},{""stimulus"":""img/1to3/10.png"",""time"":991},{""stimulus"":""img/1to3/11.png"",""time"":1090},{""stimulus"":""img/1to3/12.png"",""time"":1189}]","[]"
"image-keyboard-response","56","92189","0.0-5.0-1.26","580777dd827ca10001db494b","bdp_cybrbll","Sun Mar 26 2023 01:46:51 GMT-0400 (Eastern Daylight Time)","434710","3","1","","null","","","","observe","","img/3to2/1.png","null","199","258","0.5","0.5","3","2","",""
"animation","57","93477","0.0-5.0-2.26","580777dd827ca10001db494b","bdp_cybrbll","Sun Mar 26 2023 01:46:51 GMT-0400 (Eastern Daylight Time)","434710","3","1","","","","","","","","","","199","","","","3","2","[{""stimulus"":""img/3to2/1.png"",""time"":100},{""stimulus"":""img/3to2/2.png"",""time"":199},{""stimulus"":""img/3to2/3.png"",""time"":298},{""stimulus"":""img/3to2/4.png"",""time"":397},{""stimulus"":""img/3to2/5.png"",""time"":496},{""stimulus"":""img/3to2/6.png"",""time"":595},{""stimulus"":""img/3to2/7.png"",""time"":694},{""stimulus"":""img/3to2/8.png"",""time"":793},{""stimulus"":""img/3to2/9.png"",""time"":892},{""stimulus"":""img/3to2/10.png"",""time"":992},{""stimulus"":""img/3to2/11.png"",""time"":1091},{""stimulus"":""img/3to2/12.png"",""time"":1190}]","[]"
"image-keyboard-response","58","93671","0.0-5.0-1.27","580777dd827ca10001db494b","bdp_cybrbll","Sun Mar 26 2023 01:46:51 GMT-0400 (Eastern Daylight Time)","434710","3","1","","193","","","","choice","","img/2to1/1.png","1","198","679","0.5","0.5","2","1","",""
"animation","59","94959","0.0-5.0-2.27","580777dd827ca10001db494b","bdp_cybrbll","Sun Mar 26 2023 01:46:51 GMT-0400 (Eastern Daylight Time)","434710","3","1","","","","","","","","","","198","","","","2","1","[{""stimulus"":""img/2to1/1.png"",""time"":100},{""stimulus"":""img/2to1/2.png"",""time"":199},{""stimulus"":""img/2to1/3.png"",""time"":298},{""stimulus"":""img/2to1/4.png"",""time"":397},{""stimulus"":""img/2to1/5.png"",""time"":496},{""stimulus"":""img/2to1/6.png"",""time"":595},{""stimulus"":""img/2to1/7.png"",""time"":694},{""stimulus"":""img/2to1/8.png"",""time"":793},{""stimulus"":""img/2to1/9.png"",""time"":892},{""stimulus"":""img/2to1/10.png"",""time"":991},{""stimulus"":""img/2to1/11.png"",""time"":1090},{""stimulus"":""img/2to1/12.png"",""time"":1189}]","[]"
"image-keyboard-response","60","95636","0.0-5.0-1.28","580777dd827ca10001db494b","bdp_cybrbll","Sun Mar 26 2023 01:46:51 GMT-0400 (Eastern Daylight Time)","434710","3","1","","null","","","","observe","","img/1to3/1.png","null","197","674","0.5","0.5","1","3","",""
"animation","61","96923","0.0-5.0-2.28","580777dd827ca10001db494b","bdp_cybrbll","Sun Mar 26 2023 01:46:51 GMT-0400 (Eastern Daylight Time)","434710","3","1","","","","","","","","","","197","","","","1","3","[{""stimulus"":""img/1to3/1.png"",""time"":100},{""stimulus"":""img/1to3/2.png"",""time"":199},{""stimulus"":""img/1to3/3.png"",""time"":298},{""stimulus"":""img/1to3/4.png"",""time"":397},{""stimulus"":""img/1to3/5.png"",""time"":496},{""stimulus"":""img/1to3/6.png"",""time"":595},{""stimulus"":""img/1to3/7.png"",""time"":694},{""stimulus"":""img/1to3/8.png"",""time"":793},{""stimulus"":""img/1to3/9.png"",""time"":892},{""stimulus"":""img/1to3/10.png"",""time"":991},{""stimulus"":""img/1to3/11.png"",""time"":1090},{""stimulus"":""img/1to3/12.png"",""time"":1190}]","[]"
"image-keyboard-response","62","97143","0.0-5.0-1.29","580777dd827ca10001db494b","bdp_cybrbll","Sun Mar 26 2023 01:46:51 GMT-0400 (Eastern Daylight Time)","434710","3","1","","null","","","","observe","","img/3to2/1.png","null","196","216","0.5","0.5","3","1","",""
"animation","63","98431","0.0-5.0-2.29","580777dd827ca10001db494b","bdp_cybrbll","Sun Mar 26 2023 01:46:51 GMT-0400 (Eastern Daylight Time)","434710","3","1","","","","","","","","","","196","","","","3","1","[{""stimulus"":""img/3to1/1.png"",""time"":100},{""stimulus"":""img/3to1/2.png"",""time"":199},{""stimulus"":""img/3to1/3.png"",""time"":298},{""stimulus"":""img/3to1/4.png"",""time"":397},{""stimulus"":""img/3to1/5.png"",""time"":496},{""stimulus"":""img/3to1/6.png"",""time"":595},{""stimulus"":""img/3to1/7.png"",""time"":694},{""stimulus"":""img/3to1/8.png"",""time"":793},{""stimulus"":""img/3to1/9.png"",""time"":892},{""stimulus"":""img/3to1/10.png"",""time"":991},{""stimulus"":""img/3to1/11.png"",""time"":1090},{""stimulus"":""img/3to1/12.png"",""time"":1189}]","[]"
"image-keyboard-response","64","98812","0.0-5.0-1.30","580777dd827ca10001db494b","bdp_cybrbll","Sun Mar 26 2023 01:46:51 GMT-0400 (Eastern Daylight Time)","434710","3","1","","null","","","","observe","","img/1to3/1.png","null","195","379","0.5","0.5","1","3","",""
"animation","65","100100","0.0-5.0-2.30","580777dd827ca10001db494b","bdp_cybrbll","Sun Mar 26 2023 01:46:51 GMT-0400 (Eastern Daylight Time)","434710","3","1","","","","","","","","","","195","","","","1","3","[{""stimulus"":""img/1to3/1.png"",""time"":100},{""stimulus"":""img/1to3/2.png"",""time"":199},{""stimulus"":""img/1to3/3.png"",""time"":298},{""stimulus"":""img/1to3/4.png"",""time"":398},{""stimulus"":""img/1to3/5.png"",""time"":496},{""stimulus"":""img/1to3/6.png"",""time"":595},{""stimulus"":""img/1to3/7.png"",""time"":694},{""stimulus"":""img/1to3/8.png"",""time"":793},{""stimulus"":""img/1to3/9.png"",""time"":892},{""stimulus"":""img/1to3/10.png"",""time"":991},{""stimulus"":""img/1to3/11.png"",""time"":1090},{""stimulus"":""img/1to3/12.png"",""time"":1189}]","[]"
"image-keyboard-response","66","100264","0.0-5.0-1.31","580777dd827ca10001db494b","bdp_cybrbll","Sun Mar 26 2023 01:46:51 GMT-0400 (Eastern Daylight Time)","434710","3","1","","null","","","","observe","","img/3to2/1.png","null","194","160","0.5","0.5","3","2","",""
"animation","67","101551","0.0-5.0-2.31","580777dd827ca10001db494b","bdp_cybrbll","Sun Mar 26 2023 01:46:51 GMT-0400 (Eastern Daylight Time)","434710","3","1","","","","","","","","","","194","","","","3","2","[{""stimulus"":""img/3to2/1.png"",""time"":101},{""stimulus"":""img/3to2/2.png"",""time"":199},{""stimulus"":""img/3to2/3.png"",""time"":298},{""stimulus"":""img/3to2/4.png"",""time"":397},{""stimulus"":""img/3to2/5.png"",""time"":497},{""stimulus"":""img/3to2/6.png"",""time"":595},{""stimulus"":""img/3to2/7.png"",""time"":694},{""stimulus"":""img/3to2/8.png"",""time"":793},{""stimulus"":""img/3to2/9.png"",""time"":892},{""stimulus"":""img/3to2/10.png"",""time"":991},{""stimulus"":""img/3to2/11.png"",""time"":1090},{""stimulus"":""img/3to2/12.png"",""time"":1189}]","[]"
"image-keyboard-response","68","101872","0.0-5.0-1.32","580777dd827ca10001db494b","bdp_cybrbll","Sun Mar 26 2023 01:46:51 GMT-0400 (Eastern Daylight Time)","434710","3","1","","319","","","","choice","","img/2to1/1.png","2","193","707","0.5","0.5","2","3","",""
"animation","69","103183","0.0-5.0-2.32","580777dd827ca10001db494b","bdp_cybrbll","Sun Mar 26 2023 01:46:51 GMT-0400 (Eastern Daylight Time)","434710","3","1","","","","","","","","","","193","","","","2","3","[{""stimulus"":""img/2to3/1.png"",""time"":101},{""stimulus"":""img/2to3/2.png"",""time"":199},{""stimulus"":""img/2to3/3.png"",""time"":298},{""stimulus"":""img/2to3/4.png"",""time"":397},{""stimulus"":""img/2to3/5.png"",""time"":497},{""stimulus"":""img/2to3/6.png"",""time"":596},{""stimulus"":""img/2to3/7.png"",""time"":694},{""stimulus"":""img/2to3/8.png"",""time"":793},{""stimulus"":""img/2to3/9.png"",""time"":893},{""stimulus"":""img/2to3/10.png"",""time"":991},{""stimulus"":""img/2to3/11.png"",""time"":1090},{""stimulus"":""img/2to3/12.png"",""time"":1190}]","[]"
"image-keyboard-response","70","104039","0.0-5.0-1.33","580777dd827ca10001db494b","bdp_cybrbll","Sun Mar 26 2023 01:46:51 GMT-0400 (Eastern Daylight Time)","434710","3","1","","null","","","","observe","","img/3to2/1.png","null","192","853","0.5","0.5","3","2","",""
"animation","71","105327","0.0-5.0-2.33","580777dd827ca10001db494b","bdp_cybrbll","Sun Mar 26 2023 01:46:51 GMT-0400 (Eastern Daylight Time)","434710","3","1","","","","","","","","","","192","","","","3","2","[{""stimulus"":""img/3to2/1.png"",""time"":101},{""stimulus"":""img/3to2/2.png"",""time"":199},{""stimulus"":""img/3to2/3.png"",""time"":298},{""stimulus"":""img/3to2/4.png"",""time"":397},{""stimulus"":""img/3to2/5.png"",""time"":497},{""stimulus"":""img/3to2/6.png"",""time"":595},{""stimulus"":""img/3to2/7.png"",""time"":694},{""stimulus"":""img/3to2/8.png"",""time"":793},{""stimulus"":""img/3to2/9.png"",""time"":892},{""stimulus"":""img/3to2/10.png"",""time"":992},{""stimulus"":""img/3to2/11.png"",""time"":1091},{""stimulus"":""img/3to2/12.png"",""time"":1190}]","[]"
"image-keyboard-response","72","105526","0.0-5.0-1.34","580777dd827ca10001db494b","bdp_cybrbll","Sun Mar 26 2023 01:46:51 GMT-0400 (Eastern Daylight Time)","434710","3","1","","198","","","","choice","","img/2to1/1.png","1","191","536","0.5","0.5","2","1","",""
"animation","73","106814","0.0-5.0-2.34","580777dd827ca10001db494b","bdp_cybrbll","Sun Mar 26 2023 01:46:51 GMT-0400 (Eastern Daylight Time)","434710","3","1","","","","","","","","","","191","","","","2","1","[{""stimulus"":""img/2to1/1.png"",""time"":100},{""stimulus"":""img/2to1/2.png"",""time"":199},{""stimulus"":""img/2to1/3.png"",""time"":298},{""stimulus"":""img/2to1/4.png"",""time"":398},{""stimulus"":""img/2to1/5.png"",""time"":496},{""stimulus"":""img/2to1/6.png"",""time"":595},{""stimulus"":""img/2to1/7.png"",""time"":694},{""stimulus"":""img/2to1/8.png"",""time"":793},{""stimulus"":""img/2to1/9.png"",""time"":892},{""stimulus"":""img/2to1/10.png"",""time"":991},{""stimulus"":""img/2to1/11.png"",""time"":1090},{""stimulus"":""img/2to1/12.png"",""time"":1189}]","[]"
"image-keyboard-response","74","107350","0.0-5.0-1.35","580777dd827ca10001db494b","bdp_cybrbll","Sun Mar 26 2023 01:46:51 GMT-0400 (Eastern Daylight Time)","434710","3","1","","null","","","","observe","","img/1to3/1.png","null","190","534","0.5","0.5","1","2","",""
"animation","75","108638","0.0-5.0-2.35","580777dd827ca10001db494b","bdp_cybrbll","Sun Mar 26 2023 01:46:51 GMT-0400 (Eastern Daylight Time)","434710","3","1","","","","","","","","","","190","","","","1","2","[{""stimulus"":""img/1to2/1.png"",""time"":101},{""stimulus"":""img/1to2/2.png"",""time"":199},{""stimulus"":""img/1to2/3.png"",""time"":298},{""stimulus"":""img/1to2/4.png"",""time"":397},{""stimulus"":""img/1to2/5.png"",""time"":496},{""stimulus"":""img/1to2/6.png"",""time"":595},{""stimulus"":""img/1to2/7.png"",""time"":694},{""stimulus"":""img/1to2/8.png"",""time"":793},{""stimulus"":""img/1to2/9.png"",""time"":892},{""stimulus"":""img/1to2/10.png"",""time"":991},{""stimulus"":""img/1to2/11.png"",""time"":1090},{""stimulus"":""img/1to2/12.png"",""time"":1189}]","[]"
"image-keyboard-response","76","108798","0.0-5.0-1.36","580777dd827ca10001db494b","bdp_cybrbll","Sun Mar 26 2023 01:46:51 GMT-0400 (Eastern Daylight Time)","434710","3","1","","159","","","","choice","","img/2to1/1.png","2","189","285","0.5","0.5","2","3","",""
"animation","77","110086","0.0-5.0-2.36","580777dd827ca10001db494b","bdp_cybrbll","Sun Mar 26 2023 01:46:51 GMT-0400 (Eastern Daylight Time)","434710","3","1","","","","","","","","","","189","","","","2","3","[{""stimulus"":""img/2to3/1.png"",""time"":100},{""stimulus"":""img/2to3/2.png"",""time"":198},{""stimulus"":""img/2to3/3.png"",""time"":298},{""stimulus"":""img/2to3/4.png"",""time"":397},{""stimulus"":""img/2to3/5.png"",""time"":496},{""stimulus"":""img/2to3/6.png"",""time"":595},{""stimulus"":""img/2to3/7.png"",""time"":695},{""stimulus"":""img/2to3/8.png"",""time"":793},{""stimulus"":""img/2to3/9.png"",""time"":892},{""stimulus"":""img/2to3/10.png"",""time"":990},{""stimulus"":""img/2to3/11.png"",""time"":1090},{""stimulus"":""img/2to3/12.png"",""time"":1189}]","[]"
"image-keyboard-response","78","110818","0.0-5.0-1.37","580777dd827ca10001db494b","bdp_cybrbll","Sun Mar 26 2023 01:46:51 GMT-0400 (Eastern Daylight Time)","434710","3","1","","null","","","","observe","","img/3to2/1.png","null","188","730","0.5","0.5","3","1","",""
"animation","79","112106","0.0-5.0-2.37","580777dd827ca10001db494b","bdp_cybrbll","Sun Mar 26 2023 01:46:51 GMT-0400 (Eastern Daylight Time)","434710","3","1","","","","","","","","","","188","","","","3","1","[{""stimulus"":""img/3to1/1.png"",""time"":101},{""stimulus"":""img/3to1/2.png"",""time"":200},{""stimulus"":""img/3to1/3.png"",""time"":298},{""stimulus"":""img/3to1/4.png"",""time"":397},{""stimulus"":""img/3to1/5.png"",""time"":496},{""stimulus"":""img/3to1/6.png"",""time"":596},{""stimulus"":""img/3to1/7.png"",""time"":695},{""stimulus"":""img/3to1/8.png"",""time"":794},{""stimulus"":""img/3to1/9.png"",""time"":893},{""stimulus"":""img/3to1/10.png"",""time"":992},{""stimulus"":""img/3to1/11.png"",""time"":1090},{""stimulus"":""img/3to1/12.png"",""time"":1189}]","[]"
"image-keyboard-response","80","112484","0.0-5.0-1.38","580777dd827ca10001db494b","bdp_cybrbll","Sun Mar 26 2023 01:46:51 GMT-0400 (Eastern Daylight Time)","434710","3","1","","null","","","","observe","","img/1to3/1.png","null","187","377","0.5","0.5","1","2","",""
"animation","81","113773","0.0-5.0-2.38","580777dd827ca10001db494b","bdp_cybrbll","Sun Mar 26 2023 01:46:51 GMT-0400 (Eastern Daylight Time)","434710","3","1","","","","","","","","","","187","","","","1","2","[{""stimulus"":""img/1to2/1.png"",""time"":101},{""stimulus"":""img/1to2/2.png"",""time"":199},{""stimulus"":""img/1to2/3.png"",""time"":298},{""stimulus"":""img/1to2/4.png"",""time"":398},{""stimulus"":""img/1to2/5.png"",""time"":497},{""stimulus"":""img/1to2/6.png"",""time"":596},{""stimulus"":""img/1to2/7.png"",""time"":695},{""stimulus"":""img/1to2/8.png"",""time"":793},{""stimulus"":""img/1to2/9.png"",""time"":893},{""stimulus"":""img/1to2/10.png"",""time"":992},{""stimulus"":""img/1to2/11.png"",""time"":1090},{""stimulus"":""img/1to2/12.png"",""time"":1189}]","[]"
"image-keyboard-response","82","115046","0.0-5.0-1.39","580777dd827ca10001db494b","bdp_cybrbll","Sun Mar 26 2023 01:46:51 GMT-0400 (Eastern Daylight Time)","434710","3","1","","1272","","","","choice","","img/2to1/1.png","2","186","274","0.5","0.5","2","3","",""
"animation","83","116334","0.0-5.0-2.39","580777dd827ca10001db494b","bdp_cybrbll","Sun Mar 26 2023 01:46:51 GMT-0400 (Eastern Daylight Time)","434710","3","1","","","","","","","","","","186","","","","2","3","[{""stimulus"":""img/2to3/1.png"",""time"":100},{""stimulus"":""img/2to3/2.png"",""time"":199},{""stimulus"":""img/2to3/3.png"",""time"":298},{""stimulus"":""img/2to3/4.png"",""time"":397},{""stimulus"":""img/2to3/5.png"",""time"":497},{""stimulus"":""img/2to3/6.png"",""time"":595},{""stimulus"":""img/2to3/7.png"",""time"":694},{""stimulus"":""img/2to3/8.png"",""time"":793},{""stimulus"":""img/2to3/9.png"",""time"":892},{""stimulus"":""img/2to3/10.png"",""time"":991},{""stimulus"":""img/2to3/11.png"",""time"":1090},{""stimulus"":""img/2to3/12.png"",""time"":1189}]","[]"
"image-keyboard-response","84","116582","0.0-5.0-1.40","580777dd827ca10001db494b","bdp_cybrbll","Sun Mar 26 2023 01:46:51 GMT-0400 (Eastern Daylight Time)","434710","3","1","","null","","","","observe","","img/3to2/1.png","null","185","246","0.5","0.5","3","2","",""
"animation","85","117869","0.0-5.0-2.40","580777dd827ca10001db494b","bdp_cybrbll","Sun Mar 26 2023 01:46:51 GMT-0400 (Eastern Daylight Time)","434710","3","1","","","","","","","","","","185","","","","3","2","[{""stimulus"":""img/3to2/1.png"",""time"":101},{""stimulus"":""img/3to2/2.png"",""time"":199},{""stimulus"":""img/3to2/3.png"",""time"":299},{""stimulus"":""img/3to2/4.png"",""time"":397},{""stimulus"":""img/3to2/5.png"",""time"":496},{""stimulus"":""img/3to2/6.png"",""time"":595},{""stimulus"":""img/3to2/7.png"",""time"":694},{""stimulus"":""img/3to2/8.png"",""time"":793},{""stimulus"":""img/3to2/9.png"",""time"":892},{""stimulus"":""img/3to2/10.png"",""time"":991},{""stimulus"":""img/3to2/11.png"",""time"":1090},{""stimulus"":""img/3to2/12.png"",""time"":1189}]","[]"
"image-keyboard-response","86","118218","0.0-5.0-1.41","580777dd827ca10001db494b","bdp_cybrbll","Sun Mar 26 2023 01:46:51 GMT-0400 (Eastern Daylight Time)","434710","3","1","","348","","","","choice","","img/2to1/1.png","1","184","791","0.5","0.5","2","1","",""
"animation","87","119506","0.0-5.0-2.41","580777dd827ca10001db494b","bdp_cybrbll","Sun Mar 26 2023 01:46:51 GMT-0400 (Eastern Daylight Time)","434710","3","1","","","","","","","","","","184","","","","2","1","[{""stimulus"":""img/2to1/1.png"",""time"":100},{""stimulus"":""img/2to1/2.png"",""time"":199},{""stimulus"":""img/2to1/3.png"",""time"":298},{""stimulus"":""img/2to1/4.png"",""time"":398},{""stimulus"":""img/2to1/5.png"",""time"":497},{""stimulus"":""img/2to1/6.png"",""time"":595},{""stimulus"":""img/2to1/7.png"",""time"":694},{""stimulus"":""img/2to1/8.png"",""time"":793},{""stimulus"":""img/2to1/9.png"",""time"":892},{""stimulus"":""img/2to1/10.png"",""time"":991},{""stimulus"":""img/2to1/11.png"",""time"":1090},{""stimulus"":""img/2to1/12.png"",""time"":1189}]","[]"
"image-keyboard-response","88","119758","0.0-5.0-1.42","580777dd827ca10001db494b","bdp_cybrbll","Sun Mar 26 2023 01:46:51 GMT-0400 (Eastern Daylight Time)","434710","3","1","","null","","","","observe","","img/1to3/1.png","null","183","249","0.5","0.5","1","2","",""
"animation","89","121045","0.0-5.0-2.42","580777dd827ca10001db494b","bdp_cybrbll","Sun Mar 26 2023 01:46:51 GMT-0400 (Eastern Daylight Time)","434710","3","1","","","","","","","","","","183","","","","1","2","[{""stimulus"":""img/1to2/1.png"",""time"":101},{""stimulus"":""img/1to2/2.png"",""time"":199},{""stimulus"":""img/1to2/3.png"",""time"":298},{""stimulus"":""img/1to2/4.png"",""time"":397},{""stimulus"":""img/1to2/5.png"",""time"":496},{""stimulus"":""img/1to2/6.png"",""time"":595},{""stimulus"":""img/1to2/7.png"",""time"":694},{""stimulus"":""img/1to2/8.png"",""time"":793},{""stimulus"":""img/1to2/9.png"",""time"":892},{""stimulus"":""img/1to2/10.png"",""time"":991},{""stimulus"":""img/1to2/11.png"",""time"":1090},{""stimulus"":""img/1to2/12.png"",""time"":1189}]","[]"
"image-keyboard-response","90","121391","0.0-5.0-1.43","580777dd827ca10001db494b","bdp_cybrbll","Sun Mar 26 2023 01:46:51 GMT-0400 (Eastern Daylight Time)","434710","3","1","","345","","","","choice","","img/2to1/1.png","2","182","197","0.5","0.5","2","3","",""
"animation","91","122681","0.0-5.0-2.43","580777dd827ca10001db494b","bdp_cybrbll","Sun Mar 26 2023 01:46:51 GMT-0400 (Eastern Daylight Time)","434710","3","1","","","","","","","","","","182","","","","2","3","[{""stimulus"":""img/2to3/1.png"",""time"":100},{""stimulus"":""img/2to3/2.png"",""time"":199},{""stimulus"":""img/2to3/3.png"",""time"":298},{""stimulus"":""img/2to3/4.png"",""time"":397},{""stimulus"":""img/2to3/5.png"",""time"":496},{""stimulus"":""img/2to3/6.png"",""time"":595},{""stimulus"":""img/2to3/7.png"",""time"":694},{""stimulus"":""img/2to3/8.png"",""time"":793},{""stimulus"":""img/2to3/9.png"",""time"":892},{""stimulus"":""img/2to3/10.png"",""time"":991},{""stimulus"":""img/2to3/11.png"",""time"":1091},{""stimulus"":""img/2to3/12.png"",""time"":1190}]","[]"
"image-keyboard-response","92","123066","0.0-5.0-1.44","580777dd827ca10001db494b","bdp_cybrbll","Sun Mar 26 2023 01:46:51 GMT-0400 (Eastern Daylight Time)","434710","3","1","","null","","","","observe","","img/3to2/1.png","null","181","384","0.5","0.5","3","2","",""
"animation","93","124354","0.0-5.0-2.44","580777dd827ca10001db494b","bdp_cybrbll","Sun Mar 26 2023 01:46:51 GMT-0400 (Eastern Daylight Time)","434710","3","1","","","","","","","","","","181","","","","3","2","[{""stimulus"":""img/3to2/1.png"",""time"":101},{""stimulus"":""img/3to2/2.png"",""time"":199},{""stimulus"":""img/3to2/3.png"",""time"":298},{""stimulus"":""img/3to2/4.png"",""time"":397},{""stimulus"":""img/3to2/5.png"",""time"":496},{""stimulus"":""img/3to2/6.png"",""time"":595},{""stimulus"":""img/3to2/7.png"",""time"":694},{""stimulus"":""img/3to2/8.png"",""time"":793},{""stimulus"":""img/3to2/9.png"",""time"":892},{""stimulus"":""img/3to2/10.png"",""time"":991},{""stimulus"":""img/3to2/11.png"",""time"":1090},{""stimulus"":""img/3to2/12.png"",""time"":1189}]","[]"
"image-keyboard-response","94","124557","0.0-5.0-1.45","580777dd827ca10001db494b","bdp_cybrbll","Sun Mar 26 2023 01:46:51 GMT-0400 (Eastern Daylight Time)","434710","3","1","","201","","","","choice","","img/2to1/1.png","1","180","1130","0.5","0.5","2","1","",""
"animation","95","125845","0.0-5.0-2.45","580777dd827ca10001db494b","bdp_cybrbll","Sun Mar 26 2023 01:46:51 GMT-0400 (Eastern Daylight Time)","434710","3","1","","","","","","","","","","180","","","","2","1","[{""stimulus"":""img/2to1/1.png"",""time"":101},{""stimulus"":""img/2to1/2.png"",""time"":200},{""stimulus"":""img/2to1/3.png"",""time"":299},{""stimulus"":""img/2to1/4.png"",""time"":398},{""stimulus"":""img/2to1/5.png"",""time"":497},{""stimulus"":""img/2to1/6.png"",""time"":596},{""stimulus"":""img/2to1/7.png"",""time"":695},{""stimulus"":""img/2to1/8.png"",""time"":794},{""stimulus"":""img/2to1/9.png"",""time"":893},{""stimulus"":""img/2to1/10.png"",""time"":992},{""stimulus"":""img/2to1/11.png"",""time"":1091},{""stimulus"":""img/2to1/12.png"",""time"":1190}]","[]"
"image-keyboard-response","96","126153","0.0-5.0-1.46","580777dd827ca10001db494b","bdp_cybrbll","Sun Mar 26 2023 01:46:51 GMT-0400 (Eastern Daylight Time)","434710","3","1","","null","","","","observe","","img/1to3/1.png","null","179","306","0.5","0.5","1","2","",""
"animation","97","127441","0.0-5.0-2.46","580777dd827ca10001db494b","bdp_cybrbll","Sun Mar 26 2023 01:46:51 GMT-0400 (Eastern Daylight Time)","434710","3","1","","","","","","","","","","179","","","","1","2","[{""stimulus"":""img/1to2/1.png"",""time"":101},{""stimulus"":""img/1to2/2.png"",""time"":199},{""stimulus"":""img/1to2/3.png"",""time"":298},{""stimulus"":""img/1to2/4.png"",""time"":397},{""stimulus"":""img/1to2/5.png"",""time"":496},{""stimulus"":""img/1to2/6.png"",""time"":595},{""stimulus"":""img/1to2/7.png"",""time"":694},{""stimulus"":""img/1to2/8.png"",""time"":793},{""stimulus"":""img/1to2/9.png"",""time"":892},{""stimulus"":""img/1to2/10.png"",""time"":991},{""stimulus"":""img/1to2/11.png"",""time"":1090},{""stimulus"":""img/1to2/12.png"",""time"":1189}]","[]"
"image-keyboard-response","98","127855","0.0-5.0-1.47","580777dd827ca10001db494b","bdp_cybrbll","Sun Mar 26 2023 01:46:51 GMT-0400 (Eastern Daylight Time)","434710","3","1","","412","","","","choice","","img/2to1/1.png","2","178","363","0.5","0.5","2","3","",""
"animation","99","129144","0.0-5.0-2.47","580777dd827ca10001db494b","bdp_cybrbll","Sun Mar 26 2023 01:46:51 GMT-0400 (Eastern Daylight Time)","434710","3","1","","","","","","","","","","178","","","","2","3","[{""stimulus"":""img/2to3/1.png"",""time"":101},{""stimulus"":""img/2to3/2.png"",""time"":199},{""stimulus"":""img/2to3/3.png"",""time"":298},{""stimulus"":""img/2to3/4.png"",""time"":397},{""stimulus"":""img/2to3/5.png"",""time"":496},{""stimulus"":""img/2to3/6.png"",""time"":595},{""stimulus"":""img/2to3/7.png"",""time"":694},{""stimulus"":""img/2to3/8.png"",""time"":793},{""stimulus"":""img/2to3/9.png"",""time"":892},{""stimulus"":""img/2to3/10.png"",""time"":991},{""stimulus"":""img/2to3/11.png"",""time"":1090},{""stimulus"":""img/2to3/12.png"",""time"":1189}]","[]"
"image-keyboard-response","100","129381","0.0-5.0-1.48","580777dd827ca10001db494b","bdp_cybrbll","Sun Mar 26 2023 01:46:51 GMT-0400 (Eastern Daylight Time)","434710","3","1","","null","","","","observe","","img/3to2/1.png","null","177","236","0.5","0.5","3","1","",""
"animation","101","130669","0.0-5.0-2.48","580777dd827ca10001db494b","bdp_cybrbll","Sun Mar 26 2023 01:46:51 GMT-0400 (Eastern Daylight Time)","434710","3","1","","","","","","","","","","177","","","","3","1","[{""stimulus"":""img/3to1/1.png"",""time"":100},{""stimulus"":""img/3to1/2.png"",""time"":199},{""stimulus"":""img/3to1/3.png"",""time"":298},{""stimulus"":""img/3to1/4.png"",""time"":397},{""stimulus"":""img/3to1/5.png"",""time"":496},{""stimulus"":""img/3to1/6.png"",""time"":595},{""stimulus"":""img/3to1/7.png"",""time"":694},{""stimulus"":""img/3to1/8.png"",""time"":793},{""stimulus"":""img/3to1/9.png"",""time"":892},{""stimulus"":""img/3to1/10.png"",""time"":991},{""stimulus"":""img/3to1/11.png"",""time"":1090},{""stimulus"":""img/3to1/12.png"",""time"":1189}]","[]"
"image-keyboard-response","102","131129","0.0-5.0-1.49","580777dd827ca10001db494b","bdp_cybrbll","Sun Mar 26 2023 01:46:51 GMT-0400 (Eastern Daylight Time)","434710","3","1","","null","","","","observe","","img/1to3/1.png","null","176","458","0.5","0.5","1","2","",""
"animation","103","132417","0.0-5.0-2.49","580777dd827ca10001db494b","bdp_cybrbll","Sun Mar 26 2023 01:46:51 GMT-0400 (Eastern Daylight Time)","434710","3","1","","","","","","","","","","176","","","","1","2","[{""stimulus"":""img/1to2/1.png"",""time"":100},{""stimulus"":""img/1to2/2.png"",""time"":200},{""stimulus"":""img/1to2/3.png"",""time"":299},{""stimulus"":""img/1to2/4.png"",""time"":397},{""stimulus"":""img/1to2/5.png"",""time"":496},{""stimulus"":""img/1to2/6.png"",""time"":595},{""stimulus"":""img/1to2/7.png"",""time"":694},{""stimulus"":""img/1to2/8.png"",""time"":793},{""stimulus"":""img/1to2/9.png"",""time"":892},{""stimulus"":""img/1to2/10.png"",""time"":992},{""stimulus"":""img/1to2/11.png"",""time"":1090},{""stimulus"":""img/1to2/12.png"",""time"":1190}]","[]"
"image-keyboard-response","104","132804","0.0-5.0-1.50","580777dd827ca10001db494b","bdp_cybrbll","Sun Mar 26 2023 01:46:51 GMT-0400 (Eastern Daylight Time)","434710","3","1","","386","","","","choice","","img/2to1/1.png","1","175","261","0.5","0.5","2","1","",""
"animation","105","134093","0.0-5.0-2.50","580777dd827ca10001db494b","bdp_cybrbll","Sun Mar 26 2023 01:46:51 GMT-0400 (Eastern Daylight Time)","434710","3","1","","","","","","","","","","175","","","","2","1","[{""stimulus"":""img/2to1/1.png"",""time"":100},{""stimulus"":""img/2to1/2.png"",""time"":199},{""stimulus"":""img/2to1/3.png"",""time"":298},{""stimulus"":""img/2to1/4.png"",""time"":397},{""stimulus"":""img/2to1/5.png"",""time"":496},{""stimulus"":""img/2to1/6.png"",""time"":595},{""stimulus"":""img/2to1/7.png"",""time"":694},{""stimulus"":""img/2to1/8.png"",""time"":793},{""stimulus"":""img/2to1/9.png"",""time"":892},{""stimulus"":""img/2to1/10.png"",""time"":991},{""stimulus"":""img/2to1/11.png"",""time"":1090},{""stimulus"":""img/2to1/12.png"",""time"":1189}]","[]"
"image-keyboard-response","106","134605","0.0-5.0-1.51","580777dd827ca10001db494b","bdp_cybrbll","Sun Mar 26 2023 01:46:51 GMT-0400 (Eastern Daylight Time)","434710","3","1","","null","","","","observe","","img/1to3/1.png","null","174","511","0.5","0.5","1","3","",""
"animation","107","135893","0.0-5.0-2.51","580777dd827ca10001db494b","bdp_cybrbll","Sun Mar 26 2023 01:46:51 GMT-0400 (Eastern Daylight Time)","434710","3","1","","","","","","","","","","174","","","","1","3","[{""stimulus"":""img/1to3/1.png"",""time"":100},{""stimulus"":""img/1to3/2.png"",""time"":198},{""stimulus"":""img/1to3/3.png"",""time"":298},{""stimulus"":""img/1to3/4.png"",""time"":397},{""stimulus"":""img/1to3/5.png"",""time"":496},{""stimulus"":""img/1to3/6.png"",""time"":595},{""stimulus"":""img/1to3/7.png"",""time"":694},{""stimulus"":""img/1to3/8.png"",""time"":793},{""stimulus"":""img/1to3/9.png"",""time"":892},{""stimulus"":""img/1to3/10.png"",""time"":991},{""stimulus"":""img/1to3/11.png"",""time"":1089},{""stimulus"":""img/1to3/12.png"",""time"":1189}]","[]"
"image-keyboard-response","108","136168","0.0-5.0-1.52","580777dd827ca10001db494b","bdp_cybrbll","Sun Mar 26 2023 01:46:51 GMT-0400 (Eastern Daylight Time)","434710","3","1","","null","","","","observe","","img/3to2/1.png","null","173","273","0.5","0.5","3","1","",""
"animation","109","137456","0.0-5.0-2.52","580777dd827ca10001db494b","bdp_cybrbll","Sun Mar 26 2023 01:46:51 GMT-0400 (Eastern Daylight Time)","434710","3","1","","","","","","","","","","173","","","","3","1","[{""stimulus"":""img/3to1/1.png"",""time"":101},{""stimulus"":""img/3to1/2.png"",""time"":200},{""stimulus"":""img/3to1/3.png"",""time"":299},{""stimulus"":""img/3to1/4.png"",""time"":397},{""stimulus"":""img/3to1/5.png"",""time"":496},{""stimulus"":""img/3to1/6.png"",""time"":595},{""stimulus"":""img/3to1/7.png"",""time"":695},{""stimulus"":""img/3to1/8.png"",""time"":793},{""stimulus"":""img/3to1/9.png"",""time"":893},{""stimulus"":""img/3to1/10.png"",""time"":992},{""stimulus"":""img/3to1/11.png"",""time"":1091},{""stimulus"":""img/3to1/12.png"",""time"":1190}]","[]"
"image-keyboard-response","110","137861","0.0-5.0-1.53","580777dd827ca10001db494b","bdp_cybrbll","Sun Mar 26 2023 01:46:51 GMT-0400 (Eastern Daylight Time)","434710","3","1","","null","","","","observe","","img/1to3/1.png","null","172","393","0.5","0.5","1","2","",""
"animation","111","139150","0.0-5.0-2.53","580777dd827ca10001db494b","bdp_cybrbll","Sun Mar 26 2023 01:46:51 GMT-0400 (Eastern Daylight Time)","434710","3","1","","","","","","","","","","172","","","","1","2","[{""stimulus"":""img/1to2/1.png"",""time"":101},{""stimulus"":""img/1to2/2.png"",""time"":200},{""stimulus"":""img/1to2/3.png"",""time"":298},{""stimulus"":""img/1to2/4.png"",""time"":397},{""stimulus"":""img/1to2/5.png"",""time"":497},{""stimulus"":""img/1to2/6.png"",""time"":596},{""stimulus"":""img/1to2/7.png"",""time"":694},{""stimulus"":""img/1to2/8.png"",""time"":793},{""stimulus"":""img/1to2/9.png"",""time"":892},{""stimulus"":""img/1to2/10.png"",""time"":991},{""stimulus"":""img/1to2/11.png"",""time"":1090},{""stimulus"":""img/1to2/12.png"",""time"":1189}]","[]"
"image-keyboard-response","112","139891","0.0-5.0-1.54","580777dd827ca10001db494b","bdp_cybrbll","Sun Mar 26 2023 01:46:51 GMT-0400 (Eastern Daylight Time)","434710","3","1","","738","","","","choice","","img/2to1/1.png","2","171","264","0.5","0.5","2","3","",""
"animation","113","141179","0.0-5.0-2.54","580777dd827ca10001db494b","bdp_cybrbll","Sun Mar 26 2023 01:46:51 GMT-0400 (Eastern Daylight Time)","434710","3","1","","","","","","","","","","171","","","","2","3","[{""stimulus"":""img/2to3/1.png"",""time"":100},{""stimulus"":""img/2to3/2.png"",""time"":200},{""stimulus"":""img/2to3/3.png"",""time"":299},{""stimulus"":""img/2to3/4.png"",""time"":398},{""stimulus"":""img/2to3/5.png"",""time"":497},{""stimulus"":""img/2to3/6.png"",""time"":596},{""stimulus"":""img/2to3/7.png"",""time"":695},{""stimulus"":""img/2to3/8.png"",""time"":794},{""stimulus"":""img/2to3/9.png"",""time"":892},{""stimulus"":""img/2to3/10.png"",""time"":991},{""stimulus"":""img/2to3/11.png"",""time"":1090},{""stimulus"":""img/2to3/12.png"",""time"":1189}]","[]"
"image-keyboard-response","114","142419","0.0-5.0-1.55","580777dd827ca10001db494b","bdp_cybrbll","Sun Mar 26 2023 01:46:51 GMT-0400 (Eastern Daylight Time)","434710","3","1","","null","","","","observe","","img/3to2/1.png","null","170","1236","0.5","0.5","3","2","",""
"animation","115","143706","0.0-5.0-2.55","580777dd827ca10001db494b","bdp_cybrbll","Sun Mar 26 2023 01:46:51 GMT-0400 (Eastern Daylight Time)","434710","3","1","","","","","","","","","","170","","","","3","2","[{""stimulus"":""img/3to2/1.png"",""time"":102},{""stimulus"":""img/3to2/2.png"",""time"":199},{""stimulus"":""img/3to2/3.png"",""time"":298},{""stimulus"":""img/3to2/4.png"",""time"":397},{""stimulus"":""img/3to2/5.png"",""time"":496},{""stimulus"":""img/3to2/6.png"",""time"":595},{""stimulus"":""img/3to2/7.png"",""time"":694},{""stimulus"":""img/3to2/8.png"",""time"":794},{""stimulus"":""img/3to2/9.png"",""time"":892},{""stimulus"":""img/3to2/10.png"",""time"":991},{""stimulus"":""img/3to2/11.png"",""time"":1090},{""stimulus"":""img/3to2/12.png"",""time"":1189}]","[]"
"image-keyboard-response","116","144057","0.0-5.0-1.56","580777dd827ca10001db494b","bdp_cybrbll","Sun Mar 26 2023 01:46:51 GMT-0400 (Eastern Daylight Time)","434710","3","1","","349","","","","choice","","img/2to1/1.png","1","169","416","0.5","0.5","2","1","",""
"animation","117","145346","0.0-5.0-2.56","580777dd827ca10001db494b","bdp_cybrbll","Sun Mar 26 2023 01:46:51 GMT-0400 (Eastern Daylight Time)","434710","3","1","","","","","","","","","","169","","","","2","1","[{""stimulus"":""img/2to1/1.png"",""time"":100},{""stimulus"":""img/2to1/2.png"",""time"":200},{""stimulus"":""img/2to1/3.png"",""time"":299},{""stimulus"":""img/2to1/4.png"",""time"":398},{""stimulus"":""img/2to1/5.png"",""time"":497},{""stimulus"":""img/2to1/6.png"",""time"":599},{""stimulus"":""img/2to1/7.png"",""time"":695},{""stimulus"":""img/2to1/8.png"",""time"":794},{""stimulus"":""img/2to1/9.png"",""time"":893},{""stimulus"":""img/2to1/10.png"",""time"":992},{""stimulus"":""img/2to1/11.png"",""time"":1090},{""stimulus"":""img/2to1/12.png"",""time"":1189}]","[]"
"image-keyboard-response","118","145506","0.0-5.0-1.57","580777dd827ca10001db494b","bdp_cybrbll","Sun Mar 26 2023 01:46:51 GMT-0400 (Eastern Daylight Time)","434710","3","1","","null","","","","observe","","img/1to3/1.png","null","168","159","0.5","0.5","1","3","",""
"animation","119","146794","0.0-5.0-2.57","580777dd827ca10001db494b","bdp_cybrbll","Sun Mar 26 2023 01:46:51 GMT-0400 (Eastern Daylight Time)","434710","3","1","","","","","","","","","","168","","","","1","3","[{""stimulus"":""img/1to3/1.png"",""time"":100},{""stimulus"":""img/1to3/2.png"",""time"":199},{""stimulus"":""img/1to3/3.png"",""time"":298},{""stimulus"":""img/1to3/4.png"",""time"":397},{""stimulus"":""img/1to3/5.png"",""time"":496},{""stimulus"":""img/1to3/6.png"",""time"":595},{""stimulus"":""img/1to3/7.png"",""time"":694},{""stimulus"":""img/1to3/8.png"",""time"":793},{""stimulus"":""img/1to3/9.png"",""time"":892},{""stimulus"":""img/1to3/10.png"",""time"":991},{""stimulus"":""img/1to3/11.png"",""time"":1090},{""stimulus"":""img/1to3/12.png"",""time"":1189}]","[]"
"image-keyboard-response","120","147270","0.0-5.0-1.58","580777dd827ca10001db494b","bdp_cybrbll","Sun Mar 26 2023 01:46:51 GMT-0400 (Eastern Daylight Time)","434710","3","1","","null","","","","observe","","img/3to2/1.png","null","167","474","0.5","0.5","3","1","",""
"animation","121","148558","0.0-5.0-2.58","580777dd827ca10001db494b","bdp_cybrbll","Sun Mar 26 2023 01:46:51 GMT-0400 (Eastern Daylight Time)","434710","3","1","","","","","","","","","","167","","","","3","1","[{""stimulus"":""img/3to1/1.png"",""time"":101},{""stimulus"":""img/3to1/2.png"",""time"":200},{""stimulus"":""img/3to1/3.png"",""time"":299},{""stimulus"":""img/3to1/4.png"",""time"":397},{""stimulus"":""img/3to1/5.png"",""time"":497},{""stimulus"":""img/3to1/6.png"",""time"":596},{""stimulus"":""img/3to1/7.png"",""time"":695},{""stimulus"":""img/3to1/8.png"",""time"":794},{""stimulus"":""img/3to1/9.png"",""time"":893},{""stimulus"":""img/3to1/10.png"",""time"":992},{""stimulus"":""img/3to1/11.png"",""time"":1091},{""stimulus"":""img/3to1/12.png"",""time"":1190}]","[]"
"image-keyboard-response","122","148746","0.0-5.0-1.59","580777dd827ca10001db494b","bdp_cybrbll","Sun Mar 26 2023 01:46:51 GMT-0400 (Eastern Daylight Time)","434710","3","1","","null","","","","observe","","img/1to3/1.png","null","166","185","0.5","0.5","1","2","",""
"animation","123","150034","0.0-5.0-2.59","580777dd827ca10001db494b","bdp_cybrbll","Sun Mar 26 2023 01:46:51 GMT-0400 (Eastern Daylight Time)","434710","3","1","","","","","","","","","","166","","","","1","2","[{""stimulus"":""img/1to2/1.png"",""time"":100},{""stimulus"":""img/1to2/2.png"",""time"":199},{""stimulus"":""img/1to2/3.png"",""time"":298},{""stimulus"":""img/1to2/4.png"",""time"":397},{""stimulus"":""img/1to2/5.png"",""time"":496},{""stimulus"":""img/1to2/6.png"",""time"":596},{""stimulus"":""img/1to2/7.png"",""time"":694},{""stimulus"":""img/1to2/8.png"",""time"":793},{""stimulus"":""img/1to2/9.png"",""time"":892},{""stimulus"":""img/1to2/10.png"",""time"":991},{""stimulus"":""img/1to2/11.png"",""time"":1090},{""stimulus"":""img/1to2/12.png"",""time"":1189}]","[]"
"image-keyboard-response","124","150326","0.0-5.0-1.60","580777dd827ca10001db494b","bdp_cybrbll","Sun Mar 26 2023 01:46:51 GMT-0400 (Eastern Daylight Time)","434710","3","1","","290","","","","choice","","img/2to1/1.png","2","165","347","0.5","0.5","2","3","",""
"animation","125","151614","0.0-5.0-2.60","580777dd827ca10001db494b","bdp_cybrbll","Sun Mar 26 2023 01:46:51 GMT-0400 (Eastern Daylight Time)","434710","3","1","","","","","","","","","","165","","","","2","3","[{""stimulus"":""img/2to3/1.png"",""time"":101},{""stimulus"":""img/2to3/2.png"",""time"":199},{""stimulus"":""img/2to3/3.png"",""time"":299},{""stimulus"":""img/2to3/4.png"",""time"":397},{""stimulus"":""img/2to3/5.png"",""time"":496},{""stimulus"":""img/2to3/6.png"",""time"":595},{""stimulus"":""img/2to3/7.png"",""time"":694},{""stimulus"":""img/2to3/8.png"",""time"":793},{""stimulus"":""img/2to3/9.png"",""time"":892},{""stimulus"":""img/2to3/10.png"",""time"":991},{""stimulus"":""img/2to3/11.png"",""time"":1090},{""stimulus"":""img/2to3/12.png"",""time"":1189}]","[]"
"image-keyboard-response","126","152103","0.0-5.0-1.61","580777dd827ca10001db494b","bdp_cybrbll","Sun Mar 26 2023 01:46:51 GMT-0400 (Eastern Daylight Time)","434710","3","1","","null","","","","observe","","img/3to2/1.png","null","164","487","0.5","0.5","3","1","",""
"animation","127","153391","0.0-5.0-2.61","580777dd827ca10001db494b","bdp_cybrbll","Sun Mar 26 2023 01:46:51 GMT-0400 (Eastern Daylight Time)","434710","3","1","","","","","","","","","","164","","","","3","1","[{""stimulus"":""img/3to1/1.png"",""time"":100},{""stimulus"":""img/3to1/2.png"",""time"":198},{""stimulus"":""img/3to1/3.png"",""time"":298},{""stimulus"":""img/3to1/4.png"",""time"":397},{""stimulus"":""img/3to1/5.png"",""time"":496},{""stimulus"":""img/3to1/6.png"",""time"":595},{""stimulus"":""img/3to1/7.png"",""time"":693},{""stimulus"":""img/3to1/8.png"",""time"":793},{""stimulus"":""img/3to1/9.png"",""time"":892},{""stimulus"":""img/3to1/10.png"",""time"":991},{""stimulus"":""img/3to1/11.png"",""time"":1090},{""stimulus"":""img/3to1/12.png"",""time"":1189}]","[]"
"image-keyboard-response","128","153866","0.0-5.0-1.62","580777dd827ca10001db494b","bdp_cybrbll","Sun Mar 26 2023 01:46:51 GMT-0400 (Eastern Daylight Time)","434710","3","1","","null","","","","observe","","img/1to3/1.png","null","163","472","0.5","0.5","1","2","",""
"animation","129","155154","0.0-5.0-2.62","580777dd827ca10001db494b","bdp_cybrbll","Sun Mar 26 2023 01:46:51 GMT-0400 (Eastern Daylight Time)","434710","3","1","","","","","","","","","","163","","","","1","2","[{""stimulus"":""img/1to2/1.png"",""time"":100},{""stimulus"":""img/1to2/2.png"",""time"":198},{""stimulus"":""img/1to2/3.png"",""time"":297},{""stimulus"":""img/1to2/4.png"",""time"":397},{""stimulus"":""img/1to2/5.png"",""time"":496},{""stimulus"":""img/1to2/6.png"",""time"":595},{""stimulus"":""img/1to2/7.png"",""time"":693},{""stimulus"":""img/1to2/8.png"",""time"":792},{""stimulus"":""img/1to2/9.png"",""time"":891},{""stimulus"":""img/1to2/10.png"",""time"":990},{""stimulus"":""img/1to2/11.png"",""time"":1089},{""stimulus"":""img/1to2/12.png"",""time"":1188}]","[]"
"image-keyboard-response","130","155801","0.0-5.0-1.63","580777dd827ca10001db494b","bdp_cybrbll","Sun Mar 26 2023 01:46:51 GMT-0400 (Eastern Daylight Time)","434710","3","1","","646","","","","choice","","img/2to1/1.png","1","162","177","0.5","0.5","2","1","",""
"animation","131","157090","0.0-5.0-2.63","580777dd827ca10001db494b","bdp_cybrbll","Sun Mar 26 2023 01:46:51 GMT-0400 (Eastern Daylight Time)","434710","3","1","","","","","","","","","","162","","","","2","1","[{""stimulus"":""img/2to1/1.png"",""time"":101},{""stimulus"":""img/2to1/2.png"",""time"":199},{""stimulus"":""img/2to1/3.png"",""time"":299},{""stimulus"":""img/2to1/4.png"",""time"":398},{""stimulus"":""img/2to1/5.png"",""time"":496},{""stimulus"":""img/2to1/6.png"",""time"":595},{""stimulus"":""img/2to1/7.png"",""time"":695},{""stimulus"":""img/2to1/8.png"",""time"":794},{""stimulus"":""img/2to1/9.png"",""time"":893},{""stimulus"":""img/2to1/10.png"",""time"":992},{""stimulus"":""img/2to1/11.png"",""time"":1090},{""stimulus"":""img/2to1/12.png"",""time"":1190}]","[]"
"image-keyboard-response","132","157628","0.0-5.0-1.64","580777dd827ca10001db494b","bdp_cybrbll","Sun Mar 26 2023 01:46:51 GMT-0400 (Eastern Daylight Time)","434710","3","1","","null","","","","observe","","img/1to3/1.png","null","161","536","0.5","0.5","1","3","",""
"animation","133","158916","0.0-5.0-2.64","580777dd827ca10001db494b","bdp_cybrbll","Sun Mar 26 2023 01:46:51 GMT-0400 (Eastern Daylight Time)","434710","3","1","","","","","","","","","","161","","","","1","3","[{""stimulus"":""img/1to3/1.png"",""time"":102},{""stimulus"":""img/1to3/2.png"",""time"":199},{""stimulus"":""img/1to3/3.png"",""time"":298},{""stimulus"":""img/1to3/4.png"",""time"":397},{""stimulus"":""img/1to3/5.png"",""time"":496},{""stimulus"":""img/1to3/6.png"",""time"":595},{""stimulus"":""img/1to3/7.png"",""time"":694},{""stimulus"":""img/1to3/8.png"",""time"":792},{""stimulus"":""img/1to3/9.png"",""time"":892},{""stimulus"":""img/1to3/10.png"",""time"":991},{""stimulus"":""img/1to3/11.png"",""time"":1089},{""stimulus"":""img/1to3/12.png"",""time"":1189}]","[]"
"image-keyboard-response","134","159178","0.0-5.0-1.65","580777dd827ca10001db494b","bdp_cybrbll","Sun Mar 26 2023 01:46:51 GMT-0400 (Eastern Daylight Time)","434710","3","1","","null","","","","observe","","img/3to2/1.png","null","160","260","0.5","0.5","3","1","",""
"animation","135","160466","0.0-5.0-2.65","580777dd827ca10001db494b","bdp_cybrbll","Sun Mar 26 2023 01:46:51 GMT-0400 (Eastern Daylight Time)","434710","3","1","","","","","","","","","","160","","","","3","1","[{""stimulus"":""img/3to1/1.png"",""time"":110},{""stimulus"":""img/3to1/2.png"",""time"":199},{""stimulus"":""img/3to1/3.png"",""time"":299},{""stimulus"":""img/3to1/4.png"",""time"":398},{""stimulus"":""img/3to1/5.png"",""time"":497},{""stimulus"":""img/3to1/6.png"",""time"":596},{""stimulus"":""img/3to1/7.png"",""time"":695},{""stimulus"":""img/3to1/8.png"",""time"":794},{""stimulus"":""img/3to1/9.png"",""time"":892},{""stimulus"":""img/3to1/10.png"",""time"":992},{""stimulus"":""img/3to1/11.png"",""time"":1090},{""stimulus"":""img/3to1/12.png"",""time"":1189}]","[]"
"image-keyboard-response","136","161256","0.0-5.0-1.66","580777dd827ca10001db494b","bdp_cybrbll","Sun Mar 26 2023 01:46:51 GMT-0400 (Eastern Daylight Time)","434710","3","1","","null","","","","observe","","img/1to3/1.png","null","159","788","0.5","0.5","1","2","",""
"animation","137","162544","0.0-5.0-2.66","580777dd827ca10001db494b","bdp_cybrbll","Sun Mar 26 2023 01:46:51 GMT-0400 (Eastern Daylight Time)","434710","3","1","","","","","","","","","","159","","","","1","2","[{""stimulus"":""img/1to2/1.png"",""time"":101},{""stimulus"":""img/1to2/2.png"",""time"":199},{""stimulus"":""img/1to2/3.png"",""time"":298},{""stimulus"":""img/1to2/4.png"",""time"":397},{""stimulus"":""img/1to2/5.png"",""time"":496},{""stimulus"":""img/1to2/6.png"",""time"":595},{""stimulus"":""img/1to2/7.png"",""time"":694},{""stimulus"":""img/1to2/8.png"",""time"":793},{""stimulus"":""img/1to2/9.png"",""time"":892},{""stimulus"":""img/1to2/10.png"",""time"":991},{""stimulus"":""img/1to2/11.png"",""time"":1090},{""stimulus"":""img/1to2/12.png"",""time"":1189}]","[]"
"image-keyboard-response","138","162784","0.0-5.0-1.67","580777dd827ca10001db494b","bdp_cybrbll","Sun Mar 26 2023 01:46:51 GMT-0400 (Eastern Daylight Time)","434710","3","1","","239","","","","choice","","img/2to1/1.png","2","158","538","0.5","0.5","2","3","",""
"animation","139","164072","0.0-5.0-2.67","580777dd827ca10001db494b","bdp_cybrbll","Sun Mar 26 2023 01:46:51 GMT-0400 (Eastern Daylight Time)","434710","3","1","","","","","","","","","","158","","","","2","3","[{""stimulus"":""img/2to3/1.png"",""time"":100},{""stimulus"":""img/2to3/2.png"",""time"":199},{""stimulus"":""img/2to3/3.png"",""time"":298},{""stimulus"":""img/2to3/4.png"",""time"":397},{""stimulus"":""img/2to3/5.png"",""time"":496},{""stimulus"":""img/2to3/6.png"",""time"":595},{""stimulus"":""img/2to3/7.png"",""time"":694},{""stimulus"":""img/2to3/8.png"",""time"":793},{""stimulus"":""img/2to3/9.png"",""time"":892},{""stimulus"":""img/2to3/10.png"",""time"":991},{""stimulus"":""img/2to3/11.png"",""time"":1090},{""stimulus"":""img/2to3/12.png"",""time"":1188}]","[]"
"image-keyboard-response","140","164391","0.0-5.0-1.68","580777dd827ca10001db494b","bdp_cybrbll","Sun Mar 26 2023 01:46:51 GMT-0400 (Eastern Daylight Time)","434710","3","1","","null","","","","observe","","img/3to2/1.png","null","157","317","0.5","0.5","3","1","",""
"animation","141","165678","0.0-5.0-2.68","580777dd827ca10001db494b","bdp_cybrbll","Sun Mar 26 2023 01:46:51 GMT-0400 (Eastern Daylight Time)","434710","3","1","","","","","","","","","","157","","","","3","1","[{""stimulus"":""img/3to1/1.png"",""time"":100},{""stimulus"":""img/3to1/2.png"",""time"":199},{""stimulus"":""img/3to1/3.png"",""time"":298},{""stimulus"":""img/3to1/4.png"",""time"":398},{""stimulus"":""img/3to1/5.png"",""time"":496},{""stimulus"":""img/3to1/6.png"",""time"":595},{""stimulus"":""img/3to1/7.png"",""time"":694},{""stimulus"":""img/3to1/8.png"",""time"":793},{""stimulus"":""img/3to1/9.png"",""time"":892},{""stimulus"":""img/3to1/10.png"",""time"":991},{""stimulus"":""img/3to1/11.png"",""time"":1090},{""stimulus"":""img/3to1/12.png"",""time"":1189}]","[]"
"image-keyboard-response","142","166163","0.0-5.0-1.69","580777dd827ca10001db494b","bdp_cybrbll","Sun Mar 26 2023 01:46:51 GMT-0400 (Eastern Daylight Time)","434710","3","1","","null","","","","observe","","img/1to3/1.png","null","156","483","0.5","0.5","1","3","",""
"animation","143","167450","0.0-5.0-2.69","580777dd827ca10001db494b","bdp_cybrbll","Sun Mar 26 2023 01:46:51 GMT-0400 (Eastern Daylight Time)","434710","3","1","","","","","","","","","","156","","","","1","3","[{""stimulus"":""img/1to3/1.png"",""time"":100},{""stimulus"":""img/1to3/2.png"",""time"":199},{""stimulus"":""img/1to3/3.png"",""time"":298},{""stimulus"":""img/1to3/4.png"",""time"":397},{""stimulus"":""img/1to3/5.png"",""time"":497},{""stimulus"":""img/1to3/6.png"",""time"":595},{""stimulus"":""img/1to3/7.png"",""time"":694},{""stimulus"":""img/1to3/8.png"",""time"":793},{""stimulus"":""img/1to3/9.png"",""time"":892},{""stimulus"":""img/1to3/10.png"",""time"":991},{""stimulus"":""img/1to3/11.png"",""time"":1090},{""stimulus"":""img/1to3/12.png"",""time"":1189}]","[]"
"image-keyboard-response","144","167761","0.0-5.0-1.70","580777dd827ca10001db494b","bdp_cybrbll","Sun Mar 26 2023 01:46:51 GMT-0400 (Eastern Daylight Time)","434710","3","1","","null","","","","observe","","img/3to2/1.png","null","155","309","0.5","0.5","3","2","",""
"animation","145","169049","0.0-5.0-2.70","580777dd827ca10001db494b","bdp_cybrbll","Sun Mar 26 2023 01:46:51 GMT-0400 (Eastern Daylight Time)","434710","3","1","","","","","","","","","","155","","","","3","2","[{""stimulus"":""img/3to2/1.png"",""time"":101},{""stimulus"":""img/3to2/2.png"",""time"":199},{""stimulus"":""img/3to2/3.png"",""time"":299},{""stimulus"":""img/3to2/4.png"",""time"":396},{""stimulus"":""img/3to2/5.png"",""time"":495},{""stimulus"":""img/3to2/6.png"",""time"":594},{""stimulus"":""img/3to2/7.png"",""time"":693},{""stimulus"":""img/3to2/8.png"",""time"":792},{""stimulus"":""img/3to2/9.png"",""time"":892},{""stimulus"":""img/3to2/10.png"",""time"":994},{""stimulus"":""img/3to2/11.png"",""time"":1091},{""stimulus"":""img/3to2/12.png"",""time"":1188}]","[]"
"image-keyboard-response","146","169473","0.0-5.0-1.71","580777dd827ca10001db494b","bdp_cybrbll","Sun Mar 26 2023 01:46:51 GMT-0400 (Eastern Daylight Time)","434710","3","1","","423","","","","choice","","img/2to1/1.png","1","154","715","0.5","0.5","2","1","",""
"animation","147","170762","0.0-5.0-2.71","580777dd827ca10001db494b","bdp_cybrbll","Sun Mar 26 2023 01:46:51 GMT-0400 (Eastern Daylight Time)","434710","3","1","","","","","","","","","","154","","","","2","1","[{""stimulus"":""img/2to1/1.png"",""time"":100},{""stimulus"":""img/2to1/2.png"",""time"":199},{""stimulus"":""img/2to1/3.png"",""time"":298},{""stimulus"":""img/2to1/4.png"",""time"":397},{""stimulus"":""img/2to1/5.png"",""time"":503},{""stimulus"":""img/2to1/6.png"",""time"":596},{""stimulus"":""img/2to1/7.png"",""time"":695},{""stimulus"":""img/2to1/8.png"",""time"":793},{""stimulus"":""img/2to1/9.png"",""time"":892},{""stimulus"":""img/2to1/10.png"",""time"":991},{""stimulus"":""img/2to1/11.png"",""time"":1091},{""stimulus"":""img/2to1/12.png"",""time"":1189}]","[]"
"image-keyboard-response","148","171546","0.0-5.0-1.72","580777dd827ca10001db494b","bdp_cybrbll","Sun Mar 26 2023 01:46:51 GMT-0400 (Eastern Daylight Time)","434710","3","1","","null","","","","observe","","img/1to3/1.png","null","153","783","0.5","0.5","1","2","",""
"animation","149","172834","0.0-5.0-2.72","580777dd827ca10001db494b","bdp_cybrbll","Sun Mar 26 2023 01:46:51 GMT-0400 (Eastern Daylight Time)","434710","3","1","","","","","","","","","","153","","","","1","2","[{""stimulus"":""img/1to2/1.png"",""time"":100},{""stimulus"":""img/1to2/2.png"",""time"":199},{""stimulus"":""img/1to2/3.png"",""time"":299},{""stimulus"":""img/1to2/4.png"",""time"":398},{""stimulus"":""img/1to2/5.png"",""time"":497},{""stimulus"":""img/1to2/6.png"",""time"":596},{""stimulus"":""img/1to2/7.png"",""time"":694},{""stimulus"":""img/1to2/8.png"",""time"":793},{""stimulus"":""img/1to2/9.png"",""time"":893},{""stimulus"":""img/1to2/10.png"",""time"":992},{""stimulus"":""img/1to2/11.png"",""time"":1091},{""stimulus"":""img/1to2/12.png"",""time"":1190}]","[]"
"image-keyboard-response","150","173012","0.0-5.0-1.73","580777dd827ca10001db494b","bdp_cybrbll","Sun Mar 26 2023 01:46:51 GMT-0400 (Eastern Daylight Time)","434710","3","1","","177","","","","choice","","img/2to1/1.png","2","152","607","0.5","0.5","2","3","",""
"animation","151","174300","0.0-5.0-2.73","580777dd827ca10001db494b","bdp_cybrbll","Sun Mar 26 2023 01:46:51 GMT-0400 (Eastern Daylight Time)","434710","3","1","","","","","","","","","","152","","","","2","3","[{""stimulus"":""img/2to3/1.png"",""time"":100},{""stimulus"":""img/2to3/2.png"",""time"":199},{""stimulus"":""img/2to3/3.png"",""time"":298},{""stimulus"":""img/2to3/4.png"",""time"":397},{""stimulus"":""img/2to3/5.png"",""time"":496},{""stimulus"":""img/2to3/6.png"",""time"":596},{""stimulus"":""img/2to3/7.png"",""time"":694},{""stimulus"":""img/2to3/8.png"",""time"":793},{""stimulus"":""img/2to3/9.png"",""time"":892},{""stimulus"":""img/2to3/10.png"",""time"":991},{""stimulus"":""img/2to3/11.png"",""time"":1090},{""stimulus"":""img/2to3/12.png"",""time"":1189}]","[]"
"image-keyboard-response","152","174550","0.0-5.0-1.74","580777dd827ca10001db494b","bdp_cybrbll","Sun Mar 26 2023 01:46:51 GMT-0400 (Eastern Daylight Time)","434710","3","1","","null","","","","observe","","img/3to2/1.png","null","151","248","0.5","0.5","3","1","",""
"animation","153","175838","0.0-5.0-2.74","580777dd827ca10001db494b","bdp_cybrbll","Sun Mar 26 2023 01:46:51 GMT-0400 (Eastern Daylight Time)","434710","3","1","","","","","","","","","","151","","","","3","1","[{""stimulus"":""img/3to1/1.png"",""time"":100},{""stimulus"":""img/3to1/2.png"",""time"":199},{""stimulus"":""img/3to1/3.png"",""time"":298},{""stimulus"":""img/3to1/4.png"",""time"":397},{""stimulus"":""img/3to1/5.png"",""time"":496},{""stimulus"":""img/3to1/6.png"",""time"":595},{""stimulus"":""img/3to1/7.png"",""time"":694},{""stimulus"":""img/3to1/8.png"",""time"":793},{""stimulus"":""img/3to1/9.png"",""time"":892},{""stimulus"":""img/3to1/10.png"",""time"":991},{""stimulus"":""img/3to1/11.png"",""time"":1090},{""stimulus"":""img/3to1/12.png"",""time"":1188}]","[]"
"image-keyboard-response","154","176161","0.0-5.0-1.75","580777dd827ca10001db494b","bdp_cybrbll","Sun Mar 26 2023 01:46:51 GMT-0400 (Eastern Daylight Time)","434710","3","1","","null","","","","observe","","img/1to3/1.png","null","150","321","0.5","0.5","1","3","",""
"animation","155","177448","0.0-5.0-2.75","580777dd827ca10001db494b","bdp_cybrbll","Sun Mar 26 2023 01:46:51 GMT-0400 (Eastern Daylight Time)","434710","3","1","","","","","","","","","","150","","","","1","3","[{""stimulus"":""img/1to3/1.png"",""time"":101},{""stimulus"":""img/1to3/2.png"",""time"":199},{""stimulus"":""img/1to3/3.png"",""time"":298},{""stimulus"":""img/1to3/4.png"",""time"":397},{""stimulus"":""img/1to3/5.png"",""time"":496},{""stimulus"":""img/1to3/6.png"",""time"":595},{""stimulus"":""img/1to3/7.png"",""time"":694},{""stimulus"":""img/1to3/8.png"",""time"":793},{""stimulus"":""img/1to3/9.png"",""time"":892},{""stimulus"":""img/1to3/10.png"",""time"":991},{""stimulus"":""img/1to3/11.png"",""time"":1090},{""stimulus"":""img/1to3/12.png"",""time"":1189}]","[]"
"image-keyboard-response","156","177735","0.0-5.0-1.76","580777dd827ca10001db494b","bdp_cybrbll","Sun Mar 26 2023 01:46:51 GMT-0400 (Eastern Daylight Time)","434710","3","1","","null","","","","observe","","img/3to2/1.png","null","149","285","0.5","0.1","3","2","",""
"animation","157","179022","0.0-5.0-2.76","580777dd827ca10001db494b","bdp_cybrbll","Sun Mar 26 2023 01:46:51 GMT-0400 (Eastern Daylight Time)","434710","3","1","","","","","","","","","","149","","","","3","2","[{""stimulus"":""img/3to2/1.png"",""time"":101},{""stimulus"":""img/3to2/2.png"",""time"":199},{""stimulus"":""img/3to2/3.png"",""time"":298},{""stimulus"":""img/3to2/4.png"",""time"":397},{""stimulus"":""img/3to2/5.png"",""time"":496},{""stimulus"":""img/3to2/6.png"",""time"":595},{""stimulus"":""img/3to2/7.png"",""time"":694},{""stimulus"":""img/3to2/8.png"",""time"":793},{""stimulus"":""img/3to2/9.png"",""time"":892},{""stimulus"":""img/3to2/10.png"",""time"":991},{""stimulus"":""img/3to2/11.png"",""time"":1090},{""stimulus"":""img/3to2/12.png"",""time"":1189}]","[]"
"image-keyboard-response","158","179592","0.0-5.0-1.77","580777dd827ca10001db494b","bdp_cybrbll","Sun Mar 26 2023 01:46:51 GMT-0400 (Eastern Daylight Time)","434710","3","1","","568","","","","choice","","img/2to1/1.png","1","148","1832","0.5","0.1","2","1","",""
"animation","159","180881","0.0-5.0-2.77","580777dd827ca10001db494b","bdp_cybrbll","Sun Mar 26 2023 01:46:51 GMT-0400 (Eastern Daylight Time)","434710","3","1","","","","","","","","","","148","","","","2","1","[{""stimulus"":""img/2to1/1.png"",""time"":100},{""stimulus"":""img/2to1/2.png"",""time"":199},{""stimulus"":""img/2to1/3.png"",""time"":298},{""stimulus"":""img/2to1/4.png"",""time"":397},{""stimulus"":""img/2to1/5.png"",""time"":496},{""stimulus"":""img/2to1/6.png"",""time"":595},{""stimulus"":""img/2to1/7.png"",""time"":694},{""stimulus"":""img/2to1/8.png"",""time"":793},{""stimulus"":""img/2to1/9.png"",""time"":892},{""stimulus"":""img/2to1/10.png"",""time"":991},{""stimulus"":""img/2to1/11.png"",""time"":1090},{""stimulus"":""img/2to1/12.png"",""time"":1189}]","[]"
"image-keyboard-response","160","181043","0.0-5.0-1.78","580777dd827ca10001db494b","bdp_cybrbll","Sun Mar 26 2023 01:46:51 GMT-0400 (Eastern Daylight Time)","434710","3","1","","null","","","","observe","","img/1to3/1.png","null","147","158","0.5","0.1","1","3","",""
"animation","161","182330","0.0-5.0-2.78","580777dd827ca10001db494b","bdp_cybrbll","Sun Mar 26 2023 01:46:51 GMT-0400 (Eastern Daylight Time)","434710","3","1","","","","","","","","","","147","","","","1","3","[{""stimulus"":""img/1to3/1.png"",""time"":100},{""stimulus"":""img/1to3/2.png"",""time"":199},{""stimulus"":""img/1to3/3.png"",""time"":299},{""stimulus"":""img/1to3/4.png"",""time"":397},{""stimulus"":""img/1to3/5.png"",""time"":496},{""stimulus"":""img/1to3/6.png"",""time"":595},{""stimulus"":""img/1to3/7.png"",""time"":694},{""stimulus"":""img/1to3/8.png"",""time"":793},{""stimulus"":""img/1to3/9.png"",""time"":892},{""stimulus"":""img/1to3/10.png"",""time"":991},{""stimulus"":""img/1to3/11.png"",""time"":1090},{""stimulus"":""img/1to3/12.png"",""time"":1189}]","[]"
"image-keyboard-response","162","182875","0.0-5.0-1.79","580777dd827ca10001db494b","bdp_cybrbll","Sun Mar 26 2023 01:46:51 GMT-0400 (Eastern Daylight Time)","434710","3","1","","null","","","","observe","","img/3to2/1.png","null","146","543","0.5","0.1","3","2","",""
"animation","163","184162","0.0-5.0-2.79","580777dd827ca10001db494b","bdp_cybrbll","Sun Mar 26 2023 01:46:51 GMT-0400 (Eastern Daylight Time)","434710","3","1","","","","","","","","","","146","","","","3","2","[{""stimulus"":""img/3to2/1.png"",""time"":101},{""stimulus"":""img/3to2/2.png"",""time"":200},{""stimulus"":""img/3to2/3.png"",""time"":298},{""stimulus"":""img/3to2/4.png"",""time"":398},{""stimulus"":""img/3to2/5.png"",""time"":496},{""stimulus"":""img/3to2/6.png"",""time"":595},{""stimulus"":""img/3to2/7.png"",""time"":694},{""stimulus"":""img/3to2/8.png"",""time"":793},{""stimulus"":""img/3to2/9.png"",""time"":892},{""stimulus"":""img/3to2/10.png"",""time"":991},{""stimulus"":""img/3to2/11.png"",""time"":1090},{""stimulus"":""img/3to2/12.png"",""time"":1189}]","[]"
"image-keyboard-response","164","184328","0.0-5.0-1.80","580777dd827ca10001db494b","bdp_cybrbll","Sun Mar 26 2023 01:46:51 GMT-0400 (Eastern Daylight Time)","434710","3","1","","163","","","","choice","","img/2to1/1.png","1","145","619","0.5","0.1","2","1","",""
"animation","165","185616","0.0-5.0-2.80","580777dd827ca10001db494b","bdp_cybrbll","Sun Mar 26 2023 01:46:51 GMT-0400 (Eastern Daylight Time)","434710","3","1","","","","","","","","","","145","","","","2","1","[{""stimulus"":""img/2to1/1.png"",""time"":100},{""stimulus"":""img/2to1/2.png"",""time"":200},{""stimulus"":""img/2to1/3.png"",""time"":299},{""stimulus"":""img/2to1/4.png"",""time"":398},{""stimulus"":""img/2to1/5.png"",""time"":497},{""stimulus"":""img/2to1/6.png"",""time"":596},{""stimulus"":""img/2to1/7.png"",""time"":695},{""stimulus"":""img/2to1/8.png"",""time"":794},{""stimulus"":""img/2to1/9.png"",""time"":893},{""stimulus"":""img/2to1/10.png"",""time"":991},{""stimulus"":""img/2to1/11.png"",""time"":1091},{""stimulus"":""img/2to1/12.png"",""time"":1195}]","[]"
"image-keyboard-response","166","186716","0.0-5.0-1.81","580777dd827ca10001db494b","bdp_cybrbll","Sun Mar 26 2023 01:46:51 GMT-0400 (Eastern Daylight Time)","434710","3","1","","null","","","","observe","","img/1to3/1.png","null","144","1098","0.5","0.1","1","3","",""
"animation","167","188004","0.0-5.0-2.81","580777dd827ca10001db494b","bdp_cybrbll","Sun Mar 26 2023 01:46:51 GMT-0400 (Eastern Daylight Time)","434710","3","1","","","","","","","","","","144","","","","1","3","[{""stimulus"":""img/1to3/1.png"",""time"":101},{""stimulus"":""img/1to3/2.png"",""time"":200},{""stimulus"":""img/1to3/3.png"",""time"":299},{""stimulus"":""img/1to3/4.png"",""time"":397},{""stimulus"":""img/1to3/5.png"",""time"":497},{""stimulus"":""img/1to3/6.png"",""time"":595},{""stimulus"":""img/1to3/7.png"",""time"":695},{""stimulus"":""img/1to3/8.png"",""time"":794},{""stimulus"":""img/1to3/9.png"",""time"":893},{""stimulus"":""img/1to3/10.png"",""time"":991},{""stimulus"":""img/1to3/11.png"",""time"":1091},{""stimulus"":""img/1to3/12.png"",""time"":1189}]","[]"
"image-keyboard-response","168","188272","0.0-5.0-1.82","580777dd827ca10001db494b","bdp_cybrbll","Sun Mar 26 2023 01:46:51 GMT-0400 (Eastern Daylight Time)","434710","3","1","","null","","","","observe","","img/3to2/1.png","null","143","266","0.5","0.1","3","1","",""
"animation","169","189559","0.0-5.0-2.82","580777dd827ca10001db494b","bdp_cybrbll","Sun Mar 26 2023 01:46:51 GMT-0400 (Eastern Daylight Time)","434710","3","1","","","","","","","","","","143","","","","3","1","[{""stimulus"":""img/3to1/1.png"",""time"":102},{""stimulus"":""img/3to1/2.png"",""time"":199},{""stimulus"":""img/3to1/3.png"",""time"":298},{""stimulus"":""img/3to1/4.png"",""time"":398},{""stimulus"":""img/3to1/5.png"",""time"":496},{""stimulus"":""img/3to1/6.png"",""time"":595},{""stimulus"":""img/3to1/7.png"",""time"":694},{""stimulus"":""img/3to1/8.png"",""time"":793},{""stimulus"":""img/3to1/9.png"",""time"":892},{""stimulus"":""img/3to1/10.png"",""time"":991},{""stimulus"":""img/3to1/11.png"",""time"":1090},{""stimulus"":""img/3to1/12.png"",""time"":1189}]","[]"
"image-keyboard-response","170","189977","0.0-5.0-1.83","580777dd827ca10001db494b","bdp_cybrbll","Sun Mar 26 2023 01:46:51 GMT-0400 (Eastern Daylight Time)","434710","3","1","","null","","","","observe","","img/1to3/1.png","null","142","416","0.5","0.1","1","2","",""
"animation","171","191265","0.0-5.0-2.83","580777dd827ca10001db494b","bdp_cybrbll","Sun Mar 26 2023 01:46:51 GMT-0400 (Eastern Daylight Time)","434710","3","1","","","","","","","","","","142","","","","1","2","[{""stimulus"":""img/1to2/1.png"",""time"":100},{""stimulus"":""img/1to2/2.png"",""time"":199},{""stimulus"":""img/1to2/3.png"",""time"":298},{""stimulus"":""img/1to2/4.png"",""time"":397},{""stimulus"":""img/1to2/5.png"",""time"":497},{""stimulus"":""img/1to2/6.png"",""time"":595},{""stimulus"":""img/1to2/7.png"",""time"":694},{""stimulus"":""img/1to2/8.png"",""time"":793},{""stimulus"":""img/1to2/9.png"",""time"":892},{""stimulus"":""img/1to2/10.png"",""time"":991},{""stimulus"":""img/1to2/11.png"",""time"":1090},{""stimulus"":""img/1to2/12.png"",""time"":1189}]","[]"
"image-keyboard-response","172","191358","0.0-5.0-1.84","580777dd827ca10001db494b","bdp_cybrbll","Sun Mar 26 2023 01:46:51 GMT-0400 (Eastern Daylight Time)","434710","3","1","","91","","","","choice","","img/2to1/1.png","2","141","522","0.5","0.1","2","3","",""
"animation","173","192646","0.0-5.0-2.84","580777dd827ca10001db494b","bdp_cybrbll","Sun Mar 26 2023 01:46:51 GMT-0400 (Eastern Daylight Time)","434710","3","1","","","","","","","","","","141","","","","2","3","[{""stimulus"":""img/2to3/1.png"",""time"":100},{""stimulus"":""img/2to3/2.png"",""time"":199},{""stimulus"":""img/2to3/3.png"",""time"":298},{""stimulus"":""img/2to3/4.png"",""time"":397},{""stimulus"":""img/2to3/5.png"",""time"":496},{""stimulus"":""img/2to3/6.png"",""time"":595},{""stimulus"":""img/2to3/7.png"",""time"":694},{""stimulus"":""img/2to3/8.png"",""time"":793},{""stimulus"":""img/2to3/9.png"",""time"":892},{""stimulus"":""img/2to3/10.png"",""time"":991},{""stimulus"":""img/2to3/11.png"",""time"":1090},{""stimulus"":""img/2to3/12.png"",""time"":1189}]","[]"
"image-keyboard-response","174","192913","0.0-5.0-1.85","580777dd827ca10001db494b","bdp_cybrbll","Sun Mar 26 2023 01:46:51 GMT-0400 (Eastern Daylight Time)","434710","3","1","","null","","","","observe","","img/3to2/1.png","null","140","265","0.5","0.1","3","2","",""
"animation","175","194201","0.0-5.0-2.85","580777dd827ca10001db494b","bdp_cybrbll","Sun Mar 26 2023 01:46:51 GMT-0400 (Eastern Daylight Time)","434710","3","1","","","","","","","","","","140","","","","3","2","[{""stimulus"":""img/3to2/1.png"",""time"":100},{""stimulus"":""img/3to2/2.png"",""time"":199},{""stimulus"":""img/3to2/3.png"",""time"":298},{""stimulus"":""img/3to2/4.png"",""time"":397},{""stimulus"":""img/3to2/5.png"",""time"":496},{""stimulus"":""img/3to2/6.png"",""time"":595},{""stimulus"":""img/3to2/7.png"",""time"":694},{""stimulus"":""img/3to2/8.png"",""time"":793},{""stimulus"":""img/3to2/9.png"",""time"":892},{""stimulus"":""img/3to2/10.png"",""time"":991},{""stimulus"":""img/3to2/11.png"",""time"":1090},{""stimulus"":""img/3to2/12.png"",""time"":1189}]","[]"
"image-keyboard-response","176","194315","0.0-5.0-1.86","580777dd827ca10001db494b","bdp_cybrbll","Sun Mar 26 2023 01:46:51 GMT-0400 (Eastern Daylight Time)","434710","3","1","","113","","","","choice","","img/2to1/1.png","1","139","499","0.5","0.1","2","1","",""
"animation","177","195603","0.0-5.0-2.86","580777dd827ca10001db494b","bdp_cybrbll","Sun Mar 26 2023 01:46:51 GMT-0400 (Eastern Daylight Time)","434710","3","1","","","","","","","","","","139","","","","2","1","[{""stimulus"":""img/2to1/1.png"",""time"":100},{""stimulus"":""img/2to1/2.png"",""time"":199},{""stimulus"":""img/2to1/3.png"",""time"":298},{""stimulus"":""img/2to1/4.png"",""time"":397},{""stimulus"":""img/2to1/5.png"",""time"":495},{""stimulus"":""img/2to1/6.png"",""time"":595},{""stimulus"":""img/2to1/7.png"",""time"":694},{""stimulus"":""img/2to1/8.png"",""time"":793},{""stimulus"":""img/2to1/9.png"",""time"":892},{""stimulus"":""img/2to1/10.png"",""time"":991},{""stimulus"":""img/2to1/11.png"",""time"":1090},{""stimulus"":""img/2to1/12.png"",""time"":1189}]","[]"
"image-keyboard-response","178","196609","0.0-5.0-1.87","580777dd827ca10001db494b","bdp_cybrbll","Sun Mar 26 2023 01:46:51 GMT-0400 (Eastern Daylight Time)","434710","3","1","","null","","","","observe","","img/1to3/1.png","null","138","1004","0.5","0.1","1","3","",""
"animation","179","197897","0.0-5.0-2.87","580777dd827ca10001db494b","bdp_cybrbll","Sun Mar 26 2023 01:46:51 GMT-0400 (Eastern Daylight Time)","434710","3","1","","","","","","","","","","138","","","","1","3","[{""stimulus"":""img/1to3/1.png"",""time"":101},{""stimulus"":""img/1to3/2.png"",""time"":200},{""stimulus"":""img/1to3/3.png"",""time"":299},{""stimulus"":""img/1to3/4.png"",""time"":398},{""stimulus"":""img/1to3/5.png"",""time"":497},{""stimulus"":""img/1to3/6.png"",""time"":595},{""stimulus"":""img/1to3/7.png"",""time"":694},{""stimulus"":""img/1to3/8.png"",""time"":793},{""stimulus"":""img/1to3/9.png"",""time"":892},{""stimulus"":""img/1to3/10.png"",""time"":991},{""stimulus"":""img/1to3/11.png"",""time"":1091},{""stimulus"":""img/1to3/12.png"",""time"":1190}]","[]"
"image-keyboard-response","180","198088","0.0-5.0-1.88","580777dd827ca10001db494b","bdp_cybrbll","Sun Mar 26 2023 01:46:51 GMT-0400 (Eastern Daylight Time)","434710","3","1","","null","","","","observe","","img/3to2/1.png","null","137","189","0.5","0.1","3","1","",""
"animation","181","199376","0.0-5.0-2.88","580777dd827ca10001db494b","bdp_cybrbll","Sun Mar 26 2023 01:46:51 GMT-0400 (Eastern Daylight Time)","434710","3","1","","","","","","","","","","137","","","","3","1","[{""stimulus"":""img/3to1/1.png"",""time"":101},{""stimulus"":""img/3to1/2.png"",""time"":200},{""stimulus"":""img/3to1/3.png"",""time"":299},{""stimulus"":""img/3to1/4.png"",""time"":398},{""stimulus"":""img/3to1/5.png"",""time"":497},{""stimulus"":""img/3to1/6.png"",""time"":596},{""stimulus"":""img/3to1/7.png"",""time"":695},{""stimulus"":""img/3to1/8.png"",""time"":794},{""stimulus"":""img/3to1/9.png"",""time"":893},{""stimulus"":""img/3to1/10.png"",""time"":991},{""stimulus"":""img/3to1/11.png"",""time"":1090},{""stimulus"":""img/3to1/12.png"",""time"":1189}]","[]"
"image-keyboard-response","182","199720","0.0-5.0-1.89","580777dd827ca10001db494b","bdp_cybrbll","Sun Mar 26 2023 01:46:51 GMT-0400 (Eastern Daylight Time)","434710","3","1","","null","","","","observe","","img/1to3/1.png","null","136","343","0.5","0.1","1","3","",""
"animation","183","201008","0.0-5.0-2.89","580777dd827ca10001db494b","bdp_cybrbll","Sun Mar 26 2023 01:46:51 GMT-0400 (Eastern Daylight Time)","434710","3","1","","","","","","","","","","136","","","","1","3","[{""stimulus"":""img/1to3/1.png"",""time"":101},{""stimulus"":""img/1to3/2.png"",""time"":199},{""stimulus"":""img/1to3/3.png"",""time"":298},{""stimulus"":""img/1to3/4.png"",""time"":397},{""stimulus"":""img/1to3/5.png"",""time"":496},{""stimulus"":""img/1to3/6.png"",""time"":595},{""stimulus"":""img/1to3/7.png"",""time"":694},{""stimulus"":""img/1to3/8.png"",""time"":793},{""stimulus"":""img/1to3/9.png"",""time"":892},{""stimulus"":""img/1to3/10.png"",""time"":991},{""stimulus"":""img/1to3/11.png"",""time"":1090},{""stimulus"":""img/1to3/12.png"",""time"":1189}]","[]"
"image-keyboard-response","184","201255","0.0-5.0-1.90","580777dd827ca10001db494b","bdp_cybrbll","Sun Mar 26 2023 01:46:51 GMT-0400 (Eastern Daylight Time)","434710","3","1","","null","","","","observe","","img/3to2/1.png","null","135","245","0.5","0.1","3","2","",""
"animation","185","202543","0.0-5.0-2.90","580777dd827ca10001db494b","bdp_cybrbll","Sun Mar 26 2023 01:46:51 GMT-0400 (Eastern Daylight Time)","434710","3","1","","","","","","","","","","135","","","","3","2","[{""stimulus"":""img/3to2/1.png"",""time"":101},{""stimulus"":""img/3to2/2.png"",""time"":200},{""stimulus"":""img/3to2/3.png"",""time"":297},{""stimulus"":""img/3to2/4.png"",""time"":397},{""stimulus"":""img/3to2/5.png"",""time"":496},{""stimulus"":""img/3to2/6.png"",""time"":594},{""stimulus"":""img/3to2/7.png"",""time"":693},{""stimulus"":""img/3to2/8.png"",""time"":792},{""stimulus"":""img/3to2/9.png"",""time"":891},{""stimulus"":""img/3to2/10.png"",""time"":991},{""stimulus"":""img/3to2/11.png"",""time"":1089},{""stimulus"":""img/3to2/12.png"",""time"":1188}]","[]"
"image-keyboard-response","186","202618","0.0-5.0-1.91","580777dd827ca10001db494b","bdp_cybrbll","Sun Mar 26 2023 01:46:51 GMT-0400 (Eastern Daylight Time)","434710","3","1","","74","","","","choice","","img/2to1/1.png","1","134","194","0.5","0.1","2","1","",""
"animation","187","203906","0.0-5.0-2.91","580777dd827ca10001db494b","bdp_cybrbll","Sun Mar 26 2023 01:46:51 GMT-0400 (Eastern Daylight Time)","434710","3","1","","","","","","","","","","134","","","","2","1","[{""stimulus"":""img/2to1/1.png"",""time"":100},{""stimulus"":""img/2to1/2.png"",""time"":199},{""stimulus"":""img/2to1/3.png"",""time"":298},{""stimulus"":""img/2to1/4.png"",""time"":397},{""stimulus"":""img/2to1/5.png"",""time"":497},{""stimulus"":""img/2to1/6.png"",""time"":595},{""stimulus"":""img/2to1/7.png"",""time"":695},{""stimulus"":""img/2to1/8.png"",""time"":794},{""stimulus"":""img/2to1/9.png"",""time"":892},{""stimulus"":""img/2to1/10.png"",""time"":991},{""stimulus"":""img/2to1/11.png"",""time"":1090},{""stimulus"":""img/2to1/12.png"",""time"":1191}]","[]"
"image-keyboard-response","188","205202","0.0-5.0-1.92","580777dd827ca10001db494b","bdp_cybrbll","Sun Mar 26 2023 01:46:51 GMT-0400 (Eastern Daylight Time)","434710","3","1","","null","","","","observe","","img/1to3/1.png","null","133","1293","0.5","0.1","1","3","",""
"animation","189","206490","0.0-5.0-2.92","580777dd827ca10001db494b","bdp_cybrbll","Sun Mar 26 2023 01:46:51 GMT-0400 (Eastern Daylight Time)","434710","3","1","","","","","","","","","","133","","","","1","3","[{""stimulus"":""img/1to3/1.png"",""time"":101},{""stimulus"":""img/1to3/2.png"",""time"":199},{""stimulus"":""img/1to3/3.png"",""time"":298},{""stimulus"":""img/1to3/4.png"",""time"":397},{""stimulus"":""img/1to3/5.png"",""time"":496},{""stimulus"":""img/1to3/6.png"",""time"":595},{""stimulus"":""img/1to3/7.png"",""time"":694},{""stimulus"":""img/1to3/8.png"",""time"":793},{""stimulus"":""img/1to3/9.png"",""time"":892},{""stimulus"":""img/1to3/10.png"",""time"":991},{""stimulus"":""img/1to3/11.png"",""time"":1090},{""stimulus"":""img/1to3/12.png"",""time"":1189}]","[]"
"image-keyboard-response","190","207210","0.0-5.0-1.93","580777dd827ca10001db494b","bdp_cybrbll","Sun Mar 26 2023 01:46:51 GMT-0400 (Eastern Daylight Time)","434710","3","1","","null","","","","observe","","img/3to2/1.png","null","132","718","0.5","0.1","3","2","",""
