"trial_type","trial_index","time_elapsed","internal_node_id","subject_id","task","startTime","totalTime","fairPartner","unfairPartner","event","trial","time","trialtype","numBlurs","view_history","rt","success","stimulus","key_press","throwsLeft","rtDur","pFair","pUnfair","holder","receiver","animation_sequence","responses"
"pavlovia","0","5","0.0-0.0","60d2d061fd054556769ca306","bdp_cybrbll","Sun Mar 26 2023 10:45:32 GMT-0400 (Eastern Daylight Time)","513168","3","1","","","","","","","","","","","","","","","","","",""
"","","","","60d2d061fd054556769ca306","bdp_cybrbll","Sun Mar 26 2023 10:45:32 GMT-0400 (Eastern Daylight Time)","513168","3","1","blur","1","2210","blurevent","1","","","","","","","","","","","","",""
"","","","","60d2d061fd054556769ca306","bdp_cybrbll","Sun Mar 26 2023 10:45:32 GMT-0400 (Eastern Daylight Time)","513168","3","1","focus","1","15323","focusevent","","","","","","","","","","","","","",""
"instructions","1","18405","0.0-1.0","60d2d061fd054556769ca306","bdp_cybrbll","Sun Mar 26 2023 10:45:32 GMT-0400 (Eastern Daylight Time)","513168","3","1","","","","","","[{""page_index"":0,""viewing_time"":18400}]","18400","","","","","","","","","","",""
"","","","","60d2d061fd054556769ca306","bdp_cybrbll","Sun Mar 26 2023 10:45:32 GMT-0400 (Eastern Daylight Time)","513168","3","1","blur","2","21766","blurevent","2","","","","","","","","","","","","",""
"","","","","60d2d061fd054556769ca306","bdp_cybrbll","Sun Mar 26 2023 10:45:32 GMT-0400 (Eastern Daylight Time)","513168","3","1","focus","2","26404","focusevent","","","","","","","","","","","","","",""
"","","","","60d2d061fd054556769ca306","bdp_cybrbll","Sun Mar 26 2023 10:45:32 GMT-0400 (Eastern Daylight Time)","513168","3","1","fullscreenenter","2","27788","fullscreenenter","","","","","","","","","","","","","",""
"fullscreen","2","28764","0.0-2.0","60d2d061fd054556769ca306","bdp_cybrbll","Sun Mar 26 2023 10:45:32 GMT-0400 (Eastern Daylight Time)","513168","3","1","","","","","","","","true","","","","","","","","","",""
"instructions","3","85752","0.0-4.0","60d2d061fd054556769ca306","bdp_cybrbll","Sun Mar 26 2023 10:45:32 GMT-0400 (Eastern Daylight Time)","513168","3","1","","","","","","[{""page_index"":0,""viewing_time"":56987}]","56987","","","","","","","","","","",""
"image-keyboard-response","4","98010","0.0-5.0-0.0-0.0","60d2d061fd054556769ca306","bdp_cybrbll","Sun Mar 26 2023 10:45:32 GMT-0400 (Eastern Daylight Time)","513168","3","1","","","","blurwarn","2","","12254","","","49","","","","","","","",""
"image-keyboard-response","5","102530","0.0-5.0-1.0","60d2d061fd054556769ca306","bdp_cybrbll","Sun Mar 26 2023 10:45:32 GMT-0400 (Eastern Daylight Time)","513168","3","1","","","","choice","","","4260","","img/2to1/1.png","1","225","312","0.5","0.5","2","1","",""
"animation","6","103822","0.0-5.0-2.0","60d2d061fd054556769ca306","bdp_cybrbll","Sun Mar 26 2023 10:45:32 GMT-0400 (Eastern Daylight Time)","513168","3","1","","","","","","","","","","","225","","","","2","1","[{""stimulus"":""img/2to1/1.png"",""time"":114},{""stimulus"":""img/2to1/2.png"",""time"":205},{""stimulus"":""img/2to1/3.png"",""time"":303},{""stimulus"":""img/2to1/4.png"",""time"":409},{""stimulus"":""img/2to1/5.png"",""time"":505},{""stimulus"":""img/2to1/6.png"",""time"":602},{""stimulus"":""img/2to1/7.png"",""time"":695},{""stimulus"":""img/2to1/8.png"",""time"":807},{""stimulus"":""img/2to1/9.png"",""time"":897},{""stimulus"":""img/2to1/10.png"",""time"":999},{""stimulus"":""img/2to1/11.png"",""time"":1104},{""stimulus"":""img/2to1/12.png"",""time"":1190}]","[]"
"image-keyboard-response","7","104390","0.0-5.0-1.1","60d2d061fd054556769ca306","bdp_cybrbll","Sun Mar 26 2023 10:45:32 GMT-0400 (Eastern Daylight Time)","513168","3","1","","","","observe","","","null","","img/1to3/1.png","null","224","554","0.5","0.5","1","3","",""
"animation","8","105688","0.0-5.0-2.1","60d2d061fd054556769ca306","bdp_cybrbll","Sun Mar 26 2023 10:45:32 GMT-0400 (Eastern Daylight Time)","513168","3","1","","","","","","","","","","","224","","","","1","3","[{""stimulus"":""img/1to3/1.png"",""time"":110},{""stimulus"":""img/1to3/2.png"",""time"":201},{""stimulus"":""img/1to3/3.png"",""time"":304},{""stimulus"":""img/1to3/4.png"",""time"":405},{""stimulus"":""img/1to3/5.png"",""time"":499},{""stimulus"":""img/1to3/6.png"",""time"":599},{""stimulus"":""img/1to3/7.png"",""time"":696},{""stimulus"":""img/1to3/8.png"",""time"":807},{""stimulus"":""img/1to3/9.png"",""time"":906},{""stimulus"":""img/1to3/10.png"",""time"":1005},{""stimulus"":""img/1to3/11.png"",""time"":1099},{""stimulus"":""img/1to3/12.png"",""time"":1191}]","[]"
"image-keyboard-response","9","106132","0.0-5.0-1.2","60d2d061fd054556769ca306","bdp_cybrbll","Sun Mar 26 2023 10:45:32 GMT-0400 (Eastern Daylight Time)","513168","3","1","","","","observe","","","null","","img/3to2/1.png","null","223","433","0.5","0.5","3","1","",""
"animation","10","107420","0.0-5.0-2.2","60d2d061fd054556769ca306","bdp_cybrbll","Sun Mar 26 2023 10:45:32 GMT-0400 (Eastern Daylight Time)","513168","3","1","","","","","","","","","","","223","","","","3","1","[{""stimulus"":""img/3to1/1.png"",""time"":110},{""stimulus"":""img/3to1/2.png"",""time"":209},{""stimulus"":""img/3to1/3.png"",""time"":298},{""stimulus"":""img/3to1/4.png"",""time"":411},{""stimulus"":""img/3to1/5.png"",""time"":504},{""stimulus"":""img/3to1/6.png"",""time"":611},{""stimulus"":""img/3to1/7.png"",""time"":703},{""stimulus"":""img/3to1/8.png"",""time"":802},{""stimulus"":""img/3to1/9.png"",""time"":905},{""stimulus"":""img/3to1/10.png"",""time"":1005},{""stimulus"":""img/3to1/11.png"",""time"":1104},{""stimulus"":""img/3to1/12.png"",""time"":1191}]","[]"
"image-keyboard-response","11","108485","0.0-5.0-1.3","60d2d061fd054556769ca306","bdp_cybrbll","Sun Mar 26 2023 10:45:32 GMT-0400 (Eastern Daylight Time)","513168","3","1","","","","observe","","","null","","img/1to3/1.png","null","222","1062","0.5","0.5","1","2","",""
"animation","12","109773","0.0-5.0-2.3","60d2d061fd054556769ca306","bdp_cybrbll","Sun Mar 26 2023 10:45:32 GMT-0400 (Eastern Daylight Time)","513168","3","1","","","","","","","","","","","222","","","","1","2","[{""stimulus"":""img/1to2/1.png"",""time"":112},{""stimulus"":""img/1to2/2.png"",""time"":213},{""stimulus"":""img/1to2/3.png"",""time"":314},{""stimulus"":""img/1to2/4.png"",""time"":398},{""stimulus"":""img/1to2/5.png"",""time"":498},{""stimulus"":""img/1to2/6.png"",""time"":608},{""stimulus"":""img/1to2/7.png"",""time"":700},{""stimulus"":""img/1to2/8.png"",""time"":795},{""stimulus"":""img/1to2/9.png"",""time"":894},{""stimulus"":""img/1to2/10.png"",""time"":993},{""stimulus"":""img/1to2/11.png"",""time"":1102},{""stimulus"":""img/1to2/12.png"",""time"":1204}]","[]"
"image-keyboard-response","13","110445","0.0-5.0-1.4","60d2d061fd054556769ca306","bdp_cybrbll","Sun Mar 26 2023 10:45:32 GMT-0400 (Eastern Daylight Time)","513168","3","1","","","","choice","","","671","","img/2to1/1.png","2","221","292","0.5","0.5","2","3","",""
"animation","14","111734","0.0-5.0-2.4","60d2d061fd054556769ca306","bdp_cybrbll","Sun Mar 26 2023 10:45:32 GMT-0400 (Eastern Daylight Time)","513168","3","1","","","","","","","","","","","221","","","","2","3","[{""stimulus"":""img/2to3/1.png"",""time"":102},{""stimulus"":""img/2to3/2.png"",""time"":203},{""stimulus"":""img/2to3/3.png"",""time"":304},{""stimulus"":""img/2to3/4.png"",""time"":404},{""stimulus"":""img/2to3/5.png"",""time"":504},{""stimulus"":""img/2to3/6.png"",""time"":598},{""stimulus"":""img/2to3/7.png"",""time"":694},{""stimulus"":""img/2to3/8.png"",""time"":796},{""stimulus"":""img/2to3/9.png"",""time"":897},{""stimulus"":""img/2to3/10.png"",""time"":993},{""stimulus"":""img/2to3/11.png"",""time"":1096},{""stimulus"":""img/2to3/12.png"",""time"":1196}]","[]"
"image-keyboard-response","15","112729","0.0-5.0-1.5","60d2d061fd054556769ca306","bdp_cybrbll","Sun Mar 26 2023 10:45:32 GMT-0400 (Eastern Daylight Time)","513168","3","1","","","","observe","","","null","","img/3to2/1.png","null","220","979","0.5","0.5","3","2","",""
"animation","16","114025","0.0-5.0-2.5","60d2d061fd054556769ca306","bdp_cybrbll","Sun Mar 26 2023 10:45:32 GMT-0400 (Eastern Daylight Time)","513168","3","1","","","","","","","","","","","220","","","","3","2","[{""stimulus"":""img/3to2/1.png"",""time"":111},{""stimulus"":""img/3to2/2.png"",""time"":206},{""stimulus"":""img/3to2/3.png"",""time"":302},{""stimulus"":""img/3to2/4.png"",""time"":409},{""stimulus"":""img/3to2/5.png"",""time"":503},{""stimulus"":""img/3to2/6.png"",""time"":595},{""stimulus"":""img/3to2/7.png"",""time"":707},{""stimulus"":""img/3to2/8.png"",""time"":794},{""stimulus"":""img/3to2/9.png"",""time"":902},{""stimulus"":""img/3to2/10.png"",""time"":996},{""stimulus"":""img/3to2/11.png"",""time"":1090},{""stimulus"":""img/3to2/12.png"",""time"":1202}]","[]"
"image-keyboard-response","17","114475","0.0-5.0-1.6","60d2d061fd054556769ca306","bdp_cybrbll","Sun Mar 26 2023 10:45:32 GMT-0400 (Eastern Daylight Time)","513168","3","1","","","","choice","","","449","","img/2to1/1.png","2","219","265","0.5","0.5","2","3","",""
"animation","18","115766","0.0-5.0-2.6","60d2d061fd054556769ca306","bdp_cybrbll","Sun Mar 26 2023 10:45:32 GMT-0400 (Eastern Daylight Time)","513168","3","1","","","","","","","","","","","219","","","","2","3","[{""stimulus"":""img/2to3/1.png"",""time"":101},{""stimulus"":""img/2to3/2.png"",""time"":214},{""stimulus"":""img/2to3/3.png"",""time"":309},{""stimulus"":""img/2to3/4.png"",""time"":404},{""stimulus"":""img/2to3/5.png"",""time"":499},{""stimulus"":""img/2to3/6.png"",""time"":596},{""stimulus"":""img/2to3/7.png"",""time"":702},{""stimulus"":""img/2to3/8.png"",""time"":797},{""stimulus"":""img/2to3/9.png"",""time"":903},{""stimulus"":""img/2to3/10.png"",""time"":997},{""stimulus"":""img/2to3/11.png"",""time"":1103},{""stimulus"":""img/2to3/12.png"",""time"":1199}]","[]"
"image-keyboard-response","19","116222","0.0-5.0-1.7","60d2d061fd054556769ca306","bdp_cybrbll","Sun Mar 26 2023 10:45:32 GMT-0400 (Eastern Daylight Time)","513168","3","1","","","","observe","","","null","","img/3to2/1.png","null","218","453","0.5","0.5","3","1","",""
"animation","20","117518","0.0-5.0-2.7","60d2d061fd054556769ca306","bdp_cybrbll","Sun Mar 26 2023 10:45:32 GMT-0400 (Eastern Daylight Time)","513168","3","1","","","","","","","","","","","218","","","","3","1","[{""stimulus"":""img/3to1/1.png"",""time"":112},{""stimulus"":""img/3to1/2.png"",""time"":210},{""stimulus"":""img/3to1/3.png"",""time"":313},{""stimulus"":""img/3to1/4.png"",""time"":407},{""stimulus"":""img/3to1/5.png"",""time"":499},{""stimulus"":""img/3to1/6.png"",""time"":600},{""stimulus"":""img/3to1/7.png"",""time"":706},{""stimulus"":""img/3to1/8.png"",""time"":808},{""stimulus"":""img/3to1/9.png"",""time"":905},{""stimulus"":""img/3to1/10.png"",""time"":992},{""stimulus"":""img/3to1/11.png"",""time"":1093},{""stimulus"":""img/3to1/12.png"",""time"":1204}]","[]"
"image-keyboard-response","21","117780","0.0-5.0-1.8","60d2d061fd054556769ca306","bdp_cybrbll","Sun Mar 26 2023 10:45:32 GMT-0400 (Eastern Daylight Time)","513168","3","1","","","","observe","","","null","","img/1to3/1.png","null","217","254","0.5","0.5","1","2","",""
"animation","22","119082","0.0-5.0-2.8","60d2d061fd054556769ca306","bdp_cybrbll","Sun Mar 26 2023 10:45:32 GMT-0400 (Eastern Daylight Time)","513168","3","1","","","","","","","","","","","217","","","","1","2","[{""stimulus"":""img/1to2/1.png"",""time"":111},{""stimulus"":""img/1to2/2.png"",""time"":207},{""stimulus"":""img/1to2/3.png"",""time"":304},{""stimulus"":""img/1to2/4.png"",""time"":397},{""stimulus"":""img/1to2/5.png"",""time"":505},{""stimulus"":""img/1to2/6.png"",""time"":599},{""stimulus"":""img/1to2/7.png"",""time"":695},{""stimulus"":""img/1to2/8.png"",""time"":797},{""stimulus"":""img/1to2/9.png"",""time"":902},{""stimulus"":""img/1to2/10.png"",""time"":1000},{""stimulus"":""img/1to2/11.png"",""time"":1100},{""stimulus"":""img/1to2/12.png"",""time"":1202}]","[]"
"image-keyboard-response","23","119868","0.0-5.0-1.9","60d2d061fd054556769ca306","bdp_cybrbll","Sun Mar 26 2023 10:45:32 GMT-0400 (Eastern Daylight Time)","513168","3","1","","","","choice","","","785","","img/2to1/1.png","1","216","248","0.5","0.5","2","1","",""
"animation","24","121165","0.0-5.0-2.9","60d2d061fd054556769ca306","bdp_cybrbll","Sun Mar 26 2023 10:45:32 GMT-0400 (Eastern Daylight Time)","513168","3","1","","","","","","","","","","","216","","","","2","1","[{""stimulus"":""img/2to1/1.png"",""time"":115},{""stimulus"":""img/2to1/2.png"",""time"":202},{""stimulus"":""img/2to1/3.png"",""time"":301},{""stimulus"":""img/2to1/4.png"",""time"":410},{""stimulus"":""img/2to1/5.png"",""time"":509},{""stimulus"":""img/2to1/6.png"",""time"":608},{""stimulus"":""img/2to1/7.png"",""time"":694},{""stimulus"":""img/2to1/8.png"",""time"":795},{""stimulus"":""img/2to1/9.png"",""time"":896},{""stimulus"":""img/2to1/10.png"",""time"":997},{""stimulus"":""img/2to1/11.png"",""time"":1098},{""stimulus"":""img/2to1/12.png"",""time"":1189}]","[]"
"image-keyboard-response","25","121890","0.0-5.0-1.10","60d2d061fd054556769ca306","bdp_cybrbll","Sun Mar 26 2023 10:45:32 GMT-0400 (Eastern Daylight Time)","513168","3","1","","","","observe","","","null","","img/1to3/1.png","null","215","715","0.5","0.5","1","2","",""
"animation","26","123193","0.0-5.0-2.10","60d2d061fd054556769ca306","bdp_cybrbll","Sun Mar 26 2023 10:45:32 GMT-0400 (Eastern Daylight Time)","513168","3","1","","","","","","","","","","","215","","","","1","2","[{""stimulus"":""img/1to2/1.png"",""time"":112},{""stimulus"":""img/1to2/2.png"",""time"":207},{""stimulus"":""img/1to2/3.png"",""time"":306},{""stimulus"":""img/1to2/4.png"",""time"":407},{""stimulus"":""img/1to2/5.png"",""time"":501},{""stimulus"":""img/1to2/6.png"",""time"":600},{""stimulus"":""img/1to2/7.png"",""time"":701},{""stimulus"":""img/1to2/8.png"",""time"":795},{""stimulus"":""img/1to2/9.png"",""time"":894},{""stimulus"":""img/1to2/10.png"",""time"":1003},{""stimulus"":""img/1to2/11.png"",""time"":1098},{""stimulus"":""img/1to2/12.png"",""time"":1196}]","[]"
"image-keyboard-response","27","123204","0.0-5.0-1.11","60d2d061fd054556769ca306","bdp_cybrbll","Sun Mar 26 2023 10:45:32 GMT-0400 (Eastern Daylight Time)","513168","3","1","","","","choice","","","10","","img/2to1/1.png","1","214","642","0.5","0.5","2","1","",""
"animation","28","124498","0.0-5.0-2.11","60d2d061fd054556769ca306","bdp_cybrbll","Sun Mar 26 2023 10:45:32 GMT-0400 (Eastern Daylight Time)","513168","3","1","","","","","","","","","","","214","","","","2","1","[{""stimulus"":""img/2to1/1.png"",""time"":115},{""stimulus"":""img/2to1/2.png"",""time"":200},{""stimulus"":""img/2to1/3.png"",""time"":309},{""stimulus"":""img/2to1/4.png"",""time"":404},{""stimulus"":""img/2to1/5.png"",""time"":501},{""stimulus"":""img/2to1/6.png"",""time"":594},{""stimulus"":""img/2to1/7.png"",""time"":696},{""stimulus"":""img/2to1/8.png"",""time"":796},{""stimulus"":""img/2to1/9.png"",""time"":899},{""stimulus"":""img/2to1/10.png"",""time"":994},{""stimulus"":""img/2to1/11.png"",""time"":1101},{""stimulus"":""img/2to1/12.png"",""time"":1190}]","[]"
"image-keyboard-response","29","125092","0.0-5.0-1.12","60d2d061fd054556769ca306","bdp_cybrbll","Sun Mar 26 2023 10:45:32 GMT-0400 (Eastern Daylight Time)","513168","3","1","","","","observe","","","null","","img/1to3/1.png","null","213","579","0.5","0.5","1","2","",""
"animation","30","126385","0.0-5.0-2.12","60d2d061fd054556769ca306","bdp_cybrbll","Sun Mar 26 2023 10:45:32 GMT-0400 (Eastern Daylight Time)","513168","3","1","","","","","","","","","","","213","","","","1","2","[{""stimulus"":""img/1to2/1.png"",""time"":108},{""stimulus"":""img/1to2/2.png"",""time"":209},{""stimulus"":""img/1to2/3.png"",""time"":309},{""stimulus"":""img/1to2/4.png"",""time"":402},{""stimulus"":""img/1to2/5.png"",""time"":508},{""stimulus"":""img/1to2/6.png"",""time"":597},{""stimulus"":""img/1to2/7.png"",""time"":704},{""stimulus"":""img/1to2/8.png"",""time"":806},{""stimulus"":""img/1to2/9.png"",""time"":906},{""stimulus"":""img/1to2/10.png"",""time"":998},{""stimulus"":""img/1to2/11.png"",""time"":1105},{""stimulus"":""img/1to2/12.png"",""time"":1200}]","[]"
"image-keyboard-response","31","127227","0.0-5.0-1.13","60d2d061fd054556769ca306","bdp_cybrbll","Sun Mar 26 2023 10:45:32 GMT-0400 (Eastern Daylight Time)","513168","3","1","","","","choice","","","841","","img/2to1/1.png","2","212","620","0.5","0.5","2","3","",""
"animation","32","128523","0.0-5.0-2.13","60d2d061fd054556769ca306","bdp_cybrbll","Sun Mar 26 2023 10:45:32 GMT-0400 (Eastern Daylight Time)","513168","3","1","","","","","","","","","","","212","","","","2","3","[{""stimulus"":""img/2to3/1.png"",""time"":109},{""stimulus"":""img/2to3/2.png"",""time"":204},{""stimulus"":""img/2to3/3.png"",""time"":302},{""stimulus"":""img/2to3/4.png"",""time"":411},{""stimulus"":""img/2to3/5.png"",""time"":505},{""stimulus"":""img/2to3/6.png"",""time"":601},{""stimulus"":""img/2to3/7.png"",""time"":705},{""stimulus"":""img/2to3/8.png"",""time"":799},{""stimulus"":""img/2to3/9.png"",""time"":906},{""stimulus"":""img/2to3/10.png"",""time"":1002},{""stimulus"":""img/2to3/11.png"",""time"":1104},{""stimulus"":""img/2to3/12.png"",""time"":1193}]","[]"
"image-keyboard-response","33","129701","0.0-5.0-1.14","60d2d061fd054556769ca306","bdp_cybrbll","Sun Mar 26 2023 10:45:32 GMT-0400 (Eastern Daylight Time)","513168","3","1","","","","observe","","","null","","img/3to2/1.png","null","211","1175","0.5","0.5","3","1","",""
"animation","34","130998","0.0-5.0-2.14","60d2d061fd054556769ca306","bdp_cybrbll","Sun Mar 26 2023 10:45:32 GMT-0400 (Eastern Daylight Time)","513168","3","1","","","","","","","","","","","211","","","","3","1","[{""stimulus"":""img/3to1/1.png"",""time"":112},{""stimulus"":""img/3to1/2.png"",""time"":208},{""stimulus"":""img/3to1/3.png"",""time"":305},{""stimulus"":""img/3to1/4.png"",""time"":398},{""stimulus"":""img/3to1/5.png"",""time"":507},{""stimulus"":""img/3to1/6.png"",""time"":607},{""stimulus"":""img/3to1/7.png"",""time"":701},{""stimulus"":""img/3to1/8.png"",""time"":795},{""stimulus"":""img/3to1/9.png"",""time"":894},{""stimulus"":""img/3to1/10.png"",""time"":1004},{""stimulus"":""img/3to1/11.png"",""time"":1105},{""stimulus"":""img/3to1/12.png"",""time"":1197}]","[]"
"image-keyboard-response","35","131682","0.0-5.0-1.15","60d2d061fd054556769ca306","bdp_cybrbll","Sun Mar 26 2023 10:45:32 GMT-0400 (Eastern Daylight Time)","513168","3","1","","","","observe","","","null","","img/1to3/1.png","null","210","679","0.5","0.5","1","2","",""
"animation","36","132985","0.0-5.0-2.15","60d2d061fd054556769ca306","bdp_cybrbll","Sun Mar 26 2023 10:45:32 GMT-0400 (Eastern Daylight Time)","513168","3","1","","","","","","","","","","","210","","","","1","2","[{""stimulus"":""img/1to2/1.png"",""time"":111},{""stimulus"":""img/1to2/2.png"",""time"":206},{""stimulus"":""img/1to2/3.png"",""time"":314},{""stimulus"":""img/1to2/4.png"",""time"":407},{""stimulus"":""img/1to2/5.png"",""time"":505},{""stimulus"":""img/1to2/6.png"",""time"":599},{""stimulus"":""img/1to2/7.png"",""time"":699},{""stimulus"":""img/1to2/8.png"",""time"":800},{""stimulus"":""img/1to2/9.png"",""time"":897},{""stimulus"":""img/1to2/10.png"",""time"":1004},{""stimulus"":""img/1to2/11.png"",""time"":1093},{""stimulus"":""img/1to2/12.png"",""time"":1204}]","[]"
"image-keyboard-response","37","133032","0.0-5.0-1.16","60d2d061fd054556769ca306","bdp_cybrbll","Sun Mar 26 2023 10:45:32 GMT-0400 (Eastern Daylight Time)","513168","3","1","","","","choice","","","45","","img/2to1/1.png","2","209","443","0.5","0.5","2","3","",""
"animation","38","134325","0.0-5.0-2.16","60d2d061fd054556769ca306","bdp_cybrbll","Sun Mar 26 2023 10:45:32 GMT-0400 (Eastern Daylight Time)","513168","3","1","","","","","","","","","","","209","","","","2","3","[{""stimulus"":""img/2to3/1.png"",""time"":101},{""stimulus"":""img/2to3/2.png"",""time"":200},{""stimulus"":""img/2to3/3.png"",""time"":301},{""stimulus"":""img/2to3/4.png"",""time"":412},{""stimulus"":""img/2to3/5.png"",""time"":509},{""stimulus"":""img/2to3/6.png"",""time"":605},{""stimulus"":""img/2to3/7.png"",""time"":704},{""stimulus"":""img/2to3/8.png"",""time"":801},{""stimulus"":""img/2to3/9.png"",""time"":901},{""stimulus"":""img/2to3/10.png"",""time"":1000},{""stimulus"":""img/2to3/11.png"",""time"":1094},{""stimulus"":""img/2to3/12.png"",""time"":1194}]","[]"
"image-keyboard-response","39","134622","0.0-5.0-1.17","60d2d061fd054556769ca306","bdp_cybrbll","Sun Mar 26 2023 10:45:32 GMT-0400 (Eastern Daylight Time)","513168","3","1","","","","observe","","","null","","img/3to2/1.png","null","208","291","0.5","0.5","3","1","",""
"animation","40","135911","0.0-5.0-2.17","60d2d061fd054556769ca306","bdp_cybrbll","Sun Mar 26 2023 10:45:32 GMT-0400 (Eastern Daylight Time)","513168","3","1","","","","","","","","","","","208","","","","3","1","[{""stimulus"":""img/3to1/1.png"",""time"":109},{""stimulus"":""img/3to1/2.png"",""time"":209},{""stimulus"":""img/3to1/3.png"",""time"":307},{""stimulus"":""img/3to1/4.png"",""time"":403},{""stimulus"":""img/3to1/5.png"",""time"":496},{""stimulus"":""img/3to1/6.png"",""time"":595},{""stimulus"":""img/3to1/7.png"",""time"":697},{""stimulus"":""img/3to1/8.png"",""time"":807},{""stimulus"":""img/3to1/9.png"",""time"":907},{""stimulus"":""img/3to1/10.png"",""time"":992},{""stimulus"":""img/3to1/11.png"",""time"":1101},{""stimulus"":""img/3to1/12.png"",""time"":1196}]","[]"
"image-keyboard-response","41","136084","0.0-5.0-1.18","60d2d061fd054556769ca306","bdp_cybrbll","Sun Mar 26 2023 10:45:32 GMT-0400 (Eastern Daylight Time)","513168","3","1","","","","observe","","","null","","img/1to3/1.png","null","207","162","0.5","0.5","1","3","",""
"animation","42","137383","0.0-5.0-2.18","60d2d061fd054556769ca306","bdp_cybrbll","Sun Mar 26 2023 10:45:32 GMT-0400 (Eastern Daylight Time)","513168","3","1","","","","","","","","","","","207","","","","1","3","[{""stimulus"":""img/1to3/1.png"",""time"":110},{""stimulus"":""img/1to3/2.png"",""time"":207},{""stimulus"":""img/1to3/3.png"",""time"":305},{""stimulus"":""img/1to3/4.png"",""time"":404},{""stimulus"":""img/1to3/5.png"",""time"":499},{""stimulus"":""img/1to3/6.png"",""time"":598},{""stimulus"":""img/1to3/7.png"",""time"":708},{""stimulus"":""img/1to3/8.png"",""time"":804},{""stimulus"":""img/1to3/9.png"",""time"":894},{""stimulus"":""img/1to3/10.png"",""time"":1004},{""stimulus"":""img/1to3/11.png"",""time"":1091},{""stimulus"":""img/1to3/12.png"",""time"":1197}]","[]"
"image-keyboard-response","43","138037","0.0-5.0-1.19","60d2d061fd054556769ca306","bdp_cybrbll","Sun Mar 26 2023 10:45:32 GMT-0400 (Eastern Daylight Time)","513168","3","1","","","","observe","","","null","","img/3to2/1.png","null","206","637","0.5","0.5","3","1","",""
"animation","44","139335","0.0-5.0-2.19","60d2d061fd054556769ca306","bdp_cybrbll","Sun Mar 26 2023 10:45:32 GMT-0400 (Eastern Daylight Time)","513168","3","1","","","","","","","","","","","206","","","","3","1","[{""stimulus"":""img/3to1/1.png"",""time"":109},{""stimulus"":""img/3to1/2.png"",""time"":204},{""stimulus"":""img/3to1/3.png"",""time"":310},{""stimulus"":""img/3to1/4.png"",""time"":411},{""stimulus"":""img/3to1/5.png"",""time"":497},{""stimulus"":""img/3to1/6.png"",""time"":599},{""stimulus"":""img/3to1/7.png"",""time"":699},{""stimulus"":""img/3to1/8.png"",""time"":808},{""stimulus"":""img/3to1/9.png"",""time"":902},{""stimulus"":""img/3to1/10.png"",""time"":993},{""stimulus"":""img/3to1/11.png"",""time"":1102},{""stimulus"":""img/3to1/12.png"",""time"":1205}]","[]"
"image-keyboard-response","45","140019","0.0-5.0-1.20","60d2d061fd054556769ca306","bdp_cybrbll","Sun Mar 26 2023 10:45:32 GMT-0400 (Eastern Daylight Time)","513168","3","1","","","","observe","","","null","","img/1to3/1.png","null","205","671","0.5","0.5","1","3","",""
"animation","46","141324","0.0-5.0-2.20","60d2d061fd054556769ca306","bdp_cybrbll","Sun Mar 26 2023 10:45:32 GMT-0400 (Eastern Daylight Time)","513168","3","1","","","","","","","","","","","205","","","","1","3","[{""stimulus"":""img/1to3/1.png"",""time"":110},{""stimulus"":""img/1to3/2.png"",""time"":208},{""stimulus"":""img/1to3/3.png"",""time"":312},{""stimulus"":""img/1to3/4.png"",""time"":404},{""stimulus"":""img/1to3/5.png"",""time"":498},{""stimulus"":""img/1to3/6.png"",""time"":597},{""stimulus"":""img/1to3/7.png"",""time"":706},{""stimulus"":""img/1to3/8.png"",""time"":793},{""stimulus"":""img/1to3/9.png"",""time"":893},{""stimulus"":""img/1to3/10.png"",""time"":1001},{""stimulus"":""img/1to3/11.png"",""time"":1094},{""stimulus"":""img/1to3/12.png"",""time"":1194}]","[]"
"image-keyboard-response","47","142447","0.0-5.0-1.21","60d2d061fd054556769ca306","bdp_cybrbll","Sun Mar 26 2023 10:45:32 GMT-0400 (Eastern Daylight Time)","513168","3","1","","","","observe","","","null","","img/3to2/1.png","null","204","1108","0.5","0.5","3","2","",""
"animation","48","143737","0.0-5.0-2.21","60d2d061fd054556769ca306","bdp_cybrbll","Sun Mar 26 2023 10:45:32 GMT-0400 (Eastern Daylight Time)","513168","3","1","","","","","","","","","","","204","","","","3","2","[{""stimulus"":""img/3to2/1.png"",""time"":109},{""stimulus"":""img/3to2/2.png"",""time"":205},{""stimulus"":""img/3to2/3.png"",""time"":311},{""stimulus"":""img/3to2/4.png"",""time"":405},{""stimulus"":""img/3to2/5.png"",""time"":508},{""stimulus"":""img/3to2/6.png"",""time"":607},{""stimulus"":""img/3to2/7.png"",""time"":708},{""stimulus"":""img/3to2/8.png"",""time"":807},{""stimulus"":""img/3to2/9.png"",""time"":893},{""stimulus"":""img/3to2/10.png"",""time"":994},{""stimulus"":""img/3to2/11.png"",""time"":1095},{""stimulus"":""img/3to2/12.png"",""time"":1196}]","[]"
"image-keyboard-response","49","144264","0.0-5.0-1.22","60d2d061fd054556769ca306","bdp_cybrbll","Sun Mar 26 2023 10:45:32 GMT-0400 (Eastern Daylight Time)","513168","3","1","","","","choice","","","526","","img/2to1/1.png","2","203","573","0.5","0.5","2","3","",""
"animation","50","145567","0.0-5.0-2.22","60d2d061fd054556769ca306","bdp_cybrbll","Sun Mar 26 2023 10:45:32 GMT-0400 (Eastern Daylight Time)","513168","3","1","","","","","","","","","","","203","","","","2","3","[{""stimulus"":""img/2to3/1.png"",""time"":102},{""stimulus"":""img/2to3/2.png"",""time"":213},{""stimulus"":""img/2to3/3.png"",""time"":311},{""stimulus"":""img/2to3/4.png"",""time"":397},{""stimulus"":""img/2to3/5.png"",""time"":501},{""stimulus"":""img/2to3/6.png"",""time"":602},{""stimulus"":""img/2to3/7.png"",""time"":708},{""stimulus"":""img/2to3/8.png"",""time"":801},{""stimulus"":""img/2to3/9.png"",""time"":894},{""stimulus"":""img/2to3/10.png"",""time"":994},{""stimulus"":""img/2to3/11.png"",""time"":1105},{""stimulus"":""img/2to3/12.png"",""time"":1203}]","[]"
"image-keyboard-response","51","145727","0.0-5.0-1.23","60d2d061fd054556769ca306","bdp_cybrbll","Sun Mar 26 2023 10:45:32 GMT-0400 (Eastern Daylight Time)","513168","3","1","","","","observe","","","null","","img/3to2/1.png","null","202","149","0.5","0.5","3","1","",""
"animation","52","147030","0.0-5.0-2.23","60d2d061fd054556769ca306","bdp_cybrbll","Sun Mar 26 2023 10:45:32 GMT-0400 (Eastern Daylight Time)","513168","3","1","","","","","","","","","","","202","","","","3","1","[{""stimulus"":""img/3to1/1.png"",""time"":110},{""stimulus"":""img/3to1/2.png"",""time"":203},{""stimulus"":""img/3to1/3.png"",""time"":303},{""stimulus"":""img/3to1/4.png"",""time"":412},{""stimulus"":""img/3to1/5.png"",""time"":506},{""stimulus"":""img/3to1/6.png"",""time"":605},{""stimulus"":""img/3to1/7.png"",""time"":699},{""stimulus"":""img/3to1/8.png"",""time"":800},{""stimulus"":""img/3to1/9.png"",""time"":895},{""stimulus"":""img/3to1/10.png"",""time"":1002},{""stimulus"":""img/3to1/11.png"",""time"":1090},{""stimulus"":""img/3to1/12.png"",""time"":1199}]","[]"
"image-keyboard-response","53","147890","0.0-5.0-1.24","60d2d061fd054556769ca306","bdp_cybrbll","Sun Mar 26 2023 10:45:32 GMT-0400 (Eastern Daylight Time)","513168","3","1","","","","observe","","","null","","img/1to3/1.png","null","201","853","0.5","0.5","1","2","",""
"animation","54","149181","0.0-5.0-2.24","60d2d061fd054556769ca306","bdp_cybrbll","Sun Mar 26 2023 10:45:32 GMT-0400 (Eastern Daylight Time)","513168","3","1","","","","","","","","","","","201","","","","1","2","[{""stimulus"":""img/1to2/1.png"",""time"":109},{""stimulus"":""img/1to2/2.png"",""time"":214},{""stimulus"":""img/1to2/3.png"",""time"":304},{""stimulus"":""img/1to2/4.png"",""time"":410},{""stimulus"":""img/1to2/5.png"",""time"":496},{""stimulus"":""img/1to2/6.png"",""time"":597},{""stimulus"":""img/1to2/7.png"",""time"":701},{""stimulus"":""img/1to2/8.png"",""time"":802},{""stimulus"":""img/1to2/9.png"",""time"":898},{""stimulus"":""img/1to2/10.png"",""time"":996},{""stimulus"":""img/1to2/11.png"",""time"":1091},{""stimulus"":""img/1to2/12.png"",""time"":1197}]","[]"
"image-keyboard-response","55","149316","0.0-5.0-1.25","60d2d061fd054556769ca306","bdp_cybrbll","Sun Mar 26 2023 10:45:32 GMT-0400 (Eastern Daylight Time)","513168","3","1","","","","choice","","","135","","img/2to1/1.png","2","200","819","0.5","0.5","2","3","",""
"animation","56","150609","0.0-5.0-2.25","60d2d061fd054556769ca306","bdp_cybrbll","Sun Mar 26 2023 10:45:32 GMT-0400 (Eastern Daylight Time)","513168","3","1","","","","","","","","","","","200","","","","2","3","[{""stimulus"":""img/2to3/1.png"",""time"":108},{""stimulus"":""img/2to3/2.png"",""time"":204},{""stimulus"":""img/2to3/3.png"",""time"":309},{""stimulus"":""img/2to3/4.png"",""time"":409},{""stimulus"":""img/2to3/5.png"",""time"":505},{""stimulus"":""img/2to3/6.png"",""time"":603},{""stimulus"":""img/2to3/7.png"",""time"":703},{""stimulus"":""img/2to3/8.png"",""time"":797},{""stimulus"":""img/2to3/9.png"",""time"":895},{""stimulus"":""img/2to3/10.png"",""time"":1004},{""stimulus"":""img/2to3/11.png"",""time"":1098},{""stimulus"":""img/2to3/12.png"",""time"":1197}]","[]"
"image-keyboard-response","57","150869","0.0-5.0-1.26","60d2d061fd054556769ca306","bdp_cybrbll","Sun Mar 26 2023 10:45:32 GMT-0400 (Eastern Daylight Time)","513168","3","1","","","","observe","","","null","","img/3to2/1.png","null","199","250","0.5","0.5","3","2","",""
"animation","58","152164","0.0-5.0-2.26","60d2d061fd054556769ca306","bdp_cybrbll","Sun Mar 26 2023 10:45:32 GMT-0400 (Eastern Daylight Time)","513168","3","1","","","","","","","","","","","199","","","","3","2","[{""stimulus"":""img/3to2/1.png"",""time"":110},{""stimulus"":""img/3to2/2.png"",""time"":211},{""stimulus"":""img/3to2/3.png"",""time"":304},{""stimulus"":""img/3to2/4.png"",""time"":403},{""stimulus"":""img/3to2/5.png"",""time"":497},{""stimulus"":""img/3to2/6.png"",""time"":604},{""stimulus"":""img/3to2/7.png"",""time"":699},{""stimulus"":""img/3to2/8.png"",""time"":808},{""stimulus"":""img/3to2/9.png"",""time"":894},{""stimulus"":""img/3to2/10.png"",""time"":1000},{""stimulus"":""img/3to2/11.png"",""time"":1102},{""stimulus"":""img/3to2/12.png"",""time"":1205}]","[]"
"image-keyboard-response","59","152443","0.0-5.0-1.27","60d2d061fd054556769ca306","bdp_cybrbll","Sun Mar 26 2023 10:45:32 GMT-0400 (Eastern Daylight Time)","513168","3","1","","","","choice","","","277","","img/2to1/1.png","1","198","556","0.5","0.5","2","1","",""
"animation","60","153742","0.0-5.0-2.27","60d2d061fd054556769ca306","bdp_cybrbll","Sun Mar 26 2023 10:45:32 GMT-0400 (Eastern Daylight Time)","513168","3","1","","","","","","","","","","","198","","","","2","1","[{""stimulus"":""img/2to1/1.png"",""time"":109},{""stimulus"":""img/2to1/2.png"",""time"":205},{""stimulus"":""img/2to1/3.png"",""time"":311},{""stimulus"":""img/2to1/4.png"",""time"":400},{""stimulus"":""img/2to1/5.png"",""time"":502},{""stimulus"":""img/2to1/6.png"",""time"":605},{""stimulus"":""img/2to1/7.png"",""time"":693},{""stimulus"":""img/2to1/8.png"",""time"":803},{""stimulus"":""img/2to1/9.png"",""time"":895},{""stimulus"":""img/2to1/10.png"",""time"":1001},{""stimulus"":""img/2to1/11.png"",""time"":1098},{""stimulus"":""img/2to1/12.png"",""time"":1203}]","[]"
"image-keyboard-response","61","154356","0.0-5.0-1.28","60d2d061fd054556769ca306","bdp_cybrbll","Sun Mar 26 2023 10:45:32 GMT-0400 (Eastern Daylight Time)","513168","3","1","","","","observe","","","null","","img/1to3/1.png","null","197","598","0.5","0.5","1","3","",""
"animation","62","155654","0.0-5.0-2.28","60d2d061fd054556769ca306","bdp_cybrbll","Sun Mar 26 2023 10:45:32 GMT-0400 (Eastern Daylight Time)","513168","3","1","","","","","","","","","","","197","","","","1","3","[{""stimulus"":""img/1to3/1.png"",""time"":113},{""stimulus"":""img/1to3/2.png"",""time"":215},{""stimulus"":""img/1to3/3.png"",""time"":306},{""stimulus"":""img/1to3/4.png"",""time"":396},{""stimulus"":""img/1to3/5.png"",""time"":499},{""stimulus"":""img/1to3/6.png"",""time"":607},{""stimulus"":""img/1to3/7.png"",""time"":698},{""stimulus"":""img/1to3/8.png"",""time"":795},{""stimulus"":""img/1to3/9.png"",""time"":906},{""stimulus"":""img/1to3/10.png"",""time"":999},{""stimulus"":""img/1to3/11.png"",""time"":1101},{""stimulus"":""img/1to3/12.png"",""time"":1201}]","[]"
"image-keyboard-response","63","155905","0.0-5.0-1.29","60d2d061fd054556769ca306","bdp_cybrbll","Sun Mar 26 2023 10:45:32 GMT-0400 (Eastern Daylight Time)","513168","3","1","","","","observe","","","null","","img/3to2/1.png","null","196","235","0.5","0.5","3","2","",""
"animation","64","157207","0.0-5.0-2.29","60d2d061fd054556769ca306","bdp_cybrbll","Sun Mar 26 2023 10:45:32 GMT-0400 (Eastern Daylight Time)","513168","3","1","","","","","","","","","","","196","","","","3","2","[{""stimulus"":""img/3to2/1.png"",""time"":101},{""stimulus"":""img/3to2/2.png"",""time"":212},{""stimulus"":""img/3to2/3.png"",""time"":311},{""stimulus"":""img/3to2/4.png"",""time"":403},{""stimulus"":""img/3to2/5.png"",""time"":506},{""stimulus"":""img/3to2/6.png"",""time"":608},{""stimulus"":""img/3to2/7.png"",""time"":709},{""stimulus"":""img/3to2/8.png"",""time"":806},{""stimulus"":""img/3to2/9.png"",""time"":902},{""stimulus"":""img/3to2/10.png"",""time"":995},{""stimulus"":""img/3to2/11.png"",""time"":1105},{""stimulus"":""img/3to2/12.png"",""time"":1198}]","[]"
"image-keyboard-response","65","157218","0.0-5.0-1.30","60d2d061fd054556769ca306","bdp_cybrbll","Sun Mar 26 2023 10:45:32 GMT-0400 (Eastern Daylight Time)","513168","3","1","","","","choice","","","10","","img/2to1/1.png","2","195","276","0.5","0.5","2","3","",""
"animation","66","158524","0.0-5.0-2.30","60d2d061fd054556769ca306","bdp_cybrbll","Sun Mar 26 2023 10:45:32 GMT-0400 (Eastern Daylight Time)","513168","3","1","","","","","","","","","","","195","","","","2","3","[{""stimulus"":""img/2to3/1.png"",""time"":102},{""stimulus"":""img/2to3/2.png"",""time"":208},{""stimulus"":""img/2to3/3.png"",""time"":303},{""stimulus"":""img/2to3/4.png"",""time"":398},{""stimulus"":""img/2to3/5.png"",""time"":502},{""stimulus"":""img/2to3/6.png"",""time"":597},{""stimulus"":""img/2to3/7.png"",""time"":698},{""stimulus"":""img/2to3/8.png"",""time"":810},{""stimulus"":""img/2to3/9.png"",""time"":902},{""stimulus"":""img/2to3/10.png"",""time"":1013},{""stimulus"":""img/2to3/11.png"",""time"":1107},{""stimulus"":""img/2to3/12.png"",""time"":1200}]","[]"
"image-keyboard-response","67","158833","0.0-5.0-1.31","60d2d061fd054556769ca306","bdp_cybrbll","Sun Mar 26 2023 10:45:32 GMT-0400 (Eastern Daylight Time)","513168","3","1","","","","observe","","","null","","img/3to2/1.png","null","194","298","0.5","0.5","3","1","",""
"animation","68","160128","0.0-5.0-2.31","60d2d061fd054556769ca306","bdp_cybrbll","Sun Mar 26 2023 10:45:32 GMT-0400 (Eastern Daylight Time)","513168","3","1","","","","","","","","","","","194","","","","3","1","[{""stimulus"":""img/3to1/1.png"",""time"":111},{""stimulus"":""img/3to1/2.png"",""time"":205},{""stimulus"":""img/3to1/3.png"",""time"":298},{""stimulus"":""img/3to1/4.png"",""time"":398},{""stimulus"":""img/3to1/5.png"",""time"":508},{""stimulus"":""img/3to1/6.png"",""time"":606},{""stimulus"":""img/3to1/7.png"",""time"":700},{""stimulus"":""img/3to1/8.png"",""time"":805},{""stimulus"":""img/3to1/9.png"",""time"":896},{""stimulus"":""img/3to1/10.png"",""time"":1002},{""stimulus"":""img/3to1/11.png"",""time"":1095},{""stimulus"":""img/3to1/12.png"",""time"":1194}]","[]"
"image-keyboard-response","69","160630","0.0-5.0-1.32","60d2d061fd054556769ca306","bdp_cybrbll","Sun Mar 26 2023 10:45:32 GMT-0400 (Eastern Daylight Time)","513168","3","1","","","","observe","","","null","","img/1to3/1.png","null","193","493","0.5","0.5","1","2","",""
"animation","70","161932","0.0-5.0-2.32","60d2d061fd054556769ca306","bdp_cybrbll","Sun Mar 26 2023 10:45:32 GMT-0400 (Eastern Daylight Time)","513168","3","1","","","","","","","","","","","193","","","","1","2","[{""stimulus"":""img/1to2/1.png"",""time"":111},{""stimulus"":""img/1to2/2.png"",""time"":207},{""stimulus"":""img/1to2/3.png"",""time"":312},{""stimulus"":""img/1to2/4.png"",""time"":405},{""stimulus"":""img/1to2/5.png"",""time"":508},{""stimulus"":""img/1to2/6.png"",""time"":599},{""stimulus"":""img/1to2/7.png"",""time"":699},{""stimulus"":""img/1to2/8.png"",""time"":808},{""stimulus"":""img/1to2/9.png"",""time"":904},{""stimulus"":""img/1to2/10.png"",""time"":992},{""stimulus"":""img/1to2/11.png"",""time"":1096},{""stimulus"":""img/1to2/12.png"",""time"":1197}]","[]"
"image-keyboard-response","71","162413","0.0-5.0-1.33","60d2d061fd054556769ca306","bdp_cybrbll","Sun Mar 26 2023 10:45:32 GMT-0400 (Eastern Daylight Time)","513168","3","1","","","","choice","","","480","","img/2to1/1.png","1","192","385","0.5","0.5","2","1","",""
"animation","72","163704","0.0-5.0-2.33","60d2d061fd054556769ca306","bdp_cybrbll","Sun Mar 26 2023 10:45:32 GMT-0400 (Eastern Daylight Time)","513168","3","1","","","","","","","","","","","192","","","","2","1","[{""stimulus"":""img/2to1/1.png"",""time"":111},{""stimulus"":""img/2to1/2.png"",""time"":207},{""stimulus"":""img/2to1/3.png"",""time"":312},{""stimulus"":""img/2to1/4.png"",""time"":411},{""stimulus"":""img/2to1/5.png"",""time"":497},{""stimulus"":""img/2to1/6.png"",""time"":600},{""stimulus"":""img/2to1/7.png"",""time"":695},{""stimulus"":""img/2to1/8.png"",""time"":805},{""stimulus"":""img/2to1/9.png"",""time"":897},{""stimulus"":""img/2to1/10.png"",""time"":993},{""stimulus"":""img/2to1/11.png"",""time"":1098},{""stimulus"":""img/2to1/12.png"",""time"":1201}]","[]"
"image-keyboard-response","73","164073","0.0-5.0-1.34","60d2d061fd054556769ca306","bdp_cybrbll","Sun Mar 26 2023 10:45:32 GMT-0400 (Eastern Daylight Time)","513168","3","1","","","","observe","","","null","","img/1to3/1.png","null","191","359","0.5","0.5","1","2","",""
"animation","74","165368","0.0-5.0-2.34","60d2d061fd054556769ca306","bdp_cybrbll","Sun Mar 26 2023 10:45:32 GMT-0400 (Eastern Daylight Time)","513168","3","1","","","","","","","","","","","191","","","","1","2","[{""stimulus"":""img/1to2/1.png"",""time"":111},{""stimulus"":""img/1to2/2.png"",""time"":206},{""stimulus"":""img/1to2/3.png"",""time"":303},{""stimulus"":""img/1to2/4.png"",""time"":412},{""stimulus"":""img/1to2/5.png"",""time"":506},{""stimulus"":""img/1to2/6.png"",""time"":598},{""stimulus"":""img/1to2/7.png"",""time"":700},{""stimulus"":""img/1to2/8.png"",""time"":794},{""stimulus"":""img/1to2/9.png"",""time"":902},{""stimulus"":""img/1to2/10.png"",""time"":1002},{""stimulus"":""img/1to2/11.png"",""time"":1091},{""stimulus"":""img/1to2/12.png"",""time"":1202}]","[]"
"image-keyboard-response","75","165479","0.0-5.0-1.35","60d2d061fd054556769ca306","bdp_cybrbll","Sun Mar 26 2023 10:45:32 GMT-0400 (Eastern Daylight Time)","513168","3","1","","","","choice","","","110","","img/2to1/1.png","2","190","496","0.5","0.5","2","3","",""
"animation","76","166781","0.0-5.0-2.35","60d2d061fd054556769ca306","bdp_cybrbll","Sun Mar 26 2023 10:45:32 GMT-0400 (Eastern Daylight Time)","513168","3","1","","","","","","","","","","","190","","","","2","3","[{""stimulus"":""img/2to3/1.png"",""time"":108},{""stimulus"":""img/2to3/2.png"",""time"":210},{""stimulus"":""img/2to3/3.png"",""time"":308},{""stimulus"":""img/2to3/4.png"",""time"":402},{""stimulus"":""img/2to3/5.png"",""time"":509},{""stimulus"":""img/2to3/6.png"",""time"":609},{""stimulus"":""img/2to3/7.png"",""time"":703},{""stimulus"":""img/2to3/8.png"",""time"":801},{""stimulus"":""img/2to3/9.png"",""time"":897},{""stimulus"":""img/2to3/10.png"",""time"":991},{""stimulus"":""img/2to3/11.png"",""time"":1089},{""stimulus"":""img/2to3/12.png"",""time"":1191}]","[]"
"image-keyboard-response","77","166961","0.0-5.0-1.36","60d2d061fd054556769ca306","bdp_cybrbll","Sun Mar 26 2023 10:45:32 GMT-0400 (Eastern Daylight Time)","513168","3","1","","","","observe","","","null","","img/3to2/1.png","null","189","165","0.5","0.5","3","1","",""
"animation","78","168255","0.0-5.0-2.36","60d2d061fd054556769ca306","bdp_cybrbll","Sun Mar 26 2023 10:45:32 GMT-0400 (Eastern Daylight Time)","513168","3","1","","","","","","","","","","","189","","","","3","1","[{""stimulus"":""img/3to1/1.png"",""time"":109},{""stimulus"":""img/3to1/2.png"",""time"":201},{""stimulus"":""img/3to1/3.png"",""time"":312},{""stimulus"":""img/3to1/4.png"",""time"":411},{""stimulus"":""img/3to1/5.png"",""time"":496},{""stimulus"":""img/3to1/6.png"",""time"":599},{""stimulus"":""img/3to1/7.png"",""time"":699},{""stimulus"":""img/3to1/8.png"",""time"":799},{""stimulus"":""img/3to1/9.png"",""time"":907},{""stimulus"":""img/3to1/10.png"",""time"":996},{""stimulus"":""img/3to1/11.png"",""time"":1099},{""stimulus"":""img/3to1/12.png"",""time"":1193}]","[]"
"image-keyboard-response","79","168845","0.0-5.0-1.37","60d2d061fd054556769ca306","bdp_cybrbll","Sun Mar 26 2023 10:45:32 GMT-0400 (Eastern Daylight Time)","513168","3","1","","","","observe","","","null","","img/1to3/1.png","null","188","585","0.5","0.5","1","2","",""
"animation","80","170142","0.0-5.0-2.37","60d2d061fd054556769ca306","bdp_cybrbll","Sun Mar 26 2023 10:45:32 GMT-0400 (Eastern Daylight Time)","513168","3","1","","","","","","","","","","","188","","","","1","2","[{""stimulus"":""img/1to2/1.png"",""time"":112},{""stimulus"":""img/1to2/2.png"",""time"":202},{""stimulus"":""img/1to2/3.png"",""time"":301},{""stimulus"":""img/1to2/4.png"",""time"":407},{""stimulus"":""img/1to2/5.png"",""time"":509},{""stimulus"":""img/1to2/6.png"",""time"":602},{""stimulus"":""img/1to2/7.png"",""time"":700},{""stimulus"":""img/1to2/8.png"",""time"":802},{""stimulus"":""img/1to2/9.png"",""time"":899},{""stimulus"":""img/1to2/10.png"",""time"":1004},{""stimulus"":""img/1to2/11.png"",""time"":1090},{""stimulus"":""img/1to2/12.png"",""time"":1191}]","[]"
"image-keyboard-response","81","170480","0.0-5.0-1.38","60d2d061fd054556769ca306","bdp_cybrbll","Sun Mar 26 2023 10:45:32 GMT-0400 (Eastern Daylight Time)","513168","3","1","","","","choice","","","337","","img/2to1/1.png","2","187","957","0.5","0.5","2","3","",""
"animation","82","171775","0.0-5.0-2.38","60d2d061fd054556769ca306","bdp_cybrbll","Sun Mar 26 2023 10:45:32 GMT-0400 (Eastern Daylight Time)","513168","3","1","","","","","","","","","","","187","","","","2","3","[{""stimulus"":""img/2to3/1.png"",""time"":112},{""stimulus"":""img/2to3/2.png"",""time"":209},{""stimulus"":""img/2to3/3.png"",""time"":307},{""stimulus"":""img/2to3/4.png"",""time"":406},{""stimulus"":""img/2to3/5.png"",""time"":497},{""stimulus"":""img/2to3/6.png"",""time"":607},{""stimulus"":""img/2to3/7.png"",""time"":700},{""stimulus"":""img/2to3/8.png"",""time"":801},{""stimulus"":""img/2to3/9.png"",""time"":905},{""stimulus"":""img/2to3/10.png"",""time"":992},{""stimulus"":""img/2to3/11.png"",""time"":1101},{""stimulus"":""img/2to3/12.png"",""time"":1202}]","[]"
"image-keyboard-response","83","172279","0.0-5.0-1.39","60d2d061fd054556769ca306","bdp_cybrbll","Sun Mar 26 2023 10:45:32 GMT-0400 (Eastern Daylight Time)","513168","3","1","","","","observe","","","null","","img/3to2/1.png","null","186","502","0.5","0.5","3","2","",""
"animation","84","173571","0.0-5.0-2.39","60d2d061fd054556769ca306","bdp_cybrbll","Sun Mar 26 2023 10:45:32 GMT-0400 (Eastern Daylight Time)","513168","3","1","","","","","","","","","","","186","","","","3","2","[{""stimulus"":""img/3to2/1.png"",""time"":114},{""stimulus"":""img/3to2/2.png"",""time"":208},{""stimulus"":""img/3to2/3.png"",""time"":313},{""stimulus"":""img/3to2/4.png"",""time"":405},{""stimulus"":""img/3to2/5.png"",""time"":507},{""stimulus"":""img/3to2/6.png"",""time"":610},{""stimulus"":""img/3to2/7.png"",""time"":706},{""stimulus"":""img/3to2/8.png"",""time"":799},{""stimulus"":""img/3to2/9.png"",""time"":906},{""stimulus"":""img/3to2/10.png"",""time"":999},{""stimulus"":""img/3to2/11.png"",""time"":1101},{""stimulus"":""img/3to2/12.png"",""time"":1192}]","[]"
"image-keyboard-response","85","173604","0.0-5.0-1.40","60d2d061fd054556769ca306","bdp_cybrbll","Sun Mar 26 2023 10:45:32 GMT-0400 (Eastern Daylight Time)","513168","3","1","","","","choice","","","32","","img/2to1/1.png","1","185","314","0.5","0.5","2","1","",""
"animation","86","174903","0.0-5.0-2.40","60d2d061fd054556769ca306","bdp_cybrbll","Sun Mar 26 2023 10:45:32 GMT-0400 (Eastern Daylight Time)","513168","3","1","","","","","","","","","","","185","","","","2","1","[{""stimulus"":""img/2to1/1.png"",""time"":115},{""stimulus"":""img/2to1/2.png"",""time"":204},{""stimulus"":""img/2to1/3.png"",""time"":313},{""stimulus"":""img/2to1/4.png"",""time"":412},{""stimulus"":""img/2to1/5.png"",""time"":508},{""stimulus"":""img/2to1/6.png"",""time"":603},{""stimulus"":""img/2to1/7.png"",""time"":702},{""stimulus"":""img/2to1/8.png"",""time"":803},{""stimulus"":""img/2to1/9.png"",""time"":898},{""stimulus"":""img/2to1/10.png"",""time"":996},{""stimulus"":""img/2to1/11.png"",""time"":1097},{""stimulus"":""img/2to1/12.png"",""time"":1195}]","[]"
"image-keyboard-response","87","175123","0.0-5.0-1.41","60d2d061fd054556769ca306","bdp_cybrbll","Sun Mar 26 2023 10:45:32 GMT-0400 (Eastern Daylight Time)","513168","3","1","","","","observe","","","null","","img/1to3/1.png","null","184","218","0.5","0.5","1","2","",""
"animation","88","176418","0.0-5.0-2.41","60d2d061fd054556769ca306","bdp_cybrbll","Sun Mar 26 2023 10:45:32 GMT-0400 (Eastern Daylight Time)","513168","3","1","","","","","","","","","","","184","","","","1","2","[{""stimulus"":""img/1to2/1.png"",""time"":105},{""stimulus"":""img/1to2/2.png"",""time"":201},{""stimulus"":""img/1to2/3.png"",""time"":306},{""stimulus"":""img/1to2/4.png"",""time"":405},{""stimulus"":""img/1to2/5.png"",""time"":498},{""stimulus"":""img/1to2/6.png"",""time"":597},{""stimulus"":""img/1to2/7.png"",""time"":699},{""stimulus"":""img/1to2/8.png"",""time"":799},{""stimulus"":""img/1to2/9.png"",""time"":905},{""stimulus"":""img/1to2/10.png"",""time"":1001},{""stimulus"":""img/1to2/11.png"",""time"":1103},{""stimulus"":""img/1to2/12.png"",""time"":1196}]","[]"
"image-keyboard-response","89","177245","0.0-5.0-1.42","60d2d061fd054556769ca306","bdp_cybrbll","Sun Mar 26 2023 10:45:32 GMT-0400 (Eastern Daylight Time)","513168","3","1","","","","choice","","","826","","img/2to1/1.png","1","183","369","0.5","0.5","2","1","",""
"animation","90","178538","0.0-5.0-2.42","60d2d061fd054556769ca306","bdp_cybrbll","Sun Mar 26 2023 10:45:32 GMT-0400 (Eastern Daylight Time)","513168","3","1","","","","","","","","","","","183","","","","2","1","[{""stimulus"":""img/2to1/1.png"",""time"":110},{""stimulus"":""img/2to1/2.png"",""time"":212},{""stimulus"":""img/2to1/3.png"",""time"":308},{""stimulus"":""img/2to1/4.png"",""time"":404},{""stimulus"":""img/2to1/5.png"",""time"":499},{""stimulus"":""img/2to1/6.png"",""time"":599},{""stimulus"":""img/2to1/7.png"",""time"":700},{""stimulus"":""img/2to1/8.png"",""time"":801},{""stimulus"":""img/2to1/9.png"",""time"":908},{""stimulus"":""img/2to1/10.png"",""time"":1008},{""stimulus"":""img/2to1/11.png"",""time"":1102},{""stimulus"":""img/2to1/12.png"",""time"":1200}]","[]"
"image-keyboard-response","91","179103","0.0-5.0-1.43","60d2d061fd054556769ca306","bdp_cybrbll","Sun Mar 26 2023 10:45:32 GMT-0400 (Eastern Daylight Time)","513168","3","1","","","","observe","","","null","","img/1to3/1.png","null","182","549","0.5","0.5","1","2","",""
"animation","92","180393","0.0-5.0-2.43","60d2d061fd054556769ca306","bdp_cybrbll","Sun Mar 26 2023 10:45:32 GMT-0400 (Eastern Daylight Time)","513168","3","1","","","","","","","","","","","182","","","","1","2","[{""stimulus"":""img/1to2/1.png"",""time"":108},{""stimulus"":""img/1to2/2.png"",""time"":205},{""stimulus"":""img/1to2/3.png"",""time"":310},{""stimulus"":""img/1to2/4.png"",""time"":402},{""stimulus"":""img/1to2/5.png"",""time"":511},{""stimulus"":""img/1to2/6.png"",""time"":605},{""stimulus"":""img/1to2/7.png"",""time"":705},{""stimulus"":""img/1to2/8.png"",""time"":798},{""stimulus"":""img/1to2/9.png"",""time"":895},{""stimulus"":""img/1to2/10.png"",""time"":999},{""stimulus"":""img/1to2/11.png"",""time"":1092},{""stimulus"":""img/1to2/12.png"",""time"":1191}]","[]"
"image-keyboard-response","93","181017","0.0-5.0-1.44","60d2d061fd054556769ca306","bdp_cybrbll","Sun Mar 26 2023 10:45:32 GMT-0400 (Eastern Daylight Time)","513168","3","1","","","","choice","","","623","","img/2to1/1.png","1","181","512","0.5","0.5","2","1","",""
"animation","94","182314","0.0-5.0-2.44","60d2d061fd054556769ca306","bdp_cybrbll","Sun Mar 26 2023 10:45:32 GMT-0400 (Eastern Daylight Time)","513168","3","1","","","","","","","","","","","181","","","","2","1","[{""stimulus"":""img/2to1/1.png"",""time"":102},{""stimulus"":""img/2to1/2.png"",""time"":202},{""stimulus"":""img/2to1/3.png"",""time"":303},{""stimulus"":""img/2to1/4.png"",""time"":398},{""stimulus"":""img/2to1/5.png"",""time"":502},{""stimulus"":""img/2to1/6.png"",""time"":602},{""stimulus"":""img/2to1/7.png"",""time"":699},{""stimulus"":""img/2to1/8.png"",""time"":804},{""stimulus"":""img/2to1/9.png"",""time"":892},{""stimulus"":""img/2to1/10.png"",""time"":1001},{""stimulus"":""img/2to1/11.png"",""time"":1093},{""stimulus"":""img/2to1/12.png"",""time"":1189}]","[]"
"image-keyboard-response","95","182572","0.0-5.0-1.45","60d2d061fd054556769ca306","bdp_cybrbll","Sun Mar 26 2023 10:45:32 GMT-0400 (Eastern Daylight Time)","513168","3","1","","","","observe","","","null","","img/1to3/1.png","null","180","255","0.5","0.5","1","3","",""
"animation","96","183865","0.0-5.0-2.45","60d2d061fd054556769ca306","bdp_cybrbll","Sun Mar 26 2023 10:45:32 GMT-0400 (Eastern Daylight Time)","513168","3","1","","","","","","","","","","","180","","","","1","3","[{""stimulus"":""img/1to3/1.png"",""time"":110},{""stimulus"":""img/1to3/2.png"",""time"":206},{""stimulus"":""img/1to3/3.png"",""time"":305},{""stimulus"":""img/1to3/4.png"",""time"":407},{""stimulus"":""img/1to3/5.png"",""time"":508},{""stimulus"":""img/1to3/6.png"",""time"":601},{""stimulus"":""img/1to3/7.png"",""time"":710},{""stimulus"":""img/1to3/8.png"",""time"":796},{""stimulus"":""img/1to3/9.png"",""time"":904},{""stimulus"":""img/1to3/10.png"",""time"":1007},{""stimulus"":""img/1to3/11.png"",""time"":1103},{""stimulus"":""img/1to3/12.png"",""time"":1193}]","[]"
"image-keyboard-response","97","184130","0.0-5.0-1.46","60d2d061fd054556769ca306","bdp_cybrbll","Sun Mar 26 2023 10:45:32 GMT-0400 (Eastern Daylight Time)","513168","3","1","","","","observe","","","null","","img/3to2/1.png","null","179","262","0.5","0.5","3","1","",""
"animation","98","185432","0.0-5.0-2.46","60d2d061fd054556769ca306","bdp_cybrbll","Sun Mar 26 2023 10:45:32 GMT-0400 (Eastern Daylight Time)","513168","3","1","","","","","","","","","","","179","","","","3","1","[{""stimulus"":""img/3to1/1.png"",""time"":111},{""stimulus"":""img/3to1/2.png"",""time"":206},{""stimulus"":""img/3to1/3.png"",""time"":305},{""stimulus"":""img/3to1/4.png"",""time"":407},{""stimulus"":""img/3to1/5.png"",""time"":502},{""stimulus"":""img/3to1/6.png"",""time"":609},{""stimulus"":""img/3to1/7.png"",""time"":696},{""stimulus"":""img/3to1/8.png"",""time"":799},{""stimulus"":""img/3to1/9.png"",""time"":906},{""stimulus"":""img/3to1/10.png"",""time"":1008},{""stimulus"":""img/3to1/11.png"",""time"":1090},{""stimulus"":""img/3to1/12.png"",""time"":1192}]","[]"
"image-keyboard-response","99","186247","0.0-5.0-1.47","60d2d061fd054556769ca306","bdp_cybrbll","Sun Mar 26 2023 10:45:32 GMT-0400 (Eastern Daylight Time)","513168","3","1","","","","observe","","","null","","img/1to3/1.png","null","178","807","0.5","0.5","1","3","",""
"animation","100","187550","0.0-5.0-2.47","60d2d061fd054556769ca306","bdp_cybrbll","Sun Mar 26 2023 10:45:32 GMT-0400 (Eastern Daylight Time)","513168","3","1","","","","","","","","","","","178","","","","1","3","[{""stimulus"":""img/1to3/1.png"",""time"":109},{""stimulus"":""img/1to3/2.png"",""time"":207},{""stimulus"":""img/1to3/3.png"",""time"":304},{""stimulus"":""img/1to3/4.png"",""time"":411},{""stimulus"":""img/1to3/5.png"",""time"":498},{""stimulus"":""img/1to3/6.png"",""time"":606},{""stimulus"":""img/1to3/7.png"",""time"":699},{""stimulus"":""img/1to3/8.png"",""time"":806},{""stimulus"":""img/1to3/9.png"",""time"":898},{""stimulus"":""img/1to3/10.png"",""time"":1000},{""stimulus"":""img/1to3/11.png"",""time"":1105},{""stimulus"":""img/1to3/12.png"",""time"":1193}]","[]"
"image-keyboard-response","101","188241","0.0-5.0-1.48","60d2d061fd054556769ca306","bdp_cybrbll","Sun Mar 26 2023 10:45:32 GMT-0400 (Eastern Daylight Time)","513168","3","1","","","","observe","","","null","","img/3to2/1.png","null","177","687","0.5","0.5","3","1","",""
"animation","102","189531","0.0-5.0-2.48","60d2d061fd054556769ca306","bdp_cybrbll","Sun Mar 26 2023 10:45:32 GMT-0400 (Eastern Daylight Time)","513168","3","1","","","","","","","","","","","177","","","","3","1","[{""stimulus"":""img/3to1/1.png"",""time"":110},{""stimulus"":""img/3to1/2.png"",""time"":206},{""stimulus"":""img/3to1/3.png"",""time"":312},{""stimulus"":""img/3to1/4.png"",""time"":401},{""stimulus"":""img/3to1/5.png"",""time"":505},{""stimulus"":""img/3to1/6.png"",""time"":602},{""stimulus"":""img/3to1/7.png"",""time"":695},{""stimulus"":""img/3to1/8.png"",""time"":801},{""stimulus"":""img/3to1/9.png"",""time"":901},{""stimulus"":""img/3to1/10.png"",""time"":1005},{""stimulus"":""img/3to1/11.png"",""time"":1100},{""stimulus"":""img/3to1/12.png"",""time"":1197}]","[]"
"image-keyboard-response","103","189835","0.0-5.0-1.49","60d2d061fd054556769ca306","bdp_cybrbll","Sun Mar 26 2023 10:45:32 GMT-0400 (Eastern Daylight Time)","513168","3","1","","","","observe","","","null","","img/1to3/1.png","null","176","298","0.5","0.5","1","2","",""
"animation","104","191129","0.0-5.0-2.49","60d2d061fd054556769ca306","bdp_cybrbll","Sun Mar 26 2023 10:45:32 GMT-0400 (Eastern Daylight Time)","513168","3","1","","","","","","","","","","","176","","","","1","2","[{""stimulus"":""img/1to2/1.png"",""time"":111},{""stimulus"":""img/1to2/2.png"",""time"":206},{""stimulus"":""img/1to2/3.png"",""time"":317},{""stimulus"":""img/1to2/4.png"",""time"":398},{""stimulus"":""img/1to2/5.png"",""time"":501},{""stimulus"":""img/1to2/6.png"",""time"":605},{""stimulus"":""img/1to2/7.png"",""time"":708},{""stimulus"":""img/1to2/8.png"",""time"":803},{""stimulus"":""img/1to2/9.png"",""time"":898},{""stimulus"":""img/1to2/10.png"",""time"":1002},{""stimulus"":""img/1to2/11.png"",""time"":1097},{""stimulus"":""img/1to2/12.png"",""time"":1194}]","[]"
"image-keyboard-response","105","191290","0.0-5.0-1.50","60d2d061fd054556769ca306","bdp_cybrbll","Sun Mar 26 2023 10:45:32 GMT-0400 (Eastern Daylight Time)","513168","3","1","","","","choice","","","160","","img/2to1/1.png","2","175","257","0.5","0.5","2","3","",""
"animation","106","192584","0.0-5.0-2.50","60d2d061fd054556769ca306","bdp_cybrbll","Sun Mar 26 2023 10:45:32 GMT-0400 (Eastern Daylight Time)","513168","3","1","","","","","","","","","","","175","","","","2","3","[{""stimulus"":""img/2to3/1.png"",""time"":100},{""stimulus"":""img/2to3/2.png"",""time"":211},{""stimulus"":""img/2to3/3.png"",""time"":310},{""stimulus"":""img/2to3/4.png"",""time"":410},{""stimulus"":""img/2to3/5.png"",""time"":505},{""stimulus"":""img/2to3/6.png"",""time"":603},{""stimulus"":""img/2to3/7.png"",""time"":697},{""stimulus"":""img/2to3/8.png"",""time"":807},{""stimulus"":""img/2to3/9.png"",""time"":906},{""stimulus"":""img/2to3/10.png"",""time"":1007},{""stimulus"":""img/2to3/11.png"",""time"":1105},{""stimulus"":""img/2to3/12.png"",""time"":1193}]","[]"
"image-keyboard-response","107","193391","0.0-5.0-1.51","60d2d061fd054556769ca306","bdp_cybrbll","Sun Mar 26 2023 10:45:32 GMT-0400 (Eastern Daylight Time)","513168","3","1","","","","observe","","","null","","img/3to2/1.png","null","174","794","0.5","0.5","3","1","",""
"animation","108","194692","0.0-5.0-2.51","60d2d061fd054556769ca306","bdp_cybrbll","Sun Mar 26 2023 10:45:32 GMT-0400 (Eastern Daylight Time)","513168","3","1","","","","","","","","","","","174","","","","3","1","[{""stimulus"":""img/3to1/1.png"",""time"":110},{""stimulus"":""img/3to1/2.png"",""time"":213},{""stimulus"":""img/3to1/3.png"",""time"":306},{""stimulus"":""img/3to1/4.png"",""time"":397},{""stimulus"":""img/3to1/5.png"",""time"":499},{""stimulus"":""img/3to1/6.png"",""time"":603},{""stimulus"":""img/3to1/7.png"",""time"":707},{""stimulus"":""img/3to1/8.png"",""time"":808},{""stimulus"":""img/3to1/9.png"",""time"":900},{""stimulus"":""img/3to1/10.png"",""time"":1001},{""stimulus"":""img/3to1/11.png"",""time"":1097},{""stimulus"":""img/3to1/12.png"",""time"":1202}]","[]"
"image-keyboard-response","109","195958","0.0-5.0-1.52","60d2d061fd054556769ca306","bdp_cybrbll","Sun Mar 26 2023 10:45:32 GMT-0400 (Eastern Daylight Time)","513168","3","1","","","","observe","","","null","","img/1to3/1.png","null","173","1257","0.5","0.5","1","2","",""
"animation","110","197254","0.0-5.0-2.52","60d2d061fd054556769ca306","bdp_cybrbll","Sun Mar 26 2023 10:45:32 GMT-0400 (Eastern Daylight Time)","513168","3","1","","","","","","","","","","","173","","","","1","2","[{""stimulus"":""img/1to2/1.png"",""time"":115},{""stimulus"":""img/1to2/2.png"",""time"":208},{""stimulus"":""img/1to2/3.png"",""time"":309},{""stimulus"":""img/1to2/4.png"",""time"":401},{""stimulus"":""img/1to2/5.png"",""time"":509},{""stimulus"":""img/1to2/6.png"",""time"":609},{""stimulus"":""img/1to2/7.png"",""time"":702},{""stimulus"":""img/1to2/8.png"",""time"":804},{""stimulus"":""img/1to2/9.png"",""time"":893},{""stimulus"":""img/1to2/10.png"",""time"":996},{""stimulus"":""img/1to2/11.png"",""time"":1091},{""stimulus"":""img/1to2/12.png"",""time"":1195}]","[]"
"image-keyboard-response","111","197508","0.0-5.0-1.53","60d2d061fd054556769ca306","bdp_cybrbll","Sun Mar 26 2023 10:45:32 GMT-0400 (Eastern Daylight Time)","513168","3","1","","","","choice","","","253","","img/2to1/1.png","2","172","311","0.5","0.5","2","3","",""
"animation","112","198805","0.0-5.0-2.53","60d2d061fd054556769ca306","bdp_cybrbll","Sun Mar 26 2023 10:45:32 GMT-0400 (Eastern Daylight Time)","513168","3","1","","","","","","","","","","","172","","","","2","3","[{""stimulus"":""img/2to3/1.png"",""time"":105},{""stimulus"":""img/2to3/2.png"",""time"":209},{""stimulus"":""img/2to3/3.png"",""time"":307},{""stimulus"":""img/2to3/4.png"",""time"":414},{""stimulus"":""img/2to3/5.png"",""time"":500},{""stimulus"":""img/2to3/6.png"",""time"":596},{""stimulus"":""img/2to3/7.png"",""time"":708},{""stimulus"":""img/2to3/8.png"",""time"":804},{""stimulus"":""img/2to3/9.png"",""time"":901},{""stimulus"":""img/2to3/10.png"",""time"":1002},{""stimulus"":""img/2to3/11.png"",""time"":1103},{""stimulus"":""img/2to3/12.png"",""time"":1199}]","[]"
"image-keyboard-response","113","199170","0.0-5.0-1.54","60d2d061fd054556769ca306","bdp_cybrbll","Sun Mar 26 2023 10:45:32 GMT-0400 (Eastern Daylight Time)","513168","3","1","","","","observe","","","null","","img/3to2/1.png","null","171","339","0.5","0.5","3","2","",""
"animation","114","200458","0.0-5.0-2.54","60d2d061fd054556769ca306","bdp_cybrbll","Sun Mar 26 2023 10:45:32 GMT-0400 (Eastern Daylight Time)","513168","3","1","","","","","","","","","","","171","","","","3","2","[{""stimulus"":""img/3to2/1.png"",""time"":112},{""stimulus"":""img/3to2/2.png"",""time"":207},{""stimulus"":""img/3to2/3.png"",""time"":305},{""stimulus"":""img/3to2/4.png"",""time"":407},{""stimulus"":""img/3to2/5.png"",""time"":503},{""stimulus"":""img/3to2/6.png"",""time"":600},{""stimulus"":""img/3to2/7.png"",""time"":694},{""stimulus"":""img/3to2/8.png"",""time"":806},{""stimulus"":""img/3to2/9.png"",""time"":905},{""stimulus"":""img/3to2/10.png"",""time"":996},{""stimulus"":""img/3to2/11.png"",""time"":1106},{""stimulus"":""img/3to2/12.png"",""time"":1189}]","[]"
"image-keyboard-response","115","201206","0.0-5.0-1.55","60d2d061fd054556769ca306","bdp_cybrbll","Sun Mar 26 2023 10:45:32 GMT-0400 (Eastern Daylight Time)","513168","3","1","","","","choice","","","746","","img/2to1/1.png","2","170","765","0.5","0.5","2","3","",""
"animation","116","202497","0.0-5.0-2.55","60d2d061fd054556769ca306","bdp_cybrbll","Sun Mar 26 2023 10:45:32 GMT-0400 (Eastern Daylight Time)","513168","3","1","","","","","","","","","","","170","","","","2","3","[{""stimulus"":""img/2to3/1.png"",""time"":109},{""stimulus"":""img/2to3/2.png"",""time"":204},{""stimulus"":""img/2to3/3.png"",""time"":311},{""stimulus"":""img/2to3/4.png"",""time"":398},{""stimulus"":""img/2to3/5.png"",""time"":503},{""stimulus"":""img/2to3/6.png"",""time"":607},{""stimulus"":""img/2to3/7.png"",""time"":700},{""stimulus"":""img/2to3/8.png"",""time"":802},{""stimulus"":""img/2to3/9.png"",""time"":894},{""stimulus"":""img/2to3/10.png"",""time"":1001},{""stimulus"":""img/2to3/11.png"",""time"":1096},{""stimulus"":""img/2to3/12.png"",""time"":1192}]","[]"
"image-keyboard-response","117","203001","0.0-5.0-1.56","60d2d061fd054556769ca306","bdp_cybrbll","Sun Mar 26 2023 10:45:32 GMT-0400 (Eastern Daylight Time)","513168","3","1","","","","observe","","","null","","img/3to2/1.png","null","169","494","0.5","0.5","3","2","",""
"animation","118","204303","0.0-5.0-2.56","60d2d061fd054556769ca306","bdp_cybrbll","Sun Mar 26 2023 10:45:32 GMT-0400 (Eastern Daylight Time)","513168","3","1","","","","","","","","","","","169","","","","3","2","[{""stimulus"":""img/3to2/1.png"",""time"":110},{""stimulus"":""img/3to2/2.png"",""time"":207},{""stimulus"":""img/3to2/3.png"",""time"":305},{""stimulus"":""img/3to2/4.png"",""time"":405},{""stimulus"":""img/3to2/5.png"",""time"":500},{""stimulus"":""img/3to2/6.png"",""time"":606},{""stimulus"":""img/3to2/7.png"",""time"":708},{""stimulus"":""img/3to2/8.png"",""time"":796},{""stimulus"":""img/3to2/9.png"",""time"":893},{""stimulus"":""img/3to2/10.png"",""time"":998},{""stimulus"":""img/3to2/11.png"",""time"":1093},{""stimulus"":""img/3to2/12.png"",""time"":1192}]","[]"
"image-keyboard-response","119","205226","0.0-5.0-1.57","60d2d061fd054556769ca306","bdp_cybrbll","Sun Mar 26 2023 10:45:32 GMT-0400 (Eastern Daylight Time)","513168","3","1","","","","choice","","","922","","img/2to1/1.png","1","168","500","0.5","0.5","2","1","",""
"animation","120","206524","0.0-5.0-2.57","60d2d061fd054556769ca306","bdp_cybrbll","Sun Mar 26 2023 10:45:32 GMT-0400 (Eastern Daylight Time)","513168","3","1","","","","","","","","","","","168","","","","2","1","[{""stimulus"":""img/2to1/1.png"",""time"":108},{""stimulus"":""img/2to1/2.png"",""time"":202},{""stimulus"":""img/2to1/3.png"",""time"":302},{""stimulus"":""img/2to1/4.png"",""time"":403},{""stimulus"":""img/2to1/5.png"",""time"":513},{""stimulus"":""img/2to1/6.png"",""time"":605},{""stimulus"":""img/2to1/7.png"",""time"":701},{""stimulus"":""img/2to1/8.png"",""time"":796},{""stimulus"":""img/2to1/9.png"",""time"":905},{""stimulus"":""img/2to1/10.png"",""time"":1003},{""stimulus"":""img/2to1/11.png"",""time"":1104},{""stimulus"":""img/2to1/12.png"",""time"":1195}]","[]"
"image-keyboard-response","121","207166","0.0-5.0-1.58","60d2d061fd054556769ca306","bdp_cybrbll","Sun Mar 26 2023 10:45:32 GMT-0400 (Eastern Daylight Time)","513168","3","1","","","","observe","","","null","","img/1to3/1.png","null","167","630","0.5","0.5","1","2","",""
"animation","122","208465","0.0-5.0-2.58","60d2d061fd054556769ca306","bdp_cybrbll","Sun Mar 26 2023 10:45:32 GMT-0400 (Eastern Daylight Time)","513168","3","1","","","","","","","","","","","167","","","","1","2","[{""stimulus"":""img/1to2/1.png"",""time"":110},{""stimulus"":""img/1to2/2.png"",""time"":212},{""stimulus"":""img/1to2/3.png"",""time"":312},{""stimulus"":""img/1to2/4.png"",""time"":407},{""stimulus"":""img/1to2/5.png"",""time"":497},{""stimulus"":""img/1to2/6.png"",""time"":607},{""stimulus"":""img/1to2/7.png"",""time"":701},{""stimulus"":""img/1to2/8.png"",""time"":795},{""stimulus"":""img/1to2/9.png"",""time"":893},{""stimulus"":""img/1to2/10.png"",""time"":1005},{""stimulus"":""img/1to2/11.png"",""time"":1099},{""stimulus"":""img/1to2/12.png"",""time"":1199}]","[]"
"image-keyboard-response","123","208777","0.0-5.0-1.59","60d2d061fd054556769ca306","bdp_cybrbll","Sun Mar 26 2023 10:45:32 GMT-0400 (Eastern Daylight Time)","513168","3","1","","","","choice","","","311","","img/2to1/1.png","2","166","347","0.5","0.5","2","3","",""
"animation","124","210078","0.0-5.0-2.59","60d2d061fd054556769ca306","bdp_cybrbll","Sun Mar 26 2023 10:45:32 GMT-0400 (Eastern Daylight Time)","513168","3","1","","","","","","","","","","","166","","","","2","3","[{""stimulus"":""img/2to3/1.png"",""time"":114},{""stimulus"":""img/2to3/2.png"",""time"":207},{""stimulus"":""img/2to3/3.png"",""time"":300},{""stimulus"":""img/2to3/4.png"",""time"":402},{""stimulus"":""img/2to3/5.png"",""time"":505},{""stimulus"":""img/2to3/6.png"",""time"":610},{""stimulus"":""img/2to3/7.png"",""time"":695},{""stimulus"":""img/2to3/8.png"",""time"":805},{""stimulus"":""img/2to3/9.png"",""time"":905},{""stimulus"":""img/2to3/10.png"",""time"":1006},{""stimulus"":""img/2to3/11.png"",""time"":1103},{""stimulus"":""img/2to3/12.png"",""time"":1191}]","[]"
"image-keyboard-response","125","210826","0.0-5.0-1.60","60d2d061fd054556769ca306","bdp_cybrbll","Sun Mar 26 2023 10:45:32 GMT-0400 (Eastern Daylight Time)","513168","3","1","","","","observe","","","null","","img/3to2/1.png","null","165","743","0.5","0.5","3","1","",""
"animation","126","212128","0.0-5.0-2.60","60d2d061fd054556769ca306","bdp_cybrbll","Sun Mar 26 2023 10:45:32 GMT-0400 (Eastern Daylight Time)","513168","3","1","","","","","","","","","","","165","","","","3","1","[{""stimulus"":""img/3to1/1.png"",""time"":111},{""stimulus"":""img/3to1/2.png"",""time"":206},{""stimulus"":""img/3to1/3.png"",""time"":302},{""stimulus"":""img/3to1/4.png"",""time"":402},{""stimulus"":""img/3to1/5.png"",""time"":496},{""stimulus"":""img/3to1/6.png"",""time"":598},{""stimulus"":""img/3to1/7.png"",""time"":698},{""stimulus"":""img/3to1/8.png"",""time"":798},{""stimulus"":""img/3to1/9.png"",""time"":899},{""stimulus"":""img/3to1/10.png"",""time"":1006},{""stimulus"":""img/3to1/11.png"",""time"":1097},{""stimulus"":""img/3to1/12.png"",""time"":1191}]","[]"
"image-keyboard-response","127","212491","0.0-5.0-1.61","60d2d061fd054556769ca306","bdp_cybrbll","Sun Mar 26 2023 10:45:32 GMT-0400 (Eastern Daylight Time)","513168","3","1","","","","observe","","","null","","img/1to3/1.png","null","164","350","0.5","0.5","1","3","",""
"animation","128","213785","0.0-5.0-2.61","60d2d061fd054556769ca306","bdp_cybrbll","Sun Mar 26 2023 10:45:32 GMT-0400 (Eastern Daylight Time)","513168","3","1","","","","","","","","","","","164","","","","1","3","[{""stimulus"":""img/1to3/1.png"",""time"":111},{""stimulus"":""img/1to3/2.png"",""time"":209},{""stimulus"":""img/1to3/3.png"",""time"":312},{""stimulus"":""img/1to3/4.png"",""time"":411},{""stimulus"":""img/1to3/5.png"",""time"":497},{""stimulus"":""img/1to3/6.png"",""time"":597},{""stimulus"":""img/1to3/7.png"",""time"":707},{""stimulus"":""img/1to3/8.png"",""time"":805},{""stimulus"":""img/1to3/9.png"",""time"":900},{""stimulus"":""img/1to3/10.png"",""time"":998},{""stimulus"":""img/1to3/11.png"",""time"":1099},{""stimulus"":""img/1to3/12.png"",""time"":1194}]","[]"
"image-keyboard-response","129","214418","0.0-5.0-1.62","60d2d061fd054556769ca306","bdp_cybrbll","Sun Mar 26 2023 10:45:32 GMT-0400 (Eastern Daylight Time)","513168","3","1","","","","observe","","","null","","img/3to2/1.png","null","163","620","0.5","0.5","3","2","",""
"animation","130","215718","0.0-5.0-2.62","60d2d061fd054556769ca306","bdp_cybrbll","Sun Mar 26 2023 10:45:32 GMT-0400 (Eastern Daylight Time)","513168","3","1","","","","","","","","","","","163","","","","3","2","[{""stimulus"":""img/3to2/1.png"",""time"":110},{""stimulus"":""img/3to2/2.png"",""time"":208},{""stimulus"":""img/3to2/3.png"",""time"":312},{""stimulus"":""img/3to2/4.png"",""time"":408},{""stimulus"":""img/3to2/5.png"",""time"":510},{""stimulus"":""img/3to2/6.png"",""time"":611},{""stimulus"":""img/3to2/7.png"",""time"":702},{""stimulus"":""img/3to2/8.png"",""time"":808},{""stimulus"":""img/3to2/9.png"",""time"":896},{""stimulus"":""img/3to2/10.png"",""time"":991},{""stimulus"":""img/3to2/11.png"",""time"":1101},{""stimulus"":""img/3to2/12.png"",""time"":1194}]","[]"
"image-keyboard-response","131","215722","0.0-5.0-1.63","60d2d061fd054556769ca306","bdp_cybrbll","Sun Mar 26 2023 10:45:32 GMT-0400 (Eastern Daylight Time)","513168","3","1","","","","choice","","","2","","img/2to1/1.png","2","162","262","0.5","0.5","2","3","",""
"animation","132","217016","0.0-5.0-2.63","60d2d061fd054556769ca306","bdp_cybrbll","Sun Mar 26 2023 10:45:32 GMT-0400 (Eastern Daylight Time)","513168","3","1","","","","","","","","","","","162","","","","2","3","[{""stimulus"":""img/2to3/1.png"",""time"":100},{""stimulus"":""img/2to3/2.png"",""time"":200},{""stimulus"":""img/2to3/3.png"",""time"":300},{""stimulus"":""img/2to3/4.png"",""time"":403},{""stimulus"":""img/2to3/5.png"",""time"":504},{""stimulus"":""img/2to3/6.png"",""time"":602},{""stimulus"":""img/2to3/7.png"",""time"":701},{""stimulus"":""img/2to3/8.png"",""time"":797},{""stimulus"":""img/2to3/9.png"",""time"":903},{""stimulus"":""img/2to3/10.png"",""time"":998},{""stimulus"":""img/2to3/11.png"",""time"":1098},{""stimulus"":""img/2to3/12.png"",""time"":1198}]","[]"
"image-keyboard-response","133","217943","0.0-5.0-1.64","60d2d061fd054556769ca306","bdp_cybrbll","Sun Mar 26 2023 10:45:32 GMT-0400 (Eastern Daylight Time)","513168","3","1","","","","observe","","","null","","img/3to2/1.png","null","161","923","0.5","0.5","3","2","",""
"animation","134","219247","0.0-5.0-2.64","60d2d061fd054556769ca306","bdp_cybrbll","Sun Mar 26 2023 10:45:32 GMT-0400 (Eastern Daylight Time)","513168","3","1","","","","","","","","","","","161","","","","3","2","[{""stimulus"":""img/3to2/1.png"",""time"":111},{""stimulus"":""img/3to2/2.png"",""time"":201},{""stimulus"":""img/3to2/3.png"",""time"":303},{""stimulus"":""img/3to2/4.png"",""time"":398},{""stimulus"":""img/3to2/5.png"",""time"":509},{""stimulus"":""img/3to2/6.png"",""time"":606},{""stimulus"":""img/3to2/7.png"",""time"":708},{""stimulus"":""img/3to2/8.png"",""time"":804},{""stimulus"":""img/3to2/9.png"",""time"":902},{""stimulus"":""img/3to2/10.png"",""time"":1003},{""stimulus"":""img/3to2/11.png"",""time"":1095},{""stimulus"":""img/3to2/12.png"",""time"":1190}]","[]"
"image-keyboard-response","135","219695","0.0-5.0-1.65","60d2d061fd054556769ca306","bdp_cybrbll","Sun Mar 26 2023 10:45:32 GMT-0400 (Eastern Daylight Time)","513168","3","1","","","","choice","","","448","","img/2to1/1.png","1","160","371","0.5","0.5","2","1","",""
"animation","136","220989","0.0-5.0-2.65","60d2d061fd054556769ca306","bdp_cybrbll","Sun Mar 26 2023 10:45:32 GMT-0400 (Eastern Daylight Time)","513168","3","1","","","","","","","","","","","160","","","","2","1","[{""stimulus"":""img/2to1/1.png"",""time"":108},{""stimulus"":""img/2to1/2.png"",""time"":203},{""stimulus"":""img/2to1/3.png"",""time"":301},{""stimulus"":""img/2to1/4.png"",""time"":410},{""stimulus"":""img/2to1/5.png"",""time"":505},{""stimulus"":""img/2to1/6.png"",""time"":611},{""stimulus"":""img/2to1/7.png"",""time"":704},{""stimulus"":""img/2to1/8.png"",""time"":806},{""stimulus"":""img/2to1/9.png"",""time"":906},{""stimulus"":""img/2to1/10.png"",""time"":1007},{""stimulus"":""img/2to1/11.png"",""time"":1093},{""stimulus"":""img/2to1/12.png"",""time"":1198}]","[]"
"image-keyboard-response","137","222153","0.0-5.0-1.66","60d2d061fd054556769ca306","bdp_cybrbll","Sun Mar 26 2023 10:45:32 GMT-0400 (Eastern Daylight Time)","513168","3","1","","","","observe","","","null","","img/1to3/1.png","null","159","1163","0.5","0.5","1","3","",""
"animation","138","223451","0.0-5.0-2.66","60d2d061fd054556769ca306","bdp_cybrbll","Sun Mar 26 2023 10:45:32 GMT-0400 (Eastern Daylight Time)","513168","3","1","","","","","","","","","","","159","","","","1","3","[{""stimulus"":""img/1to3/1.png"",""time"":110},{""stimulus"":""img/1to3/2.png"",""time"":205},{""stimulus"":""img/1to3/3.png"",""time"":298},{""stimulus"":""img/1to3/4.png"",""time"":403},{""stimulus"":""img/1to3/5.png"",""time"":504},{""stimulus"":""img/1to3/6.png"",""time"":598},{""stimulus"":""img/1to3/7.png"",""time"":706},{""stimulus"":""img/1to3/8.png"",""time"":809},{""stimulus"":""img/1to3/9.png"",""time"":894},{""stimulus"":""img/1to3/10.png"",""time"":997},{""stimulus"":""img/1to3/11.png"",""time"":1093},{""stimulus"":""img/1to3/12.png"",""time"":1198}]","[]"
"image-keyboard-response","139","223727","0.0-5.0-1.67","60d2d061fd054556769ca306","bdp_cybrbll","Sun Mar 26 2023 10:45:32 GMT-0400 (Eastern Daylight Time)","513168","3","1","","","","observe","","","null","","img/3to2/1.png","null","158","266","0.5","0.5","3","1","",""
"animation","140","225024","0.0-5.0-2.67","60d2d061fd054556769ca306","bdp_cybrbll","Sun Mar 26 2023 10:45:32 GMT-0400 (Eastern Daylight Time)","513168","3","1","","","","","","","","","","","158","","","","3","1","[{""stimulus"":""img/3to1/1.png"",""time"":112},{""stimulus"":""img/3to1/2.png"",""time"":209},{""stimulus"":""img/3to1/3.png"",""time"":306},{""stimulus"":""img/3to1/4.png"",""time"":405},{""stimulus"":""img/3to1/5.png"",""time"":500},{""stimulus"":""img/3to1/6.png"",""time"":608},{""stimulus"":""img/3to1/7.png"",""time"":708},{""stimulus"":""img/3to1/8.png"",""time"":796},{""stimulus"":""img/3to1/9.png"",""time"":901},{""stimulus"":""img/3to1/10.png"",""time"":1000},{""stimulus"":""img/3to1/11.png"",""time"":1095},{""stimulus"":""img/3to1/12.png"",""time"":1201}]","[]"
"image-keyboard-response","141","226844","0.0-5.0-1.68","60d2d061fd054556769ca306","bdp_cybrbll","Sun Mar 26 2023 10:45:32 GMT-0400 (Eastern Daylight Time)","513168","3","1","","","","observe","","","null","","img/1to3/1.png","null","157","1818","0.5","0.5","1","2","",""
"animation","142","228146","0.0-5.0-2.68","60d2d061fd054556769ca306","bdp_cybrbll","Sun Mar 26 2023 10:45:32 GMT-0400 (Eastern Daylight Time)","513168","3","1","","","","","","","","","","","157","","","","1","2","[{""stimulus"":""img/1to2/1.png"",""time"":110},{""stimulus"":""img/1to2/2.png"",""time"":215},{""stimulus"":""img/1to2/3.png"",""time"":299},{""stimulus"":""img/1to2/4.png"",""time"":405},{""stimulus"":""img/1to2/5.png"",""time"":499},{""stimulus"":""img/1to2/6.png"",""time"":606},{""stimulus"":""img/1to2/7.png"",""time"":709},{""stimulus"":""img/1to2/8.png"",""time"":795},{""stimulus"":""img/1to2/9.png"",""time"":895},{""stimulus"":""img/1to2/10.png"",""time"":996},{""stimulus"":""img/1to2/11.png"",""time"":1100},{""stimulus"":""img/1to2/12.png"",""time"":1193}]","[]"
"image-keyboard-response","143","228380","0.0-5.0-1.69","60d2d061fd054556769ca306","bdp_cybrbll","Sun Mar 26 2023 10:45:32 GMT-0400 (Eastern Daylight Time)","513168","3","1","","","","choice","","","233","","img/2to1/1.png","1","156","336","0.5","0.5","2","1","",""
"animation","144","229678","0.0-5.0-2.69","60d2d061fd054556769ca306","bdp_cybrbll","Sun Mar 26 2023 10:45:32 GMT-0400 (Eastern Daylight Time)","513168","3","1","","","","","","","","","","","156","","","","2","1","[{""stimulus"":""img/2to1/1.png"",""time"":106},{""stimulus"":""img/2to1/2.png"",""time"":202},{""stimulus"":""img/2to1/3.png"",""time"":299},{""stimulus"":""img/2to1/4.png"",""time"":400},{""stimulus"":""img/2to1/5.png"",""time"":511},{""stimulus"":""img/2to1/6.png"",""time"":602},{""stimulus"":""img/2to1/7.png"",""time"":699},{""stimulus"":""img/2to1/8.png"",""time"":799},{""stimulus"":""img/2to1/9.png"",""time"":903},{""stimulus"":""img/2to1/10.png"",""time"":992},{""stimulus"":""img/2to1/11.png"",""time"":1101},{""stimulus"":""img/2to1/12.png"",""time"":1203}]","[]"
"image-keyboard-response","145","229975","0.0-5.0-1.70","60d2d061fd054556769ca306","bdp_cybrbll","Sun Mar 26 2023 10:45:32 GMT-0400 (Eastern Daylight Time)","513168","3","1","","","","observe","","","null","","img/1to3/1.png","null","155","290","0.5","0.5","1","2","",""
"animation","146","231276","0.0-5.0-2.70","60d2d061fd054556769ca306","bdp_cybrbll","Sun Mar 26 2023 10:45:32 GMT-0400 (Eastern Daylight Time)","513168","3","1","","","","","","","","","","","155","","","","1","2","[{""stimulus"":""img/1to2/1.png"",""time"":111},{""stimulus"":""img/1to2/2.png"",""time"":207},{""stimulus"":""img/1to2/3.png"",""time"":306},{""stimulus"":""img/1to2/4.png"",""time"":399},{""stimulus"":""img/1to2/5.png"",""time"":511},{""stimulus"":""img/1to2/6.png"",""time"":608},{""stimulus"":""img/1to2/7.png"",""time"":710},{""stimulus"":""img/1to2/8.png"",""time"":798},{""stimulus"":""img/1to2/9.png"",""time"":902},{""stimulus"":""img/1to2/10.png"",""time"":999},{""stimulus"":""img/1to2/11.png"",""time"":1094},{""stimulus"":""img/1to2/12.png"",""time"":1192}]","[]"
"image-keyboard-response","147","231379","0.0-5.0-1.71","60d2d061fd054556769ca306","bdp_cybrbll","Sun Mar 26 2023 10:45:32 GMT-0400 (Eastern Daylight Time)","513168","3","1","","","","choice","","","102","","img/2to1/1.png","1","154","1564","0.5","0.5","2","1","",""
"animation","148","232670","0.0-5.0-2.71","60d2d061fd054556769ca306","bdp_cybrbll","Sun Mar 26 2023 10:45:32 GMT-0400 (Eastern Daylight Time)","513168","3","1","","","","","","","","","","","154","","","","2","1","[{""stimulus"":""img/2to1/1.png"",""time"":110},{""stimulus"":""img/2to1/2.png"",""time"":201},{""stimulus"":""img/2to1/3.png"",""time"":312},{""stimulus"":""img/2to1/4.png"",""time"":406},{""stimulus"":""img/2to1/5.png"",""time"":508},{""stimulus"":""img/2to1/6.png"",""time"":604},{""stimulus"":""img/2to1/7.png"",""time"":698},{""stimulus"":""img/2to1/8.png"",""time"":798},{""stimulus"":""img/2to1/9.png"",""time"":892},{""stimulus"":""img/2to1/10.png"",""time"":1001},{""stimulus"":""img/2to1/11.png"",""time"":1090},{""stimulus"":""img/2to1/12.png"",""time"":1200}]","[]"
"image-keyboard-response","149","233181","0.0-5.0-1.72","60d2d061fd054556769ca306","bdp_cybrbll","Sun Mar 26 2023 10:45:32 GMT-0400 (Eastern Daylight Time)","513168","3","1","","","","observe","","","null","","img/1to3/1.png","null","153","509","0.5","0.5","1","2","",""
"animation","150","234476","0.0-5.0-2.72","60d2d061fd054556769ca306","bdp_cybrbll","Sun Mar 26 2023 10:45:32 GMT-0400 (Eastern Daylight Time)","513168","3","1","","","","","","","","","","","153","","","","1","2","[{""stimulus"":""img/1to2/1.png"",""time"":110},{""stimulus"":""img/1to2/2.png"",""time"":205},{""stimulus"":""img/1to2/3.png"",""time"":312},{""stimulus"":""img/1to2/4.png"",""time"":404},{""stimulus"":""img/1to2/5.png"",""time"":508},{""stimulus"":""img/1to2/6.png"",""time"":600},{""stimulus"":""img/1to2/7.png"",""time"":708},{""stimulus"":""img/1to2/8.png"",""time"":794},{""stimulus"":""img/1to2/9.png"",""time"":902},{""stimulus"":""img/1to2/10.png"",""time"":1002},{""stimulus"":""img/1to2/11.png"",""time"":1102},{""stimulus"":""img/1to2/12.png"",""time"":1196}]","[]"
"image-keyboard-response","151","234631","0.0-5.0-1.73","60d2d061fd054556769ca306","bdp_cybrbll","Sun Mar 26 2023 10:45:32 GMT-0400 (Eastern Daylight Time)","513168","3","1","","","","choice","","","153","","img/2to1/1.png","2","152","372","0.5","0.5","2","3","",""
"animation","152","235927","0.0-5.0-2.73","60d2d061fd054556769ca306","bdp_cybrbll","Sun Mar 26 2023 10:45:32 GMT-0400 (Eastern Daylight Time)","513168","3","1","","","","","","","","","","","152","","","","2","3","[{""stimulus"":""img/2to3/1.png"",""time"":105},{""stimulus"":""img/2to3/2.png"",""time"":201},{""stimulus"":""img/2to3/3.png"",""time"":307},{""stimulus"":""img/2to3/4.png"",""time"":399},{""stimulus"":""img/2to3/5.png"",""time"":502},{""stimulus"":""img/2to3/6.png"",""time"":601},{""stimulus"":""img/2to3/7.png"",""time"":698},{""stimulus"":""img/2to3/8.png"",""time"":804},{""stimulus"":""img/2to3/9.png"",""time"":899},{""stimulus"":""img/2to3/10.png"",""time"":993},{""stimulus"":""img/2to3/11.png"",""time"":1102},{""stimulus"":""img/2to3/12.png"",""time"":1202}]","[]"
"image-keyboard-response","153","237091","0.0-5.0-1.74","60d2d061fd054556769ca306","bdp_cybrbll","Sun Mar 26 2023 10:45:32 GMT-0400 (Eastern Daylight Time)","513168","3","1","","","","observe","","","null","","img/3to2/1.png","null","151","1150","0.5","0.5","3","2","",""
"animation","154","238394","0.0-5.0-2.74","60d2d061fd054556769ca306","bdp_cybrbll","Sun Mar 26 2023 10:45:32 GMT-0400 (Eastern Daylight Time)","513168","3","1","","","","","","","","","","","151","","","","3","2","[{""stimulus"":""img/3to2/1.png"",""time"":108},{""stimulus"":""img/3to2/2.png"",""time"":205},{""stimulus"":""img/3to2/3.png"",""time"":310},{""stimulus"":""img/3to2/4.png"",""time"":397},{""stimulus"":""img/3to2/5.png"",""time"":499},{""stimulus"":""img/3to2/6.png"",""time"":604},{""stimulus"":""img/3to2/7.png"",""time"":707},{""stimulus"":""img/3to2/8.png"",""time"":801},{""stimulus"":""img/3to2/9.png"",""time"":900},{""stimulus"":""img/3to2/10.png"",""time"":992},{""stimulus"":""img/3to2/11.png"",""time"":1097},{""stimulus"":""img/3to2/12.png"",""time"":1196}]","[]"
"image-keyboard-response","155","238444","0.0-5.0-1.75","60d2d061fd054556769ca306","bdp_cybrbll","Sun Mar 26 2023 10:45:32 GMT-0400 (Eastern Daylight Time)","513168","3","1","","","","choice","","","49","","img/2to1/1.png","2","150","267","0.5","0.5","2","3","",""
"animation","156","239741","0.0-5.0-2.75","60d2d061fd054556769ca306","bdp_cybrbll","Sun Mar 26 2023 10:45:32 GMT-0400 (Eastern Daylight Time)","513168","3","1","","","","","","","","","","","150","","","","2","3","[{""stimulus"":""img/2to3/1.png"",""time"":108},{""stimulus"":""img/2to3/2.png"",""time"":213},{""stimulus"":""img/2to3/3.png"",""time"":299},{""stimulus"":""img/2to3/4.png"",""time"":407},{""stimulus"":""img/2to3/5.png"",""time"":499},{""stimulus"":""img/2to3/6.png"",""time"":603},{""stimulus"":""img/2to3/7.png"",""time"":696},{""stimulus"":""img/2to3/8.png"",""time"":806},{""stimulus"":""img/2to3/9.png"",""time"":904},{""stimulus"":""img/2to3/10.png"",""time"":992},{""stimulus"":""img/2to3/11.png"",""time"":1104},{""stimulus"":""img/2to3/12.png"",""time"":1190}]","[]"
"image-keyboard-response","157","240060","0.0-5.0-1.76","60d2d061fd054556769ca306","bdp_cybrbll","Sun Mar 26 2023 10:45:32 GMT-0400 (Eastern Daylight Time)","513168","3","1","","","","observe","","","null","","img/3to2/1.png","null","149","303","0.5","0.1","3","2","",""
"animation","158","241357","0.0-5.0-2.76","60d2d061fd054556769ca306","bdp_cybrbll","Sun Mar 26 2023 10:45:32 GMT-0400 (Eastern Daylight Time)","513168","3","1","","","","","","","","","","","149","","","","3","2","[{""stimulus"":""img/3to2/1.png"",""time"":110},{""stimulus"":""img/3to2/2.png"",""time"":205},{""stimulus"":""img/3to2/3.png"",""time"":312},{""stimulus"":""img/3to2/4.png"",""time"":412},{""stimulus"":""img/3to2/5.png"",""time"":501},{""stimulus"":""img/3to2/6.png"",""time"":605},{""stimulus"":""img/3to2/7.png"",""time"":697},{""stimulus"":""img/3to2/8.png"",""time"":800},{""stimulus"":""img/3to2/9.png"",""time"":905},{""stimulus"":""img/3to2/10.png"",""time"":1000},{""stimulus"":""img/3to2/11.png"",""time"":1109},{""stimulus"":""img/3to2/12.png"",""time"":1204}]","[]"
"image-keyboard-response","159","241519","0.0-5.0-1.77","60d2d061fd054556769ca306","bdp_cybrbll","Sun Mar 26 2023 10:45:32 GMT-0400 (Eastern Daylight Time)","513168","3","1","","","","choice","","","161","","img/2to1/1.png","1","148","795","0.5","0.1","2","1","",""
"animation","160","242813","0.0-5.0-2.77","60d2d061fd054556769ca306","bdp_cybrbll","Sun Mar 26 2023 10:45:32 GMT-0400 (Eastern Daylight Time)","513168","3","1","","","","","","","","","","","148","","","","2","1","[{""stimulus"":""img/2to1/1.png"",""time"":108},{""stimulus"":""img/2to1/2.png"",""time"":205},{""stimulus"":""img/2to1/3.png"",""time"":310},{""stimulus"":""img/2to1/4.png"",""time"":397},{""stimulus"":""img/2to1/5.png"",""time"":500},{""stimulus"":""img/2to1/6.png"",""time"":606},{""stimulus"":""img/2to1/7.png"",""time"":699},{""stimulus"":""img/2to1/8.png"",""time"":806},{""stimulus"":""img/2to1/9.png"",""time"":892},{""stimulus"":""img/2to1/10.png"",""time"":992},{""stimulus"":""img/2to1/11.png"",""time"":1103},{""stimulus"":""img/2to1/12.png"",""time"":1194}]","[]"
"image-keyboard-response","161","243133","0.0-5.0-1.78","60d2d061fd054556769ca306","bdp_cybrbll","Sun Mar 26 2023 10:45:32 GMT-0400 (Eastern Daylight Time)","513168","3","1","","","","observe","","","null","","img/1to3/1.png","null","147","313","0.5","0.1","1","3","",""
"animation","162","244422","0.0-5.0-2.78","60d2d061fd054556769ca306","bdp_cybrbll","Sun Mar 26 2023 10:45:32 GMT-0400 (Eastern Daylight Time)","513168","3","1","","","","","","","","","","","147","","","","1","3","[{""stimulus"":""img/1to3/1.png"",""time"":112},{""stimulus"":""img/1to3/2.png"",""time"":207},{""stimulus"":""img/1to3/3.png"",""time"":306},{""stimulus"":""img/1to3/4.png"",""time"":407},{""stimulus"":""img/1to3/5.png"",""time"":501},{""stimulus"":""img/1to3/6.png"",""time"":600},{""stimulus"":""img/1to3/7.png"",""time"":710},{""stimulus"":""img/1to3/8.png"",""time"":796},{""stimulus"":""img/1to3/9.png"",""time"":892},{""stimulus"":""img/1to3/10.png"",""time"":1005},{""stimulus"":""img/1to3/11.png"",""time"":1099},{""stimulus"":""img/1to3/12.png"",""time"":1189}]","[]"
"image-keyboard-response","163","244620","0.0-5.0-1.79","60d2d061fd054556769ca306","bdp_cybrbll","Sun Mar 26 2023 10:45:32 GMT-0400 (Eastern Daylight Time)","513168","3","1","","","","observe","","","null","","img/3to2/1.png","null","146","197","0.5","0.1","3","1","",""
"animation","164","245920","0.0-5.0-2.79","60d2d061fd054556769ca306","bdp_cybrbll","Sun Mar 26 2023 10:45:32 GMT-0400 (Eastern Daylight Time)","513168","3","1","","","","","","","","","","","146","","","","3","1","[{""stimulus"":""img/3to1/1.png"",""time"":112},{""stimulus"":""img/3to1/2.png"",""time"":208},{""stimulus"":""img/3to1/3.png"",""time"":307},{""stimulus"":""img/3to1/4.png"",""time"":406},{""stimulus"":""img/3to1/5.png"",""time"":501},{""stimulus"":""img/3to1/6.png"",""time"":600},{""stimulus"":""img/3to1/7.png"",""time"":702},{""stimulus"":""img/3to1/8.png"",""time"":796},{""stimulus"":""img/3to1/9.png"",""time"":898},{""stimulus"":""img/3to1/10.png"",""time"":999},{""stimulus"":""img/3to1/11.png"",""time"":1106},{""stimulus"":""img/3to1/12.png"",""time"":1201}]","[]"
"image-keyboard-response","165","246762","0.0-5.0-1.80","60d2d061fd054556769ca306","bdp_cybrbll","Sun Mar 26 2023 10:45:32 GMT-0400 (Eastern Daylight Time)","513168","3","1","","","","observe","","","null","","img/1to3/1.png","null","145","835","0.5","0.1","1","3","",""
"animation","166","248052","0.0-5.0-2.80","60d2d061fd054556769ca306","bdp_cybrbll","Sun Mar 26 2023 10:45:32 GMT-0400 (Eastern Daylight Time)","513168","3","1","","","","","","","","","","","145","","","","1","3","[{""stimulus"":""img/1to3/1.png"",""time"":110},{""stimulus"":""img/1to3/2.png"",""time"":206},{""stimulus"":""img/1to3/3.png"",""time"":313},{""stimulus"":""img/1to3/4.png"",""time"":406},{""stimulus"":""img/1to3/5.png"",""time"":512},{""stimulus"":""img/1to3/6.png"",""time"":599},{""stimulus"":""img/1to3/7.png"",""time"":700},{""stimulus"":""img/1to3/8.png"",""time"":798},{""stimulus"":""img/1to3/9.png"",""time"":905},{""stimulus"":""img/1to3/10.png"",""time"":1000},{""stimulus"":""img/1to3/11.png"",""time"":1093},{""stimulus"":""img/1to3/12.png"",""time"":1192}]","[]"
"image-keyboard-response","167","248728","0.0-5.0-1.81","60d2d061fd054556769ca306","bdp_cybrbll","Sun Mar 26 2023 10:45:32 GMT-0400 (Eastern Daylight Time)","513168","3","1","","","","observe","","","null","","img/3to2/1.png","null","144","675","0.5","0.1","3","2","",""
"animation","168","250017","0.0-5.0-2.81","60d2d061fd054556769ca306","bdp_cybrbll","Sun Mar 26 2023 10:45:32 GMT-0400 (Eastern Daylight Time)","513168","3","1","","","","","","","","","","","144","","","","3","2","[{""stimulus"":""img/3to2/1.png"",""time"":112},{""stimulus"":""img/3to2/2.png"",""time"":206},{""stimulus"":""img/3to2/3.png"",""time"":308},{""stimulus"":""img/3to2/4.png"",""time"":406},{""stimulus"":""img/3to2/5.png"",""time"":504},{""stimulus"":""img/3to2/6.png"",""time"":599},{""stimulus"":""img/3to2/7.png"",""time"":706},{""stimulus"":""img/3to2/8.png"",""time"":801},{""stimulus"":""img/3to2/9.png"",""time"":903},{""stimulus"":""img/3to2/10.png"",""time"":997},{""stimulus"":""img/3to2/11.png"",""time"":1095},{""stimulus"":""img/3to2/12.png"",""time"":1190}]","[]"
"image-keyboard-response","169","250167","0.0-5.0-1.82","60d2d061fd054556769ca306","bdp_cybrbll","Sun Mar 26 2023 10:45:32 GMT-0400 (Eastern Daylight Time)","513168","3","1","","","","choice","","","148","","img/2to1/1.png","2","143","349","0.5","0.1","2","3","",""
"animation","170","251472","0.0-5.0-2.82","60d2d061fd054556769ca306","bdp_cybrbll","Sun Mar 26 2023 10:45:32 GMT-0400 (Eastern Daylight Time)","513168","3","1","","","","","","","","","","","143","","","","2","3","[{""stimulus"":""img/2to3/1.png"",""time"":100},{""stimulus"":""img/2to3/2.png"",""time"":212},{""stimulus"":""img/2to3/3.png"",""time"":303},{""stimulus"":""img/2to3/4.png"",""time"":409},{""stimulus"":""img/2to3/5.png"",""time"":504},{""stimulus"":""img/2to3/6.png"",""time"":602},{""stimulus"":""img/2to3/7.png"",""time"":695},{""stimulus"":""img/2to3/8.png"",""time"":805},{""stimulus"":""img/2to3/9.png"",""time"":904},{""stimulus"":""img/2to3/10.png"",""time"":995},{""stimulus"":""img/2to3/11.png"",""time"":1105},{""stimulus"":""img/2to3/12.png"",""time"":1204}]","[]"
"image-keyboard-response","171","251865","0.0-5.0-1.83","60d2d061fd054556769ca306","bdp_cybrbll","Sun Mar 26 2023 10:45:32 GMT-0400 (Eastern Daylight Time)","513168","3","1","","","","observe","","","null","","img/3to2/1.png","null","142","389","0.5","0.1","3","2","",""
"animation","172","253153","0.0-5.0-2.83","60d2d061fd054556769ca306","bdp_cybrbll","Sun Mar 26 2023 10:45:32 GMT-0400 (Eastern Daylight Time)","513168","3","1","","","","","","","","","","","142","","","","3","2","[{""stimulus"":""img/3to2/1.png"",""time"":110},{""stimulus"":""img/3to2/2.png"",""time"":212},{""stimulus"":""img/3to2/3.png"",""time"":312},{""stimulus"":""img/3to2/4.png"",""time"":413},{""stimulus"":""img/3to2/5.png"",""time"":497},{""stimulus"":""img/3to2/6.png"",""time"":605},{""stimulus"":""img/3to2/7.png"",""time"":704},{""stimulus"":""img/3to2/8.png"",""time"":802},{""stimulus"":""img/3to2/9.png"",""time"":908},{""stimulus"":""img/3to2/10.png"",""time"":994},{""stimulus"":""img/3to2/11.png"",""time"":1093},{""stimulus"":""img/3to2/12.png"",""time"":1192}]","[]"
"image-keyboard-response","173","253467","0.0-5.0-1.84","60d2d061fd054556769ca306","bdp_cybrbll","Sun Mar 26 2023 10:45:32 GMT-0400 (Eastern Daylight Time)","513168","3","1","","","","choice","","","313","","img/2to1/1.png","1","141","300","0.5","0.1","2","1","",""
"animation","174","254756","0.0-5.0-2.84","60d2d061fd054556769ca306","bdp_cybrbll","Sun Mar 26 2023 10:45:32 GMT-0400 (Eastern Daylight Time)","513168","3","1","","","","","","","","","","","141","","","","2","1","[{""stimulus"":""img/2to1/1.png"",""time"":112},{""stimulus"":""img/2to1/2.png"",""time"":203},{""stimulus"":""img/2to1/3.png"",""time"":306},{""stimulus"":""img/2to1/4.png"",""time"":399},{""stimulus"":""img/2to1/5.png"",""time"":503},{""stimulus"":""img/2to1/6.png"",""time"":600},{""stimulus"":""img/2to1/7.png"",""time"":697},{""stimulus"":""img/2to1/8.png"",""time"":807},{""stimulus"":""img/2to1/9.png"",""time"":906},{""stimulus"":""img/2to1/10.png"",""time"":991},{""stimulus"":""img/2to1/11.png"",""time"":1093},{""stimulus"":""img/2to1/12.png"",""time"":1194}]","[]"
"image-keyboard-response","175","255368","0.0-5.0-1.85","60d2d061fd054556769ca306","bdp_cybrbll","Sun Mar 26 2023 10:45:32 GMT-0400 (Eastern Daylight Time)","513168","3","1","","","","observe","","","null","","img/1to3/1.png","null","140","599","0.5","0.1","1","3","",""
"animation","176","256667","0.0-5.0-2.85","60d2d061fd054556769ca306","bdp_cybrbll","Sun Mar 26 2023 10:45:32 GMT-0400 (Eastern Daylight Time)","513168","3","1","","","","","","","","","","","140","","","","1","3","[{""stimulus"":""img/1to3/1.png"",""time"":109},{""stimulus"":""img/1to3/2.png"",""time"":214},{""stimulus"":""img/1to3/3.png"",""time"":303},{""stimulus"":""img/1to3/4.png"",""time"":402},{""stimulus"":""img/1to3/5.png"",""time"":497},{""stimulus"":""img/1to3/6.png"",""time"":596},{""stimulus"":""img/1to3/7.png"",""time"":705},{""stimulus"":""img/1to3/8.png"",""time"":808},{""stimulus"":""img/1to3/9.png"",""time"":895},{""stimulus"":""img/1to3/10.png"",""time"":996},{""stimulus"":""img/1to3/11.png"",""time"":1091},{""stimulus"":""img/1to3/12.png"",""time"":1189}]","[]"
"image-keyboard-response","177","256832","0.0-5.0-1.86","60d2d061fd054556769ca306","bdp_cybrbll","Sun Mar 26 2023 10:45:32 GMT-0400 (Eastern Daylight Time)","513168","3","1","","","","observe","","","null","","img/3to2/1.png","null","139","162","0.5","0.1","3","2","",""
"animation","178","258131","0.0-5.0-2.86","60d2d061fd054556769ca306","bdp_cybrbll","Sun Mar 26 2023 10:45:32 GMT-0400 (Eastern Daylight Time)","513168","3","1","","","","","","","","","","","139","","","","3","2","[{""stimulus"":""img/3to2/1.png"",""time"":110},{""stimulus"":""img/3to2/2.png"",""time"":205},{""stimulus"":""img/3to2/3.png"",""time"":305},{""stimulus"":""img/3to2/4.png"",""time"":399},{""stimulus"":""img/3to2/5.png"",""time"":502},{""stimulus"":""img/3to2/6.png"",""time"":603},{""stimulus"":""img/3to2/7.png"",""time"":696},{""stimulus"":""img/3to2/8.png"",""time"":801},{""stimulus"":""img/3to2/9.png"",""time"":895},{""stimulus"":""img/3to2/10.png"",""time"":994},{""stimulus"":""img/3to2/11.png"",""time"":1096},{""stimulus"":""img/3to2/12.png"",""time"":1192}]","[]"
"image-keyboard-response","179","258254","0.0-5.0-1.87","60d2d061fd054556769ca306","bdp_cybrbll","Sun Mar 26 2023 10:45:32 GMT-0400 (Eastern Daylight Time)","513168","3","1","","","","choice","","","122","","img/2to1/1.png","1","138","282","0.5","0.1","2","1","",""
"animation","180","259558","0.0-5.0-2.87","60d2d061fd054556769ca306","bdp_cybrbll","Sun Mar 26 2023 10:45:32 GMT-0400 (Eastern Daylight Time)","513168","3","1","","","","","","","","","","","138","","","","2","1","[{""stimulus"":""img/2to1/1.png"",""time"":103},{""stimulus"":""img/2to1/2.png"",""time"":213},{""stimulus"":""img/2to1/3.png"",""time"":314},{""stimulus"":""img/2to1/4.png"",""time"":409},{""stimulus"":""img/2to1/5.png"",""time"":504},{""stimulus"":""img/2to1/6.png"",""time"":599},{""stimulus"":""img/2to1/7.png"",""time"":704},{""stimulus"":""img/2to1/8.png"",""time"":798},{""stimulus"":""img/2to1/9.png"",""time"":900},{""stimulus"":""img/2to1/10.png"",""time"":994},{""stimulus"":""img/2to1/11.png"",""time"":1104},{""stimulus"":""img/2to1/12.png"",""time"":1195}]","[]"
"image-keyboard-response","181","259923","0.0-5.0-1.88","60d2d061fd054556769ca306","bdp_cybrbll","Sun Mar 26 2023 10:45:32 GMT-0400 (Eastern Daylight Time)","513168","3","1","","","","observe","","","null","","img/1to3/1.png","null","137","363","0.5","0.1","1","3","",""
"animation","182","261216","0.0-5.0-2.88","60d2d061fd054556769ca306","bdp_cybrbll","Sun Mar 26 2023 10:45:32 GMT-0400 (Eastern Daylight Time)","513168","3","1","","","","","","","","","","","137","","","","1","3","[{""stimulus"":""img/1to3/1.png"",""time"":110},{""stimulus"":""img/1to3/2.png"",""time"":212},{""stimulus"":""img/1to3/3.png"",""time"":303},{""stimulus"":""img/1to3/4.png"",""time"":405},{""stimulus"":""img/1to3/5.png"",""time"":498},{""stimulus"":""img/1to3/6.png"",""time"":598},{""stimulus"":""img/1to3/7.png"",""time"":698},{""stimulus"":""img/1to3/8.png"",""time"":797},{""stimulus"":""img/1to3/9.png"",""time"":892},{""stimulus"":""img/1to3/10.png"",""time"":990},{""stimulus"":""img/1to3/11.png"",""time"":1102},{""stimulus"":""img/1to3/12.png"",""time"":1193}]","[]"
"image-keyboard-response","183","261412","0.0-5.0-1.89","60d2d061fd054556769ca306","bdp_cybrbll","Sun Mar 26 2023 10:45:32 GMT-0400 (Eastern Daylight Time)","513168","3","1","","","","observe","","","null","","img/3to2/1.png","null","136","192","0.5","0.1","3","1","",""
"animation","184","262711","0.0-5.0-2.89","60d2d061fd054556769ca306","bdp_cybrbll","Sun Mar 26 2023 10:45:32 GMT-0400 (Eastern Daylight Time)","513168","3","1","","","","","","","","","","","136","","","","3","1","[{""stimulus"":""img/3to1/1.png"",""time"":110},{""stimulus"":""img/3to1/2.png"",""time"":207},{""stimulus"":""img/3to1/3.png"",""time"":302},{""stimulus"":""img/3to1/4.png"",""time"":400},{""stimulus"":""img/3to1/5.png"",""time"":501},{""stimulus"":""img/3to1/6.png"",""time"":598},{""stimulus"":""img/3to1/7.png"",""time"":707},{""stimulus"":""img/3to1/8.png"",""time"":808},{""stimulus"":""img/3to1/9.png"",""time"":904},{""stimulus"":""img/3to1/10.png"",""time"":995},{""stimulus"":""img/3to1/11.png"",""time"":1106},{""stimulus"":""img/3to1/12.png"",""time"":1198}]","[]"
"image-keyboard-response","185","263174","0.0-5.0-1.90","60d2d061fd054556769ca306","bdp_cybrbll","Sun Mar 26 2023 10:45:32 GMT-0400 (Eastern Daylight Time)","513168","3","1","","","","observe","","","null","","img/1to3/1.png","null","135","445","0.5","0.1","1","3","",""
"animation","186","264476","0.0-5.0-2.90","60d2d061fd054556769ca306","bdp_cybrbll","Sun Mar 26 2023 10:45:32 GMT-0400 (Eastern Daylight Time)","513168","3","1","","","","","","","","","","","135","","","","1","3","[{""stimulus"":""img/1to3/1.png"",""time"":110},{""stimulus"":""img/1to3/2.png"",""time"":206},{""stimulus"":""img/1to3/3.png"",""time"":299},{""stimulus"":""img/1to3/4.png"",""time"":403},{""stimulus"":""img/1to3/5.png"",""time"":499},{""stimulus"":""img/1to3/6.png"",""time"":597},{""stimulus"":""img/1to3/7.png"",""time"":697},{""stimulus"":""img/1to3/8.png"",""time"":800},{""stimulus"":""img/1to3/9.png"",""time"":905},{""stimulus"":""img/1to3/10.png"",""time"":999},{""stimulus"":""img/1to3/11.png"",""time"":1104},{""stimulus"":""img/1to3/12.png"",""time"":1203}]","[]"
"image-keyboard-response","187","265466","0.0-5.0-1.91","60d2d061fd054556769ca306","bdp_cybrbll","Sun Mar 26 2023 10:45:32 GMT-0400 (Eastern Daylight Time)","513168","3","1","","","","observe","","","null","","img/3to2/1.png","null","134","987","0.5","0.1","3","2","",""
