"trial_type","trial_index","time_elapsed","internal_node_id","subject_id","task","startTime","totalTime","fairPartner","unfairPartner","view_history","rt","event","trial","time","trialtype","success","stimulus","key_press","throwsLeft","rtDur","pFair","pUnfair","holder","receiver","animation_sequence","responses"
"pavlovia","0","2","0.0-0.0","5ecbd383243b3438410dae19","bdp_cybrbll","Sat Mar 25 2023 18:36:11 GMT-0500 (Central Daylight Time)","455205","1","3","","","","","","","","","","","","","","","","",""
"instructions","1","5799","0.0-1.0","5ecbd383243b3438410dae19","bdp_cybrbll","Sat Mar 25 2023 18:36:11 GMT-0500 (Central Daylight Time)","455205","1","3","[{""page_index"":0,""viewing_time"":5796}]","5796","","","","","","","","","","","","","","",""
"","","","","5ecbd383243b3438410dae19","bdp_cybrbll","Sat Mar 25 2023 18:36:11 GMT-0500 (Central Daylight Time)","455205","1","3","","","fullscreenenter","2","8471","fullscreenenter","","","","","","","","","","",""
"fullscreen","2","9477","0.0-2.0","5ecbd383243b3438410dae19","bdp_cybrbll","Sat Mar 25 2023 18:36:11 GMT-0500 (Central Daylight Time)","455205","1","3","","","","","","","true","","","","","","","","","",""
"instructions","3","53560","0.0-4.0","5ecbd383243b3438410dae19","bdp_cybrbll","Sat Mar 25 2023 18:36:11 GMT-0500 (Central Daylight Time)","455205","1","3","[{""page_index"":0,""viewing_time"":44083}]","44083","","","","","","","","","","","","","","",""
"image-keyboard-response","4","56065","0.0-5.0-1.0","5ecbd383243b3438410dae19","bdp_cybrbll","Sat Mar 25 2023 18:36:11 GMT-0500 (Central Daylight Time)","455205","1","3","","2502","","","","choice","","img/2to1/1.png","1","225","719","0.5","0.5","2","1","",""
"animation","5","57353","0.0-5.0-2.0","5ecbd383243b3438410dae19","bdp_cybrbll","Sat Mar 25 2023 18:36:11 GMT-0500 (Central Daylight Time)","455205","1","3","","","","","","","","","","225","","","","2","1","[{""stimulus"":""img/2to1/1.png"",""time"":100},{""stimulus"":""img/2to1/2.png"",""time"":199},{""stimulus"":""img/2to1/3.png"",""time"":298},{""stimulus"":""img/2to1/4.png"",""time"":397},{""stimulus"":""img/2to1/5.png"",""time"":496},{""stimulus"":""img/2to1/6.png"",""time"":596},{""stimulus"":""img/2to1/7.png"",""time"":694},{""stimulus"":""img/2to1/8.png"",""time"":793},{""stimulus"":""img/2to1/9.png"",""time"":892},{""stimulus"":""img/2to1/10.png"",""time"":991},{""stimulus"":""img/2to1/11.png"",""time"":1090},{""stimulus"":""img/2to1/12.png"",""time"":1189}]","[]"
"image-keyboard-response","6","57857","0.0-5.0-1.1","5ecbd383243b3438410dae19","bdp_cybrbll","Sat Mar 25 2023 18:36:11 GMT-0500 (Central Daylight Time)","455205","1","3","","null","","","","observe","","img/1to3/1.png","null","224","502","0.5","0.5","1","3","",""
"animation","7","59145","0.0-5.0-2.1","5ecbd383243b3438410dae19","bdp_cybrbll","Sat Mar 25 2023 18:36:11 GMT-0500 (Central Daylight Time)","455205","1","3","","","","","","","","","","224","","","","1","3","[{""stimulus"":""img/1to3/1.png"",""time"":101},{""stimulus"":""img/1to3/2.png"",""time"":198},{""stimulus"":""img/1to3/3.png"",""time"":298},{""stimulus"":""img/1to3/4.png"",""time"":397},{""stimulus"":""img/1to3/5.png"",""time"":496},{""stimulus"":""img/1to3/6.png"",""time"":595},{""stimulus"":""img/1to3/7.png"",""time"":694},{""stimulus"":""img/1to3/8.png"",""time"":793},{""stimulus"":""img/1to3/9.png"",""time"":893},{""stimulus"":""img/1to3/10.png"",""time"":991},{""stimulus"":""img/1to3/11.png"",""time"":1090},{""stimulus"":""img/1to3/12.png"",""time"":1189}]","[]"
"image-keyboard-response","8","59762","0.0-5.0-1.2","5ecbd383243b3438410dae19","bdp_cybrbll","Sat Mar 25 2023 18:36:11 GMT-0500 (Central Daylight Time)","455205","1","3","","null","","","","observe","","img/3to2/1.png","null","223","616","0.5","0.5","3","1","",""
"animation","9","61050","0.0-5.0-2.2","5ecbd383243b3438410dae19","bdp_cybrbll","Sat Mar 25 2023 18:36:11 GMT-0500 (Central Daylight Time)","455205","1","3","","","","","","","","","","223","","","","3","1","[{""stimulus"":""img/3to1/1.png"",""time"":101},{""stimulus"":""img/3to1/2.png"",""time"":199},{""stimulus"":""img/3to1/3.png"",""time"":298},{""stimulus"":""img/3to1/4.png"",""time"":397},{""stimulus"":""img/3to1/5.png"",""time"":497},{""stimulus"":""img/3to1/6.png"",""time"":596},{""stimulus"":""img/3to1/7.png"",""time"":695},{""stimulus"":""img/3to1/8.png"",""time"":793},{""stimulus"":""img/3to1/9.png"",""time"":892},{""stimulus"":""img/3to1/10.png"",""time"":991},{""stimulus"":""img/3to1/11.png"",""time"":1091},{""stimulus"":""img/3to1/12.png"",""time"":1189}]","[]"
"image-keyboard-response","10","61602","0.0-5.0-1.3","5ecbd383243b3438410dae19","bdp_cybrbll","Sat Mar 25 2023 18:36:11 GMT-0500 (Central Daylight Time)","455205","1","3","","null","","","","observe","","img/1to3/1.png","null","222","550","0.5","0.5","1","2","",""
"animation","11","62889","0.0-5.0-2.3","5ecbd383243b3438410dae19","bdp_cybrbll","Sat Mar 25 2023 18:36:11 GMT-0500 (Central Daylight Time)","455205","1","3","","","","","","","","","","222","","","","1","2","[{""stimulus"":""img/1to2/1.png"",""time"":100},{""stimulus"":""img/1to2/2.png"",""time"":199},{""stimulus"":""img/1to2/3.png"",""time"":298},{""stimulus"":""img/1to2/4.png"",""time"":396},{""stimulus"":""img/1to2/5.png"",""time"":496},{""stimulus"":""img/1to2/6.png"",""time"":595},{""stimulus"":""img/1to2/7.png"",""time"":695},{""stimulus"":""img/1to2/8.png"",""time"":793},{""stimulus"":""img/1to2/9.png"",""time"":892},{""stimulus"":""img/1to2/10.png"",""time"":991},{""stimulus"":""img/1to2/11.png"",""time"":1089},{""stimulus"":""img/1to2/12.png"",""time"":1188}]","[]"
"image-keyboard-response","12","62939","0.0-5.0-1.4","5ecbd383243b3438410dae19","bdp_cybrbll","Sat Mar 25 2023 18:36:11 GMT-0500 (Central Daylight Time)","455205","1","3","","49","","","","choice","","img/2to1/1.png","2","221","308","0.5","0.5","2","3","",""
"animation","13","64227","0.0-5.0-2.4","5ecbd383243b3438410dae19","bdp_cybrbll","Sat Mar 25 2023 18:36:11 GMT-0500 (Central Daylight Time)","455205","1","3","","","","","","","","","","221","","","","2","3","[{""stimulus"":""img/2to3/1.png"",""time"":101},{""stimulus"":""img/2to3/2.png"",""time"":199},{""stimulus"":""img/2to3/3.png"",""time"":299},{""stimulus"":""img/2to3/4.png"",""time"":398},{""stimulus"":""img/2to3/5.png"",""time"":497},{""stimulus"":""img/2to3/6.png"",""time"":596},{""stimulus"":""img/2to3/7.png"",""time"":695},{""stimulus"":""img/2to3/8.png"",""time"":793},{""stimulus"":""img/2to3/9.png"",""time"":893},{""stimulus"":""img/2to3/10.png"",""time"":991},{""stimulus"":""img/2to3/11.png"",""time"":1090},{""stimulus"":""img/2to3/12.png"",""time"":1191}]","[]"
"image-keyboard-response","14","64937","0.0-5.0-1.5","5ecbd383243b3438410dae19","bdp_cybrbll","Sat Mar 25 2023 18:36:11 GMT-0500 (Central Daylight Time)","455205","1","3","","null","","","","observe","","img/3to2/1.png","null","220","709","0.5","0.5","3","1","",""
"animation","15","66225","0.0-5.0-2.5","5ecbd383243b3438410dae19","bdp_cybrbll","Sat Mar 25 2023 18:36:11 GMT-0500 (Central Daylight Time)","455205","1","3","","","","","","","","","","220","","","","3","1","[{""stimulus"":""img/3to1/1.png"",""time"":101},{""stimulus"":""img/3to1/2.png"",""time"":200},{""stimulus"":""img/3to1/3.png"",""time"":299},{""stimulus"":""img/3to1/4.png"",""time"":397},{""stimulus"":""img/3to1/5.png"",""time"":497},{""stimulus"":""img/3to1/6.png"",""time"":595},{""stimulus"":""img/3to1/7.png"",""time"":697},{""stimulus"":""img/3to1/8.png"",""time"":793},{""stimulus"":""img/3to1/9.png"",""time"":892},{""stimulus"":""img/3to1/10.png"",""time"":992},{""stimulus"":""img/3to1/11.png"",""time"":1091},{""stimulus"":""img/3to1/12.png"",""time"":1189}]","[]"
"image-keyboard-response","16","66398","0.0-5.0-1.6","5ecbd383243b3438410dae19","bdp_cybrbll","Sat Mar 25 2023 18:36:11 GMT-0500 (Central Daylight Time)","455205","1","3","","null","","","","observe","","img/1to3/1.png","null","219","172","0.5","0.5","1","2","",""
"animation","17","67686","0.0-5.0-2.6","5ecbd383243b3438410dae19","bdp_cybrbll","Sat Mar 25 2023 18:36:11 GMT-0500 (Central Daylight Time)","455205","1","3","","","","","","","","","","219","","","","1","2","[{""stimulus"":""img/1to2/1.png"",""time"":100},{""stimulus"":""img/1to2/2.png"",""time"":199},{""stimulus"":""img/1to2/3.png"",""time"":299},{""stimulus"":""img/1to2/4.png"",""time"":398},{""stimulus"":""img/1to2/5.png"",""time"":497},{""stimulus"":""img/1to2/6.png"",""time"":596},{""stimulus"":""img/1to2/7.png"",""time"":694},{""stimulus"":""img/1to2/8.png"",""time"":794},{""stimulus"":""img/1to2/9.png"",""time"":892},{""stimulus"":""img/1to2/10.png"",""time"":992},{""stimulus"":""img/1to2/11.png"",""time"":1090},{""stimulus"":""img/1to2/12.png"",""time"":1190}]","[]"
"image-keyboard-response","18","67711","0.0-5.0-1.7","5ecbd383243b3438410dae19","bdp_cybrbll","Sat Mar 25 2023 18:36:11 GMT-0500 (Central Daylight Time)","455205","1","3","","24","","","","choice","","img/2to1/1.png","1","218","291","0.5","0.5","2","1","",""
"animation","19","68999","0.0-5.0-2.7","5ecbd383243b3438410dae19","bdp_cybrbll","Sat Mar 25 2023 18:36:11 GMT-0500 (Central Daylight Time)","455205","1","3","","","","","","","","","","218","","","","2","1","[{""stimulus"":""img/2to1/1.png"",""time"":101},{""stimulus"":""img/2to1/2.png"",""time"":200},{""stimulus"":""img/2to1/3.png"",""time"":299},{""stimulus"":""img/2to1/4.png"",""time"":397},{""stimulus"":""img/2to1/5.png"",""time"":497},{""stimulus"":""img/2to1/6.png"",""time"":596},{""stimulus"":""img/2to1/7.png"",""time"":694},{""stimulus"":""img/2to1/8.png"",""time"":793},{""stimulus"":""img/2to1/9.png"",""time"":892},{""stimulus"":""img/2to1/10.png"",""time"":992},{""stimulus"":""img/2to1/11.png"",""time"":1090},{""stimulus"":""img/2to1/12.png"",""time"":1190}]","[]"
"image-keyboard-response","20","70101","0.0-5.0-1.8","5ecbd383243b3438410dae19","bdp_cybrbll","Sat Mar 25 2023 18:36:11 GMT-0500 (Central Daylight Time)","455205","1","3","","null","","","","observe","","img/1to3/1.png","null","217","1101","0.5","0.5","1","2","",""
"animation","21","71389","0.0-5.0-2.8","5ecbd383243b3438410dae19","bdp_cybrbll","Sat Mar 25 2023 18:36:11 GMT-0500 (Central Daylight Time)","455205","1","3","","","","","","","","","","217","","","","1","2","[{""stimulus"":""img/1to2/1.png"",""time"":100},{""stimulus"":""img/1to2/2.png"",""time"":199},{""stimulus"":""img/1to2/3.png"",""time"":298},{""stimulus"":""img/1to2/4.png"",""time"":397},{""stimulus"":""img/1to2/5.png"",""time"":496},{""stimulus"":""img/1to2/6.png"",""time"":595},{""stimulus"":""img/1to2/7.png"",""time"":694},{""stimulus"":""img/1to2/8.png"",""time"":793},{""stimulus"":""img/1to2/9.png"",""time"":892},{""stimulus"":""img/1to2/10.png"",""time"":991},{""stimulus"":""img/1to2/11.png"",""time"":1091},{""stimulus"":""img/1to2/12.png"",""time"":1189}]","[]"
"image-keyboard-response","22","71941","0.0-5.0-1.9","5ecbd383243b3438410dae19","bdp_cybrbll","Sat Mar 25 2023 18:36:11 GMT-0500 (Central Daylight Time)","455205","1","3","","552","","","","choice","","img/2to1/1.png","1","216","534","0.5","0.5","2","1","",""
"animation","23","73230","0.0-5.0-2.9","5ecbd383243b3438410dae19","bdp_cybrbll","Sat Mar 25 2023 18:36:11 GMT-0500 (Central Daylight Time)","455205","1","3","","","","","","","","","","216","","","","2","1","[{""stimulus"":""img/2to1/1.png"",""time"":100},{""stimulus"":""img/2to1/2.png"",""time"":199},{""stimulus"":""img/2to1/3.png"",""time"":298},{""stimulus"":""img/2to1/4.png"",""time"":396},{""stimulus"":""img/2to1/5.png"",""time"":495},{""stimulus"":""img/2to1/6.png"",""time"":595},{""stimulus"":""img/2to1/7.png"",""time"":693},{""stimulus"":""img/2to1/8.png"",""time"":792},{""stimulus"":""img/2to1/9.png"",""time"":892},{""stimulus"":""img/2to1/10.png"",""time"":991},{""stimulus"":""img/2to1/11.png"",""time"":1089},{""stimulus"":""img/2to1/12.png"",""time"":1188}]","[]"
"image-keyboard-response","24","73690","0.0-5.0-1.10","5ecbd383243b3438410dae19","bdp_cybrbll","Sat Mar 25 2023 18:36:11 GMT-0500 (Central Daylight Time)","455205","1","3","","null","","","","observe","","img/1to3/1.png","null","215","459","0.5","0.5","1","2","",""
"animation","25","74978","0.0-5.0-2.10","5ecbd383243b3438410dae19","bdp_cybrbll","Sat Mar 25 2023 18:36:11 GMT-0500 (Central Daylight Time)","455205","1","3","","","","","","","","","","215","","","","1","2","[{""stimulus"":""img/1to2/1.png"",""time"":100},{""stimulus"":""img/1to2/2.png"",""time"":199},{""stimulus"":""img/1to2/3.png"",""time"":298},{""stimulus"":""img/1to2/4.png"",""time"":397},{""stimulus"":""img/1to2/5.png"",""time"":496},{""stimulus"":""img/1to2/6.png"",""time"":596},{""stimulus"":""img/1to2/7.png"",""time"":694},{""stimulus"":""img/1to2/8.png"",""time"":794},{""stimulus"":""img/1to2/9.png"",""time"":892},{""stimulus"":""img/1to2/10.png"",""time"":991},{""stimulus"":""img/1to2/11.png"",""time"":1090},{""stimulus"":""img/1to2/12.png"",""time"":1189}]","[]"
"image-keyboard-response","26","75076","0.0-5.0-1.11","5ecbd383243b3438410dae19","bdp_cybrbll","Sat Mar 25 2023 18:36:11 GMT-0500 (Central Daylight Time)","455205","1","3","","97","","","","choice","","img/2to1/1.png","1","214","334","0.5","0.5","2","1","",""
"animation","27","76363","0.0-5.0-2.11","5ecbd383243b3438410dae19","bdp_cybrbll","Sat Mar 25 2023 18:36:11 GMT-0500 (Central Daylight Time)","455205","1","3","","","","","","","","","","214","","","","2","1","[{""stimulus"":""img/2to1/1.png"",""time"":100},{""stimulus"":""img/2to1/2.png"",""time"":199},{""stimulus"":""img/2to1/3.png"",""time"":298},{""stimulus"":""img/2to1/4.png"",""time"":397},{""stimulus"":""img/2to1/5.png"",""time"":496},{""stimulus"":""img/2to1/6.png"",""time"":594},{""stimulus"":""img/2to1/7.png"",""time"":694},{""stimulus"":""img/2to1/8.png"",""time"":793},{""stimulus"":""img/2to1/9.png"",""time"":891},{""stimulus"":""img/2to1/10.png"",""time"":991},{""stimulus"":""img/2to1/11.png"",""time"":1089},{""stimulus"":""img/2to1/12.png"",""time"":1189}]","[]"
"image-keyboard-response","28","76876","0.0-5.0-1.12","5ecbd383243b3438410dae19","bdp_cybrbll","Sat Mar 25 2023 18:36:11 GMT-0500 (Central Daylight Time)","455205","1","3","","null","","","","observe","","img/1to3/1.png","null","213","511","0.5","0.5","1","3","",""
"animation","29","78164","0.0-5.0-2.12","5ecbd383243b3438410dae19","bdp_cybrbll","Sat Mar 25 2023 18:36:11 GMT-0500 (Central Daylight Time)","455205","1","3","","","","","","","","","","213","","","","1","3","[{""stimulus"":""img/1to3/1.png"",""time"":100},{""stimulus"":""img/1to3/2.png"",""time"":199},{""stimulus"":""img/1to3/3.png"",""time"":298},{""stimulus"":""img/1to3/4.png"",""time"":396},{""stimulus"":""img/1to3/5.png"",""time"":496},{""stimulus"":""img/1to3/6.png"",""time"":595},{""stimulus"":""img/1to3/7.png"",""time"":693},{""stimulus"":""img/1to3/8.png"",""time"":793},{""stimulus"":""img/1to3/9.png"",""time"":891},{""stimulus"":""img/1to3/10.png"",""time"":990},{""stimulus"":""img/1to3/11.png"",""time"":1089},{""stimulus"":""img/1to3/12.png"",""time"":1189}]","[]"
"image-keyboard-response","30","78443","0.0-5.0-1.13","5ecbd383243b3438410dae19","bdp_cybrbll","Sat Mar 25 2023 18:36:11 GMT-0500 (Central Daylight Time)","455205","1","3","","null","","","","observe","","img/3to2/1.png","null","212","278","0.5","0.5","3","2","",""
"animation","31","79732","0.0-5.0-2.13","5ecbd383243b3438410dae19","bdp_cybrbll","Sat Mar 25 2023 18:36:11 GMT-0500 (Central Daylight Time)","455205","1","3","","","","","","","","","","212","","","","3","2","[{""stimulus"":""img/3to2/1.png"",""time"":101},{""stimulus"":""img/3to2/2.png"",""time"":199},{""stimulus"":""img/3to2/3.png"",""time"":298},{""stimulus"":""img/3to2/4.png"",""time"":398},{""stimulus"":""img/3to2/5.png"",""time"":498},{""stimulus"":""img/3to2/6.png"",""time"":596},{""stimulus"":""img/3to2/7.png"",""time"":695},{""stimulus"":""img/3to2/8.png"",""time"":793},{""stimulus"":""img/3to2/9.png"",""time"":894},{""stimulus"":""img/3to2/10.png"",""time"":991},{""stimulus"":""img/3to2/11.png"",""time"":1091},{""stimulus"":""img/3to2/12.png"",""time"":1190}]","[]"
"image-keyboard-response","32","80067","0.0-5.0-1.14","5ecbd383243b3438410dae19","bdp_cybrbll","Sat Mar 25 2023 18:36:11 GMT-0500 (Central Daylight Time)","455205","1","3","","333","","","","choice","","img/2to1/1.png","2","211","498","0.5","0.5","2","3","",""
"animation","33","81354","0.0-5.0-2.14","5ecbd383243b3438410dae19","bdp_cybrbll","Sat Mar 25 2023 18:36:11 GMT-0500 (Central Daylight Time)","455205","1","3","","","","","","","","","","211","","","","2","3","[{""stimulus"":""img/2to3/1.png"",""time"":100},{""stimulus"":""img/2to3/2.png"",""time"":199},{""stimulus"":""img/2to3/3.png"",""time"":298},{""stimulus"":""img/2to3/4.png"",""time"":397},{""stimulus"":""img/2to3/5.png"",""time"":496},{""stimulus"":""img/2to3/6.png"",""time"":594},{""stimulus"":""img/2to3/7.png"",""time"":694},{""stimulus"":""img/2to3/8.png"",""time"":793},{""stimulus"":""img/2to3/9.png"",""time"":892},{""stimulus"":""img/2to3/10.png"",""time"":990},{""stimulus"":""img/2to3/11.png"",""time"":1089},{""stimulus"":""img/2to3/12.png"",""time"":1188}]","[]"
"image-keyboard-response","34","81659","0.0-5.0-1.15","5ecbd383243b3438410dae19","bdp_cybrbll","Sat Mar 25 2023 18:36:11 GMT-0500 (Central Daylight Time)","455205","1","3","","null","","","","observe","","img/3to2/1.png","null","210","304","0.5","0.5","3","2","",""
"animation","35","82947","0.0-5.0-2.15","5ecbd383243b3438410dae19","bdp_cybrbll","Sat Mar 25 2023 18:36:11 GMT-0500 (Central Daylight Time)","455205","1","3","","","","","","","","","","210","","","","3","2","[{""stimulus"":""img/3to2/1.png"",""time"":101},{""stimulus"":""img/3to2/2.png"",""time"":200},{""stimulus"":""img/3to2/3.png"",""time"":299},{""stimulus"":""img/3to2/4.png"",""time"":398},{""stimulus"":""img/3to2/5.png"",""time"":496},{""stimulus"":""img/3to2/6.png"",""time"":596},{""stimulus"":""img/3to2/7.png"",""time"":694},{""stimulus"":""img/3to2/8.png"",""time"":793},{""stimulus"":""img/3to2/9.png"",""time"":892},{""stimulus"":""img/3to2/10.png"",""time"":991},{""stimulus"":""img/3to2/11.png"",""time"":1090},{""stimulus"":""img/3to2/12.png"",""time"":1190}]","[]"
"image-keyboard-response","36","83163","0.0-5.0-1.16","5ecbd383243b3438410dae19","bdp_cybrbll","Sat Mar 25 2023 18:36:11 GMT-0500 (Central Daylight Time)","455205","1","3","","215","","","","choice","","img/2to1/1.png","2","209","242","0.5","0.5","2","3","",""
"animation","37","84452","0.0-5.0-2.16","5ecbd383243b3438410dae19","bdp_cybrbll","Sat Mar 25 2023 18:36:11 GMT-0500 (Central Daylight Time)","455205","1","3","","","","","","","","","","209","","","","2","3","[{""stimulus"":""img/2to3/1.png"",""time"":99},{""stimulus"":""img/2to3/2.png"",""time"":198},{""stimulus"":""img/2to3/3.png"",""time"":297},{""stimulus"":""img/2to3/4.png"",""time"":397},{""stimulus"":""img/2to3/5.png"",""time"":496},{""stimulus"":""img/2to3/6.png"",""time"":595},{""stimulus"":""img/2to3/7.png"",""time"":694},{""stimulus"":""img/2to3/8.png"",""time"":792},{""stimulus"":""img/2to3/9.png"",""time"":891},{""stimulus"":""img/2to3/10.png"",""time"":991},{""stimulus"":""img/2to3/11.png"",""time"":1090},{""stimulus"":""img/2to3/12.png"",""time"":1189}]","[]"
"image-keyboard-response","38","84715","0.0-5.0-1.17","5ecbd383243b3438410dae19","bdp_cybrbll","Sat Mar 25 2023 18:36:11 GMT-0500 (Central Daylight Time)","455205","1","3","","null","","","","observe","","img/3to2/1.png","null","208","261","0.5","0.5","3","1","",""
"animation","39","86002","0.0-5.0-2.17","5ecbd383243b3438410dae19","bdp_cybrbll","Sat Mar 25 2023 18:36:11 GMT-0500 (Central Daylight Time)","455205","1","3","","","","","","","","","","208","","","","3","1","[{""stimulus"":""img/3to1/1.png"",""time"":100},{""stimulus"":""img/3to1/2.png"",""time"":198},{""stimulus"":""img/3to1/3.png"",""time"":298},{""stimulus"":""img/3to1/4.png"",""time"":397},{""stimulus"":""img/3to1/5.png"",""time"":496},{""stimulus"":""img/3to1/6.png"",""time"":595},{""stimulus"":""img/3to1/7.png"",""time"":694},{""stimulus"":""img/3to1/8.png"",""time"":792},{""stimulus"":""img/3to1/9.png"",""time"":891},{""stimulus"":""img/3to1/10.png"",""time"":991},{""stimulus"":""img/3to1/11.png"",""time"":1090},{""stimulus"":""img/3to1/12.png"",""time"":1188}]","[]"
"image-keyboard-response","40","86624","0.0-5.0-1.18","5ecbd383243b3438410dae19","bdp_cybrbll","Sat Mar 25 2023 18:36:11 GMT-0500 (Central Daylight Time)","455205","1","3","","null","","","","observe","","img/1to3/1.png","null","207","620","0.5","0.5","1","3","",""
"animation","41","87911","0.0-5.0-2.18","5ecbd383243b3438410dae19","bdp_cybrbll","Sat Mar 25 2023 18:36:11 GMT-0500 (Central Daylight Time)","455205","1","3","","","","","","","","","","207","","","","1","3","[{""stimulus"":""img/1to3/1.png"",""time"":99},{""stimulus"":""img/1to3/2.png"",""time"":199},{""stimulus"":""img/1to3/3.png"",""time"":298},{""stimulus"":""img/1to3/4.png"",""time"":397},{""stimulus"":""img/1to3/5.png"",""time"":496},{""stimulus"":""img/1to3/6.png"",""time"":594},{""stimulus"":""img/1to3/7.png"",""time"":694},{""stimulus"":""img/1to3/8.png"",""time"":793},{""stimulus"":""img/1to3/9.png"",""time"":892},{""stimulus"":""img/1to3/10.png"",""time"":992},{""stimulus"":""img/1to3/11.png"",""time"":1090},{""stimulus"":""img/1to3/12.png"",""time"":1189}]","[]"
"image-keyboard-response","42","88178","0.0-5.0-1.19","5ecbd383243b3438410dae19","bdp_cybrbll","Sat Mar 25 2023 18:36:11 GMT-0500 (Central Daylight Time)","455205","1","3","","null","","","","observe","","img/3to2/1.png","null","206","265","0.5","0.5","3","1","",""
"animation","43","89465","0.0-5.0-2.19","5ecbd383243b3438410dae19","bdp_cybrbll","Sat Mar 25 2023 18:36:11 GMT-0500 (Central Daylight Time)","455205","1","3","","","","","","","","","","206","","","","3","1","[{""stimulus"":""img/3to1/1.png"",""time"":100},{""stimulus"":""img/3to1/2.png"",""time"":199},{""stimulus"":""img/3to1/3.png"",""time"":298},{""stimulus"":""img/3to1/4.png"",""time"":397},{""stimulus"":""img/3to1/5.png"",""time"":496},{""stimulus"":""img/3to1/6.png"",""time"":595},{""stimulus"":""img/3to1/7.png"",""time"":694},{""stimulus"":""img/3to1/8.png"",""time"":793},{""stimulus"":""img/3to1/9.png"",""time"":891},{""stimulus"":""img/3to1/10.png"",""time"":991},{""stimulus"":""img/3to1/11.png"",""time"":1090},{""stimulus"":""img/3to1/12.png"",""time"":1189}]","[]"
"image-keyboard-response","44","90647","0.0-5.0-1.20","5ecbd383243b3438410dae19","bdp_cybrbll","Sat Mar 25 2023 18:36:11 GMT-0500 (Central Daylight Time)","455205","1","3","","null","","","","observe","","img/1to3/1.png","null","205","1180","0.5","0.5","1","3","",""
"animation","45","91936","0.0-5.0-2.20","5ecbd383243b3438410dae19","bdp_cybrbll","Sat Mar 25 2023 18:36:11 GMT-0500 (Central Daylight Time)","455205","1","3","","","","","","","","","","205","","","","1","3","[{""stimulus"":""img/1to3/1.png"",""time"":99},{""stimulus"":""img/1to3/2.png"",""time"":198},{""stimulus"":""img/1to3/3.png"",""time"":297},{""stimulus"":""img/1to3/4.png"",""time"":397},{""stimulus"":""img/1to3/5.png"",""time"":496},{""stimulus"":""img/1to3/6.png"",""time"":607},{""stimulus"":""img/1to3/7.png"",""time"":693},{""stimulus"":""img/1to3/8.png"",""time"":792},{""stimulus"":""img/1to3/9.png"",""time"":892},{""stimulus"":""img/1to3/10.png"",""time"":991},{""stimulus"":""img/1to3/11.png"",""time"":1089},{""stimulus"":""img/1to3/12.png"",""time"":1188}]","[]"
"image-keyboard-response","46","92781","0.0-5.0-1.21","5ecbd383243b3438410dae19","bdp_cybrbll","Sat Mar 25 2023 18:36:11 GMT-0500 (Central Daylight Time)","455205","1","3","","null","","","","observe","","img/3to2/1.png","null","204","843","0.5","0.5","3","2","",""
"animation","47","94069","0.0-5.0-2.21","5ecbd383243b3438410dae19","bdp_cybrbll","Sat Mar 25 2023 18:36:11 GMT-0500 (Central Daylight Time)","455205","1","3","","","","","","","","","","204","","","","3","2","[{""stimulus"":""img/3to2/1.png"",""time"":99},{""stimulus"":""img/3to2/2.png"",""time"":198},{""stimulus"":""img/3to2/3.png"",""time"":297},{""stimulus"":""img/3to2/4.png"",""time"":397},{""stimulus"":""img/3to2/5.png"",""time"":496},{""stimulus"":""img/3to2/6.png"",""time"":595},{""stimulus"":""img/3to2/7.png"",""time"":694},{""stimulus"":""img/3to2/8.png"",""time"":793},{""stimulus"":""img/3to2/9.png"",""time"":891},{""stimulus"":""img/3to2/10.png"",""time"":991},{""stimulus"":""img/3to2/11.png"",""time"":1091},{""stimulus"":""img/3to2/12.png"",""time"":1189}]","[]"
"image-keyboard-response","48","94376","0.0-5.0-1.22","5ecbd383243b3438410dae19","bdp_cybrbll","Sat Mar 25 2023 18:36:11 GMT-0500 (Central Daylight Time)","455205","1","3","","306","","","","choice","","img/2to1/1.png","1","203","704","0.5","0.5","2","1","",""
"animation","49","95663","0.0-5.0-2.22","5ecbd383243b3438410dae19","bdp_cybrbll","Sat Mar 25 2023 18:36:11 GMT-0500 (Central Daylight Time)","455205","1","3","","","","","","","","","","203","","","","2","1","[{""stimulus"":""img/2to1/1.png"",""time"":100},{""stimulus"":""img/2to1/2.png"",""time"":199},{""stimulus"":""img/2to1/3.png"",""time"":297},{""stimulus"":""img/2to1/4.png"",""time"":397},{""stimulus"":""img/2to1/5.png"",""time"":496},{""stimulus"":""img/2to1/6.png"",""time"":595},{""stimulus"":""img/2to1/7.png"",""time"":694},{""stimulus"":""img/2to1/8.png"",""time"":793},{""stimulus"":""img/2to1/9.png"",""time"":891},{""stimulus"":""img/2to1/10.png"",""time"":990},{""stimulus"":""img/2to1/11.png"",""time"":1090},{""stimulus"":""img/2to1/12.png"",""time"":1189}]","[]"
"image-keyboard-response","50","96295","0.0-5.0-1.23","5ecbd383243b3438410dae19","bdp_cybrbll","Sat Mar 25 2023 18:36:11 GMT-0500 (Central Daylight Time)","455205","1","3","","null","","","","observe","","img/1to3/1.png","null","202","629","0.5","0.5","1","2","",""
"animation","51","97583","0.0-5.0-2.23","5ecbd383243b3438410dae19","bdp_cybrbll","Sat Mar 25 2023 18:36:11 GMT-0500 (Central Daylight Time)","455205","1","3","","","","","","","","","","202","","","","1","2","[{""stimulus"":""img/1to2/1.png"",""time"":99},{""stimulus"":""img/1to2/2.png"",""time"":199},{""stimulus"":""img/1to2/3.png"",""time"":297},{""stimulus"":""img/1to2/4.png"",""time"":397},{""stimulus"":""img/1to2/5.png"",""time"":496},{""stimulus"":""img/1to2/6.png"",""time"":595},{""stimulus"":""img/1to2/7.png"",""time"":694},{""stimulus"":""img/1to2/8.png"",""time"":793},{""stimulus"":""img/1to2/9.png"",""time"":891},{""stimulus"":""img/1to2/10.png"",""time"":991},{""stimulus"":""img/1to2/11.png"",""time"":1090},{""stimulus"":""img/1to2/12.png"",""time"":1189}]","[]"
"image-keyboard-response","52","97724","0.0-5.0-1.24","5ecbd383243b3438410dae19","bdp_cybrbll","Sat Mar 25 2023 18:36:11 GMT-0500 (Central Daylight Time)","455205","1","3","","140","","","","choice","","img/2to1/1.png","1","201","249","0.5","0.5","2","1","",""
"animation","53","99012","0.0-5.0-2.24","5ecbd383243b3438410dae19","bdp_cybrbll","Sat Mar 25 2023 18:36:11 GMT-0500 (Central Daylight Time)","455205","1","3","","","","","","","","","","201","","","","2","1","[{""stimulus"":""img/2to1/1.png"",""time"":100},{""stimulus"":""img/2to1/2.png"",""time"":200},{""stimulus"":""img/2to1/3.png"",""time"":298},{""stimulus"":""img/2to1/4.png"",""time"":398},{""stimulus"":""img/2to1/5.png"",""time"":497},{""stimulus"":""img/2to1/6.png"",""time"":596},{""stimulus"":""img/2to1/7.png"",""time"":694},{""stimulus"":""img/2to1/8.png"",""time"":793},{""stimulus"":""img/2to1/9.png"",""time"":892},{""stimulus"":""img/2to1/10.png"",""time"":991},{""stimulus"":""img/2to1/11.png"",""time"":1090},{""stimulus"":""img/2to1/12.png"",""time"":1189}]","[]"
"image-keyboard-response","54","99190","0.0-5.0-1.25","5ecbd383243b3438410dae19","bdp_cybrbll","Sat Mar 25 2023 18:36:11 GMT-0500 (Central Daylight Time)","455205","1","3","","null","","","","observe","","img/1to3/1.png","null","200","177","0.5","0.5","1","2","",""
"animation","55","100478","0.0-5.0-2.25","5ecbd383243b3438410dae19","bdp_cybrbll","Sat Mar 25 2023 18:36:11 GMT-0500 (Central Daylight Time)","455205","1","3","","","","","","","","","","200","","","","1","2","[{""stimulus"":""img/1to2/1.png"",""time"":101},{""stimulus"":""img/1to2/2.png"",""time"":199},{""stimulus"":""img/1to2/3.png"",""time"":298},{""stimulus"":""img/1to2/4.png"",""time"":398},{""stimulus"":""img/1to2/5.png"",""time"":496},{""stimulus"":""img/1to2/6.png"",""time"":596},{""stimulus"":""img/1to2/7.png"",""time"":694},{""stimulus"":""img/1to2/8.png"",""time"":794},{""stimulus"":""img/1to2/9.png"",""time"":892},{""stimulus"":""img/1to2/10.png"",""time"":992},{""stimulus"":""img/1to2/11.png"",""time"":1090},{""stimulus"":""img/1to2/12.png"",""time"":1190}]","[]"
"image-keyboard-response","56","100831","0.0-5.0-1.26","5ecbd383243b3438410dae19","bdp_cybrbll","Sat Mar 25 2023 18:36:11 GMT-0500 (Central Daylight Time)","455205","1","3","","352","","","","choice","","img/2to1/1.png","1","199","503","0.5","0.5","2","1","",""
"animation","57","102118","0.0-5.0-2.26","5ecbd383243b3438410dae19","bdp_cybrbll","Sat Mar 25 2023 18:36:11 GMT-0500 (Central Daylight Time)","455205","1","3","","","","","","","","","","199","","","","2","1","[{""stimulus"":""img/2to1/1.png"",""time"":100},{""stimulus"":""img/2to1/2.png"",""time"":199},{""stimulus"":""img/2to1/3.png"",""time"":298},{""stimulus"":""img/2to1/4.png"",""time"":397},{""stimulus"":""img/2to1/5.png"",""time"":495},{""stimulus"":""img/2to1/6.png"",""time"":596},{""stimulus"":""img/2to1/7.png"",""time"":694},{""stimulus"":""img/2to1/8.png"",""time"":793},{""stimulus"":""img/2to1/9.png"",""time"":892},{""stimulus"":""img/2to1/10.png"",""time"":991},{""stimulus"":""img/2to1/11.png"",""time"":1090},{""stimulus"":""img/2to1/12.png"",""time"":1189}]","[]"
"image-keyboard-response","58","103127","0.0-5.0-1.27","5ecbd383243b3438410dae19","bdp_cybrbll","Sat Mar 25 2023 18:36:11 GMT-0500 (Central Daylight Time)","455205","1","3","","null","","","","observe","","img/1to3/1.png","null","198","1008","0.5","0.5","1","3","",""
"animation","59","104415","0.0-5.0-2.27","5ecbd383243b3438410dae19","bdp_cybrbll","Sat Mar 25 2023 18:36:11 GMT-0500 (Central Daylight Time)","455205","1","3","","","","","","","","","","198","","","","1","3","[{""stimulus"":""img/1to3/1.png"",""time"":100},{""stimulus"":""img/1to3/2.png"",""time"":199},{""stimulus"":""img/1to3/3.png"",""time"":298},{""stimulus"":""img/1to3/4.png"",""time"":397},{""stimulus"":""img/1to3/5.png"",""time"":497},{""stimulus"":""img/1to3/6.png"",""time"":595},{""stimulus"":""img/1to3/7.png"",""time"":694},{""stimulus"":""img/1to3/8.png"",""time"":792},{""stimulus"":""img/1to3/9.png"",""time"":892},{""stimulus"":""img/1to3/10.png"",""time"":991},{""stimulus"":""img/1to3/11.png"",""time"":1090},{""stimulus"":""img/1to3/12.png"",""time"":1190}]","[]"
"image-keyboard-response","60","105054","0.0-5.0-1.28","5ecbd383243b3438410dae19","bdp_cybrbll","Sat Mar 25 2023 18:36:11 GMT-0500 (Central Daylight Time)","455205","1","3","","null","","","","observe","","img/3to2/1.png","null","197","638","0.5","0.5","3","2","",""
"animation","61","106342","0.0-5.0-2.28","5ecbd383243b3438410dae19","bdp_cybrbll","Sat Mar 25 2023 18:36:11 GMT-0500 (Central Daylight Time)","455205","1","3","","","","","","","","","","197","","","","3","2","[{""stimulus"":""img/3to2/1.png"",""time"":99},{""stimulus"":""img/3to2/2.png"",""time"":199},{""stimulus"":""img/3to2/3.png"",""time"":298},{""stimulus"":""img/3to2/4.png"",""time"":396},{""stimulus"":""img/3to2/5.png"",""time"":496},{""stimulus"":""img/3to2/6.png"",""time"":595},{""stimulus"":""img/3to2/7.png"",""time"":693},{""stimulus"":""img/3to2/8.png"",""time"":792},{""stimulus"":""img/3to2/9.png"",""time"":891},{""stimulus"":""img/3to2/10.png"",""time"":991},{""stimulus"":""img/3to2/11.png"",""time"":1090},{""stimulus"":""img/3to2/12.png"",""time"":1190}]","[]"
"image-keyboard-response","62","108719","0.0-5.0-1.29","5ecbd383243b3438410dae19","bdp_cybrbll","Sat Mar 25 2023 18:36:11 GMT-0500 (Central Daylight Time)","455205","1","3","","2376","","","","choice","","img/2to1/1.png","1","196","472","0.5","0.5","2","1","",""
"animation","63","110007","0.0-5.0-2.29","5ecbd383243b3438410dae19","bdp_cybrbll","Sat Mar 25 2023 18:36:11 GMT-0500 (Central Daylight Time)","455205","1","3","","","","","","","","","","196","","","","2","1","[{""stimulus"":""img/2to1/1.png"",""time"":101},{""stimulus"":""img/2to1/2.png"",""time"":199},{""stimulus"":""img/2to1/3.png"",""time"":298},{""stimulus"":""img/2to1/4.png"",""time"":397},{""stimulus"":""img/2to1/5.png"",""time"":496},{""stimulus"":""img/2to1/6.png"",""time"":595},{""stimulus"":""img/2to1/7.png"",""time"":694},{""stimulus"":""img/2to1/8.png"",""time"":794},{""stimulus"":""img/2to1/9.png"",""time"":892},{""stimulus"":""img/2to1/10.png"",""time"":992},{""stimulus"":""img/2to1/11.png"",""time"":1090},{""stimulus"":""img/2to1/12.png"",""time"":1189}]","[]"
"image-keyboard-response","64","110263","0.0-5.0-1.30","5ecbd383243b3438410dae19","bdp_cybrbll","Sat Mar 25 2023 18:36:11 GMT-0500 (Central Daylight Time)","455205","1","3","","null","","","","observe","","img/1to3/1.png","null","195","255","0.5","0.5","1","3","",""
"animation","65","111551","0.0-5.0-2.30","5ecbd383243b3438410dae19","bdp_cybrbll","Sat Mar 25 2023 18:36:11 GMT-0500 (Central Daylight Time)","455205","1","3","","","","","","","","","","195","","","","1","3","[{""stimulus"":""img/1to3/1.png"",""time"":100},{""stimulus"":""img/1to3/2.png"",""time"":200},{""stimulus"":""img/1to3/3.png"",""time"":298},{""stimulus"":""img/1to3/4.png"",""time"":396},{""stimulus"":""img/1to3/5.png"",""time"":496},{""stimulus"":""img/1to3/6.png"",""time"":594},{""stimulus"":""img/1to3/7.png"",""time"":693},{""stimulus"":""img/1to3/8.png"",""time"":793},{""stimulus"":""img/1to3/9.png"",""time"":893},{""stimulus"":""img/1to3/10.png"",""time"":991},{""stimulus"":""img/1to3/11.png"",""time"":1090},{""stimulus"":""img/1to3/12.png"",""time"":1189}]","[]"
"image-keyboard-response","66","112051","0.0-5.0-1.31","5ecbd383243b3438410dae19","bdp_cybrbll","Sat Mar 25 2023 18:36:11 GMT-0500 (Central Daylight Time)","455205","1","3","","null","","","","observe","","img/3to2/1.png","null","194","499","0.5","0.5","3","1","",""
"animation","67","113339","0.0-5.0-2.31","5ecbd383243b3438410dae19","bdp_cybrbll","Sat Mar 25 2023 18:36:11 GMT-0500 (Central Daylight Time)","455205","1","3","","","","","","","","","","194","","","","3","1","[{""stimulus"":""img/3to1/1.png"",""time"":101},{""stimulus"":""img/3to1/2.png"",""time"":199},{""stimulus"":""img/3to1/3.png"",""time"":298},{""stimulus"":""img/3to1/4.png"",""time"":398},{""stimulus"":""img/3to1/5.png"",""time"":496},{""stimulus"":""img/3to1/6.png"",""time"":595},{""stimulus"":""img/3to1/7.png"",""time"":695},{""stimulus"":""img/3to1/8.png"",""time"":793},{""stimulus"":""img/3to1/9.png"",""time"":892},{""stimulus"":""img/3to1/10.png"",""time"":991},{""stimulus"":""img/3to1/11.png"",""time"":1090},{""stimulus"":""img/3to1/12.png"",""time"":1189}]","[]"
"image-keyboard-response","68","113504","0.0-5.0-1.32","5ecbd383243b3438410dae19","bdp_cybrbll","Sat Mar 25 2023 18:36:11 GMT-0500 (Central Daylight Time)","455205","1","3","","null","","","","observe","","img/1to3/1.png","null","193","163","0.5","0.5","1","3","",""
"animation","69","114792","0.0-5.0-2.32","5ecbd383243b3438410dae19","bdp_cybrbll","Sat Mar 25 2023 18:36:11 GMT-0500 (Central Daylight Time)","455205","1","3","","","","","","","","","","193","","","","1","3","[{""stimulus"":""img/1to3/1.png"",""time"":100},{""stimulus"":""img/1to3/2.png"",""time"":199},{""stimulus"":""img/1to3/3.png"",""time"":299},{""stimulus"":""img/1to3/4.png"",""time"":398},{""stimulus"":""img/1to3/5.png"",""time"":496},{""stimulus"":""img/1to3/6.png"",""time"":595},{""stimulus"":""img/1to3/7.png"",""time"":694},{""stimulus"":""img/1to3/8.png"",""time"":793},{""stimulus"":""img/1to3/9.png"",""time"":893},{""stimulus"":""img/1to3/10.png"",""time"":991},{""stimulus"":""img/1to3/11.png"",""time"":1090},{""stimulus"":""img/1to3/12.png"",""time"":1189}]","[]"
"image-keyboard-response","70","115261","0.0-5.0-1.33","5ecbd383243b3438410dae19","bdp_cybrbll","Sat Mar 25 2023 18:36:11 GMT-0500 (Central Daylight Time)","455205","1","3","","null","","","","observe","","img/3to2/1.png","null","192","468","0.5","0.5","3","2","",""
"animation","71","116550","0.0-5.0-2.33","5ecbd383243b3438410dae19","bdp_cybrbll","Sat Mar 25 2023 18:36:11 GMT-0500 (Central Daylight Time)","455205","1","3","","","","","","","","","","192","","","","3","2","[{""stimulus"":""img/3to2/1.png"",""time"":100},{""stimulus"":""img/3to2/2.png"",""time"":199},{""stimulus"":""img/3to2/3.png"",""time"":297},{""stimulus"":""img/3to2/4.png"",""time"":397},{""stimulus"":""img/3to2/5.png"",""time"":496},{""stimulus"":""img/3to2/6.png"",""time"":595},{""stimulus"":""img/3to2/7.png"",""time"":694},{""stimulus"":""img/3to2/8.png"",""time"":793},{""stimulus"":""img/3to2/9.png"",""time"":892},{""stimulus"":""img/3to2/10.png"",""time"":991},{""stimulus"":""img/3to2/11.png"",""time"":1090},{""stimulus"":""img/3to2/12.png"",""time"":1189}]","[]"
"image-keyboard-response","72","117031","0.0-5.0-1.34","5ecbd383243b3438410dae19","bdp_cybrbll","Sat Mar 25 2023 18:36:11 GMT-0500 (Central Daylight Time)","455205","1","3","","481","","","","choice","","img/2to1/1.png","2","191","392","0.5","0.5","2","3","",""
"animation","73","118320","0.0-5.0-2.34","5ecbd383243b3438410dae19","bdp_cybrbll","Sat Mar 25 2023 18:36:11 GMT-0500 (Central Daylight Time)","455205","1","3","","","","","","","","","","191","","","","2","3","[{""stimulus"":""img/2to3/1.png"",""time"":100},{""stimulus"":""img/2to3/2.png"",""time"":199},{""stimulus"":""img/2to3/3.png"",""time"":298},{""stimulus"":""img/2to3/4.png"",""time"":397},{""stimulus"":""img/2to3/5.png"",""time"":495},{""stimulus"":""img/2to3/6.png"",""time"":595},{""stimulus"":""img/2to3/7.png"",""time"":694},{""stimulus"":""img/2to3/8.png"",""time"":794},{""stimulus"":""img/2to3/9.png"",""time"":891},{""stimulus"":""img/2to3/10.png"",""time"":991},{""stimulus"":""img/2to3/11.png"",""time"":1090},{""stimulus"":""img/2to3/12.png"",""time"":1188}]","[]"
"image-keyboard-response","74","119883","0.0-5.0-1.35","5ecbd383243b3438410dae19","bdp_cybrbll","Sat Mar 25 2023 18:36:11 GMT-0500 (Central Daylight Time)","455205","1","3","","null","","","","observe","","img/3to2/1.png","null","190","1562","0.5","0.5","3","2","",""
"animation","75","121170","0.0-5.0-2.35","5ecbd383243b3438410dae19","bdp_cybrbll","Sat Mar 25 2023 18:36:11 GMT-0500 (Central Daylight Time)","455205","1","3","","","","","","","","","","190","","","","3","2","[{""stimulus"":""img/3to2/1.png"",""time"":100},{""stimulus"":""img/3to2/2.png"",""time"":199},{""stimulus"":""img/3to2/3.png"",""time"":298},{""stimulus"":""img/3to2/4.png"",""time"":397},{""stimulus"":""img/3to2/5.png"",""time"":496},{""stimulus"":""img/3to2/6.png"",""time"":596},{""stimulus"":""img/3to2/7.png"",""time"":693},{""stimulus"":""img/3to2/8.png"",""time"":793},{""stimulus"":""img/3to2/9.png"",""time"":892},{""stimulus"":""img/3to2/10.png"",""time"":991},{""stimulus"":""img/3to2/11.png"",""time"":1090},{""stimulus"":""img/3to2/12.png"",""time"":1189}]","[]"
"image-keyboard-response","76","121721","0.0-5.0-1.36","5ecbd383243b3438410dae19","bdp_cybrbll","Sat Mar 25 2023 18:36:11 GMT-0500 (Central Daylight Time)","455205","1","3","","550","","","","choice","","img/2to1/1.png","1","189","258","0.5","0.5","2","1","",""
"animation","77","123008","0.0-5.0-2.36","5ecbd383243b3438410dae19","bdp_cybrbll","Sat Mar 25 2023 18:36:11 GMT-0500 (Central Daylight Time)","455205","1","3","","","","","","","","","","189","","","","2","1","[{""stimulus"":""img/2to1/1.png"",""time"":100},{""stimulus"":""img/2to1/2.png"",""time"":198},{""stimulus"":""img/2to1/3.png"",""time"":297},{""stimulus"":""img/2to1/4.png"",""time"":396},{""stimulus"":""img/2to1/5.png"",""time"":495},{""stimulus"":""img/2to1/6.png"",""time"":595},{""stimulus"":""img/2to1/7.png"",""time"":694},{""stimulus"":""img/2to1/8.png"",""time"":792},{""stimulus"":""img/2to1/9.png"",""time"":892},{""stimulus"":""img/2to1/10.png"",""time"":991},{""stimulus"":""img/2to1/11.png"",""time"":1090},{""stimulus"":""img/2to1/12.png"",""time"":1188}]","[]"
"image-keyboard-response","78","123321","0.0-5.0-1.37","5ecbd383243b3438410dae19","bdp_cybrbll","Sat Mar 25 2023 18:36:11 GMT-0500 (Central Daylight Time)","455205","1","3","","null","","","","observe","","img/1to3/1.png","null","188","311","0.5","0.5","1","2","",""
"animation","79","124609","0.0-5.0-2.37","5ecbd383243b3438410dae19","bdp_cybrbll","Sat Mar 25 2023 18:36:11 GMT-0500 (Central Daylight Time)","455205","1","3","","","","","","","","","","188","","","","1","2","[{""stimulus"":""img/1to2/1.png"",""time"":101},{""stimulus"":""img/1to2/2.png"",""time"":199},{""stimulus"":""img/1to2/3.png"",""time"":298},{""stimulus"":""img/1to2/4.png"",""time"":397},{""stimulus"":""img/1to2/5.png"",""time"":496},{""stimulus"":""img/1to2/6.png"",""time"":595},{""stimulus"":""img/1to2/7.png"",""time"":695},{""stimulus"":""img/1to2/8.png"",""time"":793},{""stimulus"":""img/1to2/9.png"",""time"":892},{""stimulus"":""img/1to2/10.png"",""time"":991},{""stimulus"":""img/1to2/11.png"",""time"":1090},{""stimulus"":""img/1to2/12.png"",""time"":1190}]","[]"
"image-keyboard-response","80","124611","0.0-5.0-1.38","5ecbd383243b3438410dae19","bdp_cybrbll","Sat Mar 25 2023 18:36:11 GMT-0500 (Central Daylight Time)","455205","1","3","","1","","","","choice","","img/2to1/1.png","1","187","272","0.5","0.5","2","1","",""
"animation","81","125899","0.0-5.0-2.38","5ecbd383243b3438410dae19","bdp_cybrbll","Sat Mar 25 2023 18:36:11 GMT-0500 (Central Daylight Time)","455205","1","3","","","","","","","","","","187","","","","2","1","[{""stimulus"":""img/2to1/1.png"",""time"":101},{""stimulus"":""img/2to1/2.png"",""time"":199},{""stimulus"":""img/2to1/3.png"",""time"":298},{""stimulus"":""img/2to1/4.png"",""time"":398},{""stimulus"":""img/2to1/5.png"",""time"":497},{""stimulus"":""img/2to1/6.png"",""time"":598},{""stimulus"":""img/2to1/7.png"",""time"":695},{""stimulus"":""img/2to1/8.png"",""time"":793},{""stimulus"":""img/2to1/9.png"",""time"":892},{""stimulus"":""img/2to1/10.png"",""time"":991},{""stimulus"":""img/2to1/11.png"",""time"":1090},{""stimulus"":""img/2to1/12.png"",""time"":1189}]","[]"
"image-keyboard-response","82","126268","0.0-5.0-1.39","5ecbd383243b3438410dae19","bdp_cybrbll","Sat Mar 25 2023 18:36:11 GMT-0500 (Central Daylight Time)","455205","1","3","","null","","","","observe","","img/1to3/1.png","null","186","367","0.5","0.5","1","3","",""
"animation","83","127556","0.0-5.0-2.39","5ecbd383243b3438410dae19","bdp_cybrbll","Sat Mar 25 2023 18:36:11 GMT-0500 (Central Daylight Time)","455205","1","3","","","","","","","","","","186","","","","1","3","[{""stimulus"":""img/1to3/1.png"",""time"":100},{""stimulus"":""img/1to3/2.png"",""time"":198},{""stimulus"":""img/1to3/3.png"",""time"":298},{""stimulus"":""img/1to3/4.png"",""time"":396},{""stimulus"":""img/1to3/5.png"",""time"":496},{""stimulus"":""img/1to3/6.png"",""time"":594},{""stimulus"":""img/1to3/7.png"",""time"":693},{""stimulus"":""img/1to3/8.png"",""time"":793},{""stimulus"":""img/1to3/9.png"",""time"":892},{""stimulus"":""img/1to3/10.png"",""time"":991},{""stimulus"":""img/1to3/11.png"",""time"":1091},{""stimulus"":""img/1to3/12.png"",""time"":1189}]","[]"
"image-keyboard-response","84","128095","0.0-5.0-1.40","5ecbd383243b3438410dae19","bdp_cybrbll","Sat Mar 25 2023 18:36:11 GMT-0500 (Central Daylight Time)","455205","1","3","","null","","","","observe","","img/3to2/1.png","null","185","538","0.5","0.5","3","2","",""
"animation","85","129383","0.0-5.0-2.40","5ecbd383243b3438410dae19","bdp_cybrbll","Sat Mar 25 2023 18:36:11 GMT-0500 (Central Daylight Time)","455205","1","3","","","","","","","","","","185","","","","3","2","[{""stimulus"":""img/3to2/1.png"",""time"":101},{""stimulus"":""img/3to2/2.png"",""time"":199},{""stimulus"":""img/3to2/3.png"",""time"":299},{""stimulus"":""img/3to2/4.png"",""time"":398},{""stimulus"":""img/3to2/5.png"",""time"":497},{""stimulus"":""img/3to2/6.png"",""time"":595},{""stimulus"":""img/3to2/7.png"",""time"":694},{""stimulus"":""img/3to2/8.png"",""time"":794},{""stimulus"":""img/3to2/9.png"",""time"":893},{""stimulus"":""img/3to2/10.png"",""time"":991},{""stimulus"":""img/3to2/11.png"",""time"":1091},{""stimulus"":""img/3to2/12.png"",""time"":1190}]","[]"
"image-keyboard-response","86","129530","0.0-5.0-1.41","5ecbd383243b3438410dae19","bdp_cybrbll","Sat Mar 25 2023 18:36:11 GMT-0500 (Central Daylight Time)","455205","1","3","","146","","","","choice","","img/2to1/1.png","1","184","776","0.5","0.5","2","1","",""
"animation","87","130817","0.0-5.0-2.41","5ecbd383243b3438410dae19","bdp_cybrbll","Sat Mar 25 2023 18:36:11 GMT-0500 (Central Daylight Time)","455205","1","3","","","","","","","","","","184","","","","2","1","[{""stimulus"":""img/2to1/1.png"",""time"":101},{""stimulus"":""img/2to1/2.png"",""time"":198},{""stimulus"":""img/2to1/3.png"",""time"":298},{""stimulus"":""img/2to1/4.png"",""time"":397},{""stimulus"":""img/2to1/5.png"",""time"":496},{""stimulus"":""img/2to1/6.png"",""time"":595},{""stimulus"":""img/2to1/7.png"",""time"":695},{""stimulus"":""img/2to1/8.png"",""time"":794},{""stimulus"":""img/2to1/9.png"",""time"":892},{""stimulus"":""img/2to1/10.png"",""time"":991},{""stimulus"":""img/2to1/11.png"",""time"":1090},{""stimulus"":""img/2to1/12.png"",""time"":1189}]","[]"
"image-keyboard-response","88","131075","0.0-5.0-1.42","5ecbd383243b3438410dae19","bdp_cybrbll","Sat Mar 25 2023 18:36:11 GMT-0500 (Central Daylight Time)","455205","1","3","","null","","","","observe","","img/1to3/1.png","null","183","257","0.5","0.5","1","2","",""
"animation","89","132363","0.0-5.0-2.42","5ecbd383243b3438410dae19","bdp_cybrbll","Sat Mar 25 2023 18:36:11 GMT-0500 (Central Daylight Time)","455205","1","3","","","","","","","","","","183","","","","1","2","[{""stimulus"":""img/1to2/1.png"",""time"":101},{""stimulus"":""img/1to2/2.png"",""time"":199},{""stimulus"":""img/1to2/3.png"",""time"":299},{""stimulus"":""img/1to2/4.png"",""time"":398},{""stimulus"":""img/1to2/5.png"",""time"":497},{""stimulus"":""img/1to2/6.png"",""time"":595},{""stimulus"":""img/1to2/7.png"",""time"":695},{""stimulus"":""img/1to2/8.png"",""time"":794},{""stimulus"":""img/1to2/9.png"",""time"":892},{""stimulus"":""img/1to2/10.png"",""time"":991},{""stimulus"":""img/1to2/11.png"",""time"":1091},{""stimulus"":""img/1to2/12.png"",""time"":1189}]","[]"
"image-keyboard-response","90","132744","0.0-5.0-1.43","5ecbd383243b3438410dae19","bdp_cybrbll","Sat Mar 25 2023 18:36:11 GMT-0500 (Central Daylight Time)","455205","1","3","","380","","","","choice","","img/2to1/1.png","1","182","596","0.5","0.5","2","1","",""
"animation","91","134032","0.0-5.0-2.43","5ecbd383243b3438410dae19","bdp_cybrbll","Sat Mar 25 2023 18:36:11 GMT-0500 (Central Daylight Time)","455205","1","3","","","","","","","","","","182","","","","2","1","[{""stimulus"":""img/2to1/1.png"",""time"":99},{""stimulus"":""img/2to1/2.png"",""time"":199},{""stimulus"":""img/2to1/3.png"",""time"":297},{""stimulus"":""img/2to1/4.png"",""time"":397},{""stimulus"":""img/2to1/5.png"",""time"":495},{""stimulus"":""img/2to1/6.png"",""time"":595},{""stimulus"":""img/2to1/7.png"",""time"":694},{""stimulus"":""img/2to1/8.png"",""time"":793},{""stimulus"":""img/2to1/9.png"",""time"":892},{""stimulus"":""img/2to1/10.png"",""time"":991},{""stimulus"":""img/2to1/11.png"",""time"":1090},{""stimulus"":""img/2to1/12.png"",""time"":1189}]","[]"
"image-keyboard-response","92","134374","0.0-5.0-1.44","5ecbd383243b3438410dae19","bdp_cybrbll","Sat Mar 25 2023 18:36:11 GMT-0500 (Central Daylight Time)","455205","1","3","","null","","","","observe","","img/1to3/1.png","null","181","341","0.5","0.5","1","3","",""
"animation","93","135662","0.0-5.0-2.44","5ecbd383243b3438410dae19","bdp_cybrbll","Sat Mar 25 2023 18:36:11 GMT-0500 (Central Daylight Time)","455205","1","3","","","","","","","","","","181","","","","1","3","[{""stimulus"":""img/1to3/1.png"",""time"":101},{""stimulus"":""img/1to3/2.png"",""time"":199},{""stimulus"":""img/1to3/3.png"",""time"":298},{""stimulus"":""img/1to3/4.png"",""time"":396},{""stimulus"":""img/1to3/5.png"",""time"":496},{""stimulus"":""img/1to3/6.png"",""time"":595},{""stimulus"":""img/1to3/7.png"",""time"":694},{""stimulus"":""img/1to3/8.png"",""time"":793},{""stimulus"":""img/1to3/9.png"",""time"":893},{""stimulus"":""img/1to3/10.png"",""time"":991},{""stimulus"":""img/1to3/11.png"",""time"":1089},{""stimulus"":""img/1to3/12.png"",""time"":1188}]","[]"
"image-keyboard-response","94","136931","0.0-5.0-1.45","5ecbd383243b3438410dae19","bdp_cybrbll","Sat Mar 25 2023 18:36:11 GMT-0500 (Central Daylight Time)","455205","1","3","","null","","","","observe","","img/3to2/1.png","null","180","1268","0.5","0.5","3","2","",""
"animation","95","138218","0.0-5.0-2.45","5ecbd383243b3438410dae19","bdp_cybrbll","Sat Mar 25 2023 18:36:11 GMT-0500 (Central Daylight Time)","455205","1","3","","","","","","","","","","180","","","","3","2","[{""stimulus"":""img/3to2/1.png"",""time"":100},{""stimulus"":""img/3to2/2.png"",""time"":199},{""stimulus"":""img/3to2/3.png"",""time"":298},{""stimulus"":""img/3to2/4.png"",""time"":397},{""stimulus"":""img/3to2/5.png"",""time"":497},{""stimulus"":""img/3to2/6.png"",""time"":595},{""stimulus"":""img/3to2/7.png"",""time"":694},{""stimulus"":""img/3to2/8.png"",""time"":793},{""stimulus"":""img/3to2/9.png"",""time"":892},{""stimulus"":""img/3to2/10.png"",""time"":991},{""stimulus"":""img/3to2/11.png"",""time"":1090},{""stimulus"":""img/3to2/12.png"",""time"":1189}]","[]"
"image-keyboard-response","96","138435","0.0-5.0-1.46","5ecbd383243b3438410dae19","bdp_cybrbll","Sat Mar 25 2023 18:36:11 GMT-0500 (Central Daylight Time)","455205","1","3","","216","","","","choice","","img/2to1/1.png","2","179","354","0.5","0.5","2","3","",""
"animation","97","139724","0.0-5.0-2.46","5ecbd383243b3438410dae19","bdp_cybrbll","Sat Mar 25 2023 18:36:11 GMT-0500 (Central Daylight Time)","455205","1","3","","","","","","","","","","179","","","","2","3","[{""stimulus"":""img/2to3/1.png"",""time"":99},{""stimulus"":""img/2to3/2.png"",""time"":198},{""stimulus"":""img/2to3/3.png"",""time"":298},{""stimulus"":""img/2to3/4.png"",""time"":396},{""stimulus"":""img/2to3/5.png"",""time"":496},{""stimulus"":""img/2to3/6.png"",""time"":594},{""stimulus"":""img/2to3/7.png"",""time"":693},{""stimulus"":""img/2to3/8.png"",""time"":793},{""stimulus"":""img/2to3/9.png"",""time"":891},{""stimulus"":""img/2to3/10.png"",""time"":991},{""stimulus"":""img/2to3/11.png"",""time"":1090},{""stimulus"":""img/2to3/12.png"",""time"":1190}]","[]"
"image-keyboard-response","98","140226","0.0-5.0-1.47","5ecbd383243b3438410dae19","bdp_cybrbll","Sat Mar 25 2023 18:36:11 GMT-0500 (Central Daylight Time)","455205","1","3","","null","","","","observe","","img/3to2/1.png","null","178","501","0.5","0.5","3","2","",""
"animation","99","141514","0.0-5.0-2.47","5ecbd383243b3438410dae19","bdp_cybrbll","Sat Mar 25 2023 18:36:11 GMT-0500 (Central Daylight Time)","455205","1","3","","","","","","","","","","178","","","","3","2","[{""stimulus"":""img/3to2/1.png"",""time"":100},{""stimulus"":""img/3to2/2.png"",""time"":198},{""stimulus"":""img/3to2/3.png"",""time"":299},{""stimulus"":""img/3to2/4.png"",""time"":397},{""stimulus"":""img/3to2/5.png"",""time"":496},{""stimulus"":""img/3to2/6.png"",""time"":595},{""stimulus"":""img/3to2/7.png"",""time"":694},{""stimulus"":""img/3to2/8.png"",""time"":793},{""stimulus"":""img/3to2/9.png"",""time"":892},{""stimulus"":""img/3to2/10.png"",""time"":991},{""stimulus"":""img/3to2/11.png"",""time"":1090},{""stimulus"":""img/3to2/12.png"",""time"":1189}]","[]"
"image-keyboard-response","100","141612","0.0-5.0-1.48","5ecbd383243b3438410dae19","bdp_cybrbll","Sat Mar 25 2023 18:36:11 GMT-0500 (Central Daylight Time)","455205","1","3","","98","","","","choice","","img/2to1/1.png","2","177","463","0.5","0.5","2","3","",""
"animation","101","142900","0.0-5.0-2.48","5ecbd383243b3438410dae19","bdp_cybrbll","Sat Mar 25 2023 18:36:11 GMT-0500 (Central Daylight Time)","455205","1","3","","","","","","","","","","177","","","","2","3","[{""stimulus"":""img/2to3/1.png"",""time"":101},{""stimulus"":""img/2to3/2.png"",""time"":199},{""stimulus"":""img/2to3/3.png"",""time"":297},{""stimulus"":""img/2to3/4.png"",""time"":397},{""stimulus"":""img/2to3/5.png"",""time"":496},{""stimulus"":""img/2to3/6.png"",""time"":595},{""stimulus"":""img/2to3/7.png"",""time"":694},{""stimulus"":""img/2to3/8.png"",""time"":793},{""stimulus"":""img/2to3/9.png"",""time"":892},{""stimulus"":""img/2to3/10.png"",""time"":991},{""stimulus"":""img/2to3/11.png"",""time"":1090},{""stimulus"":""img/2to3/12.png"",""time"":1189}]","[]"
"image-keyboard-response","102","143316","0.0-5.0-1.49","5ecbd383243b3438410dae19","bdp_cybrbll","Sat Mar 25 2023 18:36:11 GMT-0500 (Central Daylight Time)","455205","1","3","","null","","","","observe","","img/3to2/1.png","null","176","415","0.5","0.5","3","2","",""
"animation","103","144604","0.0-5.0-2.49","5ecbd383243b3438410dae19","bdp_cybrbll","Sat Mar 25 2023 18:36:11 GMT-0500 (Central Daylight Time)","455205","1","3","","","","","","","","","","176","","","","3","2","[{""stimulus"":""img/3to2/1.png"",""time"":100},{""stimulus"":""img/3to2/2.png"",""time"":198},{""stimulus"":""img/3to2/3.png"",""time"":299},{""stimulus"":""img/3to2/4.png"",""time"":397},{""stimulus"":""img/3to2/5.png"",""time"":495},{""stimulus"":""img/3to2/6.png"",""time"":594},{""stimulus"":""img/3to2/7.png"",""time"":694},{""stimulus"":""img/3to2/8.png"",""time"":794},{""stimulus"":""img/3to2/9.png"",""time"":891},{""stimulus"":""img/3to2/10.png"",""time"":991},{""stimulus"":""img/3to2/11.png"",""time"":1089},{""stimulus"":""img/3to2/12.png"",""time"":1189}]","[]"
"image-keyboard-response","104","144818","0.0-5.0-1.50","5ecbd383243b3438410dae19","bdp_cybrbll","Sat Mar 25 2023 18:36:11 GMT-0500 (Central Daylight Time)","455205","1","3","","213","","","","choice","","img/2to1/1.png","2","175","245","0.5","0.5","2","3","",""
"animation","105","146106","0.0-5.0-2.50","5ecbd383243b3438410dae19","bdp_cybrbll","Sat Mar 25 2023 18:36:11 GMT-0500 (Central Daylight Time)","455205","1","3","","","","","","","","","","175","","","","2","3","[{""stimulus"":""img/2to3/1.png"",""time"":100},{""stimulus"":""img/2to3/2.png"",""time"":199},{""stimulus"":""img/2to3/3.png"",""time"":298},{""stimulus"":""img/2to3/4.png"",""time"":398},{""stimulus"":""img/2to3/5.png"",""time"":496},{""stimulus"":""img/2to3/6.png"",""time"":594},{""stimulus"":""img/2to3/7.png"",""time"":694},{""stimulus"":""img/2to3/8.png"",""time"":793},{""stimulus"":""img/2to3/9.png"",""time"":892},{""stimulus"":""img/2to3/10.png"",""time"":991},{""stimulus"":""img/2to3/11.png"",""time"":1090},{""stimulus"":""img/2to3/12.png"",""time"":1189}]","[]"
"image-keyboard-response","106","146453","0.0-5.0-1.51","5ecbd383243b3438410dae19","bdp_cybrbll","Sat Mar 25 2023 18:36:11 GMT-0500 (Central Daylight Time)","455205","1","3","","null","","","","observe","","img/3to2/1.png","null","174","346","0.5","0.5","3","1","",""
"animation","107","147741","0.0-5.0-2.51","5ecbd383243b3438410dae19","bdp_cybrbll","Sat Mar 25 2023 18:36:11 GMT-0500 (Central Daylight Time)","455205","1","3","","","","","","","","","","174","","","","3","1","[{""stimulus"":""img/3to1/1.png"",""time"":100},{""stimulus"":""img/3to1/2.png"",""time"":199},{""stimulus"":""img/3to1/3.png"",""time"":298},{""stimulus"":""img/3to1/4.png"",""time"":397},{""stimulus"":""img/3to1/5.png"",""time"":496},{""stimulus"":""img/3to1/6.png"",""time"":596},{""stimulus"":""img/3to1/7.png"",""time"":694},{""stimulus"":""img/3to1/8.png"",""time"":793},{""stimulus"":""img/3to1/9.png"",""time"":892},{""stimulus"":""img/3to1/10.png"",""time"":990},{""stimulus"":""img/3to1/11.png"",""time"":1090},{""stimulus"":""img/3to1/12.png"",""time"":1189}]","[]"
"image-keyboard-response","108","148812","0.0-5.0-1.52","5ecbd383243b3438410dae19","bdp_cybrbll","Sat Mar 25 2023 18:36:11 GMT-0500 (Central Daylight Time)","455205","1","3","","null","","","","observe","","img/1to3/1.png","null","173","1062","0.5","0.5","1","2","",""
"animation","109","150100","0.0-5.0-2.52","5ecbd383243b3438410dae19","bdp_cybrbll","Sat Mar 25 2023 18:36:11 GMT-0500 (Central Daylight Time)","455205","1","3","","","","","","","","","","173","","","","1","2","[{""stimulus"":""img/1to2/1.png"",""time"":100},{""stimulus"":""img/1to2/2.png"",""time"":199},{""stimulus"":""img/1to2/3.png"",""time"":299},{""stimulus"":""img/1to2/4.png"",""time"":397},{""stimulus"":""img/1to2/5.png"",""time"":496},{""stimulus"":""img/1to2/6.png"",""time"":595},{""stimulus"":""img/1to2/7.png"",""time"":694},{""stimulus"":""img/1to2/8.png"",""time"":793},{""stimulus"":""img/1to2/9.png"",""time"":892},{""stimulus"":""img/1to2/10.png"",""time"":991},{""stimulus"":""img/1to2/11.png"",""time"":1089},{""stimulus"":""img/1to2/12.png"",""time"":1189}]","[]"
"image-keyboard-response","110","150306","0.0-5.0-1.53","5ecbd383243b3438410dae19","bdp_cybrbll","Sat Mar 25 2023 18:36:11 GMT-0500 (Central Daylight Time)","455205","1","3","","206","","","","choice","","img/2to1/1.png","2","172","371","0.5","0.5","2","3","",""
"animation","111","151593","0.0-5.0-2.53","5ecbd383243b3438410dae19","bdp_cybrbll","Sat Mar 25 2023 18:36:11 GMT-0500 (Central Daylight Time)","455205","1","3","","","","","","","","","","172","","","","2","3","[{""stimulus"":""img/2to3/1.png"",""time"":100},{""stimulus"":""img/2to3/2.png"",""time"":200},{""stimulus"":""img/2to3/3.png"",""time"":298},{""stimulus"":""img/2to3/4.png"",""time"":397},{""stimulus"":""img/2to3/5.png"",""time"":495},{""stimulus"":""img/2to3/6.png"",""time"":595},{""stimulus"":""img/2to3/7.png"",""time"":694},{""stimulus"":""img/2to3/8.png"",""time"":793},{""stimulus"":""img/2to3/9.png"",""time"":891},{""stimulus"":""img/2to3/10.png"",""time"":990},{""stimulus"":""img/2to3/11.png"",""time"":1090},{""stimulus"":""img/2to3/12.png"",""time"":1188}]","[]"
"image-keyboard-response","112","152174","0.0-5.0-1.54","5ecbd383243b3438410dae19","bdp_cybrbll","Sat Mar 25 2023 18:36:11 GMT-0500 (Central Daylight Time)","455205","1","3","","null","","","","observe","","img/3to2/1.png","null","171","579","0.5","0.5","3","1","",""
"animation","113","153461","0.0-5.0-2.54","5ecbd383243b3438410dae19","bdp_cybrbll","Sat Mar 25 2023 18:36:11 GMT-0500 (Central Daylight Time)","455205","1","3","","","","","","","","","","171","","","","3","1","[{""stimulus"":""img/3to1/1.png"",""time"":100},{""stimulus"":""img/3to1/2.png"",""time"":199},{""stimulus"":""img/3to1/3.png"",""time"":297},{""stimulus"":""img/3to1/4.png"",""time"":397},{""stimulus"":""img/3to1/5.png"",""time"":496},{""stimulus"":""img/3to1/6.png"",""time"":594},{""stimulus"":""img/3to1/7.png"",""time"":694},{""stimulus"":""img/3to1/8.png"",""time"":793},{""stimulus"":""img/3to1/9.png"",""time"":899},{""stimulus"":""img/3to1/10.png"",""time"":991},{""stimulus"":""img/3to1/11.png"",""time"":1089},{""stimulus"":""img/3to1/12.png"",""time"":1188}]","[]"
"image-keyboard-response","114","153876","0.0-5.0-1.55","5ecbd383243b3438410dae19","bdp_cybrbll","Sat Mar 25 2023 18:36:11 GMT-0500 (Central Daylight Time)","455205","1","3","","null","","","","observe","","img/1to3/1.png","null","170","413","0.5","0.5","1","3","",""
"animation","115","155165","0.0-5.0-2.55","5ecbd383243b3438410dae19","bdp_cybrbll","Sat Mar 25 2023 18:36:11 GMT-0500 (Central Daylight Time)","455205","1","3","","","","","","","","","","170","","","","1","3","[{""stimulus"":""img/1to3/1.png"",""time"":100},{""stimulus"":""img/1to3/2.png"",""time"":199},{""stimulus"":""img/1to3/3.png"",""time"":298},{""stimulus"":""img/1to3/4.png"",""time"":396},{""stimulus"":""img/1to3/5.png"",""time"":496},{""stimulus"":""img/1to3/6.png"",""time"":594},{""stimulus"":""img/1to3/7.png"",""time"":694},{""stimulus"":""img/1to3/8.png"",""time"":793},{""stimulus"":""img/1to3/9.png"",""time"":892},{""stimulus"":""img/1to3/10.png"",""time"":990},{""stimulus"":""img/1to3/11.png"",""time"":1089},{""stimulus"":""img/1to3/12.png"",""time"":1189}]","[]"
"image-keyboard-response","116","155530","0.0-5.0-1.56","5ecbd383243b3438410dae19","bdp_cybrbll","Sat Mar 25 2023 18:36:11 GMT-0500 (Central Daylight Time)","455205","1","3","","null","","","","observe","","img/3to2/1.png","null","169","363","0.5","0.5","3","2","",""
"animation","117","156818","0.0-5.0-2.56","5ecbd383243b3438410dae19","bdp_cybrbll","Sat Mar 25 2023 18:36:11 GMT-0500 (Central Daylight Time)","455205","1","3","","","","","","","","","","169","","","","3","2","[{""stimulus"":""img/3to2/1.png"",""time"":100},{""stimulus"":""img/3to2/2.png"",""time"":198},{""stimulus"":""img/3to2/3.png"",""time"":298},{""stimulus"":""img/3to2/4.png"",""time"":396},{""stimulus"":""img/3to2/5.png"",""time"":495},{""stimulus"":""img/3to2/6.png"",""time"":595},{""stimulus"":""img/3to2/7.png"",""time"":693},{""stimulus"":""img/3to2/8.png"",""time"":793},{""stimulus"":""img/3to2/9.png"",""time"":892},{""stimulus"":""img/3to2/10.png"",""time"":991},{""stimulus"":""img/3to2/11.png"",""time"":1089},{""stimulus"":""img/3to2/12.png"",""time"":1189}]","[]"
"image-keyboard-response","118","156924","0.0-5.0-1.57","5ecbd383243b3438410dae19","bdp_cybrbll","Sat Mar 25 2023 18:36:11 GMT-0500 (Central Daylight Time)","455205","1","3","","106","","","","choice","","img/2to1/1.png","1","168","783","0.5","0.5","2","1","",""
"animation","119","158212","0.0-5.0-2.57","5ecbd383243b3438410dae19","bdp_cybrbll","Sat Mar 25 2023 18:36:11 GMT-0500 (Central Daylight Time)","455205","1","3","","","","","","","","","","168","","","","2","1","[{""stimulus"":""img/2to1/1.png"",""time"":99},{""stimulus"":""img/2to1/2.png"",""time"":199},{""stimulus"":""img/2to1/3.png"",""time"":297},{""stimulus"":""img/2to1/4.png"",""time"":398},{""stimulus"":""img/2to1/5.png"",""time"":495},{""stimulus"":""img/2to1/6.png"",""time"":594},{""stimulus"":""img/2to1/7.png"",""time"":693},{""stimulus"":""img/2to1/8.png"",""time"":794},{""stimulus"":""img/2to1/9.png"",""time"":891},{""stimulus"":""img/2to1/10.png"",""time"":991},{""stimulus"":""img/2to1/11.png"",""time"":1090},{""stimulus"":""img/2to1/12.png"",""time"":1188}]","[]"
"image-keyboard-response","120","159068","0.0-5.0-1.58","5ecbd383243b3438410dae19","bdp_cybrbll","Sat Mar 25 2023 18:36:11 GMT-0500 (Central Daylight Time)","455205","1","3","","null","","","","observe","","img/1to3/1.png","null","167","848","0.5","0.5","1","2","",""
"animation","121","160355","0.0-5.0-2.58","5ecbd383243b3438410dae19","bdp_cybrbll","Sat Mar 25 2023 18:36:11 GMT-0500 (Central Daylight Time)","455205","1","3","","","","","","","","","","167","","","","1","2","[{""stimulus"":""img/1to2/1.png"",""time"":99},{""stimulus"":""img/1to2/2.png"",""time"":198},{""stimulus"":""img/1to2/3.png"",""time"":297},{""stimulus"":""img/1to2/4.png"",""time"":397},{""stimulus"":""img/1to2/5.png"",""time"":496},{""stimulus"":""img/1to2/6.png"",""time"":595},{""stimulus"":""img/1to2/7.png"",""time"":694},{""stimulus"":""img/1to2/8.png"",""time"":793},{""stimulus"":""img/1to2/9.png"",""time"":892},{""stimulus"":""img/1to2/10.png"",""time"":991},{""stimulus"":""img/1to2/11.png"",""time"":1090},{""stimulus"":""img/1to2/12.png"",""time"":1188}]","[]"
"image-keyboard-response","122","160357","0.0-5.0-1.59","5ecbd383243b3438410dae19","bdp_cybrbll","Sat Mar 25 2023 18:36:11 GMT-0500 (Central Daylight Time)","455205","1","3","","1","","","","choice","","img/2to1/1.png","2","166","928","0.5","0.5","2","3","",""
"animation","123","161645","0.0-5.0-2.59","5ecbd383243b3438410dae19","bdp_cybrbll","Sat Mar 25 2023 18:36:11 GMT-0500 (Central Daylight Time)","455205","1","3","","","","","","","","","","166","","","","2","3","[{""stimulus"":""img/2to3/1.png"",""time"":100},{""stimulus"":""img/2to3/2.png"",""time"":199},{""stimulus"":""img/2to3/3.png"",""time"":298},{""stimulus"":""img/2to3/4.png"",""time"":397},{""stimulus"":""img/2to3/5.png"",""time"":496},{""stimulus"":""img/2to3/6.png"",""time"":594},{""stimulus"":""img/2to3/7.png"",""time"":695},{""stimulus"":""img/2to3/8.png"",""time"":793},{""stimulus"":""img/2to3/9.png"",""time"":891},{""stimulus"":""img/2to3/10.png"",""time"":991},{""stimulus"":""img/2to3/11.png"",""time"":1090},{""stimulus"":""img/2to3/12.png"",""time"":1188}]","[]"
"image-keyboard-response","124","161911","0.0-5.0-1.60","5ecbd383243b3438410dae19","bdp_cybrbll","Sat Mar 25 2023 18:36:11 GMT-0500 (Central Daylight Time)","455205","1","3","","null","","","","observe","","img/3to2/1.png","null","165","265","0.5","0.5","3","2","",""
"animation","125","163199","0.0-5.0-2.60","5ecbd383243b3438410dae19","bdp_cybrbll","Sat Mar 25 2023 18:36:11 GMT-0500 (Central Daylight Time)","455205","1","3","","","","","","","","","","165","","","","3","2","[{""stimulus"":""img/3to2/1.png"",""time"":100},{""stimulus"":""img/3to2/2.png"",""time"":199},{""stimulus"":""img/3to2/3.png"",""time"":298},{""stimulus"":""img/3to2/4.png"",""time"":397},{""stimulus"":""img/3to2/5.png"",""time"":496},{""stimulus"":""img/3to2/6.png"",""time"":596},{""stimulus"":""img/3to2/7.png"",""time"":694},{""stimulus"":""img/3to2/8.png"",""time"":793},{""stimulus"":""img/3to2/9.png"",""time"":892},{""stimulus"":""img/3to2/10.png"",""time"":992},{""stimulus"":""img/3to2/11.png"",""time"":1090},{""stimulus"":""img/3to2/12.png"",""time"":1189}]","[]"
"image-keyboard-response","126","163283","0.0-5.0-1.61","5ecbd383243b3438410dae19","bdp_cybrbll","Sat Mar 25 2023 18:36:11 GMT-0500 (Central Daylight Time)","455205","1","3","","83","","","","choice","","img/2to1/1.png","1","164","391","0.5","0.5","2","1","",""
"animation","127","164572","0.0-5.0-2.61","5ecbd383243b3438410dae19","bdp_cybrbll","Sat Mar 25 2023 18:36:11 GMT-0500 (Central Daylight Time)","455205","1","3","","","","","","","","","","164","","","","2","1","[{""stimulus"":""img/2to1/1.png"",""time"":104},{""stimulus"":""img/2to1/2.png"",""time"":198},{""stimulus"":""img/2to1/3.png"",""time"":298},{""stimulus"":""img/2to1/4.png"",""time"":397},{""stimulus"":""img/2to1/5.png"",""time"":496},{""stimulus"":""img/2to1/6.png"",""time"":595},{""stimulus"":""img/2to1/7.png"",""time"":694},{""stimulus"":""img/2to1/8.png"",""time"":805},{""stimulus"":""img/2to1/9.png"",""time"":892},{""stimulus"":""img/2to1/10.png"",""time"":991},{""stimulus"":""img/2to1/11.png"",""time"":1090},{""stimulus"":""img/2to1/12.png"",""time"":1189}]","[]"
"image-keyboard-response","128","164952","0.0-5.0-1.62","5ecbd383243b3438410dae19","bdp_cybrbll","Sat Mar 25 2023 18:36:11 GMT-0500 (Central Daylight Time)","455205","1","3","","null","","","","observe","","img/1to3/1.png","null","163","379","0.5","0.5","1","3","",""
"animation","129","166240","0.0-5.0-2.62","5ecbd383243b3438410dae19","bdp_cybrbll","Sat Mar 25 2023 18:36:11 GMT-0500 (Central Daylight Time)","455205","1","3","","","","","","","","","","163","","","","1","3","[{""stimulus"":""img/1to3/1.png"",""time"":100},{""stimulus"":""img/1to3/2.png"",""time"":199},{""stimulus"":""img/1to3/3.png"",""time"":297},{""stimulus"":""img/1to3/4.png"",""time"":396},{""stimulus"":""img/1to3/5.png"",""time"":495},{""stimulus"":""img/1to3/6.png"",""time"":594},{""stimulus"":""img/1to3/7.png"",""time"":694},{""stimulus"":""img/1to3/8.png"",""time"":793},{""stimulus"":""img/1to3/9.png"",""time"":891},{""stimulus"":""img/1to3/10.png"",""time"":992},{""stimulus"":""img/1to3/11.png"",""time"":1091},{""stimulus"":""img/1to3/12.png"",""time"":1188}]","[]"
"image-keyboard-response","130","167153","0.0-5.0-1.63","5ecbd383243b3438410dae19","bdp_cybrbll","Sat Mar 25 2023 18:36:11 GMT-0500 (Central Daylight Time)","455205","1","3","","null","","","","observe","","img/3to2/1.png","null","162","911","0.5","0.5","3","2","",""
"animation","131","168441","0.0-5.0-2.63","5ecbd383243b3438410dae19","bdp_cybrbll","Sat Mar 25 2023 18:36:11 GMT-0500 (Central Daylight Time)","455205","1","3","","","","","","","","","","162","","","","3","2","[{""stimulus"":""img/3to2/1.png"",""time"":100},{""stimulus"":""img/3to2/2.png"",""time"":200},{""stimulus"":""img/3to2/3.png"",""time"":298},{""stimulus"":""img/3to2/4.png"",""time"":398},{""stimulus"":""img/3to2/5.png"",""time"":496},{""stimulus"":""img/3to2/6.png"",""time"":595},{""stimulus"":""img/3to2/7.png"",""time"":693},{""stimulus"":""img/3to2/8.png"",""time"":794},{""stimulus"":""img/3to2/9.png"",""time"":892},{""stimulus"":""img/3to2/10.png"",""time"":990},{""stimulus"":""img/3to2/11.png"",""time"":1090},{""stimulus"":""img/3to2/12.png"",""time"":1189}]","[]"
"image-keyboard-response","132","169120","0.0-5.0-1.64","5ecbd383243b3438410dae19","bdp_cybrbll","Sat Mar 25 2023 18:36:11 GMT-0500 (Central Daylight Time)","455205","1","3","","679","","","","choice","","img/2to1/1.png","2","161","267","0.5","0.5","2","3","",""
"animation","133","170408","0.0-5.0-2.64","5ecbd383243b3438410dae19","bdp_cybrbll","Sat Mar 25 2023 18:36:11 GMT-0500 (Central Daylight Time)","455205","1","3","","","","","","","","","","161","","","","2","3","[{""stimulus"":""img/2to3/1.png"",""time"":100},{""stimulus"":""img/2to3/2.png"",""time"":199},{""stimulus"":""img/2to3/3.png"",""time"":297},{""stimulus"":""img/2to3/4.png"",""time"":397},{""stimulus"":""img/2to3/5.png"",""time"":496},{""stimulus"":""img/2to3/6.png"",""time"":595},{""stimulus"":""img/2to3/7.png"",""time"":694},{""stimulus"":""img/2to3/8.png"",""time"":792},{""stimulus"":""img/2to3/9.png"",""time"":891},{""stimulus"":""img/2to3/10.png"",""time"":991},{""stimulus"":""img/2to3/11.png"",""time"":1090},{""stimulus"":""img/2to3/12.png"",""time"":1189}]","[]"
"image-keyboard-response","134","170801","0.0-5.0-1.65","5ecbd383243b3438410dae19","bdp_cybrbll","Sat Mar 25 2023 18:36:11 GMT-0500 (Central Daylight Time)","455205","1","3","","null","","","","observe","","img/3to2/1.png","null","160","391","0.5","0.5","3","2","",""
"animation","135","172090","0.0-5.0-2.65","5ecbd383243b3438410dae19","bdp_cybrbll","Sat Mar 25 2023 18:36:11 GMT-0500 (Central Daylight Time)","455205","1","3","","","","","","","","","","160","","","","3","2","[{""stimulus"":""img/3to2/1.png"",""time"":100},{""stimulus"":""img/3to2/2.png"",""time"":198},{""stimulus"":""img/3to2/3.png"",""time"":297},{""stimulus"":""img/3to2/4.png"",""time"":397},{""stimulus"":""img/3to2/5.png"",""time"":496},{""stimulus"":""img/3to2/6.png"",""time"":594},{""stimulus"":""img/3to2/7.png"",""time"":693},{""stimulus"":""img/3to2/8.png"",""time"":792},{""stimulus"":""img/3to2/9.png"",""time"":892},{""stimulus"":""img/3to2/10.png"",""time"":991},{""stimulus"":""img/3to2/11.png"",""time"":1090},{""stimulus"":""img/3to2/12.png"",""time"":1189}]","[]"
"image-keyboard-response","136","172308","0.0-5.0-1.66","5ecbd383243b3438410dae19","bdp_cybrbll","Sat Mar 25 2023 18:36:11 GMT-0500 (Central Daylight Time)","455205","1","3","","217","","","","choice","","img/2to1/1.png","1","159","681","0.5","0.5","2","1","",""
"animation","137","173595","0.0-5.0-2.66","5ecbd383243b3438410dae19","bdp_cybrbll","Sat Mar 25 2023 18:36:11 GMT-0500 (Central Daylight Time)","455205","1","3","","","","","","","","","","159","","","","2","1","[{""stimulus"":""img/2to1/1.png"",""time"":100},{""stimulus"":""img/2to1/2.png"",""time"":198},{""stimulus"":""img/2to1/3.png"",""time"":298},{""stimulus"":""img/2to1/4.png"",""time"":397},{""stimulus"":""img/2to1/5.png"",""time"":496},{""stimulus"":""img/2to1/6.png"",""time"":594},{""stimulus"":""img/2to1/7.png"",""time"":693},{""stimulus"":""img/2to1/8.png"",""time"":793},{""stimulus"":""img/2to1/9.png"",""time"":891},{""stimulus"":""img/2to1/10.png"",""time"":991},{""stimulus"":""img/2to1/11.png"",""time"":1089},{""stimulus"":""img/2to1/12.png"",""time"":1189}]","[]"
"image-keyboard-response","138","174734","0.0-5.0-1.67","5ecbd383243b3438410dae19","bdp_cybrbll","Sat Mar 25 2023 18:36:11 GMT-0500 (Central Daylight Time)","455205","1","3","","null","","","","observe","","img/1to3/1.png","null","158","1137","0.5","0.5","1","2","",""
"animation","139","176022","0.0-5.0-2.67","5ecbd383243b3438410dae19","bdp_cybrbll","Sat Mar 25 2023 18:36:11 GMT-0500 (Central Daylight Time)","455205","1","3","","","","","","","","","","158","","","","1","2","[{""stimulus"":""img/1to2/1.png"",""time"":100},{""stimulus"":""img/1to2/2.png"",""time"":198},{""stimulus"":""img/1to2/3.png"",""time"":298},{""stimulus"":""img/1to2/4.png"",""time"":397},{""stimulus"":""img/1to2/5.png"",""time"":496},{""stimulus"":""img/1to2/6.png"",""time"":596},{""stimulus"":""img/1to2/7.png"",""time"":694},{""stimulus"":""img/1to2/8.png"",""time"":793},{""stimulus"":""img/1to2/9.png"",""time"":892},{""stimulus"":""img/1to2/10.png"",""time"":991},{""stimulus"":""img/1to2/11.png"",""time"":1089},{""stimulus"":""img/1to2/12.png"",""time"":1188}]","[]"
"image-keyboard-response","140","176482","0.0-5.0-1.68","5ecbd383243b3438410dae19","bdp_cybrbll","Sat Mar 25 2023 18:36:11 GMT-0500 (Central Daylight Time)","455205","1","3","","458","","","","choice","","img/2to1/1.png","1","157","159","0.5","0.5","2","1","",""
"animation","141","177769","0.0-5.0-2.68","5ecbd383243b3438410dae19","bdp_cybrbll","Sat Mar 25 2023 18:36:11 GMT-0500 (Central Daylight Time)","455205","1","3","","","","","","","","","","157","","","","2","1","[{""stimulus"":""img/2to1/1.png"",""time"":100},{""stimulus"":""img/2to1/2.png"",""time"":200},{""stimulus"":""img/2to1/3.png"",""time"":298},{""stimulus"":""img/2to1/4.png"",""time"":396},{""stimulus"":""img/2to1/5.png"",""time"":495},{""stimulus"":""img/2to1/6.png"",""time"":595},{""stimulus"":""img/2to1/7.png"",""time"":693},{""stimulus"":""img/2to1/8.png"",""time"":792},{""stimulus"":""img/2to1/9.png"",""time"":893},{""stimulus"":""img/2to1/10.png"",""time"":990},{""stimulus"":""img/2to1/11.png"",""time"":1090},{""stimulus"":""img/2to1/12.png"",""time"":1189}]","[]"
"image-keyboard-response","142","178089","0.0-5.0-1.69","5ecbd383243b3438410dae19","bdp_cybrbll","Sat Mar 25 2023 18:36:11 GMT-0500 (Central Daylight Time)","455205","1","3","","null","","","","observe","","img/1to3/1.png","null","156","319","0.5","0.5","1","3","",""
"animation","143","179378","0.0-5.0-2.69","5ecbd383243b3438410dae19","bdp_cybrbll","Sat Mar 25 2023 18:36:11 GMT-0500 (Central Daylight Time)","455205","1","3","","","","","","","","","","156","","","","1","3","[{""stimulus"":""img/1to3/1.png"",""time"":99},{""stimulus"":""img/1to3/2.png"",""time"":198},{""stimulus"":""img/1to3/3.png"",""time"":298},{""stimulus"":""img/1to3/4.png"",""time"":396},{""stimulus"":""img/1to3/5.png"",""time"":496},{""stimulus"":""img/1to3/6.png"",""time"":595},{""stimulus"":""img/1to3/7.png"",""time"":694},{""stimulus"":""img/1to3/8.png"",""time"":793},{""stimulus"":""img/1to3/9.png"",""time"":891},{""stimulus"":""img/1to3/10.png"",""time"":991},{""stimulus"":""img/1to3/11.png"",""time"":1090},{""stimulus"":""img/1to3/12.png"",""time"":1190}]","[]"
"image-keyboard-response","144","179763","0.0-5.0-1.70","5ecbd383243b3438410dae19","bdp_cybrbll","Sat Mar 25 2023 18:36:11 GMT-0500 (Central Daylight Time)","455205","1","3","","null","","","","observe","","img/3to2/1.png","null","155","384","0.5","0.5","3","1","",""
"animation","145","181050","0.0-5.0-2.70","5ecbd383243b3438410dae19","bdp_cybrbll","Sat Mar 25 2023 18:36:11 GMT-0500 (Central Daylight Time)","455205","1","3","","","","","","","","","","155","","","","3","1","[{""stimulus"":""img/3to1/1.png"",""time"":101},{""stimulus"":""img/3to1/2.png"",""time"":199},{""stimulus"":""img/3to1/3.png"",""time"":298},{""stimulus"":""img/3to1/4.png"",""time"":397},{""stimulus"":""img/3to1/5.png"",""time"":496},{""stimulus"":""img/3to1/6.png"",""time"":595},{""stimulus"":""img/3to1/7.png"",""time"":694},{""stimulus"":""img/3to1/8.png"",""time"":793},{""stimulus"":""img/3to1/9.png"",""time"":892},{""stimulus"":""img/3to1/10.png"",""time"":991},{""stimulus"":""img/3to1/11.png"",""time"":1090},{""stimulus"":""img/3to1/12.png"",""time"":1189}]","[]"
"image-keyboard-response","146","181378","0.0-5.0-1.71","5ecbd383243b3438410dae19","bdp_cybrbll","Sat Mar 25 2023 18:36:11 GMT-0500 (Central Daylight Time)","455205","1","3","","null","","","","observe","","img/1to3/1.png","null","154","326","0.5","0.5","1","2","",""
"animation","147","182666","0.0-5.0-2.71","5ecbd383243b3438410dae19","bdp_cybrbll","Sat Mar 25 2023 18:36:11 GMT-0500 (Central Daylight Time)","455205","1","3","","","","","","","","","","154","","","","1","2","[{""stimulus"":""img/1to2/1.png"",""time"":101},{""stimulus"":""img/1to2/2.png"",""time"":200},{""stimulus"":""img/1to2/3.png"",""time"":299},{""stimulus"":""img/1to2/4.png"",""time"":398},{""stimulus"":""img/1to2/5.png"",""time"":496},{""stimulus"":""img/1to2/6.png"",""time"":595},{""stimulus"":""img/1to2/7.png"",""time"":694},{""stimulus"":""img/1to2/8.png"",""time"":794},{""stimulus"":""img/1to2/9.png"",""time"":893},{""stimulus"":""img/1to2/10.png"",""time"":992},{""stimulus"":""img/1to2/11.png"",""time"":1090},{""stimulus"":""img/1to2/12.png"",""time"":1190}]","[]"
"image-keyboard-response","148","182683","0.0-5.0-1.72","5ecbd383243b3438410dae19","bdp_cybrbll","Sat Mar 25 2023 18:36:11 GMT-0500 (Central Daylight Time)","455205","1","3","","16","","","","choice","","img/2to1/1.png","2","153","216","0.5","0.5","2","3","",""
"animation","149","183970","0.0-5.0-2.72","5ecbd383243b3438410dae19","bdp_cybrbll","Sat Mar 25 2023 18:36:11 GMT-0500 (Central Daylight Time)","455205","1","3","","","","","","","","","","153","","","","2","3","[{""stimulus"":""img/2to3/1.png"",""time"":100},{""stimulus"":""img/2to3/2.png"",""time"":199},{""stimulus"":""img/2to3/3.png"",""time"":297},{""stimulus"":""img/2to3/4.png"",""time"":397},{""stimulus"":""img/2to3/5.png"",""time"":496},{""stimulus"":""img/2to3/6.png"",""time"":595},{""stimulus"":""img/2to3/7.png"",""time"":695},{""stimulus"":""img/2to3/8.png"",""time"":793},{""stimulus"":""img/2to3/9.png"",""time"":893},{""stimulus"":""img/2to3/10.png"",""time"":992},{""stimulus"":""img/2to3/11.png"",""time"":1089},{""stimulus"":""img/2to3/12.png"",""time"":1189}]","[]"
"image-keyboard-response","150","185029","0.0-5.0-1.73","5ecbd383243b3438410dae19","bdp_cybrbll","Sat Mar 25 2023 18:36:11 GMT-0500 (Central Daylight Time)","455205","1","3","","null","","","","observe","","img/3to2/1.png","null","152","1057","0.5","0.5","3","2","",""
"animation","151","186318","0.0-5.0-2.73","5ecbd383243b3438410dae19","bdp_cybrbll","Sat Mar 25 2023 18:36:11 GMT-0500 (Central Daylight Time)","455205","1","3","","","","","","","","","","152","","","","3","2","[{""stimulus"":""img/3to2/1.png"",""time"":100},{""stimulus"":""img/3to2/2.png"",""time"":198},{""stimulus"":""img/3to2/3.png"",""time"":298},{""stimulus"":""img/3to2/4.png"",""time"":397},{""stimulus"":""img/3to2/5.png"",""time"":496},{""stimulus"":""img/3to2/6.png"",""time"":595},{""stimulus"":""img/3to2/7.png"",""time"":694},{""stimulus"":""img/3to2/8.png"",""time"":793},{""stimulus"":""img/3to2/9.png"",""time"":892},{""stimulus"":""img/3to2/10.png"",""time"":991},{""stimulus"":""img/3to2/11.png"",""time"":1090},{""stimulus"":""img/3to2/12.png"",""time"":1189}]","[]"
"image-keyboard-response","152","186854","0.0-5.0-1.74","5ecbd383243b3438410dae19","bdp_cybrbll","Sat Mar 25 2023 18:36:11 GMT-0500 (Central Daylight Time)","455205","1","3","","535","","","","choice","","img/2to1/1.png","1","151","175","0.5","0.5","2","1","",""
"animation","153","188141","0.0-5.0-2.74","5ecbd383243b3438410dae19","bdp_cybrbll","Sat Mar 25 2023 18:36:11 GMT-0500 (Central Daylight Time)","455205","1","3","","","","","","","","","","151","","","","2","1","[{""stimulus"":""img/2to1/1.png"",""time"":100},{""stimulus"":""img/2to1/2.png"",""time"":199},{""stimulus"":""img/2to1/3.png"",""time"":299},{""stimulus"":""img/2to1/4.png"",""time"":397},{""stimulus"":""img/2to1/5.png"",""time"":495},{""stimulus"":""img/2to1/6.png"",""time"":595},{""stimulus"":""img/2to1/7.png"",""time"":694},{""stimulus"":""img/2to1/8.png"",""time"":802},{""stimulus"":""img/2to1/9.png"",""time"":891},{""stimulus"":""img/2to1/10.png"",""time"":991},{""stimulus"":""img/2to1/11.png"",""time"":1089},{""stimulus"":""img/2to1/12.png"",""time"":1188}]","[]"
"image-keyboard-response","154","188898","0.0-5.0-1.75","5ecbd383243b3438410dae19","bdp_cybrbll","Sat Mar 25 2023 18:36:11 GMT-0500 (Central Daylight Time)","455205","1","3","","null","","","","observe","","img/1to3/1.png","null","150","756","0.5","0.5","1","2","",""
"animation","155","190186","0.0-5.0-2.75","5ecbd383243b3438410dae19","bdp_cybrbll","Sat Mar 25 2023 18:36:11 GMT-0500 (Central Daylight Time)","455205","1","3","","","","","","","","","","150","","","","1","2","[{""stimulus"":""img/1to2/1.png"",""time"":100},{""stimulus"":""img/1to2/2.png"",""time"":199},{""stimulus"":""img/1to2/3.png"",""time"":299},{""stimulus"":""img/1to2/4.png"",""time"":398},{""stimulus"":""img/1to2/5.png"",""time"":496},{""stimulus"":""img/1to2/6.png"",""time"":596},{""stimulus"":""img/1to2/7.png"",""time"":694},{""stimulus"":""img/1to2/8.png"",""time"":793},{""stimulus"":""img/1to2/9.png"",""time"":893},{""stimulus"":""img/1to2/10.png"",""time"":991},{""stimulus"":""img/1to2/11.png"",""time"":1090},{""stimulus"":""img/1to2/12.png"",""time"":1190}]","[]"
"image-keyboard-response","156","190368","0.0-5.0-1.76","5ecbd383243b3438410dae19","bdp_cybrbll","Sat Mar 25 2023 18:36:11 GMT-0500 (Central Daylight Time)","455205","1","3","","181","","","","choice","","img/2to1/1.png","2","149","444","0.5","0.1","2","3","",""
"animation","157","191656","0.0-5.0-2.76","5ecbd383243b3438410dae19","bdp_cybrbll","Sat Mar 25 2023 18:36:11 GMT-0500 (Central Daylight Time)","455205","1","3","","","","","","","","","","149","","","","2","3","[{""stimulus"":""img/2to3/1.png"",""time"":100},{""stimulus"":""img/2to3/2.png"",""time"":198},{""stimulus"":""img/2to3/3.png"",""time"":297},{""stimulus"":""img/2to3/4.png"",""time"":398},{""stimulus"":""img/2to3/5.png"",""time"":496},{""stimulus"":""img/2to3/6.png"",""time"":595},{""stimulus"":""img/2to3/7.png"",""time"":694},{""stimulus"":""img/2to3/8.png"",""time"":793},{""stimulus"":""img/2to3/9.png"",""time"":892},{""stimulus"":""img/2to3/10.png"",""time"":991},{""stimulus"":""img/2to3/11.png"",""time"":1089},{""stimulus"":""img/2to3/12.png"",""time"":1188}]","[]"
"image-keyboard-response","158","192239","0.0-5.0-1.77","5ecbd383243b3438410dae19","bdp_cybrbll","Sat Mar 25 2023 18:36:11 GMT-0500 (Central Daylight Time)","455205","1","3","","null","","","","observe","","img/3to2/1.png","null","148","581","0.5","0.1","3","1","",""
"animation","159","193527","0.0-5.0-2.77","5ecbd383243b3438410dae19","bdp_cybrbll","Sat Mar 25 2023 18:36:11 GMT-0500 (Central Daylight Time)","455205","1","3","","","","","","","","","","148","","","","3","1","[{""stimulus"":""img/3to1/1.png"",""time"":100},{""stimulus"":""img/3to1/2.png"",""time"":199},{""stimulus"":""img/3to1/3.png"",""time"":298},{""stimulus"":""img/3to1/4.png"",""time"":397},{""stimulus"":""img/3to1/5.png"",""time"":496},{""stimulus"":""img/3to1/6.png"",""time"":595},{""stimulus"":""img/3to1/7.png"",""time"":694},{""stimulus"":""img/3to1/8.png"",""time"":793},{""stimulus"":""img/3to1/9.png"",""time"":892},{""stimulus"":""img/3to1/10.png"",""time"":991},{""stimulus"":""img/3to1/11.png"",""time"":1090},{""stimulus"":""img/3to1/12.png"",""time"":1189}]","[]"
"image-keyboard-response","160","193816","0.0-5.0-1.78","5ecbd383243b3438410dae19","bdp_cybrbll","Sat Mar 25 2023 18:36:11 GMT-0500 (Central Daylight Time)","455205","1","3","","null","","","","observe","","img/1to3/1.png","null","147","287","0.5","0.1","1","3","",""
"animation","161","195104","0.0-5.0-2.78","5ecbd383243b3438410dae19","bdp_cybrbll","Sat Mar 25 2023 18:36:11 GMT-0500 (Central Daylight Time)","455205","1","3","","","","","","","","","","147","","","","1","3","[{""stimulus"":""img/1to3/1.png"",""time"":99},{""stimulus"":""img/1to3/2.png"",""time"":198},{""stimulus"":""img/1to3/3.png"",""time"":298},{""stimulus"":""img/1to3/4.png"",""time"":397},{""stimulus"":""img/1to3/5.png"",""time"":496},{""stimulus"":""img/1to3/6.png"",""time"":594},{""stimulus"":""img/1to3/7.png"",""time"":693},{""stimulus"":""img/1to3/8.png"",""time"":793},{""stimulus"":""img/1to3/9.png"",""time"":892},{""stimulus"":""img/1to3/10.png"",""time"":991},{""stimulus"":""img/1to3/11.png"",""time"":1090},{""stimulus"":""img/1to3/12.png"",""time"":1189}]","[]"
"image-keyboard-response","162","195367","0.0-5.0-1.79","5ecbd383243b3438410dae19","bdp_cybrbll","Sat Mar 25 2023 18:36:11 GMT-0500 (Central Daylight Time)","455205","1","3","","null","","","","observe","","img/3to2/1.png","null","146","262","0.5","0.1","3","1","",""
"animation","163","196655","0.0-5.0-2.79","5ecbd383243b3438410dae19","bdp_cybrbll","Sat Mar 25 2023 18:36:11 GMT-0500 (Central Daylight Time)","455205","1","3","","","","","","","","","","146","","","","3","1","[{""stimulus"":""img/3to1/1.png"",""time"":101},{""stimulus"":""img/3to1/2.png"",""time"":200},{""stimulus"":""img/3to1/3.png"",""time"":298},{""stimulus"":""img/3to1/4.png"",""time"":397},{""stimulus"":""img/3to1/5.png"",""time"":496},{""stimulus"":""img/3to1/6.png"",""time"":595},{""stimulus"":""img/3to1/7.png"",""time"":694},{""stimulus"":""img/3to1/8.png"",""time"":793},{""stimulus"":""img/3to1/9.png"",""time"":892},{""stimulus"":""img/3to1/10.png"",""time"":991},{""stimulus"":""img/3to1/11.png"",""time"":1091},{""stimulus"":""img/3to1/12.png"",""time"":1189}]","[]"
"image-keyboard-response","164","196857","0.0-5.0-1.80","5ecbd383243b3438410dae19","bdp_cybrbll","Sat Mar 25 2023 18:36:11 GMT-0500 (Central Daylight Time)","455205","1","3","","null","","","","observe","","img/1to3/1.png","null","145","202","0.5","0.1","1","3","",""
"animation","165","198145","0.0-5.0-2.80","5ecbd383243b3438410dae19","bdp_cybrbll","Sat Mar 25 2023 18:36:11 GMT-0500 (Central Daylight Time)","455205","1","3","","","","","","","","","","145","","","","1","3","[{""stimulus"":""img/1to3/1.png"",""time"":101},{""stimulus"":""img/1to3/2.png"",""time"":200},{""stimulus"":""img/1to3/3.png"",""time"":299},{""stimulus"":""img/1to3/4.png"",""time"":397},{""stimulus"":""img/1to3/5.png"",""time"":497},{""stimulus"":""img/1to3/6.png"",""time"":596},{""stimulus"":""img/1to3/7.png"",""time"":694},{""stimulus"":""img/1to3/8.png"",""time"":794},{""stimulus"":""img/1to3/9.png"",""time"":892},{""stimulus"":""img/1to3/10.png"",""time"":992},{""stimulus"":""img/1to3/11.png"",""time"":1091},{""stimulus"":""img/1to3/12.png"",""time"":1189}]","[]"
"image-keyboard-response","166","198744","0.0-5.0-1.81","5ecbd383243b3438410dae19","bdp_cybrbll","Sat Mar 25 2023 18:36:11 GMT-0500 (Central Daylight Time)","455205","1","3","","null","","","","observe","","img/3to2/1.png","null","144","597","0.5","0.1","3","1","",""
"animation","167","200032","0.0-5.0-2.81","5ecbd383243b3438410dae19","bdp_cybrbll","Sat Mar 25 2023 18:36:11 GMT-0500 (Central Daylight Time)","455205","1","3","","","","","","","","","","144","","","","3","1","[{""stimulus"":""img/3to1/1.png"",""time"":100},{""stimulus"":""img/3to1/2.png"",""time"":200},{""stimulus"":""img/3to1/3.png"",""time"":298},{""stimulus"":""img/3to1/4.png"",""time"":397},{""stimulus"":""img/3to1/5.png"",""time"":496},{""stimulus"":""img/3to1/6.png"",""time"":595},{""stimulus"":""img/3to1/7.png"",""time"":694},{""stimulus"":""img/3to1/8.png"",""time"":794},{""stimulus"":""img/3to1/9.png"",""time"":893},{""stimulus"":""img/3to1/10.png"",""time"":992},{""stimulus"":""img/3to1/11.png"",""time"":1090},{""stimulus"":""img/3to1/12.png"",""time"":1189}]","[]"
"image-keyboard-response","168","200955","0.0-5.0-1.82","5ecbd383243b3438410dae19","bdp_cybrbll","Sat Mar 25 2023 18:36:11 GMT-0500 (Central Daylight Time)","455205","1","3","","null","","","","observe","","img/1to3/1.png","null","143","921","0.5","0.1","1","2","",""
"animation","169","202242","0.0-5.0-2.82","5ecbd383243b3438410dae19","bdp_cybrbll","Sat Mar 25 2023 18:36:11 GMT-0500 (Central Daylight Time)","455205","1","3","","","","","","","","","","143","","","","1","2","[{""stimulus"":""img/1to2/1.png"",""time"":100},{""stimulus"":""img/1to2/2.png"",""time"":199},{""stimulus"":""img/1to2/3.png"",""time"":297},{""stimulus"":""img/1to2/4.png"",""time"":396},{""stimulus"":""img/1to2/5.png"",""time"":496},{""stimulus"":""img/1to2/6.png"",""time"":595},{""stimulus"":""img/1to2/7.png"",""time"":693},{""stimulus"":""img/1to2/8.png"",""time"":793},{""stimulus"":""img/1to2/9.png"",""time"":892},{""stimulus"":""img/1to2/10.png"",""time"":991},{""stimulus"":""img/1to2/11.png"",""time"":1090},{""stimulus"":""img/1to2/12.png"",""time"":1189}]","[]"
"image-keyboard-response","170","202437","0.0-5.0-1.83","5ecbd383243b3438410dae19","bdp_cybrbll","Sat Mar 25 2023 18:36:11 GMT-0500 (Central Daylight Time)","455205","1","3","","194","","","","choice","","img/2to1/1.png","2","142","744","0.5","0.1","2","3","",""
"animation","171","203725","0.0-5.0-2.83","5ecbd383243b3438410dae19","bdp_cybrbll","Sat Mar 25 2023 18:36:11 GMT-0500 (Central Daylight Time)","455205","1","3","","","","","","","","","","142","","","","2","3","[{""stimulus"":""img/2to3/1.png"",""time"":100},{""stimulus"":""img/2to3/2.png"",""time"":199},{""stimulus"":""img/2to3/3.png"",""time"":298},{""stimulus"":""img/2to3/4.png"",""time"":397},{""stimulus"":""img/2to3/5.png"",""time"":495},{""stimulus"":""img/2to3/6.png"",""time"":595},{""stimulus"":""img/2to3/7.png"",""time"":694},{""stimulus"":""img/2to3/8.png"",""time"":802},{""stimulus"":""img/2to3/9.png"",""time"":892},{""stimulus"":""img/2to3/10.png"",""time"":991},{""stimulus"":""img/2to3/11.png"",""time"":1089},{""stimulus"":""img/2to3/12.png"",""time"":1189}]","[]"
"image-keyboard-response","172","204265","0.0-5.0-1.84","5ecbd383243b3438410dae19","bdp_cybrbll","Sat Mar 25 2023 18:36:11 GMT-0500 (Central Daylight Time)","455205","1","3","","null","","","","observe","","img/3to2/1.png","null","141","539","0.5","0.1","3","1","",""
"animation","173","205553","0.0-5.0-2.84","5ecbd383243b3438410dae19","bdp_cybrbll","Sat Mar 25 2023 18:36:11 GMT-0500 (Central Daylight Time)","455205","1","3","","","","","","","","","","141","","","","3","1","[{""stimulus"":""img/3to1/1.png"",""time"":100},{""stimulus"":""img/3to1/2.png"",""time"":200},{""stimulus"":""img/3to1/3.png"",""time"":299},{""stimulus"":""img/3to1/4.png"",""time"":397},{""stimulus"":""img/3to1/5.png"",""time"":496},{""stimulus"":""img/3to1/6.png"",""time"":595},{""stimulus"":""img/3to1/7.png"",""time"":694},{""stimulus"":""img/3to1/8.png"",""time"":793},{""stimulus"":""img/3to1/9.png"",""time"":892},{""stimulus"":""img/3to1/10.png"",""time"":991},{""stimulus"":""img/3to1/11.png"",""time"":1090},{""stimulus"":""img/3to1/12.png"",""time"":1189}]","[]"
"image-keyboard-response","174","205884","0.0-5.0-1.85","5ecbd383243b3438410dae19","bdp_cybrbll","Sat Mar 25 2023 18:36:11 GMT-0500 (Central Daylight Time)","455205","1","3","","null","","","","observe","","img/1to3/1.png","null","140","330","0.5","0.1","1","2","",""
"animation","175","207172","0.0-5.0-2.85","5ecbd383243b3438410dae19","bdp_cybrbll","Sat Mar 25 2023 18:36:11 GMT-0500 (Central Daylight Time)","455205","1","3","","","","","","","","","","140","","","","1","2","[{""stimulus"":""img/1to2/1.png"",""time"":100},{""stimulus"":""img/1to2/2.png"",""time"":199},{""stimulus"":""img/1to2/3.png"",""time"":298},{""stimulus"":""img/1to2/4.png"",""time"":397},{""stimulus"":""img/1to2/5.png"",""time"":497},{""stimulus"":""img/1to2/6.png"",""time"":595},{""stimulus"":""img/1to2/7.png"",""time"":694},{""stimulus"":""img/1to2/8.png"",""time"":792},{""stimulus"":""img/1to2/9.png"",""time"":892},{""stimulus"":""img/1to2/10.png"",""time"":991},{""stimulus"":""img/1to2/11.png"",""time"":1090},{""stimulus"":""img/1to2/12.png"",""time"":1189}]","[]"
"image-keyboard-response","176","207429","0.0-5.0-1.86","5ecbd383243b3438410dae19","bdp_cybrbll","Sat Mar 25 2023 18:36:11 GMT-0500 (Central Daylight Time)","455205","1","3","","256","","","","choice","","img/2to1/1.png","1","139","160","0.5","0.1","2","1","",""
"animation","177","208717","0.0-5.0-2.86","5ecbd383243b3438410dae19","bdp_cybrbll","Sat Mar 25 2023 18:36:11 GMT-0500 (Central Daylight Time)","455205","1","3","","","","","","","","","","139","","","","2","1","[{""stimulus"":""img/2to1/1.png"",""time"":100},{""stimulus"":""img/2to1/2.png"",""time"":198},{""stimulus"":""img/2to1/3.png"",""time"":298},{""stimulus"":""img/2to1/4.png"",""time"":397},{""stimulus"":""img/2to1/5.png"",""time"":496},{""stimulus"":""img/2to1/6.png"",""time"":595},{""stimulus"":""img/2to1/7.png"",""time"":693},{""stimulus"":""img/2to1/8.png"",""time"":793},{""stimulus"":""img/2to1/9.png"",""time"":891},{""stimulus"":""img/2to1/10.png"",""time"":991},{""stimulus"":""img/2to1/11.png"",""time"":1090},{""stimulus"":""img/2to1/12.png"",""time"":1190}]","[]"
"image-keyboard-response","178","209591","0.0-5.0-1.87","5ecbd383243b3438410dae19","bdp_cybrbll","Sat Mar 25 2023 18:36:11 GMT-0500 (Central Daylight Time)","455205","1","3","","null","","","","observe","","img/1to3/1.png","null","138","871","0.5","0.1","1","2","",""
"animation","179","210879","0.0-5.0-2.87","5ecbd383243b3438410dae19","bdp_cybrbll","Sat Mar 25 2023 18:36:11 GMT-0500 (Central Daylight Time)","455205","1","3","","","","","","","","","","138","","","","1","2","[{""stimulus"":""img/1to2/1.png"",""time"":101},{""stimulus"":""img/1to2/2.png"",""time"":199},{""stimulus"":""img/1to2/3.png"",""time"":297},{""stimulus"":""img/1to2/4.png"",""time"":397},{""stimulus"":""img/1to2/5.png"",""time"":496},{""stimulus"":""img/1to2/6.png"",""time"":595},{""stimulus"":""img/1to2/7.png"",""time"":694},{""stimulus"":""img/1to2/8.png"",""time"":793},{""stimulus"":""img/1to2/9.png"",""time"":893},{""stimulus"":""img/1to2/10.png"",""time"":991},{""stimulus"":""img/1to2/11.png"",""time"":1089},{""stimulus"":""img/1to2/12.png"",""time"":1189}]","[]"
"image-keyboard-response","180","211534","0.0-5.0-1.88","5ecbd383243b3438410dae19","bdp_cybrbll","Sat Mar 25 2023 18:36:11 GMT-0500 (Central Daylight Time)","455205","1","3","","654","","","","choice","","img/2to1/1.png","1","137","1236","0.5","0.1","2","1","",""
"animation","181","212822","0.0-5.0-2.88","5ecbd383243b3438410dae19","bdp_cybrbll","Sat Mar 25 2023 18:36:11 GMT-0500 (Central Daylight Time)","455205","1","3","","","","","","","","","","137","","","","2","1","[{""stimulus"":""img/2to1/1.png"",""time"":100},{""stimulus"":""img/2to1/2.png"",""time"":198},{""stimulus"":""img/2to1/3.png"",""time"":298},{""stimulus"":""img/2to1/4.png"",""time"":398},{""stimulus"":""img/2to1/5.png"",""time"":496},{""stimulus"":""img/2to1/6.png"",""time"":594},{""stimulus"":""img/2to1/7.png"",""time"":694},{""stimulus"":""img/2to1/8.png"",""time"":792},{""stimulus"":""img/2to1/9.png"",""time"":892},{""stimulus"":""img/2to1/10.png"",""time"":991},{""stimulus"":""img/2to1/11.png"",""time"":1090},{""stimulus"":""img/2to1/12.png"",""time"":1189}]","[]"
"image-keyboard-response","182","213600","0.0-5.0-1.89","5ecbd383243b3438410dae19","bdp_cybrbll","Sat Mar 25 2023 18:36:11 GMT-0500 (Central Daylight Time)","455205","1","3","","null","","","","observe","","img/1to3/1.png","null","136","776","0.5","0.1","1","3","",""
"animation","183","214888","0.0-5.0-2.89","5ecbd383243b3438410dae19","bdp_cybrbll","Sat Mar 25 2023 18:36:11 GMT-0500 (Central Daylight Time)","455205","1","3","","","","","","","","","","136","","","","1","3","[{""stimulus"":""img/1to3/1.png"",""time"":100},{""stimulus"":""img/1to3/2.png"",""time"":199},{""stimulus"":""img/1to3/3.png"",""time"":298},{""stimulus"":""img/1to3/4.png"",""time"":397},{""stimulus"":""img/1to3/5.png"",""time"":495},{""stimulus"":""img/1to3/6.png"",""time"":595},{""stimulus"":""img/1to3/7.png"",""time"":694},{""stimulus"":""img/1to3/8.png"",""time"":793},{""stimulus"":""img/1to3/9.png"",""time"":892},{""stimulus"":""img/1to3/10.png"",""time"":991},{""stimulus"":""img/1to3/11.png"",""time"":1090},{""stimulus"":""img/1to3/12.png"",""time"":1189}]","[]"
"image-keyboard-response","184","215037","0.0-5.0-1.90","5ecbd383243b3438410dae19","bdp_cybrbll","Sat Mar 25 2023 18:36:11 GMT-0500 (Central Daylight Time)","455205","1","3","","null","","","","observe","","img/3to2/1.png","null","135","149","0.5","0.1","3","1","",""
"animation","185","216326","0.0-5.0-2.90","5ecbd383243b3438410dae19","bdp_cybrbll","Sat Mar 25 2023 18:36:11 GMT-0500 (Central Daylight Time)","455205","1","3","","","","","","","","","","135","","","","3","1","[{""stimulus"":""img/3to1/1.png"",""time"":99},{""stimulus"":""img/3to1/2.png"",""time"":199},{""stimulus"":""img/3to1/3.png"",""time"":298},{""stimulus"":""img/3to1/4.png"",""time"":396},{""stimulus"":""img/3to1/5.png"",""time"":496},{""stimulus"":""img/3to1/6.png"",""time"":598},{""stimulus"":""img/3to1/7.png"",""time"":694},{""stimulus"":""img/3to1/8.png"",""time"":793},{""stimulus"":""img/3to1/9.png"",""time"":892},{""stimulus"":""img/3to1/10.png"",""time"":991},{""stimulus"":""img/3to1/11.png"",""time"":1090},{""stimulus"":""img/3to1/12.png"",""time"":1189}]","[]"
"image-keyboard-response","186","216652","0.0-5.0-1.91","5ecbd383243b3438410dae19","bdp_cybrbll","Sat Mar 25 2023 18:36:11 GMT-0500 (Central Daylight Time)","455205","1","3","","null","","","","observe","","img/1to3/1.png","null","134","325","0.5","0.1","1","2","",""
"animation","187","217940","0.0-5.0-2.91","5ecbd383243b3438410dae19","bdp_cybrbll","Sat Mar 25 2023 18:36:11 GMT-0500 (Central Daylight Time)","455205","1","3","","","","","","","","","","134","","","","1","2","[{""stimulus"":""img/1to2/1.png"",""time"":100},{""stimulus"":""img/1to2/2.png"",""time"":199},{""stimulus"":""img/1to2/3.png"",""time"":297},{""stimulus"":""img/1to2/4.png"",""time"":396},{""stimulus"":""img/1to2/5.png"",""time"":495},{""stimulus"":""img/1to2/6.png"",""time"":594},{""stimulus"":""img/1to2/7.png"",""time"":693},{""stimulus"":""img/1to2/8.png"",""time"":792},{""stimulus"":""img/1to2/9.png"",""time"":891},{""stimulus"":""img/1to2/10.png"",""time"":991},{""stimulus"":""img/1to2/11.png"",""time"":1089},{""stimulus"":""img/1to2/12.png"",""time"":1188}]","[]"
"image-keyboard-response","188","218623","0.0-5.0-1.92","5ecbd383243b3438410dae19","bdp_cybrbll","Sat Mar 25 2023 18:36:11 GMT-0500 (Central Daylight Time)","455205","1","3","","683","","","","choice","","img/2to1/1.png","1","133","247","0.5","0.1","2","1","",""
"animation","189","219911","0.0-5.0-2.92","5ecbd383243b3438410dae19","bdp_cybrbll","Sat Mar 25 2023 18:36:11 GMT-0500 (Central Daylight Time)","455205","1","3","","","","","","","","","","133","","","","2","1","[{""stimulus"":""img/2to1/1.png"",""time"":100},{""stimulus"":""img/2to1/2.png"",""time"":200},{""stimulus"":""img/2to1/3.png"",""time"":298},{""stimulus"":""img/2to1/4.png"",""time"":397},{""stimulus"":""img/2to1/5.png"",""time"":496},{""stimulus"":""img/2to1/6.png"",""time"":595},{""stimulus"":""img/2to1/7.png"",""time"":695},{""stimulus"":""img/2to1/8.png"",""time"":792},{""stimulus"":""img/2to1/9.png"",""time"":891},{""stimulus"":""img/2to1/10.png"",""time"":990},{""stimulus"":""img/2to1/11.png"",""time"":1089},{""stimulus"":""img/2to1/12.png"",""time"":1190}]","[]"
"image-keyboard-response","190","220399","0.0-5.0-1.93","5ecbd383243b3438410dae19","bdp_cybrbll","Sat Mar 25 2023 18:36:11 GMT-0500 (Central Daylight Time)","455205","1","3","","null","","","","observe","","img/1to3/1.png","null","132","488","0.5","0.1","1","3","",""
