"trial_type","trial_index","time_elapsed","internal_node_id","subject_id","task","startTime","totalTime","fairPartner","unfairPartner","view_history","rt","event","trial","time","trialtype","success","stimulus","key_press","throwsLeft","rtDur","pFair","pUnfair","holder","receiver","animation_sequence","responses"
"pavlovia","0","1","0.0-0.0","5722c95274e7ff0011a6f011","bdp_cybrbll","Sun Mar 26 2023 21:25:19 GMT-0600 (Mountain Daylight Time)","412644","1","3","","","","","","","","","","","","","","","","",""
"instructions","1","2929","0.0-1.0","5722c95274e7ff0011a6f011","bdp_cybrbll","Sun Mar 26 2023 21:25:19 GMT-0600 (Mountain Daylight Time)","412644","1","3","[{""page_index"":0,""viewing_time"":2928}]","2928","","","","","","","","","","","","","","",""
"","","","","5722c95274e7ff0011a6f011","bdp_cybrbll","Sun Mar 26 2023 21:25:19 GMT-0600 (Mountain Daylight Time)","412644","1","3","","","fullscreenenter","2","4323","fullscreenenter","","","","","","","","","","",""
"fullscreen","2","5327","0.0-2.0","5722c95274e7ff0011a6f011","bdp_cybrbll","Sun Mar 26 2023 21:25:19 GMT-0600 (Mountain Daylight Time)","412644","1","3","","","","","","","true","","","","","","","","","",""
"instructions","3","21051","0.0-4.0","5722c95274e7ff0011a6f011","bdp_cybrbll","Sun Mar 26 2023 21:25:19 GMT-0600 (Mountain Daylight Time)","412644","1","3","[{""page_index"":0,""viewing_time"":15724}]","15724","","","","","","","","","","","","","","",""
"image-keyboard-response","4","22886","0.0-5.0-1.0","5722c95274e7ff0011a6f011","bdp_cybrbll","Sun Mar 26 2023 21:25:19 GMT-0600 (Mountain Daylight Time)","412644","1","3","","1833","","","","choice","","img/2to1/1.png","1","225","402","0.5","0.5","2","1","",""
"animation","5","24179","0.0-5.0-2.0","5722c95274e7ff0011a6f011","bdp_cybrbll","Sun Mar 26 2023 21:25:19 GMT-0600 (Mountain Daylight Time)","412644","1","3","","","","","","","","","","225","","","","2","1","[{""stimulus"":""img/2to1/1.png"",""time"":102},{""stimulus"":""img/2to1/2.png"",""time"":210},{""stimulus"":""img/2to1/3.png"",""time"":302},{""stimulus"":""img/2to1/4.png"",""time"":411},{""stimulus"":""img/2to1/5.png"",""time"":504},{""stimulus"":""img/2to1/6.png"",""time"":596},{""stimulus"":""img/2to1/7.png"",""time"":704},{""stimulus"":""img/2to1/8.png"",""time"":797},{""stimulus"":""img/2to1/9.png"",""time"":905},{""stimulus"":""img/2to1/10.png"",""time"":991},{""stimulus"":""img/2to1/11.png"",""time"":1091},{""stimulus"":""img/2to1/12.png"",""time"":1200}]","[]"
"image-keyboard-response","6","24875","0.0-5.0-1.1","5722c95274e7ff0011a6f011","bdp_cybrbll","Sun Mar 26 2023 21:25:19 GMT-0600 (Mountain Daylight Time)","412644","1","3","","null","","","","observe","","img/1to3/1.png","null","224","687","0.5","0.5","1","2","",""
"animation","7","26172","0.0-5.0-2.1","5722c95274e7ff0011a6f011","bdp_cybrbll","Sun Mar 26 2023 21:25:19 GMT-0600 (Mountain Daylight Time)","412644","1","3","","","","","","","","","","224","","","","1","2","[{""stimulus"":""img/1to2/1.png"",""time"":109},{""stimulus"":""img/1to2/2.png"",""time"":201},{""stimulus"":""img/1to2/3.png"",""time"":310},{""stimulus"":""img/1to2/4.png"",""time"":403},{""stimulus"":""img/1to2/5.png"",""time"":496},{""stimulus"":""img/1to2/6.png"",""time"":605},{""stimulus"":""img/1to2/7.png"",""time"":697},{""stimulus"":""img/1to2/8.png"",""time"":805},{""stimulus"":""img/1to2/9.png"",""time"":898},{""stimulus"":""img/1to2/10.png"",""time"":1006},{""stimulus"":""img/1to2/11.png"",""time"":1099},{""stimulus"":""img/1to2/12.png"",""time"":1192}]","[]"
"image-keyboard-response","8","26555","0.0-5.0-1.2","5722c95274e7ff0011a6f011","bdp_cybrbll","Sun Mar 26 2023 21:25:19 GMT-0600 (Mountain Daylight Time)","412644","1","3","","383","","","","choice","","img/2to1/1.png","2","223","258","0.5","0.5","2","3","",""
"animation","9","27845","0.0-5.0-2.2","5722c95274e7ff0011a6f011","bdp_cybrbll","Sun Mar 26 2023 21:25:19 GMT-0600 (Mountain Daylight Time)","412644","1","3","","","","","","","","","","223","","","","2","3","[{""stimulus"":""img/2to3/1.png"",""time"":108},{""stimulus"":""img/2to3/2.png"",""time"":207},{""stimulus"":""img/2to3/3.png"",""time"":300},{""stimulus"":""img/2to3/4.png"",""time"":408},{""stimulus"":""img/2to3/5.png"",""time"":500},{""stimulus"":""img/2to3/6.png"",""time"":609},{""stimulus"":""img/2to3/7.png"",""time"":702},{""stimulus"":""img/2to3/8.png"",""time"":795},{""stimulus"":""img/2to3/9.png"",""time"":903},{""stimulus"":""img/2to3/10.png"",""time"":996},{""stimulus"":""img/2to3/11.png"",""time"":1104},{""stimulus"":""img/2to3/12.png"",""time"":1197}]","[]"
"image-keyboard-response","10","28000","0.0-5.0-1.3","5722c95274e7ff0011a6f011","bdp_cybrbll","Sun Mar 26 2023 21:25:19 GMT-0600 (Mountain Daylight Time)","412644","1","3","","null","","","","observe","","img/3to2/1.png","null","222","144","0.5","0.5","3","2","",""
"animation","11","29288","0.0-5.0-2.3","5722c95274e7ff0011a6f011","bdp_cybrbll","Sun Mar 26 2023 21:25:19 GMT-0600 (Mountain Daylight Time)","412644","1","3","","","","","","","","","","222","","","","3","2","[{""stimulus"":""img/3to2/1.png"",""time"":109},{""stimulus"":""img/3to2/2.png"",""time"":201},{""stimulus"":""img/3to2/3.png"",""time"":303},{""stimulus"":""img/3to2/4.png"",""time"":397},{""stimulus"":""img/3to2/5.png"",""time"":496},{""stimulus"":""img/3to2/6.png"",""time"":595},{""stimulus"":""img/3to2/7.png"",""time"":694},{""stimulus"":""img/3to2/8.png"",""time"":793},{""stimulus"":""img/3to2/9.png"",""time"":892},{""stimulus"":""img/3to2/10.png"",""time"":991},{""stimulus"":""img/3to2/11.png"",""time"":1090},{""stimulus"":""img/3to2/12.png"",""time"":1189}]","[]"
"image-keyboard-response","12","29753","0.0-5.0-1.4","5722c95274e7ff0011a6f011","bdp_cybrbll","Sun Mar 26 2023 21:25:19 GMT-0600 (Mountain Daylight Time)","412644","1","3","","465","","","","choice","","img/2to1/1.png","1","221","391","0.5","0.5","2","1","",""
"animation","13","31041","0.0-5.0-2.4","5722c95274e7ff0011a6f011","bdp_cybrbll","Sun Mar 26 2023 21:25:19 GMT-0600 (Mountain Daylight Time)","412644","1","3","","","","","","","","","","221","","","","2","1","[{""stimulus"":""img/2to1/1.png"",""time"":99},{""stimulus"":""img/2to1/2.png"",""time"":199},{""stimulus"":""img/2to1/3.png"",""time"":299},{""stimulus"":""img/2to1/4.png"",""time"":397},{""stimulus"":""img/2to1/5.png"",""time"":496},{""stimulus"":""img/2to1/6.png"",""time"":595},{""stimulus"":""img/2to1/7.png"",""time"":694},{""stimulus"":""img/2to1/8.png"",""time"":793},{""stimulus"":""img/2to1/9.png"",""time"":892},{""stimulus"":""img/2to1/10.png"",""time"":991},{""stimulus"":""img/2to1/11.png"",""time"":1090},{""stimulus"":""img/2to1/12.png"",""time"":1189}]","[]"
"image-keyboard-response","14","31465","0.0-5.0-1.5","5722c95274e7ff0011a6f011","bdp_cybrbll","Sun Mar 26 2023 21:25:19 GMT-0600 (Mountain Daylight Time)","412644","1","3","","null","","","","observe","","img/1to3/1.png","null","220","423","0.5","0.5","1","3","",""
"animation","15","32752","0.0-5.0-2.5","5722c95274e7ff0011a6f011","bdp_cybrbll","Sun Mar 26 2023 21:25:19 GMT-0600 (Mountain Daylight Time)","412644","1","3","","","","","","","","","","220","","","","1","3","[{""stimulus"":""img/1to3/1.png"",""time"":100},{""stimulus"":""img/1to3/2.png"",""time"":199},{""stimulus"":""img/1to3/3.png"",""time"":298},{""stimulus"":""img/1to3/4.png"",""time"":397},{""stimulus"":""img/1to3/5.png"",""time"":495},{""stimulus"":""img/1to3/6.png"",""time"":594},{""stimulus"":""img/1to3/7.png"",""time"":694},{""stimulus"":""img/1to3/8.png"",""time"":792},{""stimulus"":""img/1to3/9.png"",""time"":891},{""stimulus"":""img/1to3/10.png"",""time"":990},{""stimulus"":""img/1to3/11.png"",""time"":1090},{""stimulus"":""img/1to3/12.png"",""time"":1188}]","[]"
"image-keyboard-response","16","33593","0.0-5.0-1.6","5722c95274e7ff0011a6f011","bdp_cybrbll","Sun Mar 26 2023 21:25:19 GMT-0600 (Mountain Daylight Time)","412644","1","3","","null","","","","observe","","img/3to2/1.png","null","219","840","0.5","0.5","3","2","",""
"animation","17","34881","0.0-5.0-2.6","5722c95274e7ff0011a6f011","bdp_cybrbll","Sun Mar 26 2023 21:25:19 GMT-0600 (Mountain Daylight Time)","412644","1","3","","","","","","","","","","219","","","","3","2","[{""stimulus"":""img/3to2/1.png"",""time"":100},{""stimulus"":""img/3to2/2.png"",""time"":199},{""stimulus"":""img/3to2/3.png"",""time"":298},{""stimulus"":""img/3to2/4.png"",""time"":397},{""stimulus"":""img/3to2/5.png"",""time"":496},{""stimulus"":""img/3to2/6.png"",""time"":595},{""stimulus"":""img/3to2/7.png"",""time"":694},{""stimulus"":""img/3to2/8.png"",""time"":793},{""stimulus"":""img/3to2/9.png"",""time"":892},{""stimulus"":""img/3to2/10.png"",""time"":991},{""stimulus"":""img/3to2/11.png"",""time"":1090},{""stimulus"":""img/3to2/12.png"",""time"":1189}]","[]"
"image-keyboard-response","18","35046","0.0-5.0-1.7","5722c95274e7ff0011a6f011","bdp_cybrbll","Sun Mar 26 2023 21:25:19 GMT-0600 (Mountain Daylight Time)","412644","1","3","","165","","","","choice","","img/2to1/1.png","1","218","494","0.5","0.5","2","1","",""
"animation","19","36334","0.0-5.0-2.7","5722c95274e7ff0011a6f011","bdp_cybrbll","Sun Mar 26 2023 21:25:19 GMT-0600 (Mountain Daylight Time)","412644","1","3","","","","","","","","","","218","","","","2","1","[{""stimulus"":""img/2to1/1.png"",""time"":100},{""stimulus"":""img/2to1/2.png"",""time"":199},{""stimulus"":""img/2to1/3.png"",""time"":298},{""stimulus"":""img/2to1/4.png"",""time"":397},{""stimulus"":""img/2to1/5.png"",""time"":497},{""stimulus"":""img/2to1/6.png"",""time"":595},{""stimulus"":""img/2to1/7.png"",""time"":695},{""stimulus"":""img/2to1/8.png"",""time"":793},{""stimulus"":""img/2to1/9.png"",""time"":892},{""stimulus"":""img/2to1/10.png"",""time"":991},{""stimulus"":""img/2to1/11.png"",""time"":1091},{""stimulus"":""img/2to1/12.png"",""time"":1189}]","[]"
"image-keyboard-response","20","36714","0.0-5.0-1.8","5722c95274e7ff0011a6f011","bdp_cybrbll","Sun Mar 26 2023 21:25:19 GMT-0600 (Mountain Daylight Time)","412644","1","3","","null","","","","observe","","img/1to3/1.png","null","217","379","0.5","0.5","1","2","",""
"animation","21","38002","0.0-5.0-2.8","5722c95274e7ff0011a6f011","bdp_cybrbll","Sun Mar 26 2023 21:25:19 GMT-0600 (Mountain Daylight Time)","412644","1","3","","","","","","","","","","217","","","","1","2","[{""stimulus"":""img/1to2/1.png"",""time"":100},{""stimulus"":""img/1to2/2.png"",""time"":199},{""stimulus"":""img/1to2/3.png"",""time"":299},{""stimulus"":""img/1to2/4.png"",""time"":398},{""stimulus"":""img/1to2/5.png"",""time"":496},{""stimulus"":""img/1to2/6.png"",""time"":595},{""stimulus"":""img/1to2/7.png"",""time"":694},{""stimulus"":""img/1to2/8.png"",""time"":794},{""stimulus"":""img/1to2/9.png"",""time"":892},{""stimulus"":""img/1to2/10.png"",""time"":991},{""stimulus"":""img/1to2/11.png"",""time"":1090},{""stimulus"":""img/1to2/12.png"",""time"":1189}]","[]"
"image-keyboard-response","22","38237","0.0-5.0-1.9","5722c95274e7ff0011a6f011","bdp_cybrbll","Sun Mar 26 2023 21:25:19 GMT-0600 (Mountain Daylight Time)","412644","1","3","","234","","","","choice","","img/2to1/1.png","2","216","751","0.5","0.5","2","3","",""
"animation","23","39526","0.0-5.0-2.9","5722c95274e7ff0011a6f011","bdp_cybrbll","Sun Mar 26 2023 21:25:19 GMT-0600 (Mountain Daylight Time)","412644","1","3","","","","","","","","","","216","","","","2","3","[{""stimulus"":""img/2to3/1.png"",""time"":100},{""stimulus"":""img/2to3/2.png"",""time"":200},{""stimulus"":""img/2to3/3.png"",""time"":299},{""stimulus"":""img/2to3/4.png"",""time"":397},{""stimulus"":""img/2to3/5.png"",""time"":496},{""stimulus"":""img/2to3/6.png"",""time"":595},{""stimulus"":""img/2to3/7.png"",""time"":694},{""stimulus"":""img/2to3/8.png"",""time"":793},{""stimulus"":""img/2to3/9.png"",""time"":892},{""stimulus"":""img/2to3/10.png"",""time"":991},{""stimulus"":""img/2to3/11.png"",""time"":1090},{""stimulus"":""img/2to3/12.png"",""time"":1189}]","[]"
"image-keyboard-response","24","39686","0.0-5.0-1.10","5722c95274e7ff0011a6f011","bdp_cybrbll","Sun Mar 26 2023 21:25:19 GMT-0600 (Mountain Daylight Time)","412644","1","3","","null","","","","observe","","img/3to2/1.png","null","215","159","0.5","0.5","3","2","",""
"animation","25","40973","0.0-5.0-2.10","5722c95274e7ff0011a6f011","bdp_cybrbll","Sun Mar 26 2023 21:25:19 GMT-0600 (Mountain Daylight Time)","412644","1","3","","","","","","","","","","215","","","","3","2","[{""stimulus"":""img/3to2/1.png"",""time"":99},{""stimulus"":""img/3to2/2.png"",""time"":199},{""stimulus"":""img/3to2/3.png"",""time"":297},{""stimulus"":""img/3to2/4.png"",""time"":396},{""stimulus"":""img/3to2/5.png"",""time"":496},{""stimulus"":""img/3to2/6.png"",""time"":595},{""stimulus"":""img/3to2/7.png"",""time"":694},{""stimulus"":""img/3to2/8.png"",""time"":792},{""stimulus"":""img/3to2/9.png"",""time"":891},{""stimulus"":""img/3to2/10.png"",""time"":991},{""stimulus"":""img/3to2/11.png"",""time"":1090},{""stimulus"":""img/3to2/12.png"",""time"":1189}]","[]"
"image-keyboard-response","26","41361","0.0-5.0-1.11","5722c95274e7ff0011a6f011","bdp_cybrbll","Sun Mar 26 2023 21:25:19 GMT-0600 (Mountain Daylight Time)","412644","1","3","","387","","","","choice","","img/2to1/1.png","1","214","584","0.5","0.5","2","1","",""
"animation","27","42648","0.0-5.0-2.11","5722c95274e7ff0011a6f011","bdp_cybrbll","Sun Mar 26 2023 21:25:19 GMT-0600 (Mountain Daylight Time)","412644","1","3","","","","","","","","","","214","","","","2","1","[{""stimulus"":""img/2to1/1.png"",""time"":100},{""stimulus"":""img/2to1/2.png"",""time"":199},{""stimulus"":""img/2to1/3.png"",""time"":298},{""stimulus"":""img/2to1/4.png"",""time"":397},{""stimulus"":""img/2to1/5.png"",""time"":496},{""stimulus"":""img/2to1/6.png"",""time"":595},{""stimulus"":""img/2to1/7.png"",""time"":694},{""stimulus"":""img/2to1/8.png"",""time"":793},{""stimulus"":""img/2to1/9.png"",""time"":892},{""stimulus"":""img/2to1/10.png"",""time"":991},{""stimulus"":""img/2to1/11.png"",""time"":1089},{""stimulus"":""img/2to1/12.png"",""time"":1189}]","[]"
"image-keyboard-response","28","42915","0.0-5.0-1.12","5722c95274e7ff0011a6f011","bdp_cybrbll","Sun Mar 26 2023 21:25:19 GMT-0600 (Mountain Daylight Time)","412644","1","3","","null","","","","observe","","img/1to3/1.png","null","213","265","0.5","0.5","1","2","",""
"animation","29","44203","0.0-5.0-2.12","5722c95274e7ff0011a6f011","bdp_cybrbll","Sun Mar 26 2023 21:25:19 GMT-0600 (Mountain Daylight Time)","412644","1","3","","","","","","","","","","213","","","","1","2","[{""stimulus"":""img/1to2/1.png"",""time"":100},{""stimulus"":""img/1to2/2.png"",""time"":198},{""stimulus"":""img/1to2/3.png"",""time"":298},{""stimulus"":""img/1to2/4.png"",""time"":396},{""stimulus"":""img/1to2/5.png"",""time"":495},{""stimulus"":""img/1to2/6.png"",""time"":594},{""stimulus"":""img/1to2/7.png"",""time"":694},{""stimulus"":""img/1to2/8.png"",""time"":792},{""stimulus"":""img/1to2/9.png"",""time"":891},{""stimulus"":""img/1to2/10.png"",""time"":991},{""stimulus"":""img/1to2/11.png"",""time"":1090},{""stimulus"":""img/1to2/12.png"",""time"":1188}]","[]"
"image-keyboard-response","30","44473","0.0-5.0-1.13","5722c95274e7ff0011a6f011","bdp_cybrbll","Sun Mar 26 2023 21:25:19 GMT-0600 (Mountain Daylight Time)","412644","1","3","","270","","","","choice","","img/2to1/1.png","2","212","779","0.5","0.5","2","3","",""
"animation","31","45761","0.0-5.0-2.13","5722c95274e7ff0011a6f011","bdp_cybrbll","Sun Mar 26 2023 21:25:19 GMT-0600 (Mountain Daylight Time)","412644","1","3","","","","","","","","","","212","","","","2","3","[{""stimulus"":""img/2to3/1.png"",""time"":100},{""stimulus"":""img/2to3/2.png"",""time"":198},{""stimulus"":""img/2to3/3.png"",""time"":298},{""stimulus"":""img/2to3/4.png"",""time"":397},{""stimulus"":""img/2to3/5.png"",""time"":495},{""stimulus"":""img/2to3/6.png"",""time"":595},{""stimulus"":""img/2to3/7.png"",""time"":693},{""stimulus"":""img/2to3/8.png"",""time"":793},{""stimulus"":""img/2to3/9.png"",""time"":892},{""stimulus"":""img/2to3/10.png"",""time"":991},{""stimulus"":""img/2to3/11.png"",""time"":1090},{""stimulus"":""img/2to3/12.png"",""time"":1189}]","[]"
"image-keyboard-response","32","46551","0.0-5.0-1.14","5722c95274e7ff0011a6f011","bdp_cybrbll","Sun Mar 26 2023 21:25:19 GMT-0600 (Mountain Daylight Time)","412644","1","3","","null","","","","observe","","img/3to2/1.png","null","211","789","0.5","0.5","3","2","",""
"animation","33","47838","0.0-5.0-2.14","5722c95274e7ff0011a6f011","bdp_cybrbll","Sun Mar 26 2023 21:25:19 GMT-0600 (Mountain Daylight Time)","412644","1","3","","","","","","","","","","211","","","","3","2","[{""stimulus"":""img/3to2/1.png"",""time"":100},{""stimulus"":""img/3to2/2.png"",""time"":199},{""stimulus"":""img/3to2/3.png"",""time"":297},{""stimulus"":""img/3to2/4.png"",""time"":396},{""stimulus"":""img/3to2/5.png"",""time"":495},{""stimulus"":""img/3to2/6.png"",""time"":595},{""stimulus"":""img/3to2/7.png"",""time"":694},{""stimulus"":""img/3to2/8.png"",""time"":793},{""stimulus"":""img/3to2/9.png"",""time"":892},{""stimulus"":""img/3to2/10.png"",""time"":991},{""stimulus"":""img/3to2/11.png"",""time"":1090},{""stimulus"":""img/3to2/12.png"",""time"":1189}]","[]"
"image-keyboard-response","34","47947","0.0-5.0-1.15","5722c95274e7ff0011a6f011","bdp_cybrbll","Sun Mar 26 2023 21:25:19 GMT-0600 (Mountain Daylight Time)","412644","1","3","","108","","","","choice","","img/2to1/1.png","1","210","989","0.5","0.5","2","1","",""
"animation","35","49236","0.0-5.0-2.15","5722c95274e7ff0011a6f011","bdp_cybrbll","Sun Mar 26 2023 21:25:19 GMT-0600 (Mountain Daylight Time)","412644","1","3","","","","","","","","","","210","","","","2","1","[{""stimulus"":""img/2to1/1.png"",""time"":100},{""stimulus"":""img/2to1/2.png"",""time"":199},{""stimulus"":""img/2to1/3.png"",""time"":298},{""stimulus"":""img/2to1/4.png"",""time"":397},{""stimulus"":""img/2to1/5.png"",""time"":496},{""stimulus"":""img/2to1/6.png"",""time"":595},{""stimulus"":""img/2to1/7.png"",""time"":694},{""stimulus"":""img/2to1/8.png"",""time"":794},{""stimulus"":""img/2to1/9.png"",""time"":892},{""stimulus"":""img/2to1/10.png"",""time"":992},{""stimulus"":""img/2to1/11.png"",""time"":1090},{""stimulus"":""img/2to1/12.png"",""time"":1189}]","[]"
"image-keyboard-response","36","49572","0.0-5.0-1.16","5722c95274e7ff0011a6f011","bdp_cybrbll","Sun Mar 26 2023 21:25:19 GMT-0600 (Mountain Daylight Time)","412644","1","3","","null","","","","observe","","img/1to3/1.png","null","209","335","0.5","0.5","1","2","",""
"animation","37","50860","0.0-5.0-2.16","5722c95274e7ff0011a6f011","bdp_cybrbll","Sun Mar 26 2023 21:25:19 GMT-0600 (Mountain Daylight Time)","412644","1","3","","","","","","","","","","209","","","","1","2","[{""stimulus"":""img/1to2/1.png"",""time"":99},{""stimulus"":""img/1to2/2.png"",""time"":198},{""stimulus"":""img/1to2/3.png"",""time"":298},{""stimulus"":""img/1to2/4.png"",""time"":396},{""stimulus"":""img/1to2/5.png"",""time"":496},{""stimulus"":""img/1to2/6.png"",""time"":595},{""stimulus"":""img/1to2/7.png"",""time"":694},{""stimulus"":""img/1to2/8.png"",""time"":793},{""stimulus"":""img/1to2/9.png"",""time"":892},{""stimulus"":""img/1to2/10.png"",""time"":991},{""stimulus"":""img/1to2/11.png"",""time"":1089},{""stimulus"":""img/1to2/12.png"",""time"":1189}]","[]"
"image-keyboard-response","38","50928","0.0-5.0-1.17","5722c95274e7ff0011a6f011","bdp_cybrbll","Sun Mar 26 2023 21:25:19 GMT-0600 (Mountain Daylight Time)","412644","1","3","","68","","","","choice","","img/2to1/1.png","2","208","432","0.5","0.5","2","3","",""
"animation","39","52216","0.0-5.0-2.17","5722c95274e7ff0011a6f011","bdp_cybrbll","Sun Mar 26 2023 21:25:19 GMT-0600 (Mountain Daylight Time)","412644","1","3","","","","","","","","","","208","","","","2","3","[{""stimulus"":""img/2to3/1.png"",""time"":99},{""stimulus"":""img/2to3/2.png"",""time"":198},{""stimulus"":""img/2to3/3.png"",""time"":298},{""stimulus"":""img/2to3/4.png"",""time"":396},{""stimulus"":""img/2to3/5.png"",""time"":496},{""stimulus"":""img/2to3/6.png"",""time"":595},{""stimulus"":""img/2to3/7.png"",""time"":693},{""stimulus"":""img/2to3/8.png"",""time"":793},{""stimulus"":""img/2to3/9.png"",""time"":892},{""stimulus"":""img/2to3/10.png"",""time"":990},{""stimulus"":""img/2to3/11.png"",""time"":1089},{""stimulus"":""img/2to3/12.png"",""time"":1188}]","[]"
"image-keyboard-response","40","52801","0.0-5.0-1.18","5722c95274e7ff0011a6f011","bdp_cybrbll","Sun Mar 26 2023 21:25:19 GMT-0600 (Mountain Daylight Time)","412644","1","3","","null","","","","observe","","img/3to2/1.png","null","207","584","0.5","0.5","3","1","",""
"animation","41","54089","0.0-5.0-2.18","5722c95274e7ff0011a6f011","bdp_cybrbll","Sun Mar 26 2023 21:25:19 GMT-0600 (Mountain Daylight Time)","412644","1","3","","","","","","","","","","207","","","","3","1","[{""stimulus"":""img/3to1/1.png"",""time"":100},{""stimulus"":""img/3to1/2.png"",""time"":199},{""stimulus"":""img/3to1/3.png"",""time"":298},{""stimulus"":""img/3to1/4.png"",""time"":397},{""stimulus"":""img/3to1/5.png"",""time"":495},{""stimulus"":""img/3to1/6.png"",""time"":594},{""stimulus"":""img/3to1/7.png"",""time"":694},{""stimulus"":""img/3to1/8.png"",""time"":792},{""stimulus"":""img/3to1/9.png"",""time"":892},{""stimulus"":""img/3to1/10.png"",""time"":990},{""stimulus"":""img/3to1/11.png"",""time"":1089},{""stimulus"":""img/3to1/12.png"",""time"":1189}]","[]"
"image-keyboard-response","42","54954","0.0-5.0-1.19","5722c95274e7ff0011a6f011","bdp_cybrbll","Sun Mar 26 2023 21:25:19 GMT-0600 (Mountain Daylight Time)","412644","1","3","","null","","","","observe","","img/1to3/1.png","null","206","864","0.5","0.5","1","3","",""
"animation","43","56242","0.0-5.0-2.19","5722c95274e7ff0011a6f011","bdp_cybrbll","Sun Mar 26 2023 21:25:19 GMT-0600 (Mountain Daylight Time)","412644","1","3","","","","","","","","","","206","","","","1","3","[{""stimulus"":""img/1to3/1.png"",""time"":101},{""stimulus"":""img/1to3/2.png"",""time"":200},{""stimulus"":""img/1to3/3.png"",""time"":297},{""stimulus"":""img/1to3/4.png"",""time"":397},{""stimulus"":""img/1to3/5.png"",""time"":496},{""stimulus"":""img/1to3/6.png"",""time"":595},{""stimulus"":""img/1to3/7.png"",""time"":694},{""stimulus"":""img/1to3/8.png"",""time"":793},{""stimulus"":""img/1to3/9.png"",""time"":891},{""stimulus"":""img/1to3/10.png"",""time"":991},{""stimulus"":""img/1to3/11.png"",""time"":1090},{""stimulus"":""img/1to3/12.png"",""time"":1189}]","[]"
"image-keyboard-response","44","56577","0.0-5.0-1.20","5722c95274e7ff0011a6f011","bdp_cybrbll","Sun Mar 26 2023 21:25:19 GMT-0600 (Mountain Daylight Time)","412644","1","3","","null","","","","observe","","img/3to2/1.png","null","205","334","0.5","0.5","3","1","",""
"animation","45","57865","0.0-5.0-2.20","5722c95274e7ff0011a6f011","bdp_cybrbll","Sun Mar 26 2023 21:25:19 GMT-0600 (Mountain Daylight Time)","412644","1","3","","","","","","","","","","205","","","","3","1","[{""stimulus"":""img/3to1/1.png"",""time"":101},{""stimulus"":""img/3to1/2.png"",""time"":199},{""stimulus"":""img/3to1/3.png"",""time"":298},{""stimulus"":""img/3to1/4.png"",""time"":397},{""stimulus"":""img/3to1/5.png"",""time"":496},{""stimulus"":""img/3to1/6.png"",""time"":595},{""stimulus"":""img/3to1/7.png"",""time"":694},{""stimulus"":""img/3to1/8.png"",""time"":793},{""stimulus"":""img/3to1/9.png"",""time"":892},{""stimulus"":""img/3to1/10.png"",""time"":992},{""stimulus"":""img/3to1/11.png"",""time"":1090},{""stimulus"":""img/3to1/12.png"",""time"":1189}]","[]"
"image-keyboard-response","46","58437","0.0-5.0-1.21","5722c95274e7ff0011a6f011","bdp_cybrbll","Sun Mar 26 2023 21:25:19 GMT-0600 (Mountain Daylight Time)","412644","1","3","","null","","","","observe","","img/1to3/1.png","null","204","571","0.5","0.5","1","2","",""
"animation","47","59725","0.0-5.0-2.21","5722c95274e7ff0011a6f011","bdp_cybrbll","Sun Mar 26 2023 21:25:19 GMT-0600 (Mountain Daylight Time)","412644","1","3","","","","","","","","","","204","","","","1","2","[{""stimulus"":""img/1to2/1.png"",""time"":100},{""stimulus"":""img/1to2/2.png"",""time"":200},{""stimulus"":""img/1to2/3.png"",""time"":298},{""stimulus"":""img/1to2/4.png"",""time"":398},{""stimulus"":""img/1to2/5.png"",""time"":496},{""stimulus"":""img/1to2/6.png"",""time"":595},{""stimulus"":""img/1to2/7.png"",""time"":694},{""stimulus"":""img/1to2/8.png"",""time"":793},{""stimulus"":""img/1to2/9.png"",""time"":891},{""stimulus"":""img/1to2/10.png"",""time"":991},{""stimulus"":""img/1to2/11.png"",""time"":1090},{""stimulus"":""img/1to2/12.png"",""time"":1189}]","[]"
"image-keyboard-response","48","60122","0.0-5.0-1.22","5722c95274e7ff0011a6f011","bdp_cybrbll","Sun Mar 26 2023 21:25:19 GMT-0600 (Mountain Daylight Time)","412644","1","3","","396","","","","choice","","img/2to1/1.png","2","203","272","0.5","0.5","2","3","",""
"animation","49","61409","0.0-5.0-2.22","5722c95274e7ff0011a6f011","bdp_cybrbll","Sun Mar 26 2023 21:25:19 GMT-0600 (Mountain Daylight Time)","412644","1","3","","","","","","","","","","203","","","","2","3","[{""stimulus"":""img/2to3/1.png"",""time"":100},{""stimulus"":""img/2to3/2.png"",""time"":198},{""stimulus"":""img/2to3/3.png"",""time"":297},{""stimulus"":""img/2to3/4.png"",""time"":397},{""stimulus"":""img/2to3/5.png"",""time"":496},{""stimulus"":""img/2to3/6.png"",""time"":594},{""stimulus"":""img/2to3/7.png"",""time"":693},{""stimulus"":""img/2to3/8.png"",""time"":792},{""stimulus"":""img/2to3/9.png"",""time"":891},{""stimulus"":""img/2to3/10.png"",""time"":990},{""stimulus"":""img/2to3/11.png"",""time"":1089},{""stimulus"":""img/2to3/12.png"",""time"":1189}]","[]"
"image-keyboard-response","50","61787","0.0-5.0-1.23","5722c95274e7ff0011a6f011","bdp_cybrbll","Sun Mar 26 2023 21:25:19 GMT-0600 (Mountain Daylight Time)","412644","1","3","","null","","","","observe","","img/3to2/1.png","null","202","377","0.5","0.5","3","1","",""
"animation","51","63075","0.0-5.0-2.23","5722c95274e7ff0011a6f011","bdp_cybrbll","Sun Mar 26 2023 21:25:19 GMT-0600 (Mountain Daylight Time)","412644","1","3","","","","","","","","","","202","","","","3","1","[{""stimulus"":""img/3to1/1.png"",""time"":99},{""stimulus"":""img/3to1/2.png"",""time"":199},{""stimulus"":""img/3to1/3.png"",""time"":298},{""stimulus"":""img/3to1/4.png"",""time"":397},{""stimulus"":""img/3to1/5.png"",""time"":496},{""stimulus"":""img/3to1/6.png"",""time"":595},{""stimulus"":""img/3to1/7.png"",""time"":694},{""stimulus"":""img/3to1/8.png"",""time"":792},{""stimulus"":""img/3to1/9.png"",""time"":892},{""stimulus"":""img/3to1/10.png"",""time"":991},{""stimulus"":""img/3to1/11.png"",""time"":1090},{""stimulus"":""img/3to1/12.png"",""time"":1189}]","[]"
"image-keyboard-response","52","63659","0.0-5.0-1.24","5722c95274e7ff0011a6f011","bdp_cybrbll","Sun Mar 26 2023 21:25:19 GMT-0600 (Mountain Daylight Time)","412644","1","3","","null","","","","observe","","img/1to3/1.png","null","201","582","0.5","0.5","1","3","",""
"animation","53","64946","0.0-5.0-2.24","5722c95274e7ff0011a6f011","bdp_cybrbll","Sun Mar 26 2023 21:25:19 GMT-0600 (Mountain Daylight Time)","412644","1","3","","","","","","","","","","201","","","","1","3","[{""stimulus"":""img/1to3/1.png"",""time"":100},{""stimulus"":""img/1to3/2.png"",""time"":199},{""stimulus"":""img/1to3/3.png"",""time"":297},{""stimulus"":""img/1to3/4.png"",""time"":396},{""stimulus"":""img/1to3/5.png"",""time"":496},{""stimulus"":""img/1to3/6.png"",""time"":595},{""stimulus"":""img/1to3/7.png"",""time"":693},{""stimulus"":""img/1to3/8.png"",""time"":793},{""stimulus"":""img/1to3/9.png"",""time"":892},{""stimulus"":""img/1to3/10.png"",""time"":990},{""stimulus"":""img/1to3/11.png"",""time"":1089},{""stimulus"":""img/1to3/12.png"",""time"":1189}]","[]"
"image-keyboard-response","54","65401","0.0-5.0-1.25","5722c95274e7ff0011a6f011","bdp_cybrbll","Sun Mar 26 2023 21:25:19 GMT-0600 (Mountain Daylight Time)","412644","1","3","","null","","","","observe","","img/3to2/1.png","null","200","454","0.5","0.5","3","2","",""
"animation","55","66689","0.0-5.0-2.25","5722c95274e7ff0011a6f011","bdp_cybrbll","Sun Mar 26 2023 21:25:19 GMT-0600 (Mountain Daylight Time)","412644","1","3","","","","","","","","","","200","","","","3","2","[{""stimulus"":""img/3to2/1.png"",""time"":99},{""stimulus"":""img/3to2/2.png"",""time"":199},{""stimulus"":""img/3to2/3.png"",""time"":297},{""stimulus"":""img/3to2/4.png"",""time"":397},{""stimulus"":""img/3to2/5.png"",""time"":496},{""stimulus"":""img/3to2/6.png"",""time"":595},{""stimulus"":""img/3to2/7.png"",""time"":694},{""stimulus"":""img/3to2/8.png"",""time"":793},{""stimulus"":""img/3to2/9.png"",""time"":892},{""stimulus"":""img/3to2/10.png"",""time"":991},{""stimulus"":""img/3to2/11.png"",""time"":1090},{""stimulus"":""img/3to2/12.png"",""time"":1189}]","[]"
"image-keyboard-response","56","66952","0.0-5.0-1.26","5722c95274e7ff0011a6f011","bdp_cybrbll","Sun Mar 26 2023 21:25:19 GMT-0600 (Mountain Daylight Time)","412644","1","3","","263","","","","choice","","img/2to1/1.png","1","199","1097","0.5","0.5","2","1","",""
"animation","57","68240","0.0-5.0-2.26","5722c95274e7ff0011a6f011","bdp_cybrbll","Sun Mar 26 2023 21:25:19 GMT-0600 (Mountain Daylight Time)","412644","1","3","","","","","","","","","","199","","","","2","1","[{""stimulus"":""img/2to1/1.png"",""time"":99},{""stimulus"":""img/2to1/2.png"",""time"":199},{""stimulus"":""img/2to1/3.png"",""time"":298},{""stimulus"":""img/2to1/4.png"",""time"":397},{""stimulus"":""img/2to1/5.png"",""time"":496},{""stimulus"":""img/2to1/6.png"",""time"":595},{""stimulus"":""img/2to1/7.png"",""time"":693},{""stimulus"":""img/2to1/8.png"",""time"":793},{""stimulus"":""img/2to1/9.png"",""time"":892},{""stimulus"":""img/2to1/10.png"",""time"":991},{""stimulus"":""img/2to1/11.png"",""time"":1089},{""stimulus"":""img/2to1/12.png"",""time"":1188}]","[]"
"image-keyboard-response","58","68399","0.0-5.0-1.27","5722c95274e7ff0011a6f011","bdp_cybrbll","Sun Mar 26 2023 21:25:19 GMT-0600 (Mountain Daylight Time)","412644","1","3","","null","","","","observe","","img/1to3/1.png","null","198","158","0.5","0.5","1","3","",""
"animation","59","69686","0.0-5.0-2.27","5722c95274e7ff0011a6f011","bdp_cybrbll","Sun Mar 26 2023 21:25:19 GMT-0600 (Mountain Daylight Time)","412644","1","3","","","","","","","","","","198","","","","1","3","[{""stimulus"":""img/1to3/1.png"",""time"":100},{""stimulus"":""img/1to3/2.png"",""time"":198},{""stimulus"":""img/1to3/3.png"",""time"":298},{""stimulus"":""img/1to3/4.png"",""time"":397},{""stimulus"":""img/1to3/5.png"",""time"":496},{""stimulus"":""img/1to3/6.png"",""time"":595},{""stimulus"":""img/1to3/7.png"",""time"":694},{""stimulus"":""img/1to3/8.png"",""time"":793},{""stimulus"":""img/1to3/9.png"",""time"":892},{""stimulus"":""img/1to3/10.png"",""time"":990},{""stimulus"":""img/1to3/11.png"",""time"":1090},{""stimulus"":""img/1to3/12.png"",""time"":1189}]","[]"
"image-keyboard-response","60","70292","0.0-5.0-1.28","5722c95274e7ff0011a6f011","bdp_cybrbll","Sun Mar 26 2023 21:25:19 GMT-0600 (Mountain Daylight Time)","412644","1","3","","null","","","","observe","","img/3to2/1.png","null","197","605","0.5","0.5","3","1","",""
"animation","61","71580","0.0-5.0-2.28","5722c95274e7ff0011a6f011","bdp_cybrbll","Sun Mar 26 2023 21:25:19 GMT-0600 (Mountain Daylight Time)","412644","1","3","","","","","","","","","","197","","","","3","1","[{""stimulus"":""img/3to1/1.png"",""time"":101},{""stimulus"":""img/3to1/2.png"",""time"":200},{""stimulus"":""img/3to1/3.png"",""time"":299},{""stimulus"":""img/3to1/4.png"",""time"":397},{""stimulus"":""img/3to1/5.png"",""time"":496},{""stimulus"":""img/3to1/6.png"",""time"":595},{""stimulus"":""img/3to1/7.png"",""time"":695},{""stimulus"":""img/3to1/8.png"",""time"":793},{""stimulus"":""img/3to1/9.png"",""time"":892},{""stimulus"":""img/3to1/10.png"",""time"":991},{""stimulus"":""img/3to1/11.png"",""time"":1090},{""stimulus"":""img/3to1/12.png"",""time"":1189}]","[]"
"image-keyboard-response","62","72352","0.0-5.0-1.29","5722c95274e7ff0011a6f011","bdp_cybrbll","Sun Mar 26 2023 21:25:19 GMT-0600 (Mountain Daylight Time)","412644","1","3","","null","","","","observe","","img/1to3/1.png","null","196","771","0.5","0.5","1","2","",""
"animation","63","73640","0.0-5.0-2.29","5722c95274e7ff0011a6f011","bdp_cybrbll","Sun Mar 26 2023 21:25:19 GMT-0600 (Mountain Daylight Time)","412644","1","3","","","","","","","","","","196","","","","1","2","[{""stimulus"":""img/1to2/1.png"",""time"":100},{""stimulus"":""img/1to2/2.png"",""time"":199},{""stimulus"":""img/1to2/3.png"",""time"":298},{""stimulus"":""img/1to2/4.png"",""time"":397},{""stimulus"":""img/1to2/5.png"",""time"":497},{""stimulus"":""img/1to2/6.png"",""time"":595},{""stimulus"":""img/1to2/7.png"",""time"":694},{""stimulus"":""img/1to2/8.png"",""time"":804},{""stimulus"":""img/1to2/9.png"",""time"":892},{""stimulus"":""img/1to2/10.png"",""time"":992},{""stimulus"":""img/1to2/11.png"",""time"":1090},{""stimulus"":""img/1to2/12.png"",""time"":1189}]","[]"
"image-keyboard-response","64","73719","0.0-5.0-1.30","5722c95274e7ff0011a6f011","bdp_cybrbll","Sun Mar 26 2023 21:25:19 GMT-0600 (Mountain Daylight Time)","412644","1","3","","78","","","","choice","","img/2to1/1.png","2","195","513","0.5","0.5","2","3","",""
"animation","65","75006","0.0-5.0-2.30","5722c95274e7ff0011a6f011","bdp_cybrbll","Sun Mar 26 2023 21:25:19 GMT-0600 (Mountain Daylight Time)","412644","1","3","","","","","","","","","","195","","","","2","3","[{""stimulus"":""img/2to3/1.png"",""time"":100},{""stimulus"":""img/2to3/2.png"",""time"":198},{""stimulus"":""img/2to3/3.png"",""time"":298},{""stimulus"":""img/2to3/4.png"",""time"":397},{""stimulus"":""img/2to3/5.png"",""time"":495},{""stimulus"":""img/2to3/6.png"",""time"":594},{""stimulus"":""img/2to3/7.png"",""time"":693},{""stimulus"":""img/2to3/8.png"",""time"":793},{""stimulus"":""img/2to3/9.png"",""time"":891},{""stimulus"":""img/2to3/10.png"",""time"":990},{""stimulus"":""img/2to3/11.png"",""time"":1089},{""stimulus"":""img/2to3/12.png"",""time"":1189}]","[]"
"image-keyboard-response","66","75635","0.0-5.0-1.31","5722c95274e7ff0011a6f011","bdp_cybrbll","Sun Mar 26 2023 21:25:19 GMT-0600 (Mountain Daylight Time)","412644","1","3","","null","","","","observe","","img/3to2/1.png","null","194","628","0.5","0.5","3","1","",""
"animation","67","76923","0.0-5.0-2.31","5722c95274e7ff0011a6f011","bdp_cybrbll","Sun Mar 26 2023 21:25:19 GMT-0600 (Mountain Daylight Time)","412644","1","3","","","","","","","","","","194","","","","3","1","[{""stimulus"":""img/3to1/1.png"",""time"":100},{""stimulus"":""img/3to1/2.png"",""time"":199},{""stimulus"":""img/3to1/3.png"",""time"":298},{""stimulus"":""img/3to1/4.png"",""time"":397},{""stimulus"":""img/3to1/5.png"",""time"":496},{""stimulus"":""img/3to1/6.png"",""time"":595},{""stimulus"":""img/3to1/7.png"",""time"":694},{""stimulus"":""img/3to1/8.png"",""time"":793},{""stimulus"":""img/3to1/9.png"",""time"":892},{""stimulus"":""img/3to1/10.png"",""time"":991},{""stimulus"":""img/3to1/11.png"",""time"":1090},{""stimulus"":""img/3to1/12.png"",""time"":1189}]","[]"
"image-keyboard-response","68","77196","0.0-5.0-1.32","5722c95274e7ff0011a6f011","bdp_cybrbll","Sun Mar 26 2023 21:25:19 GMT-0600 (Mountain Daylight Time)","412644","1","3","","null","","","","observe","","img/1to3/1.png","null","193","272","0.5","0.5","1","3","",""
"animation","69","78484","0.0-5.0-2.32","5722c95274e7ff0011a6f011","bdp_cybrbll","Sun Mar 26 2023 21:25:19 GMT-0600 (Mountain Daylight Time)","412644","1","3","","","","","","","","","","193","","","","1","3","[{""stimulus"":""img/1to3/1.png"",""time"":99},{""stimulus"":""img/1to3/2.png"",""time"":199},{""stimulus"":""img/1to3/3.png"",""time"":298},{""stimulus"":""img/1to3/4.png"",""time"":396},{""stimulus"":""img/1to3/5.png"",""time"":496},{""stimulus"":""img/1to3/6.png"",""time"":595},{""stimulus"":""img/1to3/7.png"",""time"":693},{""stimulus"":""img/1to3/8.png"",""time"":793},{""stimulus"":""img/1to3/9.png"",""time"":892},{""stimulus"":""img/1to3/10.png"",""time"":991},{""stimulus"":""img/1to3/11.png"",""time"":1090},{""stimulus"":""img/1to3/12.png"",""time"":1189}]","[]"
"image-keyboard-response","70","78830","0.0-5.0-1.33","5722c95274e7ff0011a6f011","bdp_cybrbll","Sun Mar 26 2023 21:25:19 GMT-0600 (Mountain Daylight Time)","412644","1","3","","null","","","","observe","","img/3to2/1.png","null","192","345","0.5","0.5","3","2","",""
"animation","71","80118","0.0-5.0-2.33","5722c95274e7ff0011a6f011","bdp_cybrbll","Sun Mar 26 2023 21:25:19 GMT-0600 (Mountain Daylight Time)","412644","1","3","","","","","","","","","","192","","","","3","2","[{""stimulus"":""img/3to2/1.png"",""time"":100},{""stimulus"":""img/3to2/2.png"",""time"":199},{""stimulus"":""img/3to2/3.png"",""time"":298},{""stimulus"":""img/3to2/4.png"",""time"":396},{""stimulus"":""img/3to2/5.png"",""time"":496},{""stimulus"":""img/3to2/6.png"",""time"":595},{""stimulus"":""img/3to2/7.png"",""time"":702},{""stimulus"":""img/3to2/8.png"",""time"":793},{""stimulus"":""img/3to2/9.png"",""time"":892},{""stimulus"":""img/3to2/10.png"",""time"":991},{""stimulus"":""img/3to2/11.png"",""time"":1091},{""stimulus"":""img/3to2/12.png"",""time"":1189}]","[]"
"image-keyboard-response","72","80580","0.0-5.0-1.34","5722c95274e7ff0011a6f011","bdp_cybrbll","Sun Mar 26 2023 21:25:19 GMT-0600 (Mountain Daylight Time)","412644","1","3","","462","","","","choice","","img/2to1/1.png","1","191","412","0.5","0.5","2","1","",""
"animation","73","81868","0.0-5.0-2.34","5722c95274e7ff0011a6f011","bdp_cybrbll","Sun Mar 26 2023 21:25:19 GMT-0600 (Mountain Daylight Time)","412644","1","3","","","","","","","","","","191","","","","2","1","[{""stimulus"":""img/2to1/1.png"",""time"":100},{""stimulus"":""img/2to1/2.png"",""time"":199},{""stimulus"":""img/2to1/3.png"",""time"":298},{""stimulus"":""img/2to1/4.png"",""time"":397},{""stimulus"":""img/2to1/5.png"",""time"":496},{""stimulus"":""img/2to1/6.png"",""time"":595},{""stimulus"":""img/2to1/7.png"",""time"":694},{""stimulus"":""img/2to1/8.png"",""time"":793},{""stimulus"":""img/2to1/9.png"",""time"":892},{""stimulus"":""img/2to1/10.png"",""time"":991},{""stimulus"":""img/2to1/11.png"",""time"":1090},{""stimulus"":""img/2to1/12.png"",""time"":1189}]","[]"
"image-keyboard-response","74","82064","0.0-5.0-1.35","5722c95274e7ff0011a6f011","bdp_cybrbll","Sun Mar 26 2023 21:25:19 GMT-0600 (Mountain Daylight Time)","412644","1","3","","null","","","","observe","","img/1to3/1.png","null","190","195","0.5","0.5","1","3","",""
"animation","75","83352","0.0-5.0-2.35","5722c95274e7ff0011a6f011","bdp_cybrbll","Sun Mar 26 2023 21:25:19 GMT-0600 (Mountain Daylight Time)","412644","1","3","","","","","","","","","","190","","","","1","3","[{""stimulus"":""img/1to3/1.png"",""time"":100},{""stimulus"":""img/1to3/2.png"",""time"":199},{""stimulus"":""img/1to3/3.png"",""time"":298},{""stimulus"":""img/1to3/4.png"",""time"":397},{""stimulus"":""img/1to3/5.png"",""time"":496},{""stimulus"":""img/1to3/6.png"",""time"":594},{""stimulus"":""img/1to3/7.png"",""time"":693},{""stimulus"":""img/1to3/8.png"",""time"":793},{""stimulus"":""img/1to3/9.png"",""time"":892},{""stimulus"":""img/1to3/10.png"",""time"":991},{""stimulus"":""img/1to3/11.png"",""time"":1090},{""stimulus"":""img/1to3/12.png"",""time"":1188}]","[]"
"image-keyboard-response","76","83962","0.0-5.0-1.36","5722c95274e7ff0011a6f011","bdp_cybrbll","Sun Mar 26 2023 21:25:19 GMT-0600 (Mountain Daylight Time)","412644","1","3","","null","","","","observe","","img/3to2/1.png","null","189","609","0.5","0.5","3","2","",""
"animation","77","85250","0.0-5.0-2.36","5722c95274e7ff0011a6f011","bdp_cybrbll","Sun Mar 26 2023 21:25:19 GMT-0600 (Mountain Daylight Time)","412644","1","3","","","","","","","","","","189","","","","3","2","[{""stimulus"":""img/3to2/1.png"",""time"":100},{""stimulus"":""img/3to2/2.png"",""time"":199},{""stimulus"":""img/3to2/3.png"",""time"":297},{""stimulus"":""img/3to2/4.png"",""time"":396},{""stimulus"":""img/3to2/5.png"",""time"":496},{""stimulus"":""img/3to2/6.png"",""time"":594},{""stimulus"":""img/3to2/7.png"",""time"":694},{""stimulus"":""img/3to2/8.png"",""time"":792},{""stimulus"":""img/3to2/9.png"",""time"":892},{""stimulus"":""img/3to2/10.png"",""time"":991},{""stimulus"":""img/3to2/11.png"",""time"":1090},{""stimulus"":""img/3to2/12.png"",""time"":1189}]","[]"
"image-keyboard-response","78","85599","0.0-5.0-1.37","5722c95274e7ff0011a6f011","bdp_cybrbll","Sun Mar 26 2023 21:25:19 GMT-0600 (Mountain Daylight Time)","412644","1","3","","348","","","","choice","","img/2to1/1.png","1","188","325","0.5","0.5","2","1","",""
"animation","79","86887","0.0-5.0-2.37","5722c95274e7ff0011a6f011","bdp_cybrbll","Sun Mar 26 2023 21:25:19 GMT-0600 (Mountain Daylight Time)","412644","1","3","","","","","","","","","","188","","","","2","1","[{""stimulus"":""img/2to1/1.png"",""time"":100},{""stimulus"":""img/2to1/2.png"",""time"":199},{""stimulus"":""img/2to1/3.png"",""time"":298},{""stimulus"":""img/2to1/4.png"",""time"":397},{""stimulus"":""img/2to1/5.png"",""time"":496},{""stimulus"":""img/2to1/6.png"",""time"":595},{""stimulus"":""img/2to1/7.png"",""time"":694},{""stimulus"":""img/2to1/8.png"",""time"":793},{""stimulus"":""img/2to1/9.png"",""time"":892},{""stimulus"":""img/2to1/10.png"",""time"":991},{""stimulus"":""img/2to1/11.png"",""time"":1090},{""stimulus"":""img/2to1/12.png"",""time"":1189}]","[]"
"image-keyboard-response","80","87506","0.0-5.0-1.38","5722c95274e7ff0011a6f011","bdp_cybrbll","Sun Mar 26 2023 21:25:19 GMT-0600 (Mountain Daylight Time)","412644","1","3","","null","","","","observe","","img/1to3/1.png","null","187","618","0.5","0.5","1","2","",""
"animation","81","88794","0.0-5.0-2.38","5722c95274e7ff0011a6f011","bdp_cybrbll","Sun Mar 26 2023 21:25:19 GMT-0600 (Mountain Daylight Time)","412644","1","3","","","","","","","","","","187","","","","1","2","[{""stimulus"":""img/1to2/1.png"",""time"":100},{""stimulus"":""img/1to2/2.png"",""time"":199},{""stimulus"":""img/1to2/3.png"",""time"":298},{""stimulus"":""img/1to2/4.png"",""time"":397},{""stimulus"":""img/1to2/5.png"",""time"":496},{""stimulus"":""img/1to2/6.png"",""time"":595},{""stimulus"":""img/1to2/7.png"",""time"":694},{""stimulus"":""img/1to2/8.png"",""time"":793},{""stimulus"":""img/1to2/9.png"",""time"":893},{""stimulus"":""img/1to2/10.png"",""time"":991},{""stimulus"":""img/1to2/11.png"",""time"":1091},{""stimulus"":""img/1to2/12.png"",""time"":1189}]","[]"
"image-keyboard-response","82","88934","0.0-5.0-1.39","5722c95274e7ff0011a6f011","bdp_cybrbll","Sun Mar 26 2023 21:25:19 GMT-0600 (Mountain Daylight Time)","412644","1","3","","140","","","","choice","","img/2to1/1.png","2","186","319","0.5","0.5","2","3","",""
"animation","83","90221","0.0-5.0-2.39","5722c95274e7ff0011a6f011","bdp_cybrbll","Sun Mar 26 2023 21:25:19 GMT-0600 (Mountain Daylight Time)","412644","1","3","","","","","","","","","","186","","","","2","3","[{""stimulus"":""img/2to3/1.png"",""time"":99},{""stimulus"":""img/2to3/2.png"",""time"":199},{""stimulus"":""img/2to3/3.png"",""time"":298},{""stimulus"":""img/2to3/4.png"",""time"":397},{""stimulus"":""img/2to3/5.png"",""time"":496},{""stimulus"":""img/2to3/6.png"",""time"":595},{""stimulus"":""img/2to3/7.png"",""time"":694},{""stimulus"":""img/2to3/8.png"",""time"":793},{""stimulus"":""img/2to3/9.png"",""time"":892},{""stimulus"":""img/2to3/10.png"",""time"":991},{""stimulus"":""img/2to3/11.png"",""time"":1089},{""stimulus"":""img/2to3/12.png"",""time"":1188}]","[]"
"image-keyboard-response","84","90610","0.0-5.0-1.40","5722c95274e7ff0011a6f011","bdp_cybrbll","Sun Mar 26 2023 21:25:19 GMT-0600 (Mountain Daylight Time)","412644","1","3","","null","","","","observe","","img/3to2/1.png","null","185","388","0.5","0.5","3","2","",""
"animation","85","91898","0.0-5.0-2.40","5722c95274e7ff0011a6f011","bdp_cybrbll","Sun Mar 26 2023 21:25:19 GMT-0600 (Mountain Daylight Time)","412644","1","3","","","","","","","","","","185","","","","3","2","[{""stimulus"":""img/3to2/1.png"",""time"":101},{""stimulus"":""img/3to2/2.png"",""time"":199},{""stimulus"":""img/3to2/3.png"",""time"":298},{""stimulus"":""img/3to2/4.png"",""time"":397},{""stimulus"":""img/3to2/5.png"",""time"":496},{""stimulus"":""img/3to2/6.png"",""time"":595},{""stimulus"":""img/3to2/7.png"",""time"":694},{""stimulus"":""img/3to2/8.png"",""time"":793},{""stimulus"":""img/3to2/9.png"",""time"":892},{""stimulus"":""img/3to2/10.png"",""time"":991},{""stimulus"":""img/3to2/11.png"",""time"":1090},{""stimulus"":""img/3to2/12.png"",""time"":1189}]","[]"
"image-keyboard-response","86","92058","0.0-5.0-1.41","5722c95274e7ff0011a6f011","bdp_cybrbll","Sun Mar 26 2023 21:25:19 GMT-0600 (Mountain Daylight Time)","412644","1","3","","159","","","","choice","","img/2to1/1.png","1","184","280","0.5","0.5","2","1","",""
"animation","87","93346","0.0-5.0-2.41","5722c95274e7ff0011a6f011","bdp_cybrbll","Sun Mar 26 2023 21:25:19 GMT-0600 (Mountain Daylight Time)","412644","1","3","","","","","","","","","","184","","","","2","1","[{""stimulus"":""img/2to1/1.png"",""time"":100},{""stimulus"":""img/2to1/2.png"",""time"":199},{""stimulus"":""img/2to1/3.png"",""time"":298},{""stimulus"":""img/2to1/4.png"",""time"":397},{""stimulus"":""img/2to1/5.png"",""time"":496},{""stimulus"":""img/2to1/6.png"",""time"":595},{""stimulus"":""img/2to1/7.png"",""time"":694},{""stimulus"":""img/2to1/8.png"",""time"":793},{""stimulus"":""img/2to1/9.png"",""time"":891},{""stimulus"":""img/2to1/10.png"",""time"":991},{""stimulus"":""img/2to1/11.png"",""time"":1090},{""stimulus"":""img/2to1/12.png"",""time"":1189}]","[]"
"image-keyboard-response","88","93786","0.0-5.0-1.42","5722c95274e7ff0011a6f011","bdp_cybrbll","Sun Mar 26 2023 21:25:19 GMT-0600 (Mountain Daylight Time)","412644","1","3","","null","","","","observe","","img/1to3/1.png","null","183","439","0.5","0.5","1","3","",""
"animation","89","95074","0.0-5.0-2.42","5722c95274e7ff0011a6f011","bdp_cybrbll","Sun Mar 26 2023 21:25:19 GMT-0600 (Mountain Daylight Time)","412644","1","3","","","","","","","","","","183","","","","1","3","[{""stimulus"":""img/1to3/1.png"",""time"":99},{""stimulus"":""img/1to3/2.png"",""time"":199},{""stimulus"":""img/1to3/3.png"",""time"":297},{""stimulus"":""img/1to3/4.png"",""time"":396},{""stimulus"":""img/1to3/5.png"",""time"":495},{""stimulus"":""img/1to3/6.png"",""time"":594},{""stimulus"":""img/1to3/7.png"",""time"":694},{""stimulus"":""img/1to3/8.png"",""time"":793},{""stimulus"":""img/1to3/9.png"",""time"":892},{""stimulus"":""img/1to3/10.png"",""time"":990},{""stimulus"":""img/1to3/11.png"",""time"":1090},{""stimulus"":""img/1to3/12.png"",""time"":1188}]","[]"
"image-keyboard-response","90","95678","0.0-5.0-1.43","5722c95274e7ff0011a6f011","bdp_cybrbll","Sun Mar 26 2023 21:25:19 GMT-0600 (Mountain Daylight Time)","412644","1","3","","null","","","","observe","","img/3to2/1.png","null","182","603","0.5","0.5","3","2","",""
"animation","91","96966","0.0-5.0-2.43","5722c95274e7ff0011a6f011","bdp_cybrbll","Sun Mar 26 2023 21:25:19 GMT-0600 (Mountain Daylight Time)","412644","1","3","","","","","","","","","","182","","","","3","2","[{""stimulus"":""img/3to2/1.png"",""time"":99},{""stimulus"":""img/3to2/2.png"",""time"":199},{""stimulus"":""img/3to2/3.png"",""time"":298},{""stimulus"":""img/3to2/4.png"",""time"":397},{""stimulus"":""img/3to2/5.png"",""time"":495},{""stimulus"":""img/3to2/6.png"",""time"":594},{""stimulus"":""img/3to2/7.png"",""time"":693},{""stimulus"":""img/3to2/8.png"",""time"":793},{""stimulus"":""img/3to2/9.png"",""time"":891},{""stimulus"":""img/3to2/10.png"",""time"":991},{""stimulus"":""img/3to2/11.png"",""time"":1090},{""stimulus"":""img/3to2/12.png"",""time"":1188}]","[]"
"image-keyboard-response","92","97174","0.0-5.0-1.44","5722c95274e7ff0011a6f011","bdp_cybrbll","Sun Mar 26 2023 21:25:19 GMT-0600 (Mountain Daylight Time)","412644","1","3","","208","","","","choice","","img/2to1/1.png","1","181","413","0.5","0.5","2","1","",""
"animation","93","98462","0.0-5.0-2.44","5722c95274e7ff0011a6f011","bdp_cybrbll","Sun Mar 26 2023 21:25:19 GMT-0600 (Mountain Daylight Time)","412644","1","3","","","","","","","","","","181","","","","2","1","[{""stimulus"":""img/2to1/1.png"",""time"":100},{""stimulus"":""img/2to1/2.png"",""time"":199},{""stimulus"":""img/2to1/3.png"",""time"":297},{""stimulus"":""img/2to1/4.png"",""time"":396},{""stimulus"":""img/2to1/5.png"",""time"":495},{""stimulus"":""img/2to1/6.png"",""time"":595},{""stimulus"":""img/2to1/7.png"",""time"":694},{""stimulus"":""img/2to1/8.png"",""time"":792},{""stimulus"":""img/2to1/9.png"",""time"":892},{""stimulus"":""img/2to1/10.png"",""time"":991},{""stimulus"":""img/2to1/11.png"",""time"":1090},{""stimulus"":""img/2to1/12.png"",""time"":1189}]","[]"
"image-keyboard-response","94","98909","0.0-5.0-1.45","5722c95274e7ff0011a6f011","bdp_cybrbll","Sun Mar 26 2023 21:25:19 GMT-0600 (Mountain Daylight Time)","412644","1","3","","null","","","","observe","","img/1to3/1.png","null","180","446","0.5","0.5","1","3","",""
"animation","95","100196","0.0-5.0-2.45","5722c95274e7ff0011a6f011","bdp_cybrbll","Sun Mar 26 2023 21:25:19 GMT-0600 (Mountain Daylight Time)","412644","1","3","","","","","","","","","","180","","","","1","3","[{""stimulus"":""img/1to3/1.png"",""time"":100},{""stimulus"":""img/1to3/2.png"",""time"":198},{""stimulus"":""img/1to3/3.png"",""time"":298},{""stimulus"":""img/1to3/4.png"",""time"":397},{""stimulus"":""img/1to3/5.png"",""time"":496},{""stimulus"":""img/1to3/6.png"",""time"":595},{""stimulus"":""img/1to3/7.png"",""time"":693},{""stimulus"":""img/1to3/8.png"",""time"":792},{""stimulus"":""img/1to3/9.png"",""time"":892},{""stimulus"":""img/1to3/10.png"",""time"":990},{""stimulus"":""img/1to3/11.png"",""time"":1090},{""stimulus"":""img/1to3/12.png"",""time"":1189}]","[]"
"image-keyboard-response","96","100386","0.0-5.0-1.46","5722c95274e7ff0011a6f011","bdp_cybrbll","Sun Mar 26 2023 21:25:19 GMT-0600 (Mountain Daylight Time)","412644","1","3","","null","","","","observe","","img/3to2/1.png","null","179","189","0.5","0.5","3","1","",""
"animation","97","101673","0.0-5.0-2.46","5722c95274e7ff0011a6f011","bdp_cybrbll","Sun Mar 26 2023 21:25:19 GMT-0600 (Mountain Daylight Time)","412644","1","3","","","","","","","","","","179","","","","3","1","[{""stimulus"":""img/3to1/1.png"",""time"":99},{""stimulus"":""img/3to1/2.png"",""time"":198},{""stimulus"":""img/3to1/3.png"",""time"":297},{""stimulus"":""img/3to1/4.png"",""time"":396},{""stimulus"":""img/3to1/5.png"",""time"":495},{""stimulus"":""img/3to1/6.png"",""time"":594},{""stimulus"":""img/3to1/7.png"",""time"":693},{""stimulus"":""img/3to1/8.png"",""time"":792},{""stimulus"":""img/3to1/9.png"",""time"":892},{""stimulus"":""img/3to1/10.png"",""time"":991},{""stimulus"":""img/3to1/11.png"",""time"":1090},{""stimulus"":""img/3to1/12.png"",""time"":1188}]","[]"
"image-keyboard-response","98","102910","0.0-5.0-1.47","5722c95274e7ff0011a6f011","bdp_cybrbll","Sun Mar 26 2023 21:25:19 GMT-0600 (Mountain Daylight Time)","412644","1","3","","null","","","","observe","","img/1to3/1.png","null","178","1236","0.5","0.5","1","3","",""
"animation","99","104197","0.0-5.0-2.47","5722c95274e7ff0011a6f011","bdp_cybrbll","Sun Mar 26 2023 21:25:19 GMT-0600 (Mountain Daylight Time)","412644","1","3","","","","","","","","","","178","","","","1","3","[{""stimulus"":""img/1to3/1.png"",""time"":100},{""stimulus"":""img/1to3/2.png"",""time"":199},{""stimulus"":""img/1to3/3.png"",""time"":298},{""stimulus"":""img/1to3/4.png"",""time"":396},{""stimulus"":""img/1to3/5.png"",""time"":496},{""stimulus"":""img/1to3/6.png"",""time"":595},{""stimulus"":""img/1to3/7.png"",""time"":694},{""stimulus"":""img/1to3/8.png"",""time"":792},{""stimulus"":""img/1to3/9.png"",""time"":891},{""stimulus"":""img/1to3/10.png"",""time"":991},{""stimulus"":""img/1to3/11.png"",""time"":1090},{""stimulus"":""img/1to3/12.png"",""time"":1189}]","[]"
"image-keyboard-response","100","104554","0.0-5.0-1.48","5722c95274e7ff0011a6f011","bdp_cybrbll","Sun Mar 26 2023 21:25:19 GMT-0600 (Mountain Daylight Time)","412644","1","3","","null","","","","observe","","img/3to2/1.png","null","177","356","0.5","0.5","3","2","",""
"animation","101","105842","0.0-5.0-2.48","5722c95274e7ff0011a6f011","bdp_cybrbll","Sun Mar 26 2023 21:25:19 GMT-0600 (Mountain Daylight Time)","412644","1","3","","","","","","","","","","177","","","","3","2","[{""stimulus"":""img/3to2/1.png"",""time"":99},{""stimulus"":""img/3to2/2.png"",""time"":198},{""stimulus"":""img/3to2/3.png"",""time"":297},{""stimulus"":""img/3to2/4.png"",""time"":396},{""stimulus"":""img/3to2/5.png"",""time"":496},{""stimulus"":""img/3to2/6.png"",""time"":595},{""stimulus"":""img/3to2/7.png"",""time"":693},{""stimulus"":""img/3to2/8.png"",""time"":792},{""stimulus"":""img/3to2/9.png"",""time"":892},{""stimulus"":""img/3to2/10.png"",""time"":990},{""stimulus"":""img/3to2/11.png"",""time"":1090},{""stimulus"":""img/3to2/12.png"",""time"":1189}]","[]"
"image-keyboard-response","102","106126","0.0-5.0-1.49","5722c95274e7ff0011a6f011","bdp_cybrbll","Sun Mar 26 2023 21:25:19 GMT-0600 (Mountain Daylight Time)","412644","1","3","","284","","","","choice","","img/2to1/1.png","1","176","1004","0.5","0.5","2","1","",""
"animation","103","107415","0.0-5.0-2.49","5722c95274e7ff0011a6f011","bdp_cybrbll","Sun Mar 26 2023 21:25:19 GMT-0600 (Mountain Daylight Time)","412644","1","3","","","","","","","","","","176","","","","2","1","[{""stimulus"":""img/2to1/1.png"",""time"":100},{""stimulus"":""img/2to1/2.png"",""time"":200},{""stimulus"":""img/2to1/3.png"",""time"":298},{""stimulus"":""img/2to1/4.png"",""time"":398},{""stimulus"":""img/2to1/5.png"",""time"":496},{""stimulus"":""img/2to1/6.png"",""time"":595},{""stimulus"":""img/2to1/7.png"",""time"":694},{""stimulus"":""img/2to1/8.png"",""time"":794},{""stimulus"":""img/2to1/9.png"",""time"":893},{""stimulus"":""img/2to1/10.png"",""time"":992},{""stimulus"":""img/2to1/11.png"",""time"":1090},{""stimulus"":""img/2to1/12.png"",""time"":1189}]","[]"
"image-keyboard-response","104","107631","0.0-5.0-1.50","5722c95274e7ff0011a6f011","bdp_cybrbll","Sun Mar 26 2023 21:25:19 GMT-0600 (Mountain Daylight Time)","412644","1","3","","null","","","","observe","","img/1to3/1.png","null","175","215","0.5","0.5","1","2","",""
"animation","105","108919","0.0-5.0-2.50","5722c95274e7ff0011a6f011","bdp_cybrbll","Sun Mar 26 2023 21:25:19 GMT-0600 (Mountain Daylight Time)","412644","1","3","","","","","","","","","","175","","","","1","2","[{""stimulus"":""img/1to2/1.png"",""time"":100},{""stimulus"":""img/1to2/2.png"",""time"":199},{""stimulus"":""img/1to2/3.png"",""time"":298},{""stimulus"":""img/1to2/4.png"",""time"":397},{""stimulus"":""img/1to2/5.png"",""time"":496},{""stimulus"":""img/1to2/6.png"",""time"":595},{""stimulus"":""img/1to2/7.png"",""time"":694},{""stimulus"":""img/1to2/8.png"",""time"":794},{""stimulus"":""img/1to2/9.png"",""time"":892},{""stimulus"":""img/1to2/10.png"",""time"":992},{""stimulus"":""img/1to2/11.png"",""time"":1090},{""stimulus"":""img/1to2/12.png"",""time"":1189}]","[]"
"image-keyboard-response","106","108928","0.0-5.0-1.51","5722c95274e7ff0011a6f011","bdp_cybrbll","Sun Mar 26 2023 21:25:19 GMT-0600 (Mountain Daylight Time)","412644","1","3","","9","","","","choice","","img/2to1/1.png","2","174","248","0.5","0.5","2","3","",""
"animation","107","110215","0.0-5.0-2.51","5722c95274e7ff0011a6f011","bdp_cybrbll","Sun Mar 26 2023 21:25:19 GMT-0600 (Mountain Daylight Time)","412644","1","3","","","","","","","","","","174","","","","2","3","[{""stimulus"":""img/2to3/1.png"",""time"":100},{""stimulus"":""img/2to3/2.png"",""time"":198},{""stimulus"":""img/2to3/3.png"",""time"":298},{""stimulus"":""img/2to3/4.png"",""time"":398},{""stimulus"":""img/2to3/5.png"",""time"":495},{""stimulus"":""img/2to3/6.png"",""time"":594},{""stimulus"":""img/2to3/7.png"",""time"":693},{""stimulus"":""img/2to3/8.png"",""time"":792},{""stimulus"":""img/2to3/9.png"",""time"":892},{""stimulus"":""img/2to3/10.png"",""time"":991},{""stimulus"":""img/2to3/11.png"",""time"":1089},{""stimulus"":""img/2to3/12.png"",""time"":1189}]","[]"
"image-keyboard-response","108","110518","0.0-5.0-1.52","5722c95274e7ff0011a6f011","bdp_cybrbll","Sun Mar 26 2023 21:25:19 GMT-0600 (Mountain Daylight Time)","412644","1","3","","null","","","","observe","","img/3to2/1.png","null","173","302","0.5","0.5","3","2","",""
"animation","109","111805","0.0-5.0-2.52","5722c95274e7ff0011a6f011","bdp_cybrbll","Sun Mar 26 2023 21:25:19 GMT-0600 (Mountain Daylight Time)","412644","1","3","","","","","","","","","","173","","","","3","2","[{""stimulus"":""img/3to2/1.png"",""time"":100},{""stimulus"":""img/3to2/2.png"",""time"":199},{""stimulus"":""img/3to2/3.png"",""time"":298},{""stimulus"":""img/3to2/4.png"",""time"":397},{""stimulus"":""img/3to2/5.png"",""time"":496},{""stimulus"":""img/3to2/6.png"",""time"":594},{""stimulus"":""img/3to2/7.png"",""time"":694},{""stimulus"":""img/3to2/8.png"",""time"":792},{""stimulus"":""img/3to2/9.png"",""time"":892},{""stimulus"":""img/3to2/10.png"",""time"":990},{""stimulus"":""img/3to2/11.png"",""time"":1090},{""stimulus"":""img/3to2/12.png"",""time"":1189}]","[]"
"image-keyboard-response","110","111833","0.0-5.0-1.53","5722c95274e7ff0011a6f011","bdp_cybrbll","Sun Mar 26 2023 21:25:19 GMT-0600 (Mountain Daylight Time)","412644","1","3","","27","","","","choice","","img/2to1/1.png","1","172","243","0.5","0.5","2","1","",""
"animation","111","113121","0.0-5.0-2.53","5722c95274e7ff0011a6f011","bdp_cybrbll","Sun Mar 26 2023 21:25:19 GMT-0600 (Mountain Daylight Time)","412644","1","3","","","","","","","","","","172","","","","2","1","[{""stimulus"":""img/2to1/1.png"",""time"":100},{""stimulus"":""img/2to1/2.png"",""time"":199},{""stimulus"":""img/2to1/3.png"",""time"":298},{""stimulus"":""img/2to1/4.png"",""time"":397},{""stimulus"":""img/2to1/5.png"",""time"":496},{""stimulus"":""img/2to1/6.png"",""time"":595},{""stimulus"":""img/2to1/7.png"",""time"":709},{""stimulus"":""img/2to1/8.png"",""time"":792},{""stimulus"":""img/2to1/9.png"",""time"":892},{""stimulus"":""img/2to1/10.png"",""time"":991},{""stimulus"":""img/2to1/11.png"",""time"":1090},{""stimulus"":""img/2to1/12.png"",""time"":1189}]","[]"
"image-keyboard-response","112","113546","0.0-5.0-1.54","5722c95274e7ff0011a6f011","bdp_cybrbll","Sun Mar 26 2023 21:25:19 GMT-0600 (Mountain Daylight Time)","412644","1","3","","null","","","","observe","","img/1to3/1.png","null","171","424","0.5","0.5","1","3","",""
"animation","113","114834","0.0-5.0-2.54","5722c95274e7ff0011a6f011","bdp_cybrbll","Sun Mar 26 2023 21:25:19 GMT-0600 (Mountain Daylight Time)","412644","1","3","","","","","","","","","","171","","","","1","3","[{""stimulus"":""img/1to3/1.png"",""time"":99},{""stimulus"":""img/1to3/2.png"",""time"":199},{""stimulus"":""img/1to3/3.png"",""time"":298},{""stimulus"":""img/1to3/4.png"",""time"":396},{""stimulus"":""img/1to3/5.png"",""time"":496},{""stimulus"":""img/1to3/6.png"",""time"":595},{""stimulus"":""img/1to3/7.png"",""time"":694},{""stimulus"":""img/1to3/8.png"",""time"":793},{""stimulus"":""img/1to3/9.png"",""time"":892},{""stimulus"":""img/1to3/10.png"",""time"":991},{""stimulus"":""img/1to3/11.png"",""time"":1090},{""stimulus"":""img/1to3/12.png"",""time"":1189}]","[]"
"image-keyboard-response","114","115223","0.0-5.0-1.55","5722c95274e7ff0011a6f011","bdp_cybrbll","Sun Mar 26 2023 21:25:19 GMT-0600 (Mountain Daylight Time)","412644","1","3","","null","","","","observe","","img/3to2/1.png","null","170","388","0.5","0.5","3","1","",""
"animation","115","116511","0.0-5.0-2.55","5722c95274e7ff0011a6f011","bdp_cybrbll","Sun Mar 26 2023 21:25:19 GMT-0600 (Mountain Daylight Time)","412644","1","3","","","","","","","","","","170","","","","3","1","[{""stimulus"":""img/3to1/1.png"",""time"":99},{""stimulus"":""img/3to1/2.png"",""time"":199},{""stimulus"":""img/3to1/3.png"",""time"":298},{""stimulus"":""img/3to1/4.png"",""time"":397},{""stimulus"":""img/3to1/5.png"",""time"":495},{""stimulus"":""img/3to1/6.png"",""time"":595},{""stimulus"":""img/3to1/7.png"",""time"":694},{""stimulus"":""img/3to1/8.png"",""time"":792},{""stimulus"":""img/3to1/9.png"",""time"":892},{""stimulus"":""img/3to1/10.png"",""time"":990},{""stimulus"":""img/3to1/11.png"",""time"":1089},{""stimulus"":""img/3to1/12.png"",""time"":1188}]","[]"
"image-keyboard-response","116","117600","0.0-5.0-1.56","5722c95274e7ff0011a6f011","bdp_cybrbll","Sun Mar 26 2023 21:25:19 GMT-0600 (Mountain Daylight Time)","412644","1","3","","null","","","","observe","","img/1to3/1.png","null","169","1088","0.5","0.5","1","3","",""
"animation","117","118887","0.0-5.0-2.56","5722c95274e7ff0011a6f011","bdp_cybrbll","Sun Mar 26 2023 21:25:19 GMT-0600 (Mountain Daylight Time)","412644","1","3","","","","","","","","","","169","","","","1","3","[{""stimulus"":""img/1to3/1.png"",""time"":100},{""stimulus"":""img/1to3/2.png"",""time"":199},{""stimulus"":""img/1to3/3.png"",""time"":298},{""stimulus"":""img/1to3/4.png"",""time"":397},{""stimulus"":""img/1to3/5.png"",""time"":496},{""stimulus"":""img/1to3/6.png"",""time"":595},{""stimulus"":""img/1to3/7.png"",""time"":694},{""stimulus"":""img/1to3/8.png"",""time"":793},{""stimulus"":""img/1to3/9.png"",""time"":892},{""stimulus"":""img/1to3/10.png"",""time"":991},{""stimulus"":""img/1to3/11.png"",""time"":1089},{""stimulus"":""img/1to3/12.png"",""time"":1188}]","[]"
"image-keyboard-response","118","119304","0.0-5.0-1.57","5722c95274e7ff0011a6f011","bdp_cybrbll","Sun Mar 26 2023 21:25:19 GMT-0600 (Mountain Daylight Time)","412644","1","3","","null","","","","observe","","img/3to2/1.png","null","168","415","0.5","0.5","3","2","",""
"animation","119","120591","0.0-5.0-2.57","5722c95274e7ff0011a6f011","bdp_cybrbll","Sun Mar 26 2023 21:25:19 GMT-0600 (Mountain Daylight Time)","412644","1","3","","","","","","","","","","168","","","","3","2","[{""stimulus"":""img/3to2/1.png"",""time"":99},{""stimulus"":""img/3to2/2.png"",""time"":199},{""stimulus"":""img/3to2/3.png"",""time"":297},{""stimulus"":""img/3to2/4.png"",""time"":397},{""stimulus"":""img/3to2/5.png"",""time"":496},{""stimulus"":""img/3to2/6.png"",""time"":594},{""stimulus"":""img/3to2/7.png"",""time"":694},{""stimulus"":""img/3to2/8.png"",""time"":793},{""stimulus"":""img/3to2/9.png"",""time"":892},{""stimulus"":""img/3to2/10.png"",""time"":990},{""stimulus"":""img/3to2/11.png"",""time"":1089},{""stimulus"":""img/3to2/12.png"",""time"":1189}]","[]"
"image-keyboard-response","120","120592","0.0-5.0-1.58","5722c95274e7ff0011a6f011","bdp_cybrbll","Sun Mar 26 2023 21:25:19 GMT-0600 (Mountain Daylight Time)","412644","1","3","","0","","","","choice","","img/2to1/1.png","1","167","282","0.5","0.5","2","1","",""
"animation","121","121880","0.0-5.0-2.58","5722c95274e7ff0011a6f011","bdp_cybrbll","Sun Mar 26 2023 21:25:19 GMT-0600 (Mountain Daylight Time)","412644","1","3","","","","","","","","","","167","","","","2","1","[{""stimulus"":""img/2to1/1.png"",""time"":100},{""stimulus"":""img/2to1/2.png"",""time"":200},{""stimulus"":""img/2to1/3.png"",""time"":298},{""stimulus"":""img/2to1/4.png"",""time"":397},{""stimulus"":""img/2to1/5.png"",""time"":496},{""stimulus"":""img/2to1/6.png"",""time"":596},{""stimulus"":""img/2to1/7.png"",""time"":694},{""stimulus"":""img/2to1/8.png"",""time"":793},{""stimulus"":""img/2to1/9.png"",""time"":893},{""stimulus"":""img/2to1/10.png"",""time"":991},{""stimulus"":""img/2to1/11.png"",""time"":1090},{""stimulus"":""img/2to1/12.png"",""time"":1189}]","[]"
"image-keyboard-response","122","122169","0.0-5.0-1.59","5722c95274e7ff0011a6f011","bdp_cybrbll","Sun Mar 26 2023 21:25:19 GMT-0600 (Mountain Daylight Time)","412644","1","3","","null","","","","observe","","img/1to3/1.png","null","166","287","0.5","0.5","1","2","",""
"animation","123","123457","0.0-5.0-2.59","5722c95274e7ff0011a6f011","bdp_cybrbll","Sun Mar 26 2023 21:25:19 GMT-0600 (Mountain Daylight Time)","412644","1","3","","","","","","","","","","166","","","","1","2","[{""stimulus"":""img/1to2/1.png"",""time"":101},{""stimulus"":""img/1to2/2.png"",""time"":198},{""stimulus"":""img/1to2/3.png"",""time"":298},{""stimulus"":""img/1to2/4.png"",""time"":397},{""stimulus"":""img/1to2/5.png"",""time"":496},{""stimulus"":""img/1to2/6.png"",""time"":594},{""stimulus"":""img/1to2/7.png"",""time"":694},{""stimulus"":""img/1to2/8.png"",""time"":793},{""stimulus"":""img/1to2/9.png"",""time"":892},{""stimulus"":""img/1to2/10.png"",""time"":991},{""stimulus"":""img/1to2/11.png"",""time"":1089},{""stimulus"":""img/1to2/12.png"",""time"":1189}]","[]"
"image-keyboard-response","124","123601","0.0-5.0-1.60","5722c95274e7ff0011a6f011","bdp_cybrbll","Sun Mar 26 2023 21:25:19 GMT-0600 (Mountain Daylight Time)","412644","1","3","","144","","","","choice","","img/2to1/1.png","2","165","394","0.5","0.5","2","3","",""
"animation","125","124889","0.0-5.0-2.60","5722c95274e7ff0011a6f011","bdp_cybrbll","Sun Mar 26 2023 21:25:19 GMT-0600 (Mountain Daylight Time)","412644","1","3","","","","","","","","","","165","","","","2","3","[{""stimulus"":""img/2to3/1.png"",""time"":100},{""stimulus"":""img/2to3/2.png"",""time"":199},{""stimulus"":""img/2to3/3.png"",""time"":298},{""stimulus"":""img/2to3/4.png"",""time"":397},{""stimulus"":""img/2to3/5.png"",""time"":495},{""stimulus"":""img/2to3/6.png"",""time"":595},{""stimulus"":""img/2to3/7.png"",""time"":693},{""stimulus"":""img/2to3/8.png"",""time"":793},{""stimulus"":""img/2to3/9.png"",""time"":892},{""stimulus"":""img/2to3/10.png"",""time"":991},{""stimulus"":""img/2to3/11.png"",""time"":1090},{""stimulus"":""img/2to3/12.png"",""time"":1188}]","[]"
"image-keyboard-response","126","125322","0.0-5.0-1.61","5722c95274e7ff0011a6f011","bdp_cybrbll","Sun Mar 26 2023 21:25:19 GMT-0600 (Mountain Daylight Time)","412644","1","3","","null","","","","observe","","img/3to2/1.png","null","164","433","0.5","0.5","3","1","",""
"animation","127","126610","0.0-5.0-2.61","5722c95274e7ff0011a6f011","bdp_cybrbll","Sun Mar 26 2023 21:25:19 GMT-0600 (Mountain Daylight Time)","412644","1","3","","","","","","","","","","164","","","","3","1","[{""stimulus"":""img/3to1/1.png"",""time"":100},{""stimulus"":""img/3to1/2.png"",""time"":199},{""stimulus"":""img/3to1/3.png"",""time"":299},{""stimulus"":""img/3to1/4.png"",""time"":397},{""stimulus"":""img/3to1/5.png"",""time"":496},{""stimulus"":""img/3to1/6.png"",""time"":595},{""stimulus"":""img/3to1/7.png"",""time"":694},{""stimulus"":""img/3to1/8.png"",""time"":794},{""stimulus"":""img/3to1/9.png"",""time"":892},{""stimulus"":""img/3to1/10.png"",""time"":991},{""stimulus"":""img/3to1/11.png"",""time"":1091},{""stimulus"":""img/3to1/12.png"",""time"":1190}]","[]"
"image-keyboard-response","128","127231","0.0-5.0-1.62","5722c95274e7ff0011a6f011","bdp_cybrbll","Sun Mar 26 2023 21:25:19 GMT-0600 (Mountain Daylight Time)","412644","1","3","","null","","","","observe","","img/1to3/1.png","null","163","620","0.5","0.5","1","3","",""
"animation","129","128519","0.0-5.0-2.62","5722c95274e7ff0011a6f011","bdp_cybrbll","Sun Mar 26 2023 21:25:19 GMT-0600 (Mountain Daylight Time)","412644","1","3","","","","","","","","","","163","","","","1","3","[{""stimulus"":""img/1to3/1.png"",""time"":99},{""stimulus"":""img/1to3/2.png"",""time"":198},{""stimulus"":""img/1to3/3.png"",""time"":298},{""stimulus"":""img/1to3/4.png"",""time"":397},{""stimulus"":""img/1to3/5.png"",""time"":495},{""stimulus"":""img/1to3/6.png"",""time"":595},{""stimulus"":""img/1to3/7.png"",""time"":693},{""stimulus"":""img/1to3/8.png"",""time"":792},{""stimulus"":""img/1to3/9.png"",""time"":891},{""stimulus"":""img/1to3/10.png"",""time"":991},{""stimulus"":""img/1to3/11.png"",""time"":1089},{""stimulus"":""img/1to3/12.png"",""time"":1188}]","[]"
"image-keyboard-response","130","128823","0.0-5.0-1.63","5722c95274e7ff0011a6f011","bdp_cybrbll","Sun Mar 26 2023 21:25:19 GMT-0600 (Mountain Daylight Time)","412644","1","3","","null","","","","observe","","img/3to2/1.png","null","162","303","0.5","0.5","3","2","",""
"animation","131","130111","0.0-5.0-2.63","5722c95274e7ff0011a6f011","bdp_cybrbll","Sun Mar 26 2023 21:25:19 GMT-0600 (Mountain Daylight Time)","412644","1","3","","","","","","","","","","162","","","","3","2","[{""stimulus"":""img/3to2/1.png"",""time"":100},{""stimulus"":""img/3to2/2.png"",""time"":199},{""stimulus"":""img/3to2/3.png"",""time"":298},{""stimulus"":""img/3to2/4.png"",""time"":396},{""stimulus"":""img/3to2/5.png"",""time"":496},{""stimulus"":""img/3to2/6.png"",""time"":595},{""stimulus"":""img/3to2/7.png"",""time"":694},{""stimulus"":""img/3to2/8.png"",""time"":793},{""stimulus"":""img/3to2/9.png"",""time"":892},{""stimulus"":""img/3to2/10.png"",""time"":991},{""stimulus"":""img/3to2/11.png"",""time"":1091},{""stimulus"":""img/3to2/12.png"",""time"":1189}]","[]"
"image-keyboard-response","132","130155","0.0-5.0-1.64","5722c95274e7ff0011a6f011","bdp_cybrbll","Sun Mar 26 2023 21:25:19 GMT-0600 (Mountain Daylight Time)","412644","1","3","","44","","","","choice","","img/2to1/1.png","1","161","292","0.5","0.5","2","1","",""
"animation","133","131443","0.0-5.0-2.64","5722c95274e7ff0011a6f011","bdp_cybrbll","Sun Mar 26 2023 21:25:19 GMT-0600 (Mountain Daylight Time)","412644","1","3","","","","","","","","","","161","","","","2","1","[{""stimulus"":""img/2to1/1.png"",""time"":100},{""stimulus"":""img/2to1/2.png"",""time"":199},{""stimulus"":""img/2to1/3.png"",""time"":298},{""stimulus"":""img/2to1/4.png"",""time"":397},{""stimulus"":""img/2to1/5.png"",""time"":496},{""stimulus"":""img/2to1/6.png"",""time"":595},{""stimulus"":""img/2to1/7.png"",""time"":694},{""stimulus"":""img/2to1/8.png"",""time"":793},{""stimulus"":""img/2to1/9.png"",""time"":892},{""stimulus"":""img/2to1/10.png"",""time"":991},{""stimulus"":""img/2to1/11.png"",""time"":1090},{""stimulus"":""img/2to1/12.png"",""time"":1189}]","[]"
"image-keyboard-response","134","131950","0.0-5.0-1.65","5722c95274e7ff0011a6f011","bdp_cybrbll","Sun Mar 26 2023 21:25:19 GMT-0600 (Mountain Daylight Time)","412644","1","3","","null","","","","observe","","img/1to3/1.png","null","160","506","0.5","0.5","1","3","",""
"animation","135","133238","0.0-5.0-2.65","5722c95274e7ff0011a6f011","bdp_cybrbll","Sun Mar 26 2023 21:25:19 GMT-0600 (Mountain Daylight Time)","412644","1","3","","","","","","","","","","160","","","","1","3","[{""stimulus"":""img/1to3/1.png"",""time"":101},{""stimulus"":""img/1to3/2.png"",""time"":199},{""stimulus"":""img/1to3/3.png"",""time"":298},{""stimulus"":""img/1to3/4.png"",""time"":397},{""stimulus"":""img/1to3/5.png"",""time"":496},{""stimulus"":""img/1to3/6.png"",""time"":594},{""stimulus"":""img/1to3/7.png"",""time"":694},{""stimulus"":""img/1to3/8.png"",""time"":793},{""stimulus"":""img/1to3/9.png"",""time"":892},{""stimulus"":""img/1to3/10.png"",""time"":990},{""stimulus"":""img/1to3/11.png"",""time"":1090},{""stimulus"":""img/1to3/12.png"",""time"":1188}]","[]"
"image-keyboard-response","136","134562","0.0-5.0-1.66","5722c95274e7ff0011a6f011","bdp_cybrbll","Sun Mar 26 2023 21:25:19 GMT-0600 (Mountain Daylight Time)","412644","1","3","","null","","","","observe","","img/3to2/1.png","null","159","1324","0.5","0.5","3","1","",""
"animation","137","135850","0.0-5.0-2.66","5722c95274e7ff0011a6f011","bdp_cybrbll","Sun Mar 26 2023 21:25:19 GMT-0600 (Mountain Daylight Time)","412644","1","3","","","","","","","","","","159","","","","3","1","[{""stimulus"":""img/3to1/1.png"",""time"":99},{""stimulus"":""img/3to1/2.png"",""time"":199},{""stimulus"":""img/3to1/3.png"",""time"":298},{""stimulus"":""img/3to1/4.png"",""time"":397},{""stimulus"":""img/3to1/5.png"",""time"":496},{""stimulus"":""img/3to1/6.png"",""time"":594},{""stimulus"":""img/3to1/7.png"",""time"":693},{""stimulus"":""img/3to1/8.png"",""time"":793},{""stimulus"":""img/3to1/9.png"",""time"":892},{""stimulus"":""img/3to1/10.png"",""time"":990},{""stimulus"":""img/3to1/11.png"",""time"":1089},{""stimulus"":""img/3to1/12.png"",""time"":1189}]","[]"
"image-keyboard-response","138","136134","0.0-5.0-1.67","5722c95274e7ff0011a6f011","bdp_cybrbll","Sun Mar 26 2023 21:25:19 GMT-0600 (Mountain Daylight Time)","412644","1","3","","null","","","","observe","","img/1to3/1.png","null","158","283","0.5","0.5","1","3","",""
"animation","139","137422","0.0-5.0-2.67","5722c95274e7ff0011a6f011","bdp_cybrbll","Sun Mar 26 2023 21:25:19 GMT-0600 (Mountain Daylight Time)","412644","1","3","","","","","","","","","","158","","","","1","3","[{""stimulus"":""img/1to3/1.png"",""time"":100},{""stimulus"":""img/1to3/2.png"",""time"":199},{""stimulus"":""img/1to3/3.png"",""time"":297},{""stimulus"":""img/1to3/4.png"",""time"":396},{""stimulus"":""img/1to3/5.png"",""time"":496},{""stimulus"":""img/1to3/6.png"",""time"":594},{""stimulus"":""img/1to3/7.png"",""time"":694},{""stimulus"":""img/1to3/8.png"",""time"":792},{""stimulus"":""img/1to3/9.png"",""time"":892},{""stimulus"":""img/1to3/10.png"",""time"":1003},{""stimulus"":""img/1to3/11.png"",""time"":1089},{""stimulus"":""img/1to3/12.png"",""time"":1188}]","[]"
"image-keyboard-response","140","137855","0.0-5.0-1.68","5722c95274e7ff0011a6f011","bdp_cybrbll","Sun Mar 26 2023 21:25:19 GMT-0600 (Mountain Daylight Time)","412644","1","3","","null","","","","observe","","img/3to2/1.png","null","157","431","0.5","0.5","3","1","",""
"animation","141","139142","0.0-5.0-2.68","5722c95274e7ff0011a6f011","bdp_cybrbll","Sun Mar 26 2023 21:25:19 GMT-0600 (Mountain Daylight Time)","412644","1","3","","","","","","","","","","157","","","","3","1","[{""stimulus"":""img/3to1/1.png"",""time"":100},{""stimulus"":""img/3to1/2.png"",""time"":198},{""stimulus"":""img/3to1/3.png"",""time"":298},{""stimulus"":""img/3to1/4.png"",""time"":397},{""stimulus"":""img/3to1/5.png"",""time"":496},{""stimulus"":""img/3to1/6.png"",""time"":595},{""stimulus"":""img/3to1/7.png"",""time"":693},{""stimulus"":""img/3to1/8.png"",""time"":793},{""stimulus"":""img/3to1/9.png"",""time"":891},{""stimulus"":""img/3to1/10.png"",""time"":990},{""stimulus"":""img/3to1/11.png"",""time"":1090},{""stimulus"":""img/3to1/12.png"",""time"":1189}]","[]"
"image-keyboard-response","142","140054","0.0-5.0-1.69","5722c95274e7ff0011a6f011","bdp_cybrbll","Sun Mar 26 2023 21:25:19 GMT-0600 (Mountain Daylight Time)","412644","1","3","","null","","","","observe","","img/1to3/1.png","null","156","911","0.5","0.5","1","3","",""
"animation","143","141342","0.0-5.0-2.69","5722c95274e7ff0011a6f011","bdp_cybrbll","Sun Mar 26 2023 21:25:19 GMT-0600 (Mountain Daylight Time)","412644","1","3","","","","","","","","","","156","","","","1","3","[{""stimulus"":""img/1to3/1.png"",""time"":100},{""stimulus"":""img/1to3/2.png"",""time"":199},{""stimulus"":""img/1to3/3.png"",""time"":297},{""stimulus"":""img/1to3/4.png"",""time"":396},{""stimulus"":""img/1to3/5.png"",""time"":496},{""stimulus"":""img/1to3/6.png"",""time"":594},{""stimulus"":""img/1to3/7.png"",""time"":693},{""stimulus"":""img/1to3/8.png"",""time"":793},{""stimulus"":""img/1to3/9.png"",""time"":891},{""stimulus"":""img/1to3/10.png"",""time"":991},{""stimulus"":""img/1to3/11.png"",""time"":1090},{""stimulus"":""img/1to3/12.png"",""time"":1189}]","[]"
"image-keyboard-response","144","141545","0.0-5.0-1.70","5722c95274e7ff0011a6f011","bdp_cybrbll","Sun Mar 26 2023 21:25:19 GMT-0600 (Mountain Daylight Time)","412644","1","3","","null","","","","observe","","img/3to2/1.png","null","155","203","0.5","0.5","3","1","",""
"animation","145","142834","0.0-5.0-2.70","5722c95274e7ff0011a6f011","bdp_cybrbll","Sun Mar 26 2023 21:25:19 GMT-0600 (Mountain Daylight Time)","412644","1","3","","","","","","","","","","155","","","","3","1","[{""stimulus"":""img/3to1/1.png"",""time"":100},{""stimulus"":""img/3to1/2.png"",""time"":198},{""stimulus"":""img/3to1/3.png"",""time"":297},{""stimulus"":""img/3to1/4.png"",""time"":396},{""stimulus"":""img/3to1/5.png"",""time"":495},{""stimulus"":""img/3to1/6.png"",""time"":595},{""stimulus"":""img/3to1/7.png"",""time"":693},{""stimulus"":""img/3to1/8.png"",""time"":793},{""stimulus"":""img/3to1/9.png"",""time"":891},{""stimulus"":""img/3to1/10.png"",""time"":991},{""stimulus"":""img/3to1/11.png"",""time"":1090},{""stimulus"":""img/3to1/12.png"",""time"":1188}]","[]"
"image-keyboard-response","146","143429","0.0-5.0-1.71","5722c95274e7ff0011a6f011","bdp_cybrbll","Sun Mar 26 2023 21:25:19 GMT-0600 (Mountain Daylight Time)","412644","1","3","","null","","","","observe","","img/1to3/1.png","null","154","594","0.5","0.5","1","2","",""
"animation","147","144716","0.0-5.0-2.71","5722c95274e7ff0011a6f011","bdp_cybrbll","Sun Mar 26 2023 21:25:19 GMT-0600 (Mountain Daylight Time)","412644","1","3","","","","","","","","","","154","","","","1","2","[{""stimulus"":""img/1to2/1.png"",""time"":100},{""stimulus"":""img/1to2/2.png"",""time"":199},{""stimulus"":""img/1to2/3.png"",""time"":298},{""stimulus"":""img/1to2/4.png"",""time"":397},{""stimulus"":""img/1to2/5.png"",""time"":495},{""stimulus"":""img/1to2/6.png"",""time"":595},{""stimulus"":""img/1to2/7.png"",""time"":694},{""stimulus"":""img/1to2/8.png"",""time"":793},{""stimulus"":""img/1to2/9.png"",""time"":891},{""stimulus"":""img/1to2/10.png"",""time"":990},{""stimulus"":""img/1to2/11.png"",""time"":1090},{""stimulus"":""img/1to2/12.png"",""time"":1189}]","[]"
"image-keyboard-response","148","144831","0.0-5.0-1.72","5722c95274e7ff0011a6f011","bdp_cybrbll","Sun Mar 26 2023 21:25:19 GMT-0600 (Mountain Daylight Time)","412644","1","3","","114","","","","choice","","img/2to1/1.png","2","153","800","0.5","0.5","2","3","",""
"animation","149","146119","0.0-5.0-2.72","5722c95274e7ff0011a6f011","bdp_cybrbll","Sun Mar 26 2023 21:25:19 GMT-0600 (Mountain Daylight Time)","412644","1","3","","","","","","","","","","153","","","","2","3","[{""stimulus"":""img/2to3/1.png"",""time"":100},{""stimulus"":""img/2to3/2.png"",""time"":198},{""stimulus"":""img/2to3/3.png"",""time"":297},{""stimulus"":""img/2to3/4.png"",""time"":396},{""stimulus"":""img/2to3/5.png"",""time"":495},{""stimulus"":""img/2to3/6.png"",""time"":594},{""stimulus"":""img/2to3/7.png"",""time"":693},{""stimulus"":""img/2to3/8.png"",""time"":792},{""stimulus"":""img/2to3/9.png"",""time"":891},{""stimulus"":""img/2to3/10.png"",""time"":990},{""stimulus"":""img/2to3/11.png"",""time"":1089},{""stimulus"":""img/2to3/12.png"",""time"":1188}]","[]"
"image-keyboard-response","150","146609","0.0-5.0-1.73","5722c95274e7ff0011a6f011","bdp_cybrbll","Sun Mar 26 2023 21:25:19 GMT-0600 (Mountain Daylight Time)","412644","1","3","","null","","","","observe","","img/3to2/1.png","null","152","489","0.5","0.5","3","1","",""
"animation","151","147897","0.0-5.0-2.73","5722c95274e7ff0011a6f011","bdp_cybrbll","Sun Mar 26 2023 21:25:19 GMT-0600 (Mountain Daylight Time)","412644","1","3","","","","","","","","","","152","","","","3","1","[{""stimulus"":""img/3to1/1.png"",""time"":100},{""stimulus"":""img/3to1/2.png"",""time"":199},{""stimulus"":""img/3to1/3.png"",""time"":298},{""stimulus"":""img/3to1/4.png"",""time"":397},{""stimulus"":""img/3to1/5.png"",""time"":496},{""stimulus"":""img/3to1/6.png"",""time"":595},{""stimulus"":""img/3to1/7.png"",""time"":694},{""stimulus"":""img/3to1/8.png"",""time"":793},{""stimulus"":""img/3to1/9.png"",""time"":892},{""stimulus"":""img/3to1/10.png"",""time"":991},{""stimulus"":""img/3to1/11.png"",""time"":1090},{""stimulus"":""img/3to1/12.png"",""time"":1189}]","[]"
"image-keyboard-response","152","148354","0.0-5.0-1.74","5722c95274e7ff0011a6f011","bdp_cybrbll","Sun Mar 26 2023 21:25:19 GMT-0600 (Mountain Daylight Time)","412644","1","3","","null","","","","observe","","img/1to3/1.png","null","151","456","0.5","0.5","1","2","",""
"animation","153","149642","0.0-5.0-2.74","5722c95274e7ff0011a6f011","bdp_cybrbll","Sun Mar 26 2023 21:25:19 GMT-0600 (Mountain Daylight Time)","412644","1","3","","","","","","","","","","151","","","","1","2","[{""stimulus"":""img/1to2/1.png"",""time"":101},{""stimulus"":""img/1to2/2.png"",""time"":199},{""stimulus"":""img/1to2/3.png"",""time"":298},{""stimulus"":""img/1to2/4.png"",""time"":397},{""stimulus"":""img/1to2/5.png"",""time"":496},{""stimulus"":""img/1to2/6.png"",""time"":596},{""stimulus"":""img/1to2/7.png"",""time"":694},{""stimulus"":""img/1to2/8.png"",""time"":793},{""stimulus"":""img/1to2/9.png"",""time"":892},{""stimulus"":""img/1to2/10.png"",""time"":991},{""stimulus"":""img/1to2/11.png"",""time"":1090},{""stimulus"":""img/1to2/12.png"",""time"":1189}]","[]"
"image-keyboard-response","154","149758","0.0-5.0-1.75","5722c95274e7ff0011a6f011","bdp_cybrbll","Sun Mar 26 2023 21:25:19 GMT-0600 (Mountain Daylight Time)","412644","1","3","","116","","","","choice","","img/2to1/1.png","2","150","1062","0.5","0.5","2","3","",""
"animation","155","151046","0.0-5.0-2.75","5722c95274e7ff0011a6f011","bdp_cybrbll","Sun Mar 26 2023 21:25:19 GMT-0600 (Mountain Daylight Time)","412644","1","3","","","","","","","","","","150","","","","2","3","[{""stimulus"":""img/2to3/1.png"",""time"":100},{""stimulus"":""img/2to3/2.png"",""time"":199},{""stimulus"":""img/2to3/3.png"",""time"":299},{""stimulus"":""img/2to3/4.png"",""time"":398},{""stimulus"":""img/2to3/5.png"",""time"":496},{""stimulus"":""img/2to3/6.png"",""time"":595},{""stimulus"":""img/2to3/7.png"",""time"":694},{""stimulus"":""img/2to3/8.png"",""time"":793},{""stimulus"":""img/2to3/9.png"",""time"":892},{""stimulus"":""img/2to3/10.png"",""time"":991},{""stimulus"":""img/2to3/11.png"",""time"":1090},{""stimulus"":""img/2to3/12.png"",""time"":1189}]","[]"
"image-keyboard-response","156","151347","0.0-5.0-1.76","5722c95274e7ff0011a6f011","bdp_cybrbll","Sun Mar 26 2023 21:25:19 GMT-0600 (Mountain Daylight Time)","412644","1","3","","null","","","","observe","","img/3to2/1.png","null","149","300","0.5","0.1","3","1","",""
"animation","157","152635","0.0-5.0-2.76","5722c95274e7ff0011a6f011","bdp_cybrbll","Sun Mar 26 2023 21:25:19 GMT-0600 (Mountain Daylight Time)","412644","1","3","","","","","","","","","","149","","","","3","1","[{""stimulus"":""img/3to1/1.png"",""time"":101},{""stimulus"":""img/3to1/2.png"",""time"":199},{""stimulus"":""img/3to1/3.png"",""time"":298},{""stimulus"":""img/3to1/4.png"",""time"":398},{""stimulus"":""img/3to1/5.png"",""time"":496},{""stimulus"":""img/3to1/6.png"",""time"":596},{""stimulus"":""img/3to1/7.png"",""time"":694},{""stimulus"":""img/3to1/8.png"",""time"":793},{""stimulus"":""img/3to1/9.png"",""time"":893},{""stimulus"":""img/3to1/10.png"",""time"":991},{""stimulus"":""img/3to1/11.png"",""time"":1091},{""stimulus"":""img/3to1/12.png"",""time"":1189}]","[]"
"image-keyboard-response","158","153682","0.0-5.0-1.77","5722c95274e7ff0011a6f011","bdp_cybrbll","Sun Mar 26 2023 21:25:19 GMT-0600 (Mountain Daylight Time)","412644","1","3","","null","","","","observe","","img/1to3/1.png","null","148","1046","0.5","0.1","1","3","",""
"animation","159","154970","0.0-5.0-2.77","5722c95274e7ff0011a6f011","bdp_cybrbll","Sun Mar 26 2023 21:25:19 GMT-0600 (Mountain Daylight Time)","412644","1","3","","","","","","","","","","148","","","","1","3","[{""stimulus"":""img/1to3/1.png"",""time"":100},{""stimulus"":""img/1to3/2.png"",""time"":200},{""stimulus"":""img/1to3/3.png"",""time"":298},{""stimulus"":""img/1to3/4.png"",""time"":398},{""stimulus"":""img/1to3/5.png"",""time"":496},{""stimulus"":""img/1to3/6.png"",""time"":595},{""stimulus"":""img/1to3/7.png"",""time"":694},{""stimulus"":""img/1to3/8.png"",""time"":794},{""stimulus"":""img/1to3/9.png"",""time"":892},{""stimulus"":""img/1to3/10.png"",""time"":991},{""stimulus"":""img/1to3/11.png"",""time"":1090},{""stimulus"":""img/1to3/12.png"",""time"":1189}]","[]"
"image-keyboard-response","160","156210","0.0-5.0-1.78","5722c95274e7ff0011a6f011","bdp_cybrbll","Sun Mar 26 2023 21:25:19 GMT-0600 (Mountain Daylight Time)","412644","1","3","","null","","","","observe","","img/3to2/1.png","null","147","1239","0.5","0.1","3","1","",""
"animation","161","157498","0.0-5.0-2.78","5722c95274e7ff0011a6f011","bdp_cybrbll","Sun Mar 26 2023 21:25:19 GMT-0600 (Mountain Daylight Time)","412644","1","3","","","","","","","","","","147","","","","3","1","[{""stimulus"":""img/3to1/1.png"",""time"":100},{""stimulus"":""img/3to1/2.png"",""time"":199},{""stimulus"":""img/3to1/3.png"",""time"":298},{""stimulus"":""img/3to1/4.png"",""time"":397},{""stimulus"":""img/3to1/5.png"",""time"":496},{""stimulus"":""img/3to1/6.png"",""time"":595},{""stimulus"":""img/3to1/7.png"",""time"":694},{""stimulus"":""img/3to1/8.png"",""time"":793},{""stimulus"":""img/3to1/9.png"",""time"":892},{""stimulus"":""img/3to1/10.png"",""time"":990},{""stimulus"":""img/3to1/11.png"",""time"":1090},{""stimulus"":""img/3to1/12.png"",""time"":1189}]","[]"
"image-keyboard-response","162","157749","0.0-5.0-1.79","5722c95274e7ff0011a6f011","bdp_cybrbll","Sun Mar 26 2023 21:25:19 GMT-0600 (Mountain Daylight Time)","412644","1","3","","null","","","","observe","","img/1to3/1.png","null","146","250","0.5","0.1","1","2","",""
"animation","163","159036","0.0-5.0-2.79","5722c95274e7ff0011a6f011","bdp_cybrbll","Sun Mar 26 2023 21:25:19 GMT-0600 (Mountain Daylight Time)","412644","1","3","","","","","","","","","","146","","","","1","2","[{""stimulus"":""img/1to2/1.png"",""time"":99},{""stimulus"":""img/1to2/2.png"",""time"":199},{""stimulus"":""img/1to2/3.png"",""time"":298},{""stimulus"":""img/1to2/4.png"",""time"":397},{""stimulus"":""img/1to2/5.png"",""time"":496},{""stimulus"":""img/1to2/6.png"",""time"":595},{""stimulus"":""img/1to2/7.png"",""time"":694},{""stimulus"":""img/1to2/8.png"",""time"":793},{""stimulus"":""img/1to2/9.png"",""time"":892},{""stimulus"":""img/1to2/10.png"",""time"":991},{""stimulus"":""img/1to2/11.png"",""time"":1090},{""stimulus"":""img/1to2/12.png"",""time"":1189}]","[]"
"image-keyboard-response","164","159166","0.0-5.0-1.80","5722c95274e7ff0011a6f011","bdp_cybrbll","Sun Mar 26 2023 21:25:19 GMT-0600 (Mountain Daylight Time)","412644","1","3","","129","","","","choice","","img/2to1/1.png","2","145","1094","0.5","0.1","2","3","",""
"animation","165","160454","0.0-5.0-2.80","5722c95274e7ff0011a6f011","bdp_cybrbll","Sun Mar 26 2023 21:25:19 GMT-0600 (Mountain Daylight Time)","412644","1","3","","","","","","","","","","145","","","","2","3","[{""stimulus"":""img/2to3/1.png"",""time"":100},{""stimulus"":""img/2to3/2.png"",""time"":199},{""stimulus"":""img/2to3/3.png"",""time"":302},{""stimulus"":""img/2to3/4.png"",""time"":397},{""stimulus"":""img/2to3/5.png"",""time"":495},{""stimulus"":""img/2to3/6.png"",""time"":595},{""stimulus"":""img/2to3/7.png"",""time"":694},{""stimulus"":""img/2to3/8.png"",""time"":793},{""stimulus"":""img/2to3/9.png"",""time"":892},{""stimulus"":""img/2to3/10.png"",""time"":991},{""stimulus"":""img/2to3/11.png"",""time"":1090},{""stimulus"":""img/2to3/12.png"",""time"":1189}]","[]"
"image-keyboard-response","166","162022","0.0-5.0-1.81","5722c95274e7ff0011a6f011","bdp_cybrbll","Sun Mar 26 2023 21:25:19 GMT-0600 (Mountain Daylight Time)","412644","1","3","","null","","","","observe","","img/3to2/1.png","null","144","1567","0.5","0.1","3","1","",""
"animation","167","163310","0.0-5.0-2.81","5722c95274e7ff0011a6f011","bdp_cybrbll","Sun Mar 26 2023 21:25:19 GMT-0600 (Mountain Daylight Time)","412644","1","3","","","","","","","","","","144","","","","3","1","[{""stimulus"":""img/3to1/1.png"",""time"":100},{""stimulus"":""img/3to1/2.png"",""time"":198},{""stimulus"":""img/3to1/3.png"",""time"":297},{""stimulus"":""img/3to1/4.png"",""time"":397},{""stimulus"":""img/3to1/5.png"",""time"":495},{""stimulus"":""img/3to1/6.png"",""time"":594},{""stimulus"":""img/3to1/7.png"",""time"":694},{""stimulus"":""img/3to1/8.png"",""time"":792},{""stimulus"":""img/3to1/9.png"",""time"":892},{""stimulus"":""img/3to1/10.png"",""time"":990},{""stimulus"":""img/3to1/11.png"",""time"":1090},{""stimulus"":""img/3to1/12.png"",""time"":1188}]","[]"
"image-keyboard-response","168","163541","0.0-5.0-1.82","5722c95274e7ff0011a6f011","bdp_cybrbll","Sun Mar 26 2023 21:25:19 GMT-0600 (Mountain Daylight Time)","412644","1","3","","null","","","","observe","","img/1to3/1.png","null","143","230","0.5","0.1","1","3","",""
"animation","169","164829","0.0-5.0-2.82","5722c95274e7ff0011a6f011","bdp_cybrbll","Sun Mar 26 2023 21:25:19 GMT-0600 (Mountain Daylight Time)","412644","1","3","","","","","","","","","","143","","","","1","3","[{""stimulus"":""img/1to3/1.png"",""time"":100},{""stimulus"":""img/1to3/2.png"",""time"":199},{""stimulus"":""img/1to3/3.png"",""time"":299},{""stimulus"":""img/1to3/4.png"",""time"":397},{""stimulus"":""img/1to3/5.png"",""time"":496},{""stimulus"":""img/1to3/6.png"",""time"":595},{""stimulus"":""img/1to3/7.png"",""time"":695},{""stimulus"":""img/1to3/8.png"",""time"":794},{""stimulus"":""img/1to3/9.png"",""time"":892},{""stimulus"":""img/1to3/10.png"",""time"":991},{""stimulus"":""img/1to3/11.png"",""time"":1090},{""stimulus"":""img/1to3/12.png"",""time"":1189}]","[]"
"image-keyboard-response","170","165535","0.0-5.0-1.83","5722c95274e7ff0011a6f011","bdp_cybrbll","Sun Mar 26 2023 21:25:19 GMT-0600 (Mountain Daylight Time)","412644","1","3","","null","","","","observe","","img/3to2/1.png","null","142","706","0.5","0.1","3","1","",""
"animation","171","166823","0.0-5.0-2.83","5722c95274e7ff0011a6f011","bdp_cybrbll","Sun Mar 26 2023 21:25:19 GMT-0600 (Mountain Daylight Time)","412644","1","3","","","","","","","","","","142","","","","3","1","[{""stimulus"":""img/3to1/1.png"",""time"":100},{""stimulus"":""img/3to1/2.png"",""time"":199},{""stimulus"":""img/3to1/3.png"",""time"":298},{""stimulus"":""img/3to1/4.png"",""time"":398},{""stimulus"":""img/3to1/5.png"",""time"":496},{""stimulus"":""img/3to1/6.png"",""time"":595},{""stimulus"":""img/3to1/7.png"",""time"":694},{""stimulus"":""img/3to1/8.png"",""time"":793},{""stimulus"":""img/3to1/9.png"",""time"":892},{""stimulus"":""img/3to1/10.png"",""time"":991},{""stimulus"":""img/3to1/11.png"",""time"":1090},{""stimulus"":""img/3to1/12.png"",""time"":1189}]","[]"
"image-keyboard-response","172","167036","0.0-5.0-1.84","5722c95274e7ff0011a6f011","bdp_cybrbll","Sun Mar 26 2023 21:25:19 GMT-0600 (Mountain Daylight Time)","412644","1","3","","null","","","","observe","","img/1to3/1.png","null","141","212","0.5","0.1","1","2","",""
"animation","173","168323","0.0-5.0-2.84","5722c95274e7ff0011a6f011","bdp_cybrbll","Sun Mar 26 2023 21:25:19 GMT-0600 (Mountain Daylight Time)","412644","1","3","","","","","","","","","","141","","","","1","2","[{""stimulus"":""img/1to2/1.png"",""time"":99},{""stimulus"":""img/1to2/2.png"",""time"":199},{""stimulus"":""img/1to2/3.png"",""time"":298},{""stimulus"":""img/1to2/4.png"",""time"":397},{""stimulus"":""img/1to2/5.png"",""time"":496},{""stimulus"":""img/1to2/6.png"",""time"":595},{""stimulus"":""img/1to2/7.png"",""time"":694},{""stimulus"":""img/1to2/8.png"",""time"":793},{""stimulus"":""img/1to2/9.png"",""time"":892},{""stimulus"":""img/1to2/10.png"",""time"":991},{""stimulus"":""img/1to2/11.png"",""time"":1089},{""stimulus"":""img/1to2/12.png"",""time"":1188}]","[]"
"image-keyboard-response","174","168433","0.0-5.0-1.85","5722c95274e7ff0011a6f011","bdp_cybrbll","Sun Mar 26 2023 21:25:19 GMT-0600 (Mountain Daylight Time)","412644","1","3","","109","","","","choice","","img/2to1/1.png","2","140","388","0.5","0.1","2","3","",""
"animation","175","169721","0.0-5.0-2.85","5722c95274e7ff0011a6f011","bdp_cybrbll","Sun Mar 26 2023 21:25:19 GMT-0600 (Mountain Daylight Time)","412644","1","3","","","","","","","","","","140","","","","2","3","[{""stimulus"":""img/2to3/1.png"",""time"":100},{""stimulus"":""img/2to3/2.png"",""time"":200},{""stimulus"":""img/2to3/3.png"",""time"":298},{""stimulus"":""img/2to3/4.png"",""time"":396},{""stimulus"":""img/2to3/5.png"",""time"":496},{""stimulus"":""img/2to3/6.png"",""time"":596},{""stimulus"":""img/2to3/7.png"",""time"":694},{""stimulus"":""img/2to3/8.png"",""time"":793},{""stimulus"":""img/2to3/9.png"",""time"":892},{""stimulus"":""img/2to3/10.png"",""time"":991},{""stimulus"":""img/2to3/11.png"",""time"":1091},{""stimulus"":""img/2to3/12.png"",""time"":1188}]","[]"
"image-keyboard-response","176","169918","0.0-5.0-1.86","5722c95274e7ff0011a6f011","bdp_cybrbll","Sun Mar 26 2023 21:25:19 GMT-0600 (Mountain Daylight Time)","412644","1","3","","null","","","","observe","","img/3to2/1.png","null","139","196","0.5","0.1","3","1","",""
"animation","177","171206","0.0-5.0-2.86","5722c95274e7ff0011a6f011","bdp_cybrbll","Sun Mar 26 2023 21:25:19 GMT-0600 (Mountain Daylight Time)","412644","1","3","","","","","","","","","","139","","","","3","1","[{""stimulus"":""img/3to1/1.png"",""time"":100},{""stimulus"":""img/3to1/2.png"",""time"":199},{""stimulus"":""img/3to1/3.png"",""time"":299},{""stimulus"":""img/3to1/4.png"",""time"":397},{""stimulus"":""img/3to1/5.png"",""time"":496},{""stimulus"":""img/3to1/6.png"",""time"":596},{""stimulus"":""img/3to1/7.png"",""time"":694},{""stimulus"":""img/3to1/8.png"",""time"":793},{""stimulus"":""img/3to1/9.png"",""time"":892},{""stimulus"":""img/3to1/10.png"",""time"":991},{""stimulus"":""img/3to1/11.png"",""time"":1090},{""stimulus"":""img/3to1/12.png"",""time"":1189}]","[]"
"image-keyboard-response","178","171627","0.0-5.0-1.87","5722c95274e7ff0011a6f011","bdp_cybrbll","Sun Mar 26 2023 21:25:19 GMT-0600 (Mountain Daylight Time)","412644","1","3","","null","","","","observe","","img/1to3/1.png","null","138","420","0.5","0.1","1","3","",""
"animation","179","172914","0.0-5.0-2.87","5722c95274e7ff0011a6f011","bdp_cybrbll","Sun Mar 26 2023 21:25:19 GMT-0600 (Mountain Daylight Time)","412644","1","3","","","","","","","","","","138","","","","1","3","[{""stimulus"":""img/1to3/1.png"",""time"":99},{""stimulus"":""img/1to3/2.png"",""time"":199},{""stimulus"":""img/1to3/3.png"",""time"":297},{""stimulus"":""img/1to3/4.png"",""time"":397},{""stimulus"":""img/1to3/5.png"",""time"":496},{""stimulus"":""img/1to3/6.png"",""time"":595},{""stimulus"":""img/1to3/7.png"",""time"":694},{""stimulus"":""img/1to3/8.png"",""time"":793},{""stimulus"":""img/1to3/9.png"",""time"":892},{""stimulus"":""img/1to3/10.png"",""time"":990},{""stimulus"":""img/1to3/11.png"",""time"":1090},{""stimulus"":""img/1to3/12.png"",""time"":1189}]","[]"
"image-keyboard-response","180","173958","0.0-5.0-1.88","5722c95274e7ff0011a6f011","bdp_cybrbll","Sun Mar 26 2023 21:25:19 GMT-0600 (Mountain Daylight Time)","412644","1","3","","null","","","","observe","","img/3to2/1.png","null","137","1042","0.5","0.1","3","1","",""
"animation","181","175245","0.0-5.0-2.88","5722c95274e7ff0011a6f011","bdp_cybrbll","Sun Mar 26 2023 21:25:19 GMT-0600 (Mountain Daylight Time)","412644","1","3","","","","","","","","","","137","","","","3","1","[{""stimulus"":""img/3to1/1.png"",""time"":99},{""stimulus"":""img/3to1/2.png"",""time"":199},{""stimulus"":""img/3to1/3.png"",""time"":297},{""stimulus"":""img/3to1/4.png"",""time"":397},{""stimulus"":""img/3to1/5.png"",""time"":496},{""stimulus"":""img/3to1/6.png"",""time"":595},{""stimulus"":""img/3to1/7.png"",""time"":694},{""stimulus"":""img/3to1/8.png"",""time"":793},{""stimulus"":""img/3to1/9.png"",""time"":891},{""stimulus"":""img/3to1/10.png"",""time"":990},{""stimulus"":""img/3to1/11.png"",""time"":1090},{""stimulus"":""img/3to1/12.png"",""time"":1188}]","[]"
"image-keyboard-response","182","175424","0.0-5.0-1.89","5722c95274e7ff0011a6f011","bdp_cybrbll","Sun Mar 26 2023 21:25:19 GMT-0600 (Mountain Daylight Time)","412644","1","3","","null","","","","observe","","img/1to3/1.png","null","136","178","0.5","0.1","1","2","",""
"animation","183","176712","0.0-5.0-2.89","5722c95274e7ff0011a6f011","bdp_cybrbll","Sun Mar 26 2023 21:25:19 GMT-0600 (Mountain Daylight Time)","412644","1","3","","","","","","","","","","136","","","","1","2","[{""stimulus"":""img/1to2/1.png"",""time"":99},{""stimulus"":""img/1to2/2.png"",""time"":199},{""stimulus"":""img/1to2/3.png"",""time"":298},{""stimulus"":""img/1to2/4.png"",""time"":397},{""stimulus"":""img/1to2/5.png"",""time"":496},{""stimulus"":""img/1to2/6.png"",""time"":595},{""stimulus"":""img/1to2/7.png"",""time"":693},{""stimulus"":""img/1to2/8.png"",""time"":792},{""stimulus"":""img/1to2/9.png"",""time"":891},{""stimulus"":""img/1to2/10.png"",""time"":990},{""stimulus"":""img/1to2/11.png"",""time"":1089},{""stimulus"":""img/1to2/12.png"",""time"":1189}]","[]"
"image-keyboard-response","184","176906","0.0-5.0-1.90","5722c95274e7ff0011a6f011","bdp_cybrbll","Sun Mar 26 2023 21:25:19 GMT-0600 (Mountain Daylight Time)","412644","1","3","","194","","","","choice","","img/2to1/1.png","2","135","300","0.5","0.1","2","3","",""
"animation","185","178193","0.0-5.0-2.90","5722c95274e7ff0011a6f011","bdp_cybrbll","Sun Mar 26 2023 21:25:19 GMT-0600 (Mountain Daylight Time)","412644","1","3","","","","","","","","","","135","","","","2","3","[{""stimulus"":""img/2to3/1.png"",""time"":100},{""stimulus"":""img/2to3/2.png"",""time"":199},{""stimulus"":""img/2to3/3.png"",""time"":297},{""stimulus"":""img/2to3/4.png"",""time"":397},{""stimulus"":""img/2to3/5.png"",""time"":495},{""stimulus"":""img/2to3/6.png"",""time"":594},{""stimulus"":""img/2to3/7.png"",""time"":693},{""stimulus"":""img/2to3/8.png"",""time"":793},{""stimulus"":""img/2to3/9.png"",""time"":891},{""stimulus"":""img/2to3/10.png"",""time"":990},{""stimulus"":""img/2to3/11.png"",""time"":1089},{""stimulus"":""img/2to3/12.png"",""time"":1188}]","[]"
"image-keyboard-response","186","178573","0.0-5.0-1.91","5722c95274e7ff0011a6f011","bdp_cybrbll","Sun Mar 26 2023 21:25:19 GMT-0600 (Mountain Daylight Time)","412644","1","3","","null","","","","observe","","img/3to2/1.png","null","134","379","0.5","0.1","3","1","",""
"animation","187","179860","0.0-5.0-2.91","5722c95274e7ff0011a6f011","bdp_cybrbll","Sun Mar 26 2023 21:25:19 GMT-0600 (Mountain Daylight Time)","412644","1","3","","","","","","","","","","134","","","","3","1","[{""stimulus"":""img/3to1/1.png"",""time"":99},{""stimulus"":""img/3to1/2.png"",""time"":199},{""stimulus"":""img/3to1/3.png"",""time"":298},{""stimulus"":""img/3to1/4.png"",""time"":397},{""stimulus"":""img/3to1/5.png"",""time"":496},{""stimulus"":""img/3to1/6.png"",""time"":596},{""stimulus"":""img/3to1/7.png"",""time"":694},{""stimulus"":""img/3to1/8.png"",""time"":793},{""stimulus"":""img/3to1/9.png"",""time"":893},{""stimulus"":""img/3to1/10.png"",""time"":991},{""stimulus"":""img/3to1/11.png"",""time"":1089},{""stimulus"":""img/3to1/12.png"",""time"":1189}]","[]"
"image-keyboard-response","188","180341","0.0-5.0-1.92","5722c95274e7ff0011a6f011","bdp_cybrbll","Sun Mar 26 2023 21:25:19 GMT-0600 (Mountain Daylight Time)","412644","1","3","","null","","","","observe","","img/1to3/1.png","null","133","480","0.5","0.1","1","2","",""
"animation","189","181629","0.0-5.0-2.92","5722c95274e7ff0011a6f011","bdp_cybrbll","Sun Mar 26 2023 21:25:19 GMT-0600 (Mountain Daylight Time)","412644","1","3","","","","","","","","","","133","","","","1","2","[{""stimulus"":""img/1to2/1.png"",""time"":101},{""stimulus"":""img/1to2/2.png"",""time"":199},{""stimulus"":""img/1to2/3.png"",""time"":299},{""stimulus"":""img/1to2/4.png"",""time"":398},{""stimulus"":""img/1to2/5.png"",""time"":496},{""stimulus"":""img/1to2/6.png"",""time"":595},{""stimulus"":""img/1to2/7.png"",""time"":695},{""stimulus"":""img/1to2/8.png"",""time"":794},{""stimulus"":""img/1to2/9.png"",""time"":892},{""stimulus"":""img/1to2/10.png"",""time"":991},{""stimulus"":""img/1to2/11.png"",""time"":1090},{""stimulus"":""img/1to2/12.png"",""time"":1189}]","[]"
"image-keyboard-response","190","181833","0.0-5.0-1.93","5722c95274e7ff0011a6f011","bdp_cybrbll","Sun Mar 26 2023 21:25:19 GMT-0600 (Mountain Daylight Time)","412644","1","3","","203","","","","choice","","img/2to1/1.png","2","132","359","0.5","0.1","2","3","",""
