"trial_type","trial_index","time_elapsed","internal_node_id","subject_id","task","startTime","totalTime","fairPartner","unfairPartner","view_history","rt","event","trial","time","trialtype","success","stimulus","key_press","throwsLeft","rtDur","pFair","pUnfair","holder","receiver","animation_sequence","responses"
"pavlovia","0","4","0.0-0.0","60beba435afc451476fa7781","bdp_cybrbll","Wed Mar 29 2023 19:38:10 GMT-0700 (Pacific Daylight Time)","470227","1","3","","","","","","","","","","","","","","","","",""
"instructions","1","3992","0.0-1.0","60beba435afc451476fa7781","bdp_cybrbll","Wed Mar 29 2023 19:38:10 GMT-0700 (Pacific Daylight Time)","470227","1","3","[{""page_index"":0,""viewing_time"":3986}]","3986","","","","","","","","","","","","","","",""
"","","","","60beba435afc451476fa7781","bdp_cybrbll","Wed Mar 29 2023 19:38:10 GMT-0700 (Pacific Daylight Time)","470227","1","3","","","fullscreenenter","2","6542","fullscreenenter","","","","","","","","","","",""
"fullscreen","2","7530","0.0-2.0","60beba435afc451476fa7781","bdp_cybrbll","Wed Mar 29 2023 19:38:10 GMT-0700 (Pacific Daylight Time)","470227","1","3","","","","","","","true","","","","","","","","","",""
"instructions","3","59619","0.0-4.0","60beba435afc451476fa7781","bdp_cybrbll","Wed Mar 29 2023 19:38:10 GMT-0700 (Pacific Daylight Time)","470227","1","3","[{""page_index"":0,""viewing_time"":52087}]","52087","","","","","","","","","","","","","","",""
"image-keyboard-response","4","62569","0.0-5.0-1.0","60beba435afc451476fa7781","bdp_cybrbll","Wed Mar 29 2023 19:38:10 GMT-0700 (Pacific Daylight Time)","470227","1","3","","2947","","","","choice","","img/2to1/1.png","1","225","310","0.5","0.5","2","1","",""
"animation","5","63873","0.0-5.0-2.0","60beba435afc451476fa7781","bdp_cybrbll","Wed Mar 29 2023 19:38:10 GMT-0700 (Pacific Daylight Time)","470227","1","3","","","","","","","","","","225","","","","2","1","[{""stimulus"":""img/2to1/1.png"",""time"":102},{""stimulus"":""img/2to1/2.png"",""time"":212},{""stimulus"":""img/2to1/3.png"",""time"":297},{""stimulus"":""img/2to1/4.png"",""time"":399},{""stimulus"":""img/2to1/5.png"",""time"":496},{""stimulus"":""img/2to1/6.png"",""time"":601},{""stimulus"":""img/2to1/7.png"",""time"":694},{""stimulus"":""img/2to1/8.png"",""time"":804},{""stimulus"":""img/2to1/9.png"",""time"":896},{""stimulus"":""img/2to1/10.png"",""time"":991},{""stimulus"":""img/2to1/11.png"",""time"":1101},{""stimulus"":""img/2to1/12.png"",""time"":1194}]","[]"
"image-keyboard-response","6","65177","0.0-5.0-1.1","60beba435afc451476fa7781","bdp_cybrbll","Wed Mar 29 2023 19:38:10 GMT-0700 (Pacific Daylight Time)","470227","1","3","","null","","","","observe","","img/1to3/1.png","null","224","1293","0.5","0.5","1","2","",""
"animation","7","66465","0.0-5.0-2.1","60beba435afc451476fa7781","bdp_cybrbll","Wed Mar 29 2023 19:38:10 GMT-0700 (Pacific Daylight Time)","470227","1","3","","","","","","","","","","224","","","","1","2","[{""stimulus"":""img/1to2/1.png"",""time"":109},{""stimulus"":""img/1to2/2.png"",""time"":199},{""stimulus"":""img/1to2/3.png"",""time"":311},{""stimulus"":""img/1to2/4.png"",""time"":397},{""stimulus"":""img/1to2/5.png"",""time"":500},{""stimulus"":""img/1to2/6.png"",""time"":607},{""stimulus"":""img/1to2/7.png"",""time"":694},{""stimulus"":""img/1to2/8.png"",""time"":793},{""stimulus"":""img/1to2/9.png"",""time"":901},{""stimulus"":""img/1to2/10.png"",""time"":996},{""stimulus"":""img/1to2/11.png"",""time"":1090},{""stimulus"":""img/1to2/12.png"",""time"":1189}]","[]"
"image-keyboard-response","8","67619","0.0-5.0-1.2","60beba435afc451476fa7781","bdp_cybrbll","Wed Mar 29 2023 19:38:10 GMT-0700 (Pacific Daylight Time)","470227","1","3","","1154","","","","choice","","img/2to1/1.png","2","223","409","0.5","0.5","2","3","",""
"animation","9","68914","0.0-5.0-2.2","60beba435afc451476fa7781","bdp_cybrbll","Wed Mar 29 2023 19:38:10 GMT-0700 (Pacific Daylight Time)","470227","1","3","","","","","","","","","","223","","","","2","3","[{""stimulus"":""img/2to3/1.png"",""time"":101},{""stimulus"":""img/2to3/2.png"",""time"":208},{""stimulus"":""img/2to3/3.png"",""time"":303},{""stimulus"":""img/2to3/4.png"",""time"":412},{""stimulus"":""img/2to3/5.png"",""time"":503},{""stimulus"":""img/2to3/6.png"",""time"":596},{""stimulus"":""img/2to3/7.png"",""time"":705},{""stimulus"":""img/2to3/8.png"",""time"":798},{""stimulus"":""img/2to3/9.png"",""time"":892},{""stimulus"":""img/2to3/10.png"",""time"":1000},{""stimulus"":""img/2to3/11.png"",""time"":1096},{""stimulus"":""img/2to3/12.png"",""time"":1189}]","[]"
"image-keyboard-response","10","69439","0.0-5.0-1.3","60beba435afc451476fa7781","bdp_cybrbll","Wed Mar 29 2023 19:38:10 GMT-0700 (Pacific Daylight Time)","470227","1","3","","null","","","","observe","","img/3to2/1.png","null","222","523","0.5","0.5","3","2","",""
"animation","11","70726","0.0-5.0-2.3","60beba435afc451476fa7781","bdp_cybrbll","Wed Mar 29 2023 19:38:10 GMT-0700 (Pacific Daylight Time)","470227","1","3","","","","","","","","","","222","","","","3","2","[{""stimulus"":""img/3to2/1.png"",""time"":103},{""stimulus"":""img/3to2/2.png"",""time"":201},{""stimulus"":""img/3to2/3.png"",""time"":310},{""stimulus"":""img/3to2/4.png"",""time"":397},{""stimulus"":""img/3to2/5.png"",""time"":497},{""stimulus"":""img/3to2/6.png"",""time"":595},{""stimulus"":""img/3to2/7.png"",""time"":704},{""stimulus"":""img/3to2/8.png"",""time"":798},{""stimulus"":""img/3to2/9.png"",""time"":893},{""stimulus"":""img/3to2/10.png"",""time"":991},{""stimulus"":""img/3to2/11.png"",""time"":1098},{""stimulus"":""img/3to2/12.png"",""time"":1193}]","[]"
"image-keyboard-response","12","72674","0.0-5.0-1.4","60beba435afc451476fa7781","bdp_cybrbll","Wed Mar 29 2023 19:38:10 GMT-0700 (Pacific Daylight Time)","470227","1","3","","1947","","","","choice","","img/2to1/1.png","1","221","262","0.5","0.5","2","1","",""
"animation","13","73964","0.0-5.0-2.4","60beba435afc451476fa7781","bdp_cybrbll","Wed Mar 29 2023 19:38:10 GMT-0700 (Pacific Daylight Time)","470227","1","3","","","","","","","","","","221","","","","2","1","[{""stimulus"":""img/2to1/1.png"",""time"":113},{""stimulus"":""img/2to1/2.png"",""time"":207},{""stimulus"":""img/2to1/3.png"",""time"":299},{""stimulus"":""img/2to1/4.png"",""time"":397},{""stimulus"":""img/2to1/5.png"",""time"":496},{""stimulus"":""img/2to1/6.png"",""time"":596},{""stimulus"":""img/2to1/7.png"",""time"":699},{""stimulus"":""img/2to1/8.png"",""time"":793},{""stimulus"":""img/2to1/9.png"",""time"":892},{""stimulus"":""img/2to1/10.png"",""time"":991},{""stimulus"":""img/2to1/11.png"",""time"":1090},{""stimulus"":""img/2to1/12.png"",""time"":1189}]","[]"
"image-keyboard-response","14","74376","0.0-5.0-1.5","60beba435afc451476fa7781","bdp_cybrbll","Wed Mar 29 2023 19:38:10 GMT-0700 (Pacific Daylight Time)","470227","1","3","","null","","","","observe","","img/1to3/1.png","null","220","398","0.5","0.5","1","3","",""
"animation","15","75664","0.0-5.0-2.5","60beba435afc451476fa7781","bdp_cybrbll","Wed Mar 29 2023 19:38:10 GMT-0700 (Pacific Daylight Time)","470227","1","3","","","","","","","","","","220","","","","1","3","[{""stimulus"":""img/1to3/1.png"",""time"":109},{""stimulus"":""img/1to3/2.png"",""time"":200},{""stimulus"":""img/1to3/3.png"",""time"":309},{""stimulus"":""img/1to3/4.png"",""time"":402},{""stimulus"":""img/1to3/5.png"",""time"":511},{""stimulus"":""img/1to3/6.png"",""time"":605},{""stimulus"":""img/1to3/7.png"",""time"":699},{""stimulus"":""img/1to3/8.png"",""time"":794},{""stimulus"":""img/1to3/9.png"",""time"":892},{""stimulus"":""img/1to3/10.png"",""time"":995},{""stimulus"":""img/1to3/11.png"",""time"":1090},{""stimulus"":""img/1to3/12.png"",""time"":1197}]","[]"
"image-keyboard-response","16","75992","0.0-5.0-1.6","60beba435afc451476fa7781","bdp_cybrbll","Wed Mar 29 2023 19:38:10 GMT-0700 (Pacific Daylight Time)","470227","1","3","","null","","","","observe","","img/3to2/1.png","null","219","317","0.5","0.5","3","1","",""
"animation","17","77285","0.0-5.0-2.6","60beba435afc451476fa7781","bdp_cybrbll","Wed Mar 29 2023 19:38:10 GMT-0700 (Pacific Daylight Time)","470227","1","3","","","","","","","","","","219","","","","3","1","[{""stimulus"":""img/3to1/1.png"",""time"":111},{""stimulus"":""img/3to1/2.png"",""time"":203},{""stimulus"":""img/3to1/3.png"",""time"":303},{""stimulus"":""img/3to1/4.png"",""time"":397},{""stimulus"":""img/3to1/5.png"",""time"":506},{""stimulus"":""img/3to1/6.png"",""time"":600},{""stimulus"":""img/3to1/7.png"",""time"":694},{""stimulus"":""img/3to1/8.png"",""time"":796},{""stimulus"":""img/3to1/9.png"",""time"":904},{""stimulus"":""img/3to1/10.png"",""time"":997},{""stimulus"":""img/3to1/11.png"",""time"":1090},{""stimulus"":""img/3to1/12.png"",""time"":1198}]","[]"
"image-keyboard-response","18","78075","0.0-5.0-1.7","60beba435afc451476fa7781","bdp_cybrbll","Wed Mar 29 2023 19:38:10 GMT-0700 (Pacific Daylight Time)","470227","1","3","","null","","","","observe","","img/1to3/1.png","null","218","776","0.5","0.5","1","2","",""
"animation","19","79364","0.0-5.0-2.7","60beba435afc451476fa7781","bdp_cybrbll","Wed Mar 29 2023 19:38:10 GMT-0700 (Pacific Daylight Time)","470227","1","3","","","","","","","","","","218","","","","1","2","[{""stimulus"":""img/1to2/1.png"",""time"":109},{""stimulus"":""img/1to2/2.png"",""time"":199},{""stimulus"":""img/1to2/3.png"",""time"":311},{""stimulus"":""img/1to2/4.png"",""time"":398},{""stimulus"":""img/1to2/5.png"",""time"":510},{""stimulus"":""img/1to2/6.png"",""time"":595},{""stimulus"":""img/1to2/7.png"",""time"":694},{""stimulus"":""img/1to2/8.png"",""time"":794},{""stimulus"":""img/1to2/9.png"",""time"":891},{""stimulus"":""img/1to2/10.png"",""time"":991},{""stimulus"":""img/1to2/11.png"",""time"":1090},{""stimulus"":""img/1to2/12.png"",""time"":1199}]","[]"
"image-keyboard-response","20","80009","0.0-5.0-1.8","60beba435afc451476fa7781","bdp_cybrbll","Wed Mar 29 2023 19:38:10 GMT-0700 (Pacific Daylight Time)","470227","1","3","","645","","","","choice","","img/2to1/1.png","2","217","803","0.5","0.5","2","3","",""
"animation","21","81309","0.0-5.0-2.8","60beba435afc451476fa7781","bdp_cybrbll","Wed Mar 29 2023 19:38:10 GMT-0700 (Pacific Daylight Time)","470227","1","3","","","","","","","","","","217","","","","2","3","[{""stimulus"":""img/2to3/1.png"",""time"":99},{""stimulus"":""img/2to3/2.png"",""time"":214},{""stimulus"":""img/2to3/3.png"",""time"":298},{""stimulus"":""img/2to3/4.png"",""time"":397},{""stimulus"":""img/2to3/5.png"",""time"":495},{""stimulus"":""img/2to3/6.png"",""time"":602},{""stimulus"":""img/2to3/7.png"",""time"":695},{""stimulus"":""img/2to3/8.png"",""time"":804},{""stimulus"":""img/2to3/9.png"",""time"":897},{""stimulus"":""img/2to3/10.png"",""time"":990},{""stimulus"":""img/2to3/11.png"",""time"":1089},{""stimulus"":""img/2to3/12.png"",""time"":1192}]","[]"
"image-keyboard-response","22","81733","0.0-5.0-1.9","60beba435afc451476fa7781","bdp_cybrbll","Wed Mar 29 2023 19:38:10 GMT-0700 (Pacific Daylight Time)","470227","1","3","","null","","","","observe","","img/3to2/1.png","null","216","420","0.5","0.5","3","2","",""
"animation","23","83027","0.0-5.0-2.9","60beba435afc451476fa7781","bdp_cybrbll","Wed Mar 29 2023 19:38:10 GMT-0700 (Pacific Daylight Time)","470227","1","3","","","","","","","","","","216","","","","3","2","[{""stimulus"":""img/3to2/1.png"",""time"":109},{""stimulus"":""img/3to2/2.png"",""time"":199},{""stimulus"":""img/3to2/3.png"",""time"":312},{""stimulus"":""img/3to2/4.png"",""time"":405},{""stimulus"":""img/3to2/5.png"",""time"":497},{""stimulus"":""img/3to2/6.png"",""time"":594},{""stimulus"":""img/3to2/7.png"",""time"":693},{""stimulus"":""img/3to2/8.png"",""time"":793},{""stimulus"":""img/3to2/9.png"",""time"":892},{""stimulus"":""img/3to2/10.png"",""time"":991},{""stimulus"":""img/3to2/11.png"",""time"":1090},{""stimulus"":""img/3to2/12.png"",""time"":1202}]","[]"
"image-keyboard-response","24","84806","0.0-5.0-1.10","60beba435afc451476fa7781","bdp_cybrbll","Wed Mar 29 2023 19:38:10 GMT-0700 (Pacific Daylight Time)","470227","1","3","","1778","","","","choice","","img/2to1/1.png","1","215","423","0.5","0.5","2","1","",""
"animation","25","86107","0.0-5.0-2.10","60beba435afc451476fa7781","bdp_cybrbll","Wed Mar 29 2023 19:38:10 GMT-0700 (Pacific Daylight Time)","470227","1","3","","","","","","","","","","215","","","","2","1","[{""stimulus"":""img/2to1/1.png"",""time"":99},{""stimulus"":""img/2to1/2.png"",""time"":208},{""stimulus"":""img/2to1/3.png"",""time"":300},{""stimulus"":""img/2to1/4.png"",""time"":397},{""stimulus"":""img/2to1/5.png"",""time"":495},{""stimulus"":""img/2to1/6.png"",""time"":594},{""stimulus"":""img/2to1/7.png"",""time"":693},{""stimulus"":""img/2to1/8.png"",""time"":796},{""stimulus"":""img/2to1/9.png"",""time"":891},{""stimulus"":""img/2to1/10.png"",""time"":999},{""stimulus"":""img/2to1/11.png"",""time"":1090},{""stimulus"":""img/2to1/12.png"",""time"":1193}]","[]"
"image-keyboard-response","26","87629","0.0-5.0-1.11","60beba435afc451476fa7781","bdp_cybrbll","Wed Mar 29 2023 19:38:10 GMT-0700 (Pacific Daylight Time)","470227","1","3","","null","","","","observe","","img/1to3/1.png","null","214","1509","0.5","0.5","1","2","",""
"animation","27","88917","0.0-5.0-2.11","60beba435afc451476fa7781","bdp_cybrbll","Wed Mar 29 2023 19:38:10 GMT-0700 (Pacific Daylight Time)","470227","1","3","","","","","","","","","","214","","","","1","2","[{""stimulus"":""img/1to2/1.png"",""time"":108},{""stimulus"":""img/1to2/2.png"",""time"":199},{""stimulus"":""img/1to2/3.png"",""time"":309},{""stimulus"":""img/1to2/4.png"",""time"":402},{""stimulus"":""img/1to2/5.png"",""time"":496},{""stimulus"":""img/1to2/6.png"",""time"":595},{""stimulus"":""img/1to2/7.png"",""time"":693},{""stimulus"":""img/1to2/8.png"",""time"":793},{""stimulus"":""img/1to2/9.png"",""time"":892},{""stimulus"":""img/1to2/10.png"",""time"":995},{""stimulus"":""img/1to2/11.png"",""time"":1102},{""stimulus"":""img/1to2/12.png"",""time"":1188}]","[]"
"image-keyboard-response","28","89350","0.0-5.0-1.12","60beba435afc451476fa7781","bdp_cybrbll","Wed Mar 29 2023 19:38:10 GMT-0700 (Pacific Daylight Time)","470227","1","3","","432","","","","choice","","img/2to1/1.png","2","213","558","0.5","0.5","2","3","",""
"animation","29","90638","0.0-5.0-2.12","60beba435afc451476fa7781","bdp_cybrbll","Wed Mar 29 2023 19:38:10 GMT-0700 (Pacific Daylight Time)","470227","1","3","","","","","","","","","","213","","","","2","3","[{""stimulus"":""img/2to3/1.png"",""time"":100},{""stimulus"":""img/2to3/2.png"",""time"":202},{""stimulus"":""img/2to3/3.png"",""time"":311},{""stimulus"":""img/2to3/4.png"",""time"":404},{""stimulus"":""img/2to3/5.png"",""time"":496},{""stimulus"":""img/2to3/6.png"",""time"":607},{""stimulus"":""img/2to3/7.png"",""time"":705},{""stimulus"":""img/2to3/8.png"",""time"":794},{""stimulus"":""img/2to3/9.png"",""time"":893},{""stimulus"":""img/2to3/10.png"",""time"":1000},{""stimulus"":""img/2to3/11.png"",""time"":1090},{""stimulus"":""img/2to3/12.png"",""time"":1202}]","[]"
"image-keyboard-response","30","90814","0.0-5.0-1.13","60beba435afc451476fa7781","bdp_cybrbll","Wed Mar 29 2023 19:38:10 GMT-0700 (Pacific Daylight Time)","470227","1","3","","null","","","","observe","","img/3to2/1.png","null","212","175","0.5","0.5","3","1","",""
"animation","31","92102","0.0-5.0-2.13","60beba435afc451476fa7781","bdp_cybrbll","Wed Mar 29 2023 19:38:10 GMT-0700 (Pacific Daylight Time)","470227","1","3","","","","","","","","","","212","","","","3","1","[{""stimulus"":""img/3to1/1.png"",""time"":112},{""stimulus"":""img/3to1/2.png"",""time"":205},{""stimulus"":""img/3to1/3.png"",""time"":298},{""stimulus"":""img/3to1/4.png"",""time"":397},{""stimulus"":""img/3to1/5.png"",""time"":502},{""stimulus"":""img/3to1/6.png"",""time"":611},{""stimulus"":""img/3to1/7.png"",""time"":704},{""stimulus"":""img/3to1/8.png"",""time"":793},{""stimulus"":""img/3to1/9.png"",""time"":892},{""stimulus"":""img/3to1/10.png"",""time"":1000},{""stimulus"":""img/3to1/11.png"",""time"":1091},{""stimulus"":""img/3to1/12.png"",""time"":1204}]","[]"
"image-keyboard-response","32","92690","0.0-5.0-1.14","60beba435afc451476fa7781","bdp_cybrbll","Wed Mar 29 2023 19:38:10 GMT-0700 (Pacific Daylight Time)","470227","1","3","","null","","","","observe","","img/1to3/1.png","null","211","576","0.5","0.5","1","3","",""
"animation","33","93984","0.0-5.0-2.14","60beba435afc451476fa7781","bdp_cybrbll","Wed Mar 29 2023 19:38:10 GMT-0700 (Pacific Daylight Time)","470227","1","3","","","","","","","","","","211","","","","1","3","[{""stimulus"":""img/1to3/1.png"",""time"":109},{""stimulus"":""img/1to3/2.png"",""time"":199},{""stimulus"":""img/1to3/3.png"",""time"":310},{""stimulus"":""img/1to3/4.png"",""time"":402},{""stimulus"":""img/1to3/5.png"",""time"":504},{""stimulus"":""img/1to3/6.png"",""time"":596},{""stimulus"":""img/1to3/7.png"",""time"":694},{""stimulus"":""img/1to3/8.png"",""time"":793},{""stimulus"":""img/1to3/9.png"",""time"":906},{""stimulus"":""img/1to3/10.png"",""time"":992},{""stimulus"":""img/1to3/11.png"",""time"":1089},{""stimulus"":""img/1to3/12.png"",""time"":1200}]","[]"
"image-keyboard-response","34","94342","0.0-5.0-1.15","60beba435afc451476fa7781","bdp_cybrbll","Wed Mar 29 2023 19:38:10 GMT-0700 (Pacific Daylight Time)","470227","1","3","","null","","","","observe","","img/3to2/1.png","null","210","351","0.5","0.5","3","1","",""
"animation","35","95640","0.0-5.0-2.15","60beba435afc451476fa7781","bdp_cybrbll","Wed Mar 29 2023 19:38:10 GMT-0700 (Pacific Daylight Time)","470227","1","3","","","","","","","","","","210","","","","3","1","[{""stimulus"":""img/3to1/1.png"",""time"":110},{""stimulus"":""img/3to1/2.png"",""time"":202},{""stimulus"":""img/3to1/3.png"",""time"":298},{""stimulus"":""img/3to1/4.png"",""time"":412},{""stimulus"":""img/3to1/5.png"",""time"":507},{""stimulus"":""img/3to1/6.png"",""time"":595},{""stimulus"":""img/3to1/7.png"",""time"":708},{""stimulus"":""img/3to1/8.png"",""time"":793},{""stimulus"":""img/3to1/9.png"",""time"":892},{""stimulus"":""img/3to1/10.png"",""time"":992},{""stimulus"":""img/3to1/11.png"",""time"":1090},{""stimulus"":""img/3to1/12.png"",""time"":1189}]","[]"
"image-keyboard-response","36","95837","0.0-5.0-1.16","60beba435afc451476fa7781","bdp_cybrbll","Wed Mar 29 2023 19:38:10 GMT-0700 (Pacific Daylight Time)","470227","1","3","","null","","","","observe","","img/1to3/1.png","null","209","196","0.5","0.5","1","3","",""
"animation","37","97126","0.0-5.0-2.16","60beba435afc451476fa7781","bdp_cybrbll","Wed Mar 29 2023 19:38:10 GMT-0700 (Pacific Daylight Time)","470227","1","3","","","","","","","","","","209","","","","1","3","[{""stimulus"":""img/1to3/1.png"",""time"":114},{""stimulus"":""img/1to3/2.png"",""time"":207},{""stimulus"":""img/1to3/3.png"",""time"":305},{""stimulus"":""img/1to3/4.png"",""time"":397},{""stimulus"":""img/1to3/5.png"",""time"":496},{""stimulus"":""img/1to3/6.png"",""time"":595},{""stimulus"":""img/1to3/7.png"",""time"":694},{""stimulus"":""img/1to3/8.png"",""time"":792},{""stimulus"":""img/1to3/9.png"",""time"":893},{""stimulus"":""img/1to3/10.png"",""time"":991},{""stimulus"":""img/1to3/11.png"",""time"":1089},{""stimulus"":""img/1to3/12.png"",""time"":1203}]","[]"
"image-keyboard-response","38","97910","0.0-5.0-1.17","60beba435afc451476fa7781","bdp_cybrbll","Wed Mar 29 2023 19:38:10 GMT-0700 (Pacific Daylight Time)","470227","1","3","","null","","","","observe","","img/3to2/1.png","null","208","783","0.5","0.5","3","1","",""
"animation","39","99202","0.0-5.0-2.17","60beba435afc451476fa7781","bdp_cybrbll","Wed Mar 29 2023 19:38:10 GMT-0700 (Pacific Daylight Time)","470227","1","3","","","","","","","","","","208","","","","3","1","[{""stimulus"":""img/3to1/1.png"",""time"":102},{""stimulus"":""img/3to1/2.png"",""time"":198},{""stimulus"":""img/3to1/3.png"",""time"":297},{""stimulus"":""img/3to1/4.png"",""time"":409},{""stimulus"":""img/3to1/5.png"",""time"":495},{""stimulus"":""img/3to1/6.png"",""time"":595},{""stimulus"":""img/3to1/7.png"",""time"":700},{""stimulus"":""img/3to1/8.png"",""time"":793},{""stimulus"":""img/3to1/9.png"",""time"":903},{""stimulus"":""img/3to1/10.png"",""time"":991},{""stimulus"":""img/3to1/11.png"",""time"":1090},{""stimulus"":""img/3to1/12.png"",""time"":1198}]","[]"
"image-keyboard-response","40","100168","0.0-5.0-1.18","60beba435afc451476fa7781","bdp_cybrbll","Wed Mar 29 2023 19:38:10 GMT-0700 (Pacific Daylight Time)","470227","1","3","","null","","","","observe","","img/1to3/1.png","null","207","953","0.5","0.5","1","2","",""
"animation","41","101456","0.0-5.0-2.18","60beba435afc451476fa7781","bdp_cybrbll","Wed Mar 29 2023 19:38:10 GMT-0700 (Pacific Daylight Time)","470227","1","3","","","","","","","","","","207","","","","1","2","[{""stimulus"":""img/1to2/1.png"",""time"":104},{""stimulus"":""img/1to2/2.png"",""time"":199},{""stimulus"":""img/1to2/3.png"",""time"":307},{""stimulus"":""img/1to2/4.png"",""time"":397},{""stimulus"":""img/1to2/5.png"",""time"":510},{""stimulus"":""img/1to2/6.png"",""time"":596},{""stimulus"":""img/1to2/7.png"",""time"":703},{""stimulus"":""img/1to2/8.png"",""time"":793},{""stimulus"":""img/1to2/9.png"",""time"":906},{""stimulus"":""img/1to2/10.png"",""time"":991},{""stimulus"":""img/1to2/11.png"",""time"":1105},{""stimulus"":""img/1to2/12.png"",""time"":1189}]","[]"
"image-keyboard-response","42","101850","0.0-5.0-1.19","60beba435afc451476fa7781","bdp_cybrbll","Wed Mar 29 2023 19:38:10 GMT-0700 (Pacific Daylight Time)","470227","1","3","","394","","","","choice","","img/2to1/1.png","2","206","512","0.5","0.5","2","3","",""
"animation","43","103138","0.0-5.0-2.19","60beba435afc451476fa7781","bdp_cybrbll","Wed Mar 29 2023 19:38:10 GMT-0700 (Pacific Daylight Time)","470227","1","3","","","","","","","","","","206","","","","2","3","[{""stimulus"":""img/2to3/1.png"",""time"":100},{""stimulus"":""img/2to3/2.png"",""time"":205},{""stimulus"":""img/2to3/3.png"",""time"":312},{""stimulus"":""img/2to3/4.png"",""time"":406},{""stimulus"":""img/2to3/5.png"",""time"":500},{""stimulus"":""img/2to3/6.png"",""time"":595},{""stimulus"":""img/2to3/7.png"",""time"":702},{""stimulus"":""img/2to3/8.png"",""time"":794},{""stimulus"":""img/2to3/9.png"",""time"":892},{""stimulus"":""img/2to3/10.png"",""time"":991},{""stimulus"":""img/2to3/11.png"",""time"":1090},{""stimulus"":""img/2to3/12.png"",""time"":1197}]","[]"
"image-keyboard-response","44","103419","0.0-5.0-1.20","60beba435afc451476fa7781","bdp_cybrbll","Wed Mar 29 2023 19:38:10 GMT-0700 (Pacific Daylight Time)","470227","1","3","","null","","","","observe","","img/3to2/1.png","null","205","280","0.5","0.5","3","1","",""
"animation","45","104707","0.0-5.0-2.20","60beba435afc451476fa7781","bdp_cybrbll","Wed Mar 29 2023 19:38:10 GMT-0700 (Pacific Daylight Time)","470227","1","3","","","","","","","","","","205","","","","3","1","[{""stimulus"":""img/3to1/1.png"",""time"":111},{""stimulus"":""img/3to1/2.png"",""time"":205},{""stimulus"":""img/3to1/3.png"",""time"":299},{""stimulus"":""img/3to1/4.png"",""time"":402},{""stimulus"":""img/3to1/5.png"",""time"":496},{""stimulus"":""img/3to1/6.png"",""time"":604},{""stimulus"":""img/3to1/7.png"",""time"":697},{""stimulus"":""img/3to1/8.png"",""time"":794},{""stimulus"":""img/3to1/9.png"",""time"":899},{""stimulus"":""img/3to1/10.png"",""time"":990},{""stimulus"":""img/3to1/11.png"",""time"":1102},{""stimulus"":""img/3to1/12.png"",""time"":1189}]","[]"
"image-keyboard-response","46","105568","0.0-5.0-1.21","60beba435afc451476fa7781","bdp_cybrbll","Wed Mar 29 2023 19:38:10 GMT-0700 (Pacific Daylight Time)","470227","1","3","","null","","","","observe","","img/1to3/1.png","null","204","858","0.5","0.5","1","2","",""
"animation","47","106868","0.0-5.0-2.21","60beba435afc451476fa7781","bdp_cybrbll","Wed Mar 29 2023 19:38:10 GMT-0700 (Pacific Daylight Time)","470227","1","3","","","","","","","","","","204","","","","1","2","[{""stimulus"":""img/1to2/1.png"",""time"":109},{""stimulus"":""img/1to2/2.png"",""time"":200},{""stimulus"":""img/1to2/3.png"",""time"":298},{""stimulus"":""img/1to2/4.png"",""time"":397},{""stimulus"":""img/1to2/5.png"",""time"":506},{""stimulus"":""img/1to2/6.png"",""time"":601},{""stimulus"":""img/1to2/7.png"",""time"":695},{""stimulus"":""img/1to2/8.png"",""time"":793},{""stimulus"":""img/1to2/9.png"",""time"":893},{""stimulus"":""img/1to2/10.png"",""time"":1005},{""stimulus"":""img/1to2/11.png"",""time"":1090},{""stimulus"":""img/1to2/12.png"",""time"":1192}]","[]"
"image-keyboard-response","48","107200","0.0-5.0-1.22","60beba435afc451476fa7781","bdp_cybrbll","Wed Mar 29 2023 19:38:10 GMT-0700 (Pacific Daylight Time)","470227","1","3","","330","","","","choice","","img/2to1/1.png","1","203","1132","0.5","0.5","2","1","",""
"animation","49","108487","0.0-5.0-2.22","60beba435afc451476fa7781","bdp_cybrbll","Wed Mar 29 2023 19:38:10 GMT-0700 (Pacific Daylight Time)","470227","1","3","","","","","","","","","","203","","","","2","1","[{""stimulus"":""img/2to1/1.png"",""time"":106},{""stimulus"":""img/2to1/2.png"",""time"":199},{""stimulus"":""img/2to1/3.png"",""time"":308},{""stimulus"":""img/2to1/4.png"",""time"":402},{""stimulus"":""img/2to1/5.png"",""time"":496},{""stimulus"":""img/2to1/6.png"",""time"":595},{""stimulus"":""img/2to1/7.png"",""time"":694},{""stimulus"":""img/2to1/8.png"",""time"":793},{""stimulus"":""img/2to1/9.png"",""time"":895},{""stimulus"":""img/2to1/10.png"",""time"":991},{""stimulus"":""img/2to1/11.png"",""time"":1097},{""stimulus"":""img/2to1/12.png"",""time"":1188}]","[]"
"image-keyboard-response","50","108814","0.0-5.0-1.23","60beba435afc451476fa7781","bdp_cybrbll","Wed Mar 29 2023 19:38:10 GMT-0700 (Pacific Daylight Time)","470227","1","3","","null","","","","observe","","img/1to3/1.png","null","202","325","0.5","0.5","1","2","",""
"animation","51","110113","0.0-5.0-2.23","60beba435afc451476fa7781","bdp_cybrbll","Wed Mar 29 2023 19:38:10 GMT-0700 (Pacific Daylight Time)","470227","1","3","","","","","","","","","","202","","","","1","2","[{""stimulus"":""img/1to2/1.png"",""time"":108},{""stimulus"":""img/1to2/2.png"",""time"":201},{""stimulus"":""img/1to2/3.png"",""time"":298},{""stimulus"":""img/1to2/4.png"",""time"":403},{""stimulus"":""img/1to2/5.png"",""time"":495},{""stimulus"":""img/1to2/6.png"",""time"":595},{""stimulus"":""img/1to2/7.png"",""time"":694},{""stimulus"":""img/1to2/8.png"",""time"":793},{""stimulus"":""img/1to2/9.png"",""time"":892},{""stimulus"":""img/1to2/10.png"",""time"":992},{""stimulus"":""img/1to2/11.png"",""time"":1090},{""stimulus"":""img/1to2/12.png"",""time"":1192}]","[]"
"image-keyboard-response","52","110325","0.0-5.0-1.24","60beba435afc451476fa7781","bdp_cybrbll","Wed Mar 29 2023 19:38:10 GMT-0700 (Pacific Daylight Time)","470227","1","3","","211","","","","choice","","img/2to1/1.png","2","201","165","0.5","0.5","2","3","",""
"animation","53","111613","0.0-5.0-2.24","60beba435afc451476fa7781","bdp_cybrbll","Wed Mar 29 2023 19:38:10 GMT-0700 (Pacific Daylight Time)","470227","1","3","","","","","","","","","","201","","","","2","3","[{""stimulus"":""img/2to3/1.png"",""time"":104},{""stimulus"":""img/2to3/2.png"",""time"":213},{""stimulus"":""img/2to3/3.png"",""time"":307},{""stimulus"":""img/2to3/4.png"",""time"":397},{""stimulus"":""img/2to3/5.png"",""time"":507},{""stimulus"":""img/2to3/6.png"",""time"":595},{""stimulus"":""img/2to3/7.png"",""time"":696},{""stimulus"":""img/2to3/8.png"",""time"":804},{""stimulus"":""img/2to3/9.png"",""time"":898},{""stimulus"":""img/2to3/10.png"",""time"":991},{""stimulus"":""img/2to3/11.png"",""time"":1090},{""stimulus"":""img/2to3/12.png"",""time"":1189}]","[]"
"image-keyboard-response","54","112051","0.0-5.0-1.25","60beba435afc451476fa7781","bdp_cybrbll","Wed Mar 29 2023 19:38:10 GMT-0700 (Pacific Daylight Time)","470227","1","3","","null","","","","observe","","img/3to2/1.png","null","200","425","0.5","0.5","3","1","",""
"animation","55","113339","0.0-5.0-2.25","60beba435afc451476fa7781","bdp_cybrbll","Wed Mar 29 2023 19:38:10 GMT-0700 (Pacific Daylight Time)","470227","1","3","","","","","","","","","","200","","","","3","1","[{""stimulus"":""img/3to1/1.png"",""time"":109},{""stimulus"":""img/3to1/2.png"",""time"":199},{""stimulus"":""img/3to1/3.png"",""time"":309},{""stimulus"":""img/3to1/4.png"",""time"":396},{""stimulus"":""img/3to1/5.png"",""time"":496},{""stimulus"":""img/3to1/6.png"",""time"":595},{""stimulus"":""img/3to1/7.png"",""time"":696},{""stimulus"":""img/3to1/8.png"",""time"":804},{""stimulus"":""img/3to1/9.png"",""time"":892},{""stimulus"":""img/3to1/10.png"",""time"":995},{""stimulus"":""img/3to1/11.png"",""time"":1090},{""stimulus"":""img/3to1/12.png"",""time"":1198}]","[]"
"image-keyboard-response","56","114612","0.0-5.0-1.26","60beba435afc451476fa7781","bdp_cybrbll","Wed Mar 29 2023 19:38:10 GMT-0700 (Pacific Daylight Time)","470227","1","3","","null","","","","observe","","img/1to3/1.png","null","199","1269","0.5","0.5","1","3","",""
"animation","57","115900","0.0-5.0-2.26","60beba435afc451476fa7781","bdp_cybrbll","Wed Mar 29 2023 19:38:10 GMT-0700 (Pacific Daylight Time)","470227","1","3","","","","","","","","","","199","","","","1","3","[{""stimulus"":""img/1to3/1.png"",""time"":107},{""stimulus"":""img/1to3/2.png"",""time"":200},{""stimulus"":""img/1to3/3.png"",""time"":298},{""stimulus"":""img/1to3/4.png"",""time"":409},{""stimulus"":""img/1to3/5.png"",""time"":496},{""stimulus"":""img/1to3/6.png"",""time"":595},{""stimulus"":""img/1to3/7.png"",""time"":694},{""stimulus"":""img/1to3/8.png"",""time"":793},{""stimulus"":""img/1to3/9.png"",""time"":893},{""stimulus"":""img/1to3/10.png"",""time"":991},{""stimulus"":""img/1to3/11.png"",""time"":1105},{""stimulus"":""img/1to3/12.png"",""time"":1189}]","[]"
"image-keyboard-response","58","116381","0.0-5.0-1.27","60beba435afc451476fa7781","bdp_cybrbll","Wed Mar 29 2023 19:38:10 GMT-0700 (Pacific Daylight Time)","470227","1","3","","null","","","","observe","","img/3to2/1.png","null","198","472","0.5","0.5","3","2","",""
"animation","59","117674","0.0-5.0-2.27","60beba435afc451476fa7781","bdp_cybrbll","Wed Mar 29 2023 19:38:10 GMT-0700 (Pacific Daylight Time)","470227","1","3","","","","","","","","","","198","","","","3","2","[{""stimulus"":""img/3to2/1.png"",""time"":111},{""stimulus"":""img/3to2/2.png"",""time"":205},{""stimulus"":""img/3to2/3.png"",""time"":299},{""stimulus"":""img/3to2/4.png"",""time"":407},{""stimulus"":""img/3to2/5.png"",""time"":501},{""stimulus"":""img/3to2/6.png"",""time"":595},{""stimulus"":""img/3to2/7.png"",""time"":701},{""stimulus"":""img/3to2/8.png"",""time"":792},{""stimulus"":""img/3to2/9.png"",""time"":903},{""stimulus"":""img/3to2/10.png"",""time"":996},{""stimulus"":""img/3to2/11.png"",""time"":1091},{""stimulus"":""img/3to2/12.png"",""time"":1199}]","[]"
"image-keyboard-response","60","118102","0.0-5.0-1.28","60beba435afc451476fa7781","bdp_cybrbll","Wed Mar 29 2023 19:38:10 GMT-0700 (Pacific Daylight Time)","470227","1","3","","427","","","","choice","","img/2to1/1.png","2","197","302","0.5","0.5","2","3","",""
"animation","61","119390","0.0-5.0-2.28","60beba435afc451476fa7781","bdp_cybrbll","Wed Mar 29 2023 19:38:10 GMT-0700 (Pacific Daylight Time)","470227","1","3","","","","","","","","","","197","","","","2","3","[{""stimulus"":""img/2to3/1.png"",""time"":100},{""stimulus"":""img/2to3/2.png"",""time"":199},{""stimulus"":""img/2to3/3.png"",""time"":298},{""stimulus"":""img/2to3/4.png"",""time"":397},{""stimulus"":""img/2to3/5.png"",""time"":495},{""stimulus"":""img/2to3/6.png"",""time"":598},{""stimulus"":""img/2to3/7.png"",""time"":706},{""stimulus"":""img/2to3/8.png"",""time"":793},{""stimulus"":""img/2to3/9.png"",""time"":893},{""stimulus"":""img/2to3/10.png"",""time"":1001},{""stimulus"":""img/2to3/11.png"",""time"":1090},{""stimulus"":""img/2to3/12.png"",""time"":1189}]","[]"
"image-keyboard-response","62","119630","0.0-5.0-1.29","60beba435afc451476fa7781","bdp_cybrbll","Wed Mar 29 2023 19:38:10 GMT-0700 (Pacific Daylight Time)","470227","1","3","","null","","","","observe","","img/3to2/1.png","null","196","238","0.5","0.5","3","1","",""
"animation","63","120918","0.0-5.0-2.29","60beba435afc451476fa7781","bdp_cybrbll","Wed Mar 29 2023 19:38:10 GMT-0700 (Pacific Daylight Time)","470227","1","3","","","","","","","","","","196","","","","3","1","[{""stimulus"":""img/3to1/1.png"",""time"":114},{""stimulus"":""img/3to1/2.png"",""time"":206},{""stimulus"":""img/3to1/3.png"",""time"":298},{""stimulus"":""img/3to1/4.png"",""time"":397},{""stimulus"":""img/3to1/5.png"",""time"":502},{""stimulus"":""img/3to1/6.png"",""time"":596},{""stimulus"":""img/3to1/7.png"",""time"":705},{""stimulus"":""img/3to1/8.png"",""time"":794},{""stimulus"":""img/3to1/9.png"",""time"":896},{""stimulus"":""img/3to1/10.png"",""time"":1004},{""stimulus"":""img/3to1/11.png"",""time"":1090},{""stimulus"":""img/3to1/12.png"",""time"":1190}]","[]"
"image-keyboard-response","64","121395","0.0-5.0-1.30","60beba435afc451476fa7781","bdp_cybrbll","Wed Mar 29 2023 19:38:10 GMT-0700 (Pacific Daylight Time)","470227","1","3","","null","","","","observe","","img/1to3/1.png","null","195","475","0.5","0.5","1","2","",""
"animation","65","122683","0.0-5.0-2.30","60beba435afc451476fa7781","bdp_cybrbll","Wed Mar 29 2023 19:38:10 GMT-0700 (Pacific Daylight Time)","470227","1","3","","","","","","","","","","195","","","","1","2","[{""stimulus"":""img/1to2/1.png"",""time"":109},{""stimulus"":""img/1to2/2.png"",""time"":199},{""stimulus"":""img/1to2/3.png"",""time"":298},{""stimulus"":""img/1to2/4.png"",""time"":397},{""stimulus"":""img/1to2/5.png"",""time"":506},{""stimulus"":""img/1to2/6.png"",""time"":595},{""stimulus"":""img/1to2/7.png"",""time"":705},{""stimulus"":""img/1to2/8.png"",""time"":800},{""stimulus"":""img/1to2/9.png"",""time"":892},{""stimulus"":""img/1to2/10.png"",""time"":1001},{""stimulus"":""img/1to2/11.png"",""time"":1095},{""stimulus"":""img/1to2/12.png"",""time"":1197}]","[]"
"image-keyboard-response","66","124051","0.0-5.0-1.31","60beba435afc451476fa7781","bdp_cybrbll","Wed Mar 29 2023 19:38:10 GMT-0700 (Pacific Daylight Time)","470227","1","3","","1367","","","","choice","","img/2to1/1.png","1","194","940","0.5","0.5","2","1","",""
"animation","67","125352","0.0-5.0-2.31","60beba435afc451476fa7781","bdp_cybrbll","Wed Mar 29 2023 19:38:10 GMT-0700 (Pacific Daylight Time)","470227","1","3","","","","","","","","","","194","","","","2","1","[{""stimulus"":""img/2to1/1.png"",""time"":109},{""stimulus"":""img/2to1/2.png"",""time"":200},{""stimulus"":""img/2to1/3.png"",""time"":310},{""stimulus"":""img/2to1/4.png"",""time"":397},{""stimulus"":""img/2to1/5.png"",""time"":496},{""stimulus"":""img/2to1/6.png"",""time"":595},{""stimulus"":""img/2to1/7.png"",""time"":702},{""stimulus"":""img/2to1/8.png"",""time"":794},{""stimulus"":""img/2to1/9.png"",""time"":893},{""stimulus"":""img/2to1/10.png"",""time"":1002},{""stimulus"":""img/2to1/11.png"",""time"":1100},{""stimulus"":""img/2to1/12.png"",""time"":1193}]","[]"
"image-keyboard-response","68","125999","0.0-5.0-1.32","60beba435afc451476fa7781","bdp_cybrbll","Wed Mar 29 2023 19:38:10 GMT-0700 (Pacific Daylight Time)","470227","1","3","","null","","","","observe","","img/1to3/1.png","null","193","639","0.5","0.5","1","3","",""
"animation","69","127296","0.0-5.0-2.32","60beba435afc451476fa7781","bdp_cybrbll","Wed Mar 29 2023 19:38:10 GMT-0700 (Pacific Daylight Time)","470227","1","3","","","","","","","","","","193","","","","1","3","[{""stimulus"":""img/1to3/1.png"",""time"":108},{""stimulus"":""img/1to3/2.png"",""time"":201},{""stimulus"":""img/1to3/3.png"",""time"":310},{""stimulus"":""img/1to3/4.png"",""time"":396},{""stimulus"":""img/1to3/5.png"",""time"":496},{""stimulus"":""img/1to3/6.png"",""time"":595},{""stimulus"":""img/1to3/7.png"",""time"":694},{""stimulus"":""img/1to3/8.png"",""time"":803},{""stimulus"":""img/1to3/9.png"",""time"":897},{""stimulus"":""img/1to3/10.png"",""time"":991},{""stimulus"":""img/1to3/11.png"",""time"":1089},{""stimulus"":""img/1to3/12.png"",""time"":1203}]","[]"
"image-keyboard-response","70","127560","0.0-5.0-1.33","60beba435afc451476fa7781","bdp_cybrbll","Wed Mar 29 2023 19:38:10 GMT-0700 (Pacific Daylight Time)","470227","1","3","","null","","","","observe","","img/3to2/1.png","null","192","258","0.5","0.5","3","1","",""
"animation","71","128860","0.0-5.0-2.33","60beba435afc451476fa7781","bdp_cybrbll","Wed Mar 29 2023 19:38:10 GMT-0700 (Pacific Daylight Time)","470227","1","3","","","","","","","","","","192","","","","3","1","[{""stimulus"":""img/3to1/1.png"",""time"":113},{""stimulus"":""img/3to1/2.png"",""time"":199},{""stimulus"":""img/3to1/3.png"",""time"":298},{""stimulus"":""img/3to1/4.png"",""time"":397},{""stimulus"":""img/3to1/5.png"",""time"":496},{""stimulus"":""img/3to1/6.png"",""time"":598},{""stimulus"":""img/3to1/7.png"",""time"":694},{""stimulus"":""img/3to1/8.png"",""time"":793},{""stimulus"":""img/3to1/9.png"",""time"":893},{""stimulus"":""img/3to1/10.png"",""time"":991},{""stimulus"":""img/3to1/11.png"",""time"":1091},{""stimulus"":""img/3to1/12.png"",""time"":1191}]","[]"
"image-keyboard-response","72","129126","0.0-5.0-1.34","60beba435afc451476fa7781","bdp_cybrbll","Wed Mar 29 2023 19:38:10 GMT-0700 (Pacific Daylight Time)","470227","1","3","","null","","","","observe","","img/1to3/1.png","null","191","265","0.5","0.5","1","3","",""
"animation","73","130426","0.0-5.0-2.34","60beba435afc451476fa7781","bdp_cybrbll","Wed Mar 29 2023 19:38:10 GMT-0700 (Pacific Daylight Time)","470227","1","3","","","","","","","","","","191","","","","1","3","[{""stimulus"":""img/1to3/1.png"",""time"":112},{""stimulus"":""img/1to3/2.png"",""time"":199},{""stimulus"":""img/1to3/3.png"",""time"":298},{""stimulus"":""img/1to3/4.png"",""time"":397},{""stimulus"":""img/1to3/5.png"",""time"":495},{""stimulus"":""img/1to3/6.png"",""time"":596},{""stimulus"":""img/1to3/7.png"",""time"":693},{""stimulus"":""img/1to3/8.png"",""time"":792},{""stimulus"":""img/1to3/9.png"",""time"":894},{""stimulus"":""img/1to3/10.png"",""time"":1002},{""stimulus"":""img/1to3/11.png"",""time"":1096},{""stimulus"":""img/1to3/12.png"",""time"":1188}]","[]"
"image-keyboard-response","74","130692","0.0-5.0-1.35","60beba435afc451476fa7781","bdp_cybrbll","Wed Mar 29 2023 19:38:10 GMT-0700 (Pacific Daylight Time)","470227","1","3","","null","","","","observe","","img/3to2/1.png","null","190","265","0.5","0.5","3","2","",""
"animation","75","131994","0.0-5.0-2.35","60beba435afc451476fa7781","bdp_cybrbll","Wed Mar 29 2023 19:38:10 GMT-0700 (Pacific Daylight Time)","470227","1","3","","","","","","","","","","190","","","","3","2","[{""stimulus"":""img/3to2/1.png"",""time"":113},{""stimulus"":""img/3to2/2.png"",""time"":199},{""stimulus"":""img/3to2/3.png"",""time"":299},{""stimulus"":""img/3to2/4.png"",""time"":397},{""stimulus"":""img/3to2/5.png"",""time"":497},{""stimulus"":""img/3to2/6.png"",""time"":595},{""stimulus"":""img/3to2/7.png"",""time"":700},{""stimulus"":""img/3to2/8.png"",""time"":793},{""stimulus"":""img/3to2/9.png"",""time"":892},{""stimulus"":""img/3to2/10.png"",""time"":995},{""stimulus"":""img/3to2/11.png"",""time"":1090},{""stimulus"":""img/3to2/12.png"",""time"":1189}]","[]"
"image-keyboard-response","76","132276","0.0-5.0-1.36","60beba435afc451476fa7781","bdp_cybrbll","Wed Mar 29 2023 19:38:10 GMT-0700 (Pacific Daylight Time)","470227","1","3","","282","","","","choice","","img/2to1/1.png","2","189","394","0.5","0.5","2","3","",""
"animation","77","133575","0.0-5.0-2.36","60beba435afc451476fa7781","bdp_cybrbll","Wed Mar 29 2023 19:38:10 GMT-0700 (Pacific Daylight Time)","470227","1","3","","","","","","","","","","189","","","","2","3","[{""stimulus"":""img/2to3/1.png"",""time"":101},{""stimulus"":""img/2to3/2.png"",""time"":212},{""stimulus"":""img/2to3/3.png"",""time"":305},{""stimulus"":""img/2to3/4.png"",""time"":399},{""stimulus"":""img/2to3/5.png"",""time"":497},{""stimulus"":""img/2to3/6.png"",""time"":607},{""stimulus"":""img/2to3/7.png"",""time"":694},{""stimulus"":""img/2to3/8.png"",""time"":794},{""stimulus"":""img/2to3/9.png"",""time"":901},{""stimulus"":""img/2to3/10.png"",""time"":1004},{""stimulus"":""img/2to3/11.png"",""time"":1090},{""stimulus"":""img/2to3/12.png"",""time"":1191}]","[]"
"image-keyboard-response","78","134141","0.0-5.0-1.37","60beba435afc451476fa7781","bdp_cybrbll","Wed Mar 29 2023 19:38:10 GMT-0700 (Pacific Daylight Time)","470227","1","3","","null","","","","observe","","img/3to2/1.png","null","188","559","0.5","0.5","3","2","",""
"animation","79","135429","0.0-5.0-2.37","60beba435afc451476fa7781","bdp_cybrbll","Wed Mar 29 2023 19:38:10 GMT-0700 (Pacific Daylight Time)","470227","1","3","","","","","","","","","","188","","","","3","2","[{""stimulus"":""img/3to2/1.png"",""time"":107},{""stimulus"":""img/3to2/2.png"",""time"":199},{""stimulus"":""img/3to2/3.png"",""time"":308},{""stimulus"":""img/3to2/4.png"",""time"":401},{""stimulus"":""img/3to2/5.png"",""time"":510},{""stimulus"":""img/3to2/6.png"",""time"":595},{""stimulus"":""img/3to2/7.png"",""time"":694},{""stimulus"":""img/3to2/8.png"",""time"":793},{""stimulus"":""img/3to2/9.png"",""time"":892},{""stimulus"":""img/3to2/10.png"",""time"":992},{""stimulus"":""img/3to2/11.png"",""time"":1097},{""stimulus"":""img/3to2/12.png"",""time"":1189}]","[]"
"image-keyboard-response","80","135694","0.0-5.0-1.38","60beba435afc451476fa7781","bdp_cybrbll","Wed Mar 29 2023 19:38:10 GMT-0700 (Pacific Daylight Time)","470227","1","3","","264","","","","choice","","img/2to1/1.png","1","187","833","0.5","0.5","2","1","",""
"animation","81","136985","0.0-5.0-2.38","60beba435afc451476fa7781","bdp_cybrbll","Wed Mar 29 2023 19:38:10 GMT-0700 (Pacific Daylight Time)","470227","1","3","","","","","","","","","","187","","","","2","1","[{""stimulus"":""img/2to1/1.png"",""time"":101},{""stimulus"":""img/2to1/2.png"",""time"":199},{""stimulus"":""img/2to1/3.png"",""time"":307},{""stimulus"":""img/2to1/4.png"",""time"":397},{""stimulus"":""img/2to1/5.png"",""time"":511},{""stimulus"":""img/2to1/6.png"",""time"":595},{""stimulus"":""img/2to1/7.png"",""time"":698},{""stimulus"":""img/2to1/8.png"",""time"":807},{""stimulus"":""img/2to1/9.png"",""time"":892},{""stimulus"":""img/2to1/10.png"",""time"":990},{""stimulus"":""img/2to1/11.png"",""time"":1104},{""stimulus"":""img/2to1/12.png"",""time"":1198}]","[]"
"image-keyboard-response","82","137502","0.0-5.0-1.39","60beba435afc451476fa7781","bdp_cybrbll","Wed Mar 29 2023 19:38:10 GMT-0700 (Pacific Daylight Time)","470227","1","3","","null","","","","observe","","img/1to3/1.png","null","186","505","0.5","0.5","1","3","",""
"animation","83","138791","0.0-5.0-2.39","60beba435afc451476fa7781","bdp_cybrbll","Wed Mar 29 2023 19:38:10 GMT-0700 (Pacific Daylight Time)","470227","1","3","","","","","","","","","","186","","","","1","3","[{""stimulus"":""img/1to3/1.png"",""time"":109},{""stimulus"":""img/1to3/2.png"",""time"":204},{""stimulus"":""img/1to3/3.png"",""time"":298},{""stimulus"":""img/1to3/4.png"",""time"":396},{""stimulus"":""img/1to3/5.png"",""time"":499},{""stimulus"":""img/1to3/6.png"",""time"":609},{""stimulus"":""img/1to3/7.png"",""time"":702},{""stimulus"":""img/1to3/8.png"",""time"":796},{""stimulus"":""img/1to3/9.png"",""time"":891},{""stimulus"":""img/1to3/10.png"",""time"":991},{""stimulus"":""img/1to3/11.png"",""time"":1089},{""stimulus"":""img/1to3/12.png"",""time"":1188}]","[]"
"image-keyboard-response","84","139928","0.0-5.0-1.40","60beba435afc451476fa7781","bdp_cybrbll","Wed Mar 29 2023 19:38:10 GMT-0700 (Pacific Daylight Time)","470227","1","3","","null","","","","observe","","img/3to2/1.png","null","185","1130","0.5","0.5","3","2","",""
"animation","85","141216","0.0-5.0-2.40","60beba435afc451476fa7781","bdp_cybrbll","Wed Mar 29 2023 19:38:10 GMT-0700 (Pacific Daylight Time)","470227","1","3","","","","","","","","","","185","","","","3","2","[{""stimulus"":""img/3to2/1.png"",""time"":109},{""stimulus"":""img/3to2/2.png"",""time"":201},{""stimulus"":""img/3to2/3.png"",""time"":298},{""stimulus"":""img/3to2/4.png"",""time"":397},{""stimulus"":""img/3to2/5.png"",""time"":497},{""stimulus"":""img/3to2/6.png"",""time"":605},{""stimulus"":""img/3to2/7.png"",""time"":694},{""stimulus"":""img/3to2/8.png"",""time"":793},{""stimulus"":""img/3to2/9.png"",""time"":892},{""stimulus"":""img/3to2/10.png"",""time"":995},{""stimulus"":""img/3to2/11.png"",""time"":1091},{""stimulus"":""img/3to2/12.png"",""time"":1199}]","[]"
"image-keyboard-response","86","141526","0.0-5.0-1.41","60beba435afc451476fa7781","bdp_cybrbll","Wed Mar 29 2023 19:38:10 GMT-0700 (Pacific Daylight Time)","470227","1","3","","310","","","","choice","","img/2to1/1.png","2","184","284","0.5","0.5","2","3","",""
"animation","87","142827","0.0-5.0-2.41","60beba435afc451476fa7781","bdp_cybrbll","Wed Mar 29 2023 19:38:10 GMT-0700 (Pacific Daylight Time)","470227","1","3","","","","","","","","","","184","","","","2","3","[{""stimulus"":""img/2to3/1.png"",""time"":102},{""stimulus"":""img/2to3/2.png"",""time"":212},{""stimulus"":""img/2to3/3.png"",""time"":298},{""stimulus"":""img/2to3/4.png"",""time"":398},{""stimulus"":""img/2to3/5.png"",""time"":509},{""stimulus"":""img/2to3/6.png"",""time"":601},{""stimulus"":""img/2to3/7.png"",""time"":694},{""stimulus"":""img/2to3/8.png"",""time"":793},{""stimulus"":""img/2to3/9.png"",""time"":892},{""stimulus"":""img/2to3/10.png"",""time"":1005},{""stimulus"":""img/2to3/11.png"",""time"":1090},{""stimulus"":""img/2to3/12.png"",""time"":1193}]","[]"
"image-keyboard-response","88","143174","0.0-5.0-1.42","60beba435afc451476fa7781","bdp_cybrbll","Wed Mar 29 2023 19:38:10 GMT-0700 (Pacific Daylight Time)","470227","1","3","","null","","","","observe","","img/3to2/1.png","null","183","346","0.5","0.5","3","2","",""
"animation","89","144474","0.0-5.0-2.42","60beba435afc451476fa7781","bdp_cybrbll","Wed Mar 29 2023 19:38:10 GMT-0700 (Pacific Daylight Time)","470227","1","3","","","","","","","","","","183","","","","3","2","[{""stimulus"":""img/3to2/1.png"",""time"":108},{""stimulus"":""img/3to2/2.png"",""time"":200},{""stimulus"":""img/3to2/3.png"",""time"":312},{""stimulus"":""img/3to2/4.png"",""time"":397},{""stimulus"":""img/3to2/5.png"",""time"":497},{""stimulus"":""img/3to2/6.png"",""time"":595},{""stimulus"":""img/3to2/7.png"",""time"":694},{""stimulus"":""img/3to2/8.png"",""time"":792},{""stimulus"":""img/3to2/9.png"",""time"":896},{""stimulus"":""img/3to2/10.png"",""time"":1005},{""stimulus"":""img/3to2/11.png"",""time"":1090},{""stimulus"":""img/3to2/12.png"",""time"":1191}]","[]"
"image-keyboard-response","90","144688","0.0-5.0-1.43","60beba435afc451476fa7781","bdp_cybrbll","Wed Mar 29 2023 19:38:10 GMT-0700 (Pacific Daylight Time)","470227","1","3","","213","","","","choice","","img/2to1/1.png","1","182","591","0.5","0.5","2","1","",""
"animation","91","145976","0.0-5.0-2.43","60beba435afc451476fa7781","bdp_cybrbll","Wed Mar 29 2023 19:38:10 GMT-0700 (Pacific Daylight Time)","470227","1","3","","","","","","","","","","182","","","","2","1","[{""stimulus"":""img/2to1/1.png"",""time"":99},{""stimulus"":""img/2to1/2.png"",""time"":205},{""stimulus"":""img/2to1/3.png"",""time"":313},{""stimulus"":""img/2to1/4.png"",""time"":407},{""stimulus"":""img/2to1/5.png"",""time"":496},{""stimulus"":""img/2to1/6.png"",""time"":607},{""stimulus"":""img/2to1/7.png"",""time"":700},{""stimulus"":""img/2to1/8.png"",""time"":807},{""stimulus"":""img/2to1/9.png"",""time"":900},{""stimulus"":""img/2to1/10.png"",""time"":991},{""stimulus"":""img/2to1/11.png"",""time"":1103},{""stimulus"":""img/2to1/12.png"",""time"":1189}]","[]"
"image-keyboard-response","92","146426","0.0-5.0-1.44","60beba435afc451476fa7781","bdp_cybrbll","Wed Mar 29 2023 19:38:10 GMT-0700 (Pacific Daylight Time)","470227","1","3","","null","","","","observe","","img/1to3/1.png","null","181","442","0.5","0.5","1","3","",""
"animation","93","147724","0.0-5.0-2.44","60beba435afc451476fa7781","bdp_cybrbll","Wed Mar 29 2023 19:38:10 GMT-0700 (Pacific Daylight Time)","470227","1","3","","","","","","","","","","181","","","","1","3","[{""stimulus"":""img/1to3/1.png"",""time"":106},{""stimulus"":""img/1to3/2.png"",""time"":199},{""stimulus"":""img/1to3/3.png"",""time"":297},{""stimulus"":""img/1to3/4.png"",""time"":401},{""stimulus"":""img/1to3/5.png"",""time"":509},{""stimulus"":""img/1to3/6.png"",""time"":595},{""stimulus"":""img/1to3/7.png"",""time"":694},{""stimulus"":""img/1to3/8.png"",""time"":792},{""stimulus"":""img/1to3/9.png"",""time"":896},{""stimulus"":""img/1to3/10.png"",""time"":1004},{""stimulus"":""img/1to3/11.png"",""time"":1097},{""stimulus"":""img/1to3/12.png"",""time"":1189}]","[]"
"image-keyboard-response","94","148111","0.0-5.0-1.45","60beba435afc451476fa7781","bdp_cybrbll","Wed Mar 29 2023 19:38:10 GMT-0700 (Pacific Daylight Time)","470227","1","3","","null","","","","observe","","img/3to2/1.png","null","180","385","0.5","0.5","3","1","",""
"animation","95","149403","0.0-5.0-2.45","60beba435afc451476fa7781","bdp_cybrbll","Wed Mar 29 2023 19:38:10 GMT-0700 (Pacific Daylight Time)","470227","1","3","","","","","","","","","","180","","","","3","1","[{""stimulus"":""img/3to1/1.png"",""time"":108},{""stimulus"":""img/3to1/2.png"",""time"":201},{""stimulus"":""img/3to1/3.png"",""time"":311},{""stimulus"":""img/3to1/4.png"",""time"":404},{""stimulus"":""img/3to1/5.png"",""time"":499},{""stimulus"":""img/3to1/6.png"",""time"":607},{""stimulus"":""img/3to1/7.png"",""time"":700},{""stimulus"":""img/3to1/8.png"",""time"":793},{""stimulus"":""img/3to1/9.png"",""time"":902},{""stimulus"":""img/3to1/10.png"",""time"":998},{""stimulus"":""img/3to1/11.png"",""time"":1091},{""stimulus"":""img/3to1/12.png"",""time"":1199}]","[]"
"image-keyboard-response","96","149741","0.0-5.0-1.46","60beba435afc451476fa7781","bdp_cybrbll","Wed Mar 29 2023 19:38:10 GMT-0700 (Pacific Daylight Time)","470227","1","3","","null","","","","observe","","img/1to3/1.png","null","179","336","0.5","0.5","1","3","",""
"animation","97","151044","0.0-5.0-2.46","60beba435afc451476fa7781","bdp_cybrbll","Wed Mar 29 2023 19:38:10 GMT-0700 (Pacific Daylight Time)","470227","1","3","","","","","","","","","","179","","","","1","3","[{""stimulus"":""img/1to3/1.png"",""time"":107},{""stimulus"":""img/1to3/2.png"",""time"":198},{""stimulus"":""img/1to3/3.png"",""time"":310},{""stimulus"":""img/1to3/4.png"",""time"":397},{""stimulus"":""img/1to3/5.png"",""time"":497},{""stimulus"":""img/1to3/6.png"",""time"":605},{""stimulus"":""img/1to3/7.png"",""time"":694},{""stimulus"":""img/1to3/8.png"",""time"":793},{""stimulus"":""img/1to3/9.png"",""time"":891},{""stimulus"":""img/1to3/10.png"",""time"":1004},{""stimulus"":""img/1to3/11.png"",""time"":1090},{""stimulus"":""img/1to3/12.png"",""time"":1189}]","[]"
"image-keyboard-response","98","151641","0.0-5.0-1.47","60beba435afc451476fa7781","bdp_cybrbll","Wed Mar 29 2023 19:38:10 GMT-0700 (Pacific Daylight Time)","470227","1","3","","null","","","","observe","","img/3to2/1.png","null","178","589","0.5","0.5","3","1","",""
"animation","99","152930","0.0-5.0-2.47","60beba435afc451476fa7781","bdp_cybrbll","Wed Mar 29 2023 19:38:10 GMT-0700 (Pacific Daylight Time)","470227","1","3","","","","","","","","","","178","","","","3","1","[{""stimulus"":""img/3to1/1.png"",""time"":109},{""stimulus"":""img/3to1/2.png"",""time"":199},{""stimulus"":""img/3to1/3.png"",""time"":310},{""stimulus"":""img/3to1/4.png"",""time"":397},{""stimulus"":""img/3to1/5.png"",""time"":509},{""stimulus"":""img/3to1/6.png"",""time"":595},{""stimulus"":""img/3to1/7.png"",""time"":709},{""stimulus"":""img/3to1/8.png"",""time"":793},{""stimulus"":""img/3to1/9.png"",""time"":893},{""stimulus"":""img/3to1/10.png"",""time"":992},{""stimulus"":""img/3to1/11.png"",""time"":1090},{""stimulus"":""img/3to1/12.png"",""time"":1196}]","[]"
"image-keyboard-response","100","153619","0.0-5.0-1.48","60beba435afc451476fa7781","bdp_cybrbll","Wed Mar 29 2023 19:38:10 GMT-0700 (Pacific Daylight Time)","470227","1","3","","null","","","","observe","","img/1to3/1.png","null","177","674","0.5","0.5","1","2","",""
"animation","101","154907","0.0-5.0-2.48","60beba435afc451476fa7781","bdp_cybrbll","Wed Mar 29 2023 19:38:10 GMT-0700 (Pacific Daylight Time)","470227","1","3","","","","","","","","","","177","","","","1","2","[{""stimulus"":""img/1to2/1.png"",""time"":105},{""stimulus"":""img/1to2/2.png"",""time"":213},{""stimulus"":""img/1to2/3.png"",""time"":298},{""stimulus"":""img/1to2/4.png"",""time"":399},{""stimulus"":""img/1to2/5.png"",""time"":507},{""stimulus"":""img/1to2/6.png"",""time"":601},{""stimulus"":""img/1to2/7.png"",""time"":694},{""stimulus"":""img/1to2/8.png"",""time"":803},{""stimulus"":""img/1to2/9.png"",""time"":891},{""stimulus"":""img/1to2/10.png"",""time"":991},{""stimulus"":""img/1to2/11.png"",""time"":1089},{""stimulus"":""img/1to2/12.png"",""time"":1188}]","[]"
"image-keyboard-response","102","155321","0.0-5.0-1.49","60beba435afc451476fa7781","bdp_cybrbll","Wed Mar 29 2023 19:38:10 GMT-0700 (Pacific Daylight Time)","470227","1","3","","413","","","","choice","","img/2to1/1.png","2","176","337","0.5","0.5","2","3","",""
"animation","103","156608","0.0-5.0-2.49","60beba435afc451476fa7781","bdp_cybrbll","Wed Mar 29 2023 19:38:10 GMT-0700 (Pacific Daylight Time)","470227","1","3","","","","","","","","","","176","","","","2","3","[{""stimulus"":""img/2to3/1.png"",""time"":104},{""stimulus"":""img/2to3/2.png"",""time"":212},{""stimulus"":""img/2to3/3.png"",""time"":305},{""stimulus"":""img/2to3/4.png"",""time"":398},{""stimulus"":""img/2to3/5.png"",""time"":508},{""stimulus"":""img/2to3/6.png"",""time"":596},{""stimulus"":""img/2to3/7.png"",""time"":694},{""stimulus"":""img/2to3/8.png"",""time"":793},{""stimulus"":""img/2to3/9.png"",""time"":896},{""stimulus"":""img/2to3/10.png"",""time"":1005},{""stimulus"":""img/2to3/11.png"",""time"":1099},{""stimulus"":""img/2to3/12.png"",""time"":1190}]","[]"
"image-keyboard-response","104","157082","0.0-5.0-1.50","60beba435afc451476fa7781","bdp_cybrbll","Wed Mar 29 2023 19:38:10 GMT-0700 (Pacific Daylight Time)","470227","1","3","","null","","","","observe","","img/3to2/1.png","null","175","459","0.5","0.5","3","2","",""
"animation","105","158384","0.0-5.0-2.50","60beba435afc451476fa7781","bdp_cybrbll","Wed Mar 29 2023 19:38:10 GMT-0700 (Pacific Daylight Time)","470227","1","3","","","","","","","","","","175","","","","3","2","[{""stimulus"":""img/3to2/1.png"",""time"":109},{""stimulus"":""img/3to2/2.png"",""time"":199},{""stimulus"":""img/3to2/3.png"",""time"":312},{""stimulus"":""img/3to2/4.png"",""time"":397},{""stimulus"":""img/3to2/5.png"",""time"":497},{""stimulus"":""img/3to2/6.png"",""time"":604},{""stimulus"":""img/3to2/7.png"",""time"":698},{""stimulus"":""img/3to2/8.png"",""time"":806},{""stimulus"":""img/3to2/9.png"",""time"":892},{""stimulus"":""img/3to2/10.png"",""time"":991},{""stimulus"":""img/3to2/11.png"",""time"":1090},{""stimulus"":""img/3to2/12.png"",""time"":1189}]","[]"
"image-keyboard-response","106","159219","0.0-5.0-1.51","60beba435afc451476fa7781","bdp_cybrbll","Wed Mar 29 2023 19:38:10 GMT-0700 (Pacific Daylight Time)","470227","1","3","","835","","","","choice","","img/2to1/1.png","2","174","651","0.5","0.5","2","3","",""
"animation","107","160507","0.0-5.0-2.51","60beba435afc451476fa7781","bdp_cybrbll","Wed Mar 29 2023 19:38:10 GMT-0700 (Pacific Daylight Time)","470227","1","3","","","","","","","","","","174","","","","2","3","[{""stimulus"":""img/2to3/1.png"",""time"":100},{""stimulus"":""img/2to3/2.png"",""time"":214},{""stimulus"":""img/2to3/3.png"",""time"":306},{""stimulus"":""img/2to3/4.png"",""time"":398},{""stimulus"":""img/2to3/5.png"",""time"":508},{""stimulus"":""img/2to3/6.png"",""time"":595},{""stimulus"":""img/2to3/7.png"",""time"":704},{""stimulus"":""img/2to3/8.png"",""time"":796},{""stimulus"":""img/2to3/9.png"",""time"":906},{""stimulus"":""img/2to3/10.png"",""time"":998},{""stimulus"":""img/2to3/11.png"",""time"":1091},{""stimulus"":""img/2to3/12.png"",""time"":1199}]","[]"
"image-keyboard-response","108","160848","0.0-5.0-1.52","60beba435afc451476fa7781","bdp_cybrbll","Wed Mar 29 2023 19:38:10 GMT-0700 (Pacific Daylight Time)","470227","1","3","","null","","","","observe","","img/3to2/1.png","null","173","340","0.5","0.5","3","2","",""
"animation","109","162136","0.0-5.0-2.52","60beba435afc451476fa7781","bdp_cybrbll","Wed Mar 29 2023 19:38:10 GMT-0700 (Pacific Daylight Time)","470227","1","3","","","","","","","","","","173","","","","3","2","[{""stimulus"":""img/3to2/1.png"",""time"":107},{""stimulus"":""img/3to2/2.png"",""time"":200},{""stimulus"":""img/3to2/3.png"",""time"":309},{""stimulus"":""img/3to2/4.png"",""time"":397},{""stimulus"":""img/3to2/5.png"",""time"":502},{""stimulus"":""img/3to2/6.png"",""time"":595},{""stimulus"":""img/3to2/7.png"",""time"":704},{""stimulus"":""img/3to2/8.png"",""time"":793},{""stimulus"":""img/3to2/9.png"",""time"":892},{""stimulus"":""img/3to2/10.png"",""time"":991},{""stimulus"":""img/3to2/11.png"",""time"":1091},{""stimulus"":""img/3to2/12.png"",""time"":1189}]","[]"
"image-keyboard-response","110","162407","0.0-5.0-1.53","60beba435afc451476fa7781","bdp_cybrbll","Wed Mar 29 2023 19:38:10 GMT-0700 (Pacific Daylight Time)","470227","1","3","","270","","","","choice","","img/2to1/1.png","1","172","354","0.5","0.5","2","1","",""
"animation","111","163695","0.0-5.0-2.53","60beba435afc451476fa7781","bdp_cybrbll","Wed Mar 29 2023 19:38:10 GMT-0700 (Pacific Daylight Time)","470227","1","3","","","","","","","","","","172","","","","2","1","[{""stimulus"":""img/2to1/1.png"",""time"":101},{""stimulus"":""img/2to1/2.png"",""time"":212},{""stimulus"":""img/2to1/3.png"",""time"":304},{""stimulus"":""img/2to1/4.png"",""time"":398},{""stimulus"":""img/2to1/5.png"",""time"":497},{""stimulus"":""img/2to1/6.png"",""time"":596},{""stimulus"":""img/2to1/7.png"",""time"":695},{""stimulus"":""img/2to1/8.png"",""time"":794},{""stimulus"":""img/2to1/9.png"",""time"":893},{""stimulus"":""img/2to1/10.png"",""time"":1003},{""stimulus"":""img/2to1/11.png"",""time"":1096},{""stimulus"":""img/2to1/12.png"",""time"":1190}]","[]"
"image-keyboard-response","112","164227","0.0-5.0-1.54","60beba435afc451476fa7781","bdp_cybrbll","Wed Mar 29 2023 19:38:10 GMT-0700 (Pacific Daylight Time)","470227","1","3","","null","","","","observe","","img/1to3/1.png","null","171","526","0.5","0.5","1","3","",""
"animation","113","165522","0.0-5.0-2.54","60beba435afc451476fa7781","bdp_cybrbll","Wed Mar 29 2023 19:38:10 GMT-0700 (Pacific Daylight Time)","470227","1","3","","","","","","","","","","171","","","","1","3","[{""stimulus"":""img/1to3/1.png"",""time"":116},{""stimulus"":""img/1to3/2.png"",""time"":210},{""stimulus"":""img/1to3/3.png"",""time"":299},{""stimulus"":""img/1to3/4.png"",""time"":411},{""stimulus"":""img/1to3/5.png"",""time"":497},{""stimulus"":""img/1to3/6.png"",""time"":598},{""stimulus"":""img/1to3/7.png"",""time"":706},{""stimulus"":""img/1to3/8.png"",""time"":794},{""stimulus"":""img/1to3/9.png"",""time"":893},{""stimulus"":""img/1to3/10.png"",""time"":1000},{""stimulus"":""img/1to3/11.png"",""time"":1090},{""stimulus"":""img/1to3/12.png"",""time"":1203}]","[]"
"image-keyboard-response","114","165907","0.0-5.0-1.55","60beba435afc451476fa7781","bdp_cybrbll","Wed Mar 29 2023 19:38:10 GMT-0700 (Pacific Daylight Time)","470227","1","3","","null","","","","observe","","img/3to2/1.png","null","170","384","0.5","0.5","3","1","",""
"animation","115","167194","0.0-5.0-2.55","60beba435afc451476fa7781","bdp_cybrbll","Wed Mar 29 2023 19:38:10 GMT-0700 (Pacific Daylight Time)","470227","1","3","","","","","","","","","","170","","","","3","1","[{""stimulus"":""img/3to1/1.png"",""time"":109},{""stimulus"":""img/3to1/2.png"",""time"":201},{""stimulus"":""img/3to1/3.png"",""time"":310},{""stimulus"":""img/3to1/4.png"",""time"":397},{""stimulus"":""img/3to1/5.png"",""time"":508},{""stimulus"":""img/3to1/6.png"",""time"":596},{""stimulus"":""img/3to1/7.png"",""time"":696},{""stimulus"":""img/3to1/8.png"",""time"":803},{""stimulus"":""img/3to1/9.png"",""time"":896},{""stimulus"":""img/3to1/10.png"",""time"":992},{""stimulus"":""img/3to1/11.png"",""time"":1090},{""stimulus"":""img/3to1/12.png"",""time"":1189}]","[]"
"image-keyboard-response","116","168403","0.0-5.0-1.56","60beba435afc451476fa7781","bdp_cybrbll","Wed Mar 29 2023 19:38:10 GMT-0700 (Pacific Daylight Time)","470227","1","3","","null","","","","observe","","img/1to3/1.png","null","169","1204","0.5","0.5","1","3","",""
"animation","117","169690","0.0-5.0-2.56","60beba435afc451476fa7781","bdp_cybrbll","Wed Mar 29 2023 19:38:10 GMT-0700 (Pacific Daylight Time)","470227","1","3","","","","","","","","","","169","","","","1","3","[{""stimulus"":""img/1to3/1.png"",""time"":106},{""stimulus"":""img/1to3/2.png"",""time"":200},{""stimulus"":""img/1to3/3.png"",""time"":307},{""stimulus"":""img/1to3/4.png"",""time"":399},{""stimulus"":""img/1to3/5.png"",""time"":510},{""stimulus"":""img/1to3/6.png"",""time"":606},{""stimulus"":""img/1to3/7.png"",""time"":694},{""stimulus"":""img/1to3/8.png"",""time"":793},{""stimulus"":""img/1to3/9.png"",""time"":901},{""stimulus"":""img/1to3/10.png"",""time"":994},{""stimulus"":""img/1to3/11.png"",""time"":1090},{""stimulus"":""img/1to3/12.png"",""time"":1189}]","[]"
"image-keyboard-response","118","169973","0.0-5.0-1.57","60beba435afc451476fa7781","bdp_cybrbll","Wed Mar 29 2023 19:38:10 GMT-0700 (Pacific Daylight Time)","470227","1","3","","null","","","","observe","","img/3to2/1.png","null","168","281","0.5","0.5","3","1","",""
"animation","119","171263","0.0-5.0-2.57","60beba435afc451476fa7781","bdp_cybrbll","Wed Mar 29 2023 19:38:10 GMT-0700 (Pacific Daylight Time)","470227","1","3","","","","","","","","","","168","","","","3","1","[{""stimulus"":""img/3to1/1.png"",""time"":103},{""stimulus"":""img/3to1/2.png"",""time"":198},{""stimulus"":""img/3to1/3.png"",""time"":304},{""stimulus"":""img/3to1/4.png"",""time"":397},{""stimulus"":""img/3to1/5.png"",""time"":497},{""stimulus"":""img/3to1/6.png"",""time"":595},{""stimulus"":""img/3to1/7.png"",""time"":697},{""stimulus"":""img/3to1/8.png"",""time"":792},{""stimulus"":""img/3to1/9.png"",""time"":892},{""stimulus"":""img/3to1/10.png"",""time"":990},{""stimulus"":""img/3to1/11.png"",""time"":1104},{""stimulus"":""img/3to1/12.png"",""time"":1188}]","[]"
"image-keyboard-response","120","171463","0.0-5.0-1.58","60beba435afc451476fa7781","bdp_cybrbll","Wed Mar 29 2023 19:38:10 GMT-0700 (Pacific Daylight Time)","470227","1","3","","null","","","","observe","","img/1to3/1.png","null","167","197","0.5","0.5","1","2","",""
"animation","121","172751","0.0-5.0-2.58","60beba435afc451476fa7781","bdp_cybrbll","Wed Mar 29 2023 19:38:10 GMT-0700 (Pacific Daylight Time)","470227","1","3","","","","","","","","","","167","","","","1","2","[{""stimulus"":""img/1to2/1.png"",""time"":108},{""stimulus"":""img/1to2/2.png"",""time"":199},{""stimulus"":""img/1to2/3.png"",""time"":309},{""stimulus"":""img/1to2/4.png"",""time"":397},{""stimulus"":""img/1to2/5.png"",""time"":500},{""stimulus"":""img/1to2/6.png"",""time"":596},{""stimulus"":""img/1to2/7.png"",""time"":694},{""stimulus"":""img/1to2/8.png"",""time"":797},{""stimulus"":""img/1to2/9.png"",""time"":892},{""stimulus"":""img/1to2/10.png"",""time"":1000},{""stimulus"":""img/1to2/11.png"",""time"":1097},{""stimulus"":""img/1to2/12.png"",""time"":1191}]","[]"
"image-keyboard-response","122","172840","0.0-5.0-1.59","60beba435afc451476fa7781","bdp_cybrbll","Wed Mar 29 2023 19:38:10 GMT-0700 (Pacific Daylight Time)","470227","1","3","","89","","","","choice","","img/2to1/1.png","2","166","185","0.5","0.5","2","3","",""
"animation","123","174142","0.0-5.0-2.59","60beba435afc451476fa7781","bdp_cybrbll","Wed Mar 29 2023 19:38:10 GMT-0700 (Pacific Daylight Time)","470227","1","3","","","","","","","","","","166","","","","2","3","[{""stimulus"":""img/2to3/1.png"",""time"":109},{""stimulus"":""img/2to3/2.png"",""time"":200},{""stimulus"":""img/2to3/3.png"",""time"":309},{""stimulus"":""img/2to3/4.png"",""time"":402},{""stimulus"":""img/2to3/5.png"",""time"":511},{""stimulus"":""img/2to3/6.png"",""time"":595},{""stimulus"":""img/2to3/7.png"",""time"":700},{""stimulus"":""img/2to3/8.png"",""time"":793},{""stimulus"":""img/2to3/9.png"",""time"":904},{""stimulus"":""img/2to3/10.png"",""time"":998},{""stimulus"":""img/2to3/11.png"",""time"":1090},{""stimulus"":""img/2to3/12.png"",""time"":1192}]","[]"
"image-keyboard-response","124","174519","0.0-5.0-1.60","60beba435afc451476fa7781","bdp_cybrbll","Wed Mar 29 2023 19:38:10 GMT-0700 (Pacific Daylight Time)","470227","1","3","","null","","","","observe","","img/3to2/1.png","null","165","369","0.5","0.5","3","2","",""
"animation","125","175807","0.0-5.0-2.60","60beba435afc451476fa7781","bdp_cybrbll","Wed Mar 29 2023 19:38:10 GMT-0700 (Pacific Daylight Time)","470227","1","3","","","","","","","","","","165","","","","3","2","[{""stimulus"":""img/3to2/1.png"",""time"":108},{""stimulus"":""img/3to2/2.png"",""time"":199},{""stimulus"":""img/3to2/3.png"",""time"":298},{""stimulus"":""img/3to2/4.png"",""time"":404},{""stimulus"":""img/3to2/5.png"",""time"":497},{""stimulus"":""img/3to2/6.png"",""time"":595},{""stimulus"":""img/3to2/7.png"",""time"":701},{""stimulus"":""img/3to2/8.png"",""time"":795},{""stimulus"":""img/3to2/9.png"",""time"":902},{""stimulus"":""img/3to2/10.png"",""time"":994},{""stimulus"":""img/3to2/11.png"",""time"":1104},{""stimulus"":""img/3to2/12.png"",""time"":1188}]","[]"
"image-keyboard-response","126","176062","0.0-5.0-1.61","60beba435afc451476fa7781","bdp_cybrbll","Wed Mar 29 2023 19:38:10 GMT-0700 (Pacific Daylight Time)","470227","1","3","","254","","","","choice","","img/2to1/1.png","2","164","388","0.5","0.5","2","3","",""
"animation","127","177350","0.0-5.0-2.61","60beba435afc451476fa7781","bdp_cybrbll","Wed Mar 29 2023 19:38:10 GMT-0700 (Pacific Daylight Time)","470227","1","3","","","","","","","","","","164","","","","2","3","[{""stimulus"":""img/2to3/1.png"",""time"":101},{""stimulus"":""img/2to3/2.png"",""time"":205},{""stimulus"":""img/2to3/3.png"",""time"":298},{""stimulus"":""img/2to3/4.png"",""time"":409},{""stimulus"":""img/2to3/5.png"",""time"":503},{""stimulus"":""img/2to3/6.png"",""time"":595},{""stimulus"":""img/2to3/7.png"",""time"":705},{""stimulus"":""img/2to3/8.png"",""time"":793},{""stimulus"":""img/2to3/9.png"",""time"":893},{""stimulus"":""img/2to3/10.png"",""time"":992},{""stimulus"":""img/2to3/11.png"",""time"":1091},{""stimulus"":""img/2to3/12.png"",""time"":1189}]","[]"
"image-keyboard-response","128","177788","0.0-5.0-1.62","60beba435afc451476fa7781","bdp_cybrbll","Wed Mar 29 2023 19:38:10 GMT-0700 (Pacific Daylight Time)","470227","1","3","","null","","","","observe","","img/3to2/1.png","null","163","436","0.5","0.5","3","1","",""
"animation","129","179088","0.0-5.0-2.62","60beba435afc451476fa7781","bdp_cybrbll","Wed Mar 29 2023 19:38:10 GMT-0700 (Pacific Daylight Time)","470227","1","3","","","","","","","","","","163","","","","3","1","[{""stimulus"":""img/3to1/1.png"",""time"":109},{""stimulus"":""img/3to1/2.png"",""time"":200},{""stimulus"":""img/3to1/3.png"",""time"":298},{""stimulus"":""img/3to1/4.png"",""time"":397},{""stimulus"":""img/3to1/5.png"",""time"":500},{""stimulus"":""img/3to1/6.png"",""time"":596},{""stimulus"":""img/3to1/7.png"",""time"":702},{""stimulus"":""img/3to1/8.png"",""time"":800},{""stimulus"":""img/3to1/9.png"",""time"":893},{""stimulus"":""img/3to1/10.png"",""time"":991},{""stimulus"":""img/3to1/11.png"",""time"":1091},{""stimulus"":""img/3to1/12.png"",""time"":1190}]","[]"
"image-keyboard-response","130","179349","0.0-5.0-1.63","60beba435afc451476fa7781","bdp_cybrbll","Wed Mar 29 2023 19:38:10 GMT-0700 (Pacific Daylight Time)","470227","1","3","","null","","","","observe","","img/1to3/1.png","null","162","249","0.5","0.5","1","3","",""
"animation","131","180645","0.0-5.0-2.63","60beba435afc451476fa7781","bdp_cybrbll","Wed Mar 29 2023 19:38:10 GMT-0700 (Pacific Daylight Time)","470227","1","3","","","","","","","","","","162","","","","1","3","[{""stimulus"":""img/1to3/1.png"",""time"":109},{""stimulus"":""img/1to3/2.png"",""time"":201},{""stimulus"":""img/1to3/3.png"",""time"":297},{""stimulus"":""img/1to3/4.png"",""time"":396},{""stimulus"":""img/1to3/5.png"",""time"":503},{""stimulus"":""img/1to3/6.png"",""time"":596},{""stimulus"":""img/1to3/7.png"",""time"":693},{""stimulus"":""img/1to3/8.png"",""time"":792},{""stimulus"":""img/1to3/9.png"",""time"":894},{""stimulus"":""img/1to3/10.png"",""time"":990},{""stimulus"":""img/1to3/11.png"",""time"":1096},{""stimulus"":""img/1to3/12.png"",""time"":1188}]","[]"
"image-keyboard-response","132","181273","0.0-5.0-1.64","60beba435afc451476fa7781","bdp_cybrbll","Wed Mar 29 2023 19:38:10 GMT-0700 (Pacific Daylight Time)","470227","1","3","","null","","","","observe","","img/3to2/1.png","null","161","616","0.5","0.5","3","1","",""
"animation","133","182560","0.0-5.0-2.64","60beba435afc451476fa7781","bdp_cybrbll","Wed Mar 29 2023 19:38:10 GMT-0700 (Pacific Daylight Time)","470227","1","3","","","","","","","","","","161","","","","3","1","[{""stimulus"":""img/3to1/1.png"",""time"":107},{""stimulus"":""img/3to1/2.png"",""time"":200},{""stimulus"":""img/3to1/3.png"",""time"":309},{""stimulus"":""img/3to1/4.png"",""time"":401},{""stimulus"":""img/3to1/5.png"",""time"":508},{""stimulus"":""img/3to1/6.png"",""time"":595},{""stimulus"":""img/3to1/7.png"",""time"":694},{""stimulus"":""img/3to1/8.png"",""time"":793},{""stimulus"":""img/3to1/9.png"",""time"":891},{""stimulus"":""img/3to1/10.png"",""time"":991},{""stimulus"":""img/3to1/11.png"",""time"":1089},{""stimulus"":""img/3to1/12.png"",""time"":1192}]","[]"
"image-keyboard-response","134","183090","0.0-5.0-1.65","60beba435afc451476fa7781","bdp_cybrbll","Wed Mar 29 2023 19:38:10 GMT-0700 (Pacific Daylight Time)","470227","1","3","","null","","","","observe","","img/1to3/1.png","null","160","529","0.5","0.5","1","2","",""
"animation","135","184378","0.0-5.0-2.65","60beba435afc451476fa7781","bdp_cybrbll","Wed Mar 29 2023 19:38:10 GMT-0700 (Pacific Daylight Time)","470227","1","3","","","","","","","","","","160","","","","1","2","[{""stimulus"":""img/1to2/1.png"",""time"":109},{""stimulus"":""img/1to2/2.png"",""time"":199},{""stimulus"":""img/1to2/3.png"",""time"":298},{""stimulus"":""img/1to2/4.png"",""time"":396},{""stimulus"":""img/1to2/5.png"",""time"":496},{""stimulus"":""img/1to2/6.png"",""time"":602},{""stimulus"":""img/1to2/7.png"",""time"":695},{""stimulus"":""img/1to2/8.png"",""time"":804},{""stimulus"":""img/1to2/9.png"",""time"":896},{""stimulus"":""img/1to2/10.png"",""time"":1006},{""stimulus"":""img/1to2/11.png"",""time"":1090},{""stimulus"":""img/1to2/12.png"",""time"":1200}]","[]"
"image-keyboard-response","136","184888","0.0-5.0-1.66","60beba435afc451476fa7781","bdp_cybrbll","Wed Mar 29 2023 19:38:10 GMT-0700 (Pacific Daylight Time)","470227","1","3","","509","","","","choice","","img/2to1/1.png","1","159","1016","0.5","0.5","2","1","",""
"animation","137","186185","0.0-5.0-2.66","60beba435afc451476fa7781","bdp_cybrbll","Wed Mar 29 2023 19:38:10 GMT-0700 (Pacific Daylight Time)","470227","1","3","","","","","","","","","","159","","","","2","1","[{""stimulus"":""img/2to1/1.png"",""time"":100},{""stimulus"":""img/2to1/2.png"",""time"":203},{""stimulus"":""img/2to1/3.png"",""time"":339},{""stimulus"":""img/2to1/4.png"",""time"":405},{""stimulus"":""img/2to1/5.png"",""time"":499},{""stimulus"":""img/2to1/6.png"",""time"":594},{""stimulus"":""img/2to1/7.png"",""time"":700},{""stimulus"":""img/2to1/8.png"",""time"":794},{""stimulus"":""img/2to1/9.png"",""time"":892},{""stimulus"":""img/2to1/10.png"",""time"":990},{""stimulus"":""img/2to1/11.png"",""time"":1089},{""stimulus"":""img/2to1/12.png"",""time"":1188}]","[]"
"image-keyboard-response","138","186452","0.0-5.0-1.67","60beba435afc451476fa7781","bdp_cybrbll","Wed Mar 29 2023 19:38:10 GMT-0700 (Pacific Daylight Time)","470227","1","3","","null","","","","observe","","img/1to3/1.png","null","158","265","0.5","0.5","1","3","",""
"animation","139","187740","0.0-5.0-2.67","60beba435afc451476fa7781","bdp_cybrbll","Wed Mar 29 2023 19:38:10 GMT-0700 (Pacific Daylight Time)","470227","1","3","","","","","","","","","","158","","","","1","3","[{""stimulus"":""img/1to3/1.png"",""time"":110},{""stimulus"":""img/1to3/2.png"",""time"":204},{""stimulus"":""img/1to3/3.png"",""time"":313},{""stimulus"":""img/1to3/4.png"",""time"":398},{""stimulus"":""img/1to3/5.png"",""time"":498},{""stimulus"":""img/1to3/6.png"",""time"":605},{""stimulus"":""img/1to3/7.png"",""time"":694},{""stimulus"":""img/1to3/8.png"",""time"":793},{""stimulus"":""img/1to3/9.png"",""time"":892},{""stimulus"":""img/1to3/10.png"",""time"":992},{""stimulus"":""img/1to3/11.png"",""time"":1090},{""stimulus"":""img/1to3/12.png"",""time"":1195}]","[]"
"image-keyboard-response","140","188155","0.0-5.0-1.68","60beba435afc451476fa7781","bdp_cybrbll","Wed Mar 29 2023 19:38:10 GMT-0700 (Pacific Daylight Time)","470227","1","3","","null","","","","observe","","img/3to2/1.png","null","157","414","0.5","0.5","3","2","",""
"animation","141","189444","0.0-5.0-2.68","60beba435afc451476fa7781","bdp_cybrbll","Wed Mar 29 2023 19:38:10 GMT-0700 (Pacific Daylight Time)","470227","1","3","","","","","","","","","","157","","","","3","2","[{""stimulus"":""img/3to2/1.png"",""time"":111},{""stimulus"":""img/3to2/2.png"",""time"":199},{""stimulus"":""img/3to2/3.png"",""time"":299},{""stimulus"":""img/3to2/4.png"",""time"":397},{""stimulus"":""img/3to2/5.png"",""time"":500},{""stimulus"":""img/3to2/6.png"",""time"":595},{""stimulus"":""img/3to2/7.png"",""time"":695},{""stimulus"":""img/3to2/8.png"",""time"":803},{""stimulus"":""img/3to2/9.png"",""time"":892},{""stimulus"":""img/3to2/10.png"",""time"":991},{""stimulus"":""img/3to2/11.png"",""time"":1095},{""stimulus"":""img/3to2/12.png"",""time"":1190}]","[]"
"image-keyboard-response","142","189839","0.0-5.0-1.69","60beba435afc451476fa7781","bdp_cybrbll","Wed Mar 29 2023 19:38:10 GMT-0700 (Pacific Daylight Time)","470227","1","3","","395","","","","choice","","img/2to1/1.png","1","156","488","0.5","0.5","2","1","",""
"animation","143","191137","0.0-5.0-2.69","60beba435afc451476fa7781","bdp_cybrbll","Wed Mar 29 2023 19:38:10 GMT-0700 (Pacific Daylight Time)","470227","1","3","","","","","","","","","","156","","","","2","1","[{""stimulus"":""img/2to1/1.png"",""time"":100},{""stimulus"":""img/2to1/2.png"",""time"":209},{""stimulus"":""img/2to1/3.png"",""time"":298},{""stimulus"":""img/2to1/4.png"",""time"":397},{""stimulus"":""img/2to1/5.png"",""time"":507},{""stimulus"":""img/2to1/6.png"",""time"":599},{""stimulus"":""img/2to1/7.png"",""time"":708},{""stimulus"":""img/2to1/8.png"",""time"":801},{""stimulus"":""img/2to1/9.png"",""time"":892},{""stimulus"":""img/2to1/10.png"",""time"":991},{""stimulus"":""img/2to1/11.png"",""time"":1090},{""stimulus"":""img/2to1/12.png"",""time"":1189}]","[]"
"image-keyboard-response","144","191376","0.0-5.0-1.70","60beba435afc451476fa7781","bdp_cybrbll","Wed Mar 29 2023 19:38:10 GMT-0700 (Pacific Daylight Time)","470227","1","3","","null","","","","observe","","img/1to3/1.png","null","155","230","0.5","0.5","1","3","",""
"animation","145","192664","0.0-5.0-2.70","60beba435afc451476fa7781","bdp_cybrbll","Wed Mar 29 2023 19:38:10 GMT-0700 (Pacific Daylight Time)","470227","1","3","","","","","","","","","","155","","","","1","3","[{""stimulus"":""img/1to3/1.png"",""time"":108},{""stimulus"":""img/1to3/2.png"",""time"":198},{""stimulus"":""img/1to3/3.png"",""time"":310},{""stimulus"":""img/1to3/4.png"",""time"":406},{""stimulus"":""img/1to3/5.png"",""time"":496},{""stimulus"":""img/1to3/6.png"",""time"":596},{""stimulus"":""img/1to3/7.png"",""time"":693},{""stimulus"":""img/1to3/8.png"",""time"":799},{""stimulus"":""img/1to3/9.png"",""time"":893},{""stimulus"":""img/1to3/10.png"",""time"":1002},{""stimulus"":""img/1to3/11.png"",""time"":1089},{""stimulus"":""img/1to3/12.png"",""time"":1204}]","[]"
"image-keyboard-response","146","193410","0.0-5.0-1.71","60beba435afc451476fa7781","bdp_cybrbll","Wed Mar 29 2023 19:38:10 GMT-0700 (Pacific Daylight Time)","470227","1","3","","null","","","","observe","","img/3to2/1.png","null","154","739","0.5","0.5","3","1","",""
"animation","147","194698","0.0-5.0-2.71","60beba435afc451476fa7781","bdp_cybrbll","Wed Mar 29 2023 19:38:10 GMT-0700 (Pacific Daylight Time)","470227","1","3","","","","","","","","","","154","","","","3","1","[{""stimulus"":""img/3to1/1.png"",""time"":111},{""stimulus"":""img/3to1/2.png"",""time"":204},{""stimulus"":""img/3to1/3.png"",""time"":298},{""stimulus"":""img/3to1/4.png"",""time"":413},{""stimulus"":""img/3to1/5.png"",""time"":506},{""stimulus"":""img/3to1/6.png"",""time"":600},{""stimulus"":""img/3to1/7.png"",""time"":709},{""stimulus"":""img/3to1/8.png"",""time"":801},{""stimulus"":""img/3to1/9.png"",""time"":894},{""stimulus"":""img/3to1/10.png"",""time"":1001},{""stimulus"":""img/3to1/11.png"",""time"":1090},{""stimulus"":""img/3to1/12.png"",""time"":1190}]","[]"
"image-keyboard-response","148","194949","0.0-5.0-1.72","60beba435afc451476fa7781","bdp_cybrbll","Wed Mar 29 2023 19:38:10 GMT-0700 (Pacific Daylight Time)","470227","1","3","","null","","","","observe","","img/1to3/1.png","null","153","250","0.5","0.5","1","3","",""
"animation","149","196252","0.0-5.0-2.72","60beba435afc451476fa7781","bdp_cybrbll","Wed Mar 29 2023 19:38:10 GMT-0700 (Pacific Daylight Time)","470227","1","3","","","","","","","","","","153","","","","1","3","[{""stimulus"":""img/1to3/1.png"",""time"":101},{""stimulus"":""img/1to3/2.png"",""time"":199},{""stimulus"":""img/1to3/3.png"",""time"":298},{""stimulus"":""img/1to3/4.png"",""time"":398},{""stimulus"":""img/1to3/5.png"",""time"":496},{""stimulus"":""img/1to3/6.png"",""time"":594},{""stimulus"":""img/1to3/7.png"",""time"":696},{""stimulus"":""img/1to3/8.png"",""time"":792},{""stimulus"":""img/1to3/9.png"",""time"":893},{""stimulus"":""img/1to3/10.png"",""time"":991},{""stimulus"":""img/1to3/11.png"",""time"":1100},{""stimulus"":""img/1to3/12.png"",""time"":1188}]","[]"
"image-keyboard-response","150","196779","0.0-5.0-1.73","60beba435afc451476fa7781","bdp_cybrbll","Wed Mar 29 2023 19:38:10 GMT-0700 (Pacific Daylight Time)","470227","1","3","","null","","","","observe","","img/3to2/1.png","null","152","517","0.5","0.5","3","2","",""
"animation","151","198074","0.0-5.0-2.73","60beba435afc451476fa7781","bdp_cybrbll","Wed Mar 29 2023 19:38:10 GMT-0700 (Pacific Daylight Time)","470227","1","3","","","","","","","","","","152","","","","3","2","[{""stimulus"":""img/3to2/1.png"",""time"":106},{""stimulus"":""img/3to2/2.png"",""time"":200},{""stimulus"":""img/3to2/3.png"",""time"":298},{""stimulus"":""img/3to2/4.png"",""time"":402},{""stimulus"":""img/3to2/5.png"",""time"":496},{""stimulus"":""img/3to2/6.png"",""time"":604},{""stimulus"":""img/3to2/7.png"",""time"":701},{""stimulus"":""img/3to2/8.png"",""time"":794},{""stimulus"":""img/3to2/9.png"",""time"":905},{""stimulus"":""img/3to2/10.png"",""time"":991},{""stimulus"":""img/3to2/11.png"",""time"":1092},{""stimulus"":""img/3to2/12.png"",""time"":1201}]","[]"
"image-keyboard-response","152","198467","0.0-5.0-1.74","60beba435afc451476fa7781","bdp_cybrbll","Wed Mar 29 2023 19:38:10 GMT-0700 (Pacific Daylight Time)","470227","1","3","","392","","","","choice","","img/2to1/1.png","1","151","307","0.5","0.5","2","1","",""
"animation","153","199755","0.0-5.0-2.74","60beba435afc451476fa7781","bdp_cybrbll","Wed Mar 29 2023 19:38:10 GMT-0700 (Pacific Daylight Time)","470227","1","3","","","","","","","","","","151","","","","2","1","[{""stimulus"":""img/2to1/1.png"",""time"":107},{""stimulus"":""img/2to1/2.png"",""time"":200},{""stimulus"":""img/2to1/3.png"",""time"":308},{""stimulus"":""img/2to1/4.png"",""time"":397},{""stimulus"":""img/2to1/5.png"",""time"":503},{""stimulus"":""img/2to1/6.png"",""time"":595},{""stimulus"":""img/2to1/7.png"",""time"":695},{""stimulus"":""img/2to1/8.png"",""time"":793},{""stimulus"":""img/2to1/9.png"",""time"":905},{""stimulus"":""img/2to1/10.png"",""time"":991},{""stimulus"":""img/2to1/11.png"",""time"":1095},{""stimulus"":""img/2to1/12.png"",""time"":1190}]","[]"
"image-keyboard-response","154","201602","0.0-5.0-1.75","60beba435afc451476fa7781","bdp_cybrbll","Wed Mar 29 2023 19:38:10 GMT-0700 (Pacific Daylight Time)","470227","1","3","","null","","","","observe","","img/1to3/1.png","null","150","1832","0.5","0.5","1","2","",""
"animation","155","202890","0.0-5.0-2.75","60beba435afc451476fa7781","bdp_cybrbll","Wed Mar 29 2023 19:38:10 GMT-0700 (Pacific Daylight Time)","470227","1","3","","","","","","","","","","150","","","","1","2","[{""stimulus"":""img/1to2/1.png"",""time"":108},{""stimulus"":""img/1to2/2.png"",""time"":199},{""stimulus"":""img/1to2/3.png"",""time"":298},{""stimulus"":""img/1to2/4.png"",""time"":403},{""stimulus"":""img/1to2/5.png"",""time"":495},{""stimulus"":""img/1to2/6.png"",""time"":595},{""stimulus"":""img/1to2/7.png"",""time"":695},{""stimulus"":""img/1to2/8.png"",""time"":793},{""stimulus"":""img/1to2/9.png"",""time"":898},{""stimulus"":""img/1to2/10.png"",""time"":992},{""stimulus"":""img/1to2/11.png"",""time"":1099},{""stimulus"":""img/1to2/12.png"",""time"":1189}]","[]"
"image-keyboard-response","156","203597","0.0-5.0-1.76","60beba435afc451476fa7781","bdp_cybrbll","Wed Mar 29 2023 19:38:10 GMT-0700 (Pacific Daylight Time)","470227","1","3","","706","","","","choice","","img/2to1/1.png","2","149","337","0.5","0.1","2","3","",""
"animation","157","204887","0.0-5.0-2.76","60beba435afc451476fa7781","bdp_cybrbll","Wed Mar 29 2023 19:38:10 GMT-0700 (Pacific Daylight Time)","470227","1","3","","","","","","","","","","149","","","","2","3","[{""stimulus"":""img/2to3/1.png"",""time"":100},{""stimulus"":""img/2to3/2.png"",""time"":204},{""stimulus"":""img/2to3/3.png"",""time"":313},{""stimulus"":""img/2to3/4.png"",""time"":406},{""stimulus"":""img/2to3/5.png"",""time"":497},{""stimulus"":""img/2to3/6.png"",""time"":595},{""stimulus"":""img/2to3/7.png"",""time"":700},{""stimulus"":""img/2to3/8.png"",""time"":794},{""stimulus"":""img/2to3/9.png"",""time"":893},{""stimulus"":""img/2to3/10.png"",""time"":991},{""stimulus"":""img/2to3/11.png"",""time"":1091},{""stimulus"":""img/2to3/12.png"",""time"":1198}]","[]"
"image-keyboard-response","158","205183","0.0-5.0-1.77","60beba435afc451476fa7781","bdp_cybrbll","Wed Mar 29 2023 19:38:10 GMT-0700 (Pacific Daylight Time)","470227","1","3","","null","","","","observe","","img/3to2/1.png","null","148","289","0.5","0.1","3","1","",""
"animation","159","206471","0.0-5.0-2.77","60beba435afc451476fa7781","bdp_cybrbll","Wed Mar 29 2023 19:38:10 GMT-0700 (Pacific Daylight Time)","470227","1","3","","","","","","","","","","148","","","","3","1","[{""stimulus"":""img/3to1/1.png"",""time"":107},{""stimulus"":""img/3to1/2.png"",""time"":198},{""stimulus"":""img/3to1/3.png"",""time"":297},{""stimulus"":""img/3to1/4.png"",""time"":406},{""stimulus"":""img/3to1/5.png"",""time"":497},{""stimulus"":""img/3to1/6.png"",""time"":608},{""stimulus"":""img/3to1/7.png"",""time"":693},{""stimulus"":""img/3to1/8.png"",""time"":796},{""stimulus"":""img/3to1/9.png"",""time"":895},{""stimulus"":""img/3to1/10.png"",""time"":1003},{""stimulus"":""img/3to1/11.png"",""time"":1097},{""stimulus"":""img/3to1/12.png"",""time"":1190}]","[]"
"image-keyboard-response","160","207010","0.0-5.0-1.78","60beba435afc451476fa7781","bdp_cybrbll","Wed Mar 29 2023 19:38:10 GMT-0700 (Pacific Daylight Time)","470227","1","3","","null","","","","observe","","img/1to3/1.png","null","147","529","0.5","0.1","1","2","",""
"animation","161","208298","0.0-5.0-2.78","60beba435afc451476fa7781","bdp_cybrbll","Wed Mar 29 2023 19:38:10 GMT-0700 (Pacific Daylight Time)","470227","1","3","","","","","","","","","","147","","","","1","2","[{""stimulus"":""img/1to2/1.png"",""time"":109},{""stimulus"":""img/1to2/2.png"",""time"":201},{""stimulus"":""img/1to2/3.png"",""time"":309},{""stimulus"":""img/1to2/4.png"",""time"":398},{""stimulus"":""img/1to2/5.png"",""time"":498},{""stimulus"":""img/1to2/6.png"",""time"":609},{""stimulus"":""img/1to2/7.png"",""time"":702},{""stimulus"":""img/1to2/8.png"",""time"":795},{""stimulus"":""img/1to2/9.png"",""time"":893},{""stimulus"":""img/1to2/10.png"",""time"":991},{""stimulus"":""img/1to2/11.png"",""time"":1090},{""stimulus"":""img/1to2/12.png"",""time"":1193}]","[]"
"image-keyboard-response","162","208437","0.0-5.0-1.79","60beba435afc451476fa7781","bdp_cybrbll","Wed Mar 29 2023 19:38:10 GMT-0700 (Pacific Daylight Time)","470227","1","3","","138","","","","choice","","img/2to1/1.png","2","146","266","0.5","0.1","2","3","",""
"animation","163","209732","0.0-5.0-2.79","60beba435afc451476fa7781","bdp_cybrbll","Wed Mar 29 2023 19:38:10 GMT-0700 (Pacific Daylight Time)","470227","1","3","","","","","","","","","","146","","","","2","3","[{""stimulus"":""img/2to3/1.png"",""time"":108},{""stimulus"":""img/2to3/2.png"",""time"":206},{""stimulus"":""img/2to3/3.png"",""time"":299},{""stimulus"":""img/2to3/4.png"",""time"":406},{""stimulus"":""img/2to3/5.png"",""time"":499},{""stimulus"":""img/2to3/6.png"",""time"":607},{""stimulus"":""img/2to3/7.png"",""time"":708},{""stimulus"":""img/2to3/8.png"",""time"":792},{""stimulus"":""img/2to3/9.png"",""time"":892},{""stimulus"":""img/2to3/10.png"",""time"":991},{""stimulus"":""img/2to3/11.png"",""time"":1090},{""stimulus"":""img/2to3/12.png"",""time"":1189}]","[]"
"image-keyboard-response","164","210632","0.0-5.0-1.80","60beba435afc451476fa7781","bdp_cybrbll","Wed Mar 29 2023 19:38:10 GMT-0700 (Pacific Daylight Time)","470227","1","3","","null","","","","observe","","img/3to2/1.png","null","145","892","0.5","0.1","3","1","",""
"animation","165","211921","0.0-5.0-2.80","60beba435afc451476fa7781","bdp_cybrbll","Wed Mar 29 2023 19:38:10 GMT-0700 (Pacific Daylight Time)","470227","1","3","","","","","","","","","","145","","","","3","1","[{""stimulus"":""img/3to1/1.png"",""time"":108},{""stimulus"":""img/3to1/2.png"",""time"":199},{""stimulus"":""img/3to1/3.png"",""time"":310},{""stimulus"":""img/3to1/4.png"",""time"":396},{""stimulus"":""img/3to1/5.png"",""time"":496},{""stimulus"":""img/3to1/6.png"",""time"":595},{""stimulus"":""img/3to1/7.png"",""time"":694},{""stimulus"":""img/3to1/8.png"",""time"":793},{""stimulus"":""img/3to1/9.png"",""time"":891},{""stimulus"":""img/3to1/10.png"",""time"":994},{""stimulus"":""img/3to1/11.png"",""time"":1102},{""stimulus"":""img/3to1/12.png"",""time"":1195}]","[]"
"image-keyboard-response","166","212079","0.0-5.0-1.81","60beba435afc451476fa7781","bdp_cybrbll","Wed Mar 29 2023 19:38:10 GMT-0700 (Pacific Daylight Time)","470227","1","3","","null","","","","observe","","img/1to3/1.png","null","144","149","0.5","0.1","1","3","",""
"animation","167","213376","0.0-5.0-2.81","60beba435afc451476fa7781","bdp_cybrbll","Wed Mar 29 2023 19:38:10 GMT-0700 (Pacific Daylight Time)","470227","1","3","","","","","","","","","","144","","","","1","3","[{""stimulus"":""img/1to3/1.png"",""time"":114},{""stimulus"":""img/1to3/2.png"",""time"":207},{""stimulus"":""img/1to3/3.png"",""time"":301},{""stimulus"":""img/1to3/4.png"",""time"":397},{""stimulus"":""img/1to3/5.png"",""time"":496},{""stimulus"":""img/1to3/6.png"",""time"":595},{""stimulus"":""img/1to3/7.png"",""time"":694},{""stimulus"":""img/1to3/8.png"",""time"":794},{""stimulus"":""img/1to3/9.png"",""time"":892},{""stimulus"":""img/1to3/10.png"",""time"":1001},{""stimulus"":""img/1to3/11.png"",""time"":1093},{""stimulus"":""img/1to3/12.png"",""time"":1189}]","[]"
"image-keyboard-response","168","213721","0.0-5.0-1.82","60beba435afc451476fa7781","bdp_cybrbll","Wed Mar 29 2023 19:38:10 GMT-0700 (Pacific Daylight Time)","470227","1","3","","null","","","","observe","","img/3to2/1.png","null","143","343","0.5","0.1","3","1","",""
"animation","169","215018","0.0-5.0-2.82","60beba435afc451476fa7781","bdp_cybrbll","Wed Mar 29 2023 19:38:10 GMT-0700 (Pacific Daylight Time)","470227","1","3","","","","","","","","","","143","","","","3","1","[{""stimulus"":""img/3to1/1.png"",""time"":113},{""stimulus"":""img/3to1/2.png"",""time"":206},{""stimulus"":""img/3to1/3.png"",""time"":298},{""stimulus"":""img/3to1/4.png"",""time"":406},{""stimulus"":""img/3to1/5.png"",""time"":496},{""stimulus"":""img/3to1/6.png"",""time"":596},{""stimulus"":""img/3to1/7.png"",""time"":704},{""stimulus"":""img/3to1/8.png"",""time"":794},{""stimulus"":""img/3to1/9.png"",""time"":892},{""stimulus"":""img/3to1/10.png"",""time"":998},{""stimulus"":""img/3to1/11.png"",""time"":1092},{""stimulus"":""img/3to1/12.png"",""time"":1189}]","[]"
"image-keyboard-response","170","215382","0.0-5.0-1.83","60beba435afc451476fa7781","bdp_cybrbll","Wed Mar 29 2023 19:38:10 GMT-0700 (Pacific Daylight Time)","470227","1","3","","null","","","","observe","","img/1to3/1.png","null","142","362","0.5","0.1","1","2","",""
"animation","171","216670","0.0-5.0-2.83","60beba435afc451476fa7781","bdp_cybrbll","Wed Mar 29 2023 19:38:10 GMT-0700 (Pacific Daylight Time)","470227","1","3","","","","","","","","","","142","","","","1","2","[{""stimulus"":""img/1to2/1.png"",""time"":109},{""stimulus"":""img/1to2/2.png"",""time"":199},{""stimulus"":""img/1to2/3.png"",""time"":298},{""stimulus"":""img/1to2/4.png"",""time"":397},{""stimulus"":""img/1to2/5.png"",""time"":496},{""stimulus"":""img/1to2/6.png"",""time"":595},{""stimulus"":""img/1to2/7.png"",""time"":694},{""stimulus"":""img/1to2/8.png"",""time"":800},{""stimulus"":""img/1to2/9.png"",""time"":898},{""stimulus"":""img/1to2/10.png"",""time"":1005},{""stimulus"":""img/1to2/11.png"",""time"":1090},{""stimulus"":""img/1to2/12.png"",""time"":1192}]","[]"
"image-keyboard-response","172","217023","0.0-5.0-1.84","60beba435afc451476fa7781","bdp_cybrbll","Wed Mar 29 2023 19:38:10 GMT-0700 (Pacific Daylight Time)","470227","1","3","","352","","","","choice","","img/2to1/1.png","2","141","348","0.5","0.1","2","3","",""
"animation","173","218311","0.0-5.0-2.84","60beba435afc451476fa7781","bdp_cybrbll","Wed Mar 29 2023 19:38:10 GMT-0700 (Pacific Daylight Time)","470227","1","3","","","","","","","","","","141","","","","2","3","[{""stimulus"":""img/2to3/1.png"",""time"":100},{""stimulus"":""img/2to3/2.png"",""time"":214},{""stimulus"":""img/2to3/3.png"",""time"":312},{""stimulus"":""img/2to3/4.png"",""time"":397},{""stimulus"":""img/2to3/5.png"",""time"":495},{""stimulus"":""img/2to3/6.png"",""time"":595},{""stimulus"":""img/2to3/7.png"",""time"":694},{""stimulus"":""img/2to3/8.png"",""time"":808},{""stimulus"":""img/2to3/9.png"",""time"":900},{""stimulus"":""img/2to3/10.png"",""time"":991},{""stimulus"":""img/2to3/11.png"",""time"":1102},{""stimulus"":""img/2to3/12.png"",""time"":1189}]","[]"
"image-keyboard-response","174","218543","0.0-5.0-1.85","60beba435afc451476fa7781","bdp_cybrbll","Wed Mar 29 2023 19:38:10 GMT-0700 (Pacific Daylight Time)","470227","1","3","","null","","","","observe","","img/3to2/1.png","null","140","228","0.5","0.1","3","2","",""
"animation","175","219842","0.0-5.0-2.85","60beba435afc451476fa7781","bdp_cybrbll","Wed Mar 29 2023 19:38:10 GMT-0700 (Pacific Daylight Time)","470227","1","3","","","","","","","","","","140","","","","3","2","[{""stimulus"":""img/3to2/1.png"",""time"":108},{""stimulus"":""img/3to2/2.png"",""time"":199},{""stimulus"":""img/3to2/3.png"",""time"":311},{""stimulus"":""img/3to2/4.png"",""time"":397},{""stimulus"":""img/3to2/5.png"",""time"":495},{""stimulus"":""img/3to2/6.png"",""time"":603},{""stimulus"":""img/3to2/7.png"",""time"":697},{""stimulus"":""img/3to2/8.png"",""time"":801},{""stimulus"":""img/3to2/9.png"",""time"":895},{""stimulus"":""img/3to2/10.png"",""time"":991},{""stimulus"":""img/3to2/11.png"",""time"":1089},{""stimulus"":""img/3to2/12.png"",""time"":1189}]","[]"
"image-keyboard-response","176","219881","0.0-5.0-1.86","60beba435afc451476fa7781","bdp_cybrbll","Wed Mar 29 2023 19:38:10 GMT-0700 (Pacific Daylight Time)","470227","1","3","","39","","","","choice","","img/2to1/1.png","1","139","325","0.5","0.1","2","1","",""
"animation","177","221170","0.0-5.0-2.86","60beba435afc451476fa7781","bdp_cybrbll","Wed Mar 29 2023 19:38:10 GMT-0700 (Pacific Daylight Time)","470227","1","3","","","","","","","","","","139","","","","2","1","[{""stimulus"":""img/2to1/1.png"",""time"":99},{""stimulus"":""img/2to1/2.png"",""time"":210},{""stimulus"":""img/2to1/3.png"",""time"":303},{""stimulus"":""img/2to1/4.png"",""time"":397},{""stimulus"":""img/2to1/5.png"",""time"":506},{""stimulus"":""img/2to1/6.png"",""time"":594},{""stimulus"":""img/2to1/7.png"",""time"":693},{""stimulus"":""img/2to1/8.png"",""time"":793},{""stimulus"":""img/2to1/9.png"",""time"":892},{""stimulus"":""img/2to1/10.png"",""time"":999},{""stimulus"":""img/2to1/11.png"",""time"":1093},{""stimulus"":""img/2to1/12.png"",""time"":1202}]","[]"
"image-keyboard-response","178","221432","0.0-5.0-1.87","60beba435afc451476fa7781","bdp_cybrbll","Wed Mar 29 2023 19:38:10 GMT-0700 (Pacific Daylight Time)","470227","1","3","","null","","","","observe","","img/1to3/1.png","null","138","261","0.5","0.1","1","2","",""
"animation","179","222720","0.0-5.0-2.87","60beba435afc451476fa7781","bdp_cybrbll","Wed Mar 29 2023 19:38:10 GMT-0700 (Pacific Daylight Time)","470227","1","3","","","","","","","","","","138","","","","1","2","[{""stimulus"":""img/1to2/1.png"",""time"":107},{""stimulus"":""img/1to2/2.png"",""time"":198},{""stimulus"":""img/1to2/3.png"",""time"":297},{""stimulus"":""img/1to2/4.png"",""time"":410},{""stimulus"":""img/1to2/5.png"",""time"":503},{""stimulus"":""img/1to2/6.png"",""time"":594},{""stimulus"":""img/1to2/7.png"",""time"":706},{""stimulus"":""img/1to2/8.png"",""time"":793},{""stimulus"":""img/1to2/9.png"",""time"":906},{""stimulus"":""img/1to2/10.png"",""time"":997},{""stimulus"":""img/1to2/11.png"",""time"":1090},{""stimulus"":""img/1to2/12.png"",""time"":1188}]","[]"
"image-keyboard-response","180","222855","0.0-5.0-1.88","60beba435afc451476fa7781","bdp_cybrbll","Wed Mar 29 2023 19:38:10 GMT-0700 (Pacific Daylight Time)","470227","1","3","","134","","","","choice","","img/2to1/1.png","2","137","845","0.5","0.1","2","3","",""
"animation","181","224143","0.0-5.0-2.88","60beba435afc451476fa7781","bdp_cybrbll","Wed Mar 29 2023 19:38:10 GMT-0700 (Pacific Daylight Time)","470227","1","3","","","","","","","","","","137","","","","2","3","[{""stimulus"":""img/2to3/1.png"",""time"":100},{""stimulus"":""img/2to3/2.png"",""time"":200},{""stimulus"":""img/2to3/3.png"",""time"":310},{""stimulus"":""img/2to3/4.png"",""time"":397},{""stimulus"":""img/2to3/5.png"",""time"":496},{""stimulus"":""img/2to3/6.png"",""time"":606},{""stimulus"":""img/2to3/7.png"",""time"":694},{""stimulus"":""img/2to3/8.png"",""time"":793},{""stimulus"":""img/2to3/9.png"",""time"":892},{""stimulus"":""img/2to3/10.png"",""time"":1006},{""stimulus"":""img/2to3/11.png"",""time"":1099},{""stimulus"":""img/2to3/12.png"",""time"":1189}]","[]"
"image-keyboard-response","182","224727","0.0-5.0-1.89","60beba435afc451476fa7781","bdp_cybrbll","Wed Mar 29 2023 19:38:10 GMT-0700 (Pacific Daylight Time)","470227","1","3","","null","","","","observe","","img/3to2/1.png","null","136","575","0.5","0.1","3","1","",""
"animation","183","226014","0.0-5.0-2.89","60beba435afc451476fa7781","bdp_cybrbll","Wed Mar 29 2023 19:38:10 GMT-0700 (Pacific Daylight Time)","470227","1","3","","","","","","","","","","136","","","","3","1","[{""stimulus"":""img/3to1/1.png"",""time"":109},{""stimulus"":""img/3to1/2.png"",""time"":208},{""stimulus"":""img/3to1/3.png"",""time"":302},{""stimulus"":""img/3to1/4.png"",""time"":398},{""stimulus"":""img/3to1/5.png"",""time"":496},{""stimulus"":""img/3to1/6.png"",""time"":598},{""stimulus"":""img/3to1/7.png"",""time"":697},{""stimulus"":""img/3to1/8.png"",""time"":804},{""stimulus"":""img/3to1/9.png"",""time"":892},{""stimulus"":""img/3to1/10.png"",""time"":1004},{""stimulus"":""img/3to1/11.png"",""time"":1090},{""stimulus"":""img/3to1/12.png"",""time"":1190}]","[]"
"image-keyboard-response","184","226362","0.0-5.0-1.90","60beba435afc451476fa7781","bdp_cybrbll","Wed Mar 29 2023 19:38:10 GMT-0700 (Pacific Daylight Time)","470227","1","3","","null","","","","observe","","img/1to3/1.png","null","135","347","0.5","0.1","1","2","",""
"animation","185","227651","0.0-5.0-2.90","60beba435afc451476fa7781","bdp_cybrbll","Wed Mar 29 2023 19:38:10 GMT-0700 (Pacific Daylight Time)","470227","1","3","","","","","","","","","","135","","","","1","2","[{""stimulus"":""img/1to2/1.png"",""time"":111},{""stimulus"":""img/1to2/2.png"",""time"":200},{""stimulus"":""img/1to2/3.png"",""time"":299},{""stimulus"":""img/1to2/4.png"",""time"":397},{""stimulus"":""img/1to2/5.png"",""time"":502},{""stimulus"":""img/1to2/6.png"",""time"":595},{""stimulus"":""img/1to2/7.png"",""time"":695},{""stimulus"":""img/1to2/8.png"",""time"":805},{""stimulus"":""img/1to2/9.png"",""time"":897},{""stimulus"":""img/1to2/10.png"",""time"":992},{""stimulus"":""img/1to2/11.png"",""time"":1101},{""stimulus"":""img/1to2/12.png"",""time"":1190}]","[]"
"image-keyboard-response","186","228717","0.0-5.0-1.91","60beba435afc451476fa7781","bdp_cybrbll","Wed Mar 29 2023 19:38:10 GMT-0700 (Pacific Daylight Time)","470227","1","3","","1065","","","","choice","","img/2to1/1.png","1","134","555","0.5","0.1","2","1","",""
"animation","187","230005","0.0-5.0-2.91","60beba435afc451476fa7781","bdp_cybrbll","Wed Mar 29 2023 19:38:10 GMT-0700 (Pacific Daylight Time)","470227","1","3","","","","","","","","","","134","","","","2","1","[{""stimulus"":""img/2to1/1.png"",""time"":100},{""stimulus"":""img/2to1/2.png"",""time"":199},{""stimulus"":""img/2to1/3.png"",""time"":297},{""stimulus"":""img/2to1/4.png"",""time"":396},{""stimulus"":""img/2to1/5.png"",""time"":495},{""stimulus"":""img/2to1/6.png"",""time"":594},{""stimulus"":""img/2to1/7.png"",""time"":693},{""stimulus"":""img/2to1/8.png"",""time"":792},{""stimulus"":""img/2to1/9.png"",""time"":891},{""stimulus"":""img/2to1/10.png"",""time"":991},{""stimulus"":""img/2to1/11.png"",""time"":1089},{""stimulus"":""img/2to1/12.png"",""time"":1194}]","[]"
"image-keyboard-response","188","230302","0.0-5.0-1.92","60beba435afc451476fa7781","bdp_cybrbll","Wed Mar 29 2023 19:38:10 GMT-0700 (Pacific Daylight Time)","470227","1","3","","null","","","","observe","","img/1to3/1.png","null","133","289","0.5","0.1","1","2","",""
"animation","189","231590","0.0-5.0-2.92","60beba435afc451476fa7781","bdp_cybrbll","Wed Mar 29 2023 19:38:10 GMT-0700 (Pacific Daylight Time)","470227","1","3","","","","","","","","","","133","","","","1","2","[{""stimulus"":""img/1to2/1.png"",""time"":110},{""stimulus"":""img/1to2/2.png"",""time"":211},{""stimulus"":""img/1to2/3.png"",""time"":298},{""stimulus"":""img/1to2/4.png"",""time"":397},{""stimulus"":""img/1to2/5.png"",""time"":505},{""stimulus"":""img/1to2/6.png"",""time"":598},{""stimulus"":""img/1to2/7.png"",""time"":711},{""stimulus"":""img/1to2/8.png"",""time"":793},{""stimulus"":""img/1to2/9.png"",""time"":892},{""stimulus"":""img/1to2/10.png"",""time"":992},{""stimulus"":""img/1to2/11.png"",""time"":1091},{""stimulus"":""img/1to2/12.png"",""time"":1195}]","[]"
"image-keyboard-response","190","231620","0.0-5.0-1.93","60beba435afc451476fa7781","bdp_cybrbll","Wed Mar 29 2023 19:38:10 GMT-0700 (Pacific Daylight Time)","470227","1","3","","30","","","","choice","","img/2to1/1.png","2","132","526","0.5","0.1","2","3","",""
