"trial_type","trial_index","time_elapsed","internal_node_id","subject_id","task","startTime","totalTime","fairPartner","unfairPartner","view_history","rt","event","trial","time","trialtype","success","stimulus","key_press","throwsLeft","rtDur","pFair","pUnfair","holder","receiver","animation_sequence","responses"
"pavlovia","0","4","0.0-0.0","63d69e4d6648b39324fdf0ad","bdp_cybrbll","Mon Mar 27 2023 10:17:50 GMT-0400 (Eastern Daylight Time)","450138","1","3","","","","","","","","","","","","","","","","",""
"instructions","1","13122","0.0-1.0","63d69e4d6648b39324fdf0ad","bdp_cybrbll","Mon Mar 27 2023 10:17:50 GMT-0400 (Eastern Daylight Time)","450138","1","3","[{""page_index"":0,""viewing_time"":13118}]","13118","","","","","","","","","","","","","","",""
"","","","","63d69e4d6648b39324fdf0ad","bdp_cybrbll","Mon Mar 27 2023 10:17:50 GMT-0400 (Eastern Daylight Time)","450138","1","3","","","fullscreenenter","2","40556","fullscreenenter","","","","","","","","","","",""
"fullscreen","2","41533","0.0-2.0","63d69e4d6648b39324fdf0ad","bdp_cybrbll","Mon Mar 27 2023 10:17:50 GMT-0400 (Eastern Daylight Time)","450138","1","3","","","","","","","true","","","","","","","","","",""
"instructions","3","48670","0.0-4.0","63d69e4d6648b39324fdf0ad","bdp_cybrbll","Mon Mar 27 2023 10:17:50 GMT-0400 (Eastern Daylight Time)","450138","1","3","[{""page_index"":0,""viewing_time"":7135}]","7136","","","","","","","","","","","","","","",""
"image-keyboard-response","4","49469","0.0-5.0-1.0","63d69e4d6648b39324fdf0ad","bdp_cybrbll","Mon Mar 27 2023 10:17:50 GMT-0400 (Eastern Daylight Time)","450138","1","3","","797","","","","choice","","img/2to1/1.png","1","225","311","0.5","0.5","2","1","",""
"animation","5","50757","0.0-5.0-2.0","63d69e4d6648b39324fdf0ad","bdp_cybrbll","Mon Mar 27 2023 10:17:50 GMT-0400 (Eastern Daylight Time)","450138","1","3","","","","","","","","","","225","","","","2","1","[{""stimulus"":""img/2to1/1.png"",""time"":100},{""stimulus"":""img/2to1/2.png"",""time"":200},{""stimulus"":""img/2to1/3.png"",""time"":299},{""stimulus"":""img/2to1/4.png"",""time"":398},{""stimulus"":""img/2to1/5.png"",""time"":496},{""stimulus"":""img/2to1/6.png"",""time"":596},{""stimulus"":""img/2to1/7.png"",""time"":694},{""stimulus"":""img/2to1/8.png"",""time"":794},{""stimulus"":""img/2to1/9.png"",""time"":893},{""stimulus"":""img/2to1/10.png"",""time"":992},{""stimulus"":""img/2to1/11.png"",""time"":1090},{""stimulus"":""img/2to1/12.png"",""time"":1190}]","[]"
"image-keyboard-response","6","51001","0.0-5.0-1.1","63d69e4d6648b39324fdf0ad","bdp_cybrbll","Mon Mar 27 2023 10:17:50 GMT-0400 (Eastern Daylight Time)","450138","1","3","","null","","","","observe","","img/1to3/1.png","null","224","243","0.5","0.5","1","2","",""
"animation","7","52290","0.0-5.0-2.1","63d69e4d6648b39324fdf0ad","bdp_cybrbll","Mon Mar 27 2023 10:17:50 GMT-0400 (Eastern Daylight Time)","450138","1","3","","","","","","","","","","224","","","","1","2","[{""stimulus"":""img/1to2/1.png"",""time"":100},{""stimulus"":""img/1to2/2.png"",""time"":199},{""stimulus"":""img/1to2/3.png"",""time"":298},{""stimulus"":""img/1to2/4.png"",""time"":397},{""stimulus"":""img/1to2/5.png"",""time"":496},{""stimulus"":""img/1to2/6.png"",""time"":595},{""stimulus"":""img/1to2/7.png"",""time"":694},{""stimulus"":""img/1to2/8.png"",""time"":792},{""stimulus"":""img/1to2/9.png"",""time"":892},{""stimulus"":""img/1to2/10.png"",""time"":990},{""stimulus"":""img/1to2/11.png"",""time"":1089},{""stimulus"":""img/1to2/12.png"",""time"":1189}]","[]"
"image-keyboard-response","8","52472","0.0-5.0-1.2","63d69e4d6648b39324fdf0ad","bdp_cybrbll","Mon Mar 27 2023 10:17:50 GMT-0400 (Eastern Daylight Time)","450138","1","3","","182","","","","choice","","img/2to1/1.png","2","223","689","0.5","0.5","2","3","",""
"animation","9","53761","0.0-5.0-2.2","63d69e4d6648b39324fdf0ad","bdp_cybrbll","Mon Mar 27 2023 10:17:50 GMT-0400 (Eastern Daylight Time)","450138","1","3","","","","","","","","","","223","","","","2","3","[{""stimulus"":""img/2to3/1.png"",""time"":101},{""stimulus"":""img/2to3/2.png"",""time"":200},{""stimulus"":""img/2to3/3.png"",""time"":299},{""stimulus"":""img/2to3/4.png"",""time"":397},{""stimulus"":""img/2to3/5.png"",""time"":497},{""stimulus"":""img/2to3/6.png"",""time"":595},{""stimulus"":""img/2to3/7.png"",""time"":694},{""stimulus"":""img/2to3/8.png"",""time"":793},{""stimulus"":""img/2to3/9.png"",""time"":893},{""stimulus"":""img/2to3/10.png"",""time"":991},{""stimulus"":""img/2to3/11.png"",""time"":1091},{""stimulus"":""img/2to3/12.png"",""time"":1190}]","[]"
"image-keyboard-response","10","55238","0.0-5.0-1.3","63d69e4d6648b39324fdf0ad","bdp_cybrbll","Mon Mar 27 2023 10:17:50 GMT-0400 (Eastern Daylight Time)","450138","1","3","","null","","","","observe","","img/3to2/1.png","null","222","1474","0.5","0.5","3","1","",""
"animation","11","56527","0.0-5.0-2.3","63d69e4d6648b39324fdf0ad","bdp_cybrbll","Mon Mar 27 2023 10:17:50 GMT-0400 (Eastern Daylight Time)","450138","1","3","","","","","","","","","","222","","","","3","1","[{""stimulus"":""img/3to1/1.png"",""time"":100},{""stimulus"":""img/3to1/2.png"",""time"":199},{""stimulus"":""img/3to1/3.png"",""time"":298},{""stimulus"":""img/3to1/4.png"",""time"":397},{""stimulus"":""img/3to1/5.png"",""time"":497},{""stimulus"":""img/3to1/6.png"",""time"":595},{""stimulus"":""img/3to1/7.png"",""time"":695},{""stimulus"":""img/3to1/8.png"",""time"":794},{""stimulus"":""img/3to1/9.png"",""time"":893},{""stimulus"":""img/3to1/10.png"",""time"":992},{""stimulus"":""img/3to1/11.png"",""time"":1090},{""stimulus"":""img/3to1/12.png"",""time"":1190}]","[]"
"image-keyboard-response","12","57099","0.0-5.0-1.4","63d69e4d6648b39324fdf0ad","bdp_cybrbll","Mon Mar 27 2023 10:17:50 GMT-0400 (Eastern Daylight Time)","450138","1","3","","null","","","","observe","","img/1to3/1.png","null","221","571","0.5","0.5","1","3","",""
"animation","13","58388","0.0-5.0-2.4","63d69e4d6648b39324fdf0ad","bdp_cybrbll","Mon Mar 27 2023 10:17:50 GMT-0400 (Eastern Daylight Time)","450138","1","3","","","","","","","","","","221","","","","1","3","[{""stimulus"":""img/1to3/1.png"",""time"":99},{""stimulus"":""img/1to3/2.png"",""time"":199},{""stimulus"":""img/1to3/3.png"",""time"":297},{""stimulus"":""img/1to3/4.png"",""time"":396},{""stimulus"":""img/1to3/5.png"",""time"":495},{""stimulus"":""img/1to3/6.png"",""time"":595},{""stimulus"":""img/1to3/7.png"",""time"":694},{""stimulus"":""img/1to3/8.png"",""time"":792},{""stimulus"":""img/1to3/9.png"",""time"":892},{""stimulus"":""img/1to3/10.png"",""time"":990},{""stimulus"":""img/1to3/11.png"",""time"":1090},{""stimulus"":""img/1to3/12.png"",""time"":1189}]","[]"
"image-keyboard-response","14","59168","0.0-5.0-1.5","63d69e4d6648b39324fdf0ad","bdp_cybrbll","Mon Mar 27 2023 10:17:50 GMT-0400 (Eastern Daylight Time)","450138","1","3","","null","","","","observe","","img/3to2/1.png","null","220","779","0.5","0.5","3","2","",""
"animation","15","60456","0.0-5.0-2.5","63d69e4d6648b39324fdf0ad","bdp_cybrbll","Mon Mar 27 2023 10:17:50 GMT-0400 (Eastern Daylight Time)","450138","1","3","","","","","","","","","","220","","","","3","2","[{""stimulus"":""img/3to2/1.png"",""time"":99},{""stimulus"":""img/3to2/2.png"",""time"":198},{""stimulus"":""img/3to2/3.png"",""time"":298},{""stimulus"":""img/3to2/4.png"",""time"":397},{""stimulus"":""img/3to2/5.png"",""time"":495},{""stimulus"":""img/3to2/6.png"",""time"":595},{""stimulus"":""img/3to2/7.png"",""time"":694},{""stimulus"":""img/3to2/8.png"",""time"":793},{""stimulus"":""img/3to2/9.png"",""time"":891},{""stimulus"":""img/3to2/10.png"",""time"":991},{""stimulus"":""img/3to2/11.png"",""time"":1090},{""stimulus"":""img/3to2/12.png"",""time"":1188}]","[]"
"image-keyboard-response","16","61045","0.0-5.0-1.6","63d69e4d6648b39324fdf0ad","bdp_cybrbll","Mon Mar 27 2023 10:17:50 GMT-0400 (Eastern Daylight Time)","450138","1","3","","589","","","","choice","","img/2to1/1.png","1","219","445","0.5","0.5","2","1","",""
"animation","17","62333","0.0-5.0-2.6","63d69e4d6648b39324fdf0ad","bdp_cybrbll","Mon Mar 27 2023 10:17:50 GMT-0400 (Eastern Daylight Time)","450138","1","3","","","","","","","","","","219","","","","2","1","[{""stimulus"":""img/2to1/1.png"",""time"":100},{""stimulus"":""img/2to1/2.png"",""time"":199},{""stimulus"":""img/2to1/3.png"",""time"":298},{""stimulus"":""img/2to1/4.png"",""time"":402},{""stimulus"":""img/2to1/5.png"",""time"":496},{""stimulus"":""img/2to1/6.png"",""time"":595},{""stimulus"":""img/2to1/7.png"",""time"":695},{""stimulus"":""img/2to1/8.png"",""time"":793},{""stimulus"":""img/2to1/9.png"",""time"":892},{""stimulus"":""img/2to1/10.png"",""time"":991},{""stimulus"":""img/2to1/11.png"",""time"":1091},{""stimulus"":""img/2to1/12.png"",""time"":1189}]","[]"
"image-keyboard-response","18","62465","0.0-5.0-1.7","63d69e4d6648b39324fdf0ad","bdp_cybrbll","Mon Mar 27 2023 10:17:50 GMT-0400 (Eastern Daylight Time)","450138","1","3","","null","","","","observe","","img/1to3/1.png","null","218","131","0.5","0.5","1","3","",""
"animation","19","63767","0.0-5.0-2.7","63d69e4d6648b39324fdf0ad","bdp_cybrbll","Mon Mar 27 2023 10:17:50 GMT-0400 (Eastern Daylight Time)","450138","1","3","","","","","","","","","","218","","","","1","3","[{""stimulus"":""img/1to3/1.png"",""time"":100},{""stimulus"":""img/1to3/2.png"",""time"":200},{""stimulus"":""img/1to3/3.png"",""time"":299},{""stimulus"":""img/1to3/4.png"",""time"":398},{""stimulus"":""img/1to3/5.png"",""time"":497},{""stimulus"":""img/1to3/6.png"",""time"":595},{""stimulus"":""img/1to3/7.png"",""time"":695},{""stimulus"":""img/1to3/8.png"",""time"":793},{""stimulus"":""img/1to3/9.png"",""time"":892},{""stimulus"":""img/1to3/10.png"",""time"":991},{""stimulus"":""img/1to3/11.png"",""time"":1090},{""stimulus"":""img/1to3/12.png"",""time"":1189}]","[]"
"image-keyboard-response","20","63917","0.0-5.0-1.8","63d69e4d6648b39324fdf0ad","bdp_cybrbll","Mon Mar 27 2023 10:17:50 GMT-0400 (Eastern Daylight Time)","450138","1","3","","null","","","","observe","","img/3to2/1.png","null","217","149","0.5","0.5","3","2","",""
"animation","21","65205","0.0-5.0-2.8","63d69e4d6648b39324fdf0ad","bdp_cybrbll","Mon Mar 27 2023 10:17:50 GMT-0400 (Eastern Daylight Time)","450138","1","3","","","","","","","","","","217","","","","3","2","[{""stimulus"":""img/3to2/1.png"",""time"":100},{""stimulus"":""img/3to2/2.png"",""time"":199},{""stimulus"":""img/3to2/3.png"",""time"":299},{""stimulus"":""img/3to2/4.png"",""time"":397},{""stimulus"":""img/3to2/5.png"",""time"":608},{""stimulus"":""img/3to2/6.png"",""time"":630},{""stimulus"":""img/3to2/7.png"",""time"":709},{""stimulus"":""img/3to2/8.png"",""time"":793},{""stimulus"":""img/3to2/9.png"",""time"":892},{""stimulus"":""img/3to2/10.png"",""time"":991},{""stimulus"":""img/3to2/11.png"",""time"":1090},{""stimulus"":""img/3to2/12.png"",""time"":1189}]","[]"
"image-keyboard-response","22","66054","0.0-5.0-1.9","63d69e4d6648b39324fdf0ad","bdp_cybrbll","Mon Mar 27 2023 10:17:50 GMT-0400 (Eastern Daylight Time)","450138","1","3","","848","","","","choice","","img/2to1/1.png","2","216","263","0.5","0.5","2","3","",""
"animation","23","67342","0.0-5.0-2.9","63d69e4d6648b39324fdf0ad","bdp_cybrbll","Mon Mar 27 2023 10:17:50 GMT-0400 (Eastern Daylight Time)","450138","1","3","","","","","","","","","","216","","","","2","3","[{""stimulus"":""img/2to3/1.png"",""time"":100},{""stimulus"":""img/2to3/2.png"",""time"":199},{""stimulus"":""img/2to3/3.png"",""time"":299},{""stimulus"":""img/2to3/4.png"",""time"":397},{""stimulus"":""img/2to3/5.png"",""time"":497},{""stimulus"":""img/2to3/6.png"",""time"":595},{""stimulus"":""img/2to3/7.png"",""time"":695},{""stimulus"":""img/2to3/8.png"",""time"":793},{""stimulus"":""img/2to3/9.png"",""time"":892},{""stimulus"":""img/2to3/10.png"",""time"":992},{""stimulus"":""img/2to3/11.png"",""time"":1090},{""stimulus"":""img/2to3/12.png"",""time"":1189}]","[]"
"image-keyboard-response","24","68075","0.0-5.0-1.10","63d69e4d6648b39324fdf0ad","bdp_cybrbll","Mon Mar 27 2023 10:17:50 GMT-0400 (Eastern Daylight Time)","450138","1","3","","null","","","","observe","","img/3to2/1.png","null","215","731","0.5","0.5","3","1","",""
"animation","25","69363","0.0-5.0-2.10","63d69e4d6648b39324fdf0ad","bdp_cybrbll","Mon Mar 27 2023 10:17:50 GMT-0400 (Eastern Daylight Time)","450138","1","3","","","","","","","","","","215","","","","3","1","[{""stimulus"":""img/3to1/1.png"",""time"":100},{""stimulus"":""img/3to1/2.png"",""time"":199},{""stimulus"":""img/3to1/3.png"",""time"":297},{""stimulus"":""img/3to1/4.png"",""time"":397},{""stimulus"":""img/3to1/5.png"",""time"":496},{""stimulus"":""img/3to1/6.png"",""time"":595},{""stimulus"":""img/3to1/7.png"",""time"":694},{""stimulus"":""img/3to1/8.png"",""time"":793},{""stimulus"":""img/3to1/9.png"",""time"":892},{""stimulus"":""img/3to1/10.png"",""time"":991},{""stimulus"":""img/3to1/11.png"",""time"":1090},{""stimulus"":""img/3to1/12.png"",""time"":1189}]","[]"
"image-keyboard-response","26","69646","0.0-5.0-1.11","63d69e4d6648b39324fdf0ad","bdp_cybrbll","Mon Mar 27 2023 10:17:50 GMT-0400 (Eastern Daylight Time)","450138","1","3","","null","","","","observe","","img/1to3/1.png","null","214","282","0.5","0.5","1","2","",""
"animation","27","70934","0.0-5.0-2.11","63d69e4d6648b39324fdf0ad","bdp_cybrbll","Mon Mar 27 2023 10:17:50 GMT-0400 (Eastern Daylight Time)","450138","1","3","","","","","","","","","","214","","","","1","2","[{""stimulus"":""img/1to2/1.png"",""time"":100},{""stimulus"":""img/1to2/2.png"",""time"":200},{""stimulus"":""img/1to2/3.png"",""time"":298},{""stimulus"":""img/1to2/4.png"",""time"":397},{""stimulus"":""img/1to2/5.png"",""time"":497},{""stimulus"":""img/1to2/6.png"",""time"":596},{""stimulus"":""img/1to2/7.png"",""time"":694},{""stimulus"":""img/1to2/8.png"",""time"":793},{""stimulus"":""img/1to2/9.png"",""time"":892},{""stimulus"":""img/1to2/10.png"",""time"":991},{""stimulus"":""img/1to2/11.png"",""time"":1091},{""stimulus"":""img/1to2/12.png"",""time"":1190}]","[]"
"image-keyboard-response","28","71293","0.0-5.0-1.12","63d69e4d6648b39324fdf0ad","bdp_cybrbll","Mon Mar 27 2023 10:17:50 GMT-0400 (Eastern Daylight Time)","450138","1","3","","358","","","","choice","","img/2to1/1.png","2","213","695","0.5","0.5","2","3","",""
"animation","29","72581","0.0-5.0-2.12","63d69e4d6648b39324fdf0ad","bdp_cybrbll","Mon Mar 27 2023 10:17:50 GMT-0400 (Eastern Daylight Time)","450138","1","3","","","","","","","","","","213","","","","2","3","[{""stimulus"":""img/2to3/1.png"",""time"":100},{""stimulus"":""img/2to3/2.png"",""time"":199},{""stimulus"":""img/2to3/3.png"",""time"":299},{""stimulus"":""img/2to3/4.png"",""time"":397},{""stimulus"":""img/2to3/5.png"",""time"":496},{""stimulus"":""img/2to3/6.png"",""time"":595},{""stimulus"":""img/2to3/7.png"",""time"":694},{""stimulus"":""img/2to3/8.png"",""time"":793},{""stimulus"":""img/2to3/9.png"",""time"":892},{""stimulus"":""img/2to3/10.png"",""time"":991},{""stimulus"":""img/2to3/11.png"",""time"":1090},{""stimulus"":""img/2to3/12.png"",""time"":1190}]","[]"
"image-keyboard-response","30","72988","0.0-5.0-1.13","63d69e4d6648b39324fdf0ad","bdp_cybrbll","Mon Mar 27 2023 10:17:50 GMT-0400 (Eastern Daylight Time)","450138","1","3","","null","","","","observe","","img/3to2/1.png","null","212","406","0.5","0.5","3","2","",""
"animation","31","74276","0.0-5.0-2.13","63d69e4d6648b39324fdf0ad","bdp_cybrbll","Mon Mar 27 2023 10:17:50 GMT-0400 (Eastern Daylight Time)","450138","1","3","","","","","","","","","","212","","","","3","2","[{""stimulus"":""img/3to2/1.png"",""time"":100},{""stimulus"":""img/3to2/2.png"",""time"":200},{""stimulus"":""img/3to2/3.png"",""time"":299},{""stimulus"":""img/3to2/4.png"",""time"":398},{""stimulus"":""img/3to2/5.png"",""time"":497},{""stimulus"":""img/3to2/6.png"",""time"":596},{""stimulus"":""img/3to2/7.png"",""time"":695},{""stimulus"":""img/3to2/8.png"",""time"":794},{""stimulus"":""img/3to2/9.png"",""time"":893},{""stimulus"":""img/3to2/10.png"",""time"":992},{""stimulus"":""img/3to2/11.png"",""time"":1090},{""stimulus"":""img/3to2/12.png"",""time"":1189}]","[]"
"image-keyboard-response","32","74488","0.0-5.0-1.14","63d69e4d6648b39324fdf0ad","bdp_cybrbll","Mon Mar 27 2023 10:17:50 GMT-0400 (Eastern Daylight Time)","450138","1","3","","211","","","","choice","","img/2to1/1.png","1","211","359","0.5","0.5","2","1","",""
"animation","33","75777","0.0-5.0-2.14","63d69e4d6648b39324fdf0ad","bdp_cybrbll","Mon Mar 27 2023 10:17:50 GMT-0400 (Eastern Daylight Time)","450138","1","3","","","","","","","","","","211","","","","2","1","[{""stimulus"":""img/2to1/1.png"",""time"":100},{""stimulus"":""img/2to1/2.png"",""time"":199},{""stimulus"":""img/2to1/3.png"",""time"":306},{""stimulus"":""img/2to1/4.png"",""time"":397},{""stimulus"":""img/2to1/5.png"",""time"":495},{""stimulus"":""img/2to1/6.png"",""time"":595},{""stimulus"":""img/2to1/7.png"",""time"":694},{""stimulus"":""img/2to1/8.png"",""time"":793},{""stimulus"":""img/2to1/9.png"",""time"":891},{""stimulus"":""img/2to1/10.png"",""time"":991},{""stimulus"":""img/2to1/11.png"",""time"":1090},{""stimulus"":""img/2to1/12.png"",""time"":1189}]","[]"
"image-keyboard-response","34","75991","0.0-5.0-1.15","63d69e4d6648b39324fdf0ad","bdp_cybrbll","Mon Mar 27 2023 10:17:50 GMT-0400 (Eastern Daylight Time)","450138","1","3","","null","","","","observe","","img/1to3/1.png","null","210","213","0.5","0.5","1","2","",""
"animation","35","77279","0.0-5.0-2.15","63d69e4d6648b39324fdf0ad","bdp_cybrbll","Mon Mar 27 2023 10:17:50 GMT-0400 (Eastern Daylight Time)","450138","1","3","","","","","","","","","","210","","","","1","2","[{""stimulus"":""img/1to2/1.png"",""time"":100},{""stimulus"":""img/1to2/2.png"",""time"":199},{""stimulus"":""img/1to2/3.png"",""time"":298},{""stimulus"":""img/1to2/4.png"",""time"":397},{""stimulus"":""img/1to2/5.png"",""time"":496},{""stimulus"":""img/1to2/6.png"",""time"":595},{""stimulus"":""img/1to2/7.png"",""time"":694},{""stimulus"":""img/1to2/8.png"",""time"":793},{""stimulus"":""img/1to2/9.png"",""time"":892},{""stimulus"":""img/1to2/10.png"",""time"":991},{""stimulus"":""img/1to2/11.png"",""time"":1090},{""stimulus"":""img/1to2/12.png"",""time"":1188}]","[]"
"image-keyboard-response","36","77580","0.0-5.0-1.16","63d69e4d6648b39324fdf0ad","bdp_cybrbll","Mon Mar 27 2023 10:17:50 GMT-0400 (Eastern Daylight Time)","450138","1","3","","301","","","","choice","","img/2to1/1.png","2","209","310","0.5","0.5","2","3","",""
"animation","37","78868","0.0-5.0-2.16","63d69e4d6648b39324fdf0ad","bdp_cybrbll","Mon Mar 27 2023 10:17:50 GMT-0400 (Eastern Daylight Time)","450138","1","3","","","","","","","","","","209","","","","2","3","[{""stimulus"":""img/2to3/1.png"",""time"":100},{""stimulus"":""img/2to3/2.png"",""time"":200},{""stimulus"":""img/2to3/3.png"",""time"":314},{""stimulus"":""img/2to3/4.png"",""time"":398},{""stimulus"":""img/2to3/5.png"",""time"":496},{""stimulus"":""img/2to3/6.png"",""time"":595},{""stimulus"":""img/2to3/7.png"",""time"":694},{""stimulus"":""img/2to3/8.png"",""time"":793},{""stimulus"":""img/2to3/9.png"",""time"":892},{""stimulus"":""img/2to3/10.png"",""time"":992},{""stimulus"":""img/2to3/11.png"",""time"":1090},{""stimulus"":""img/2to3/12.png"",""time"":1189}]","[]"
"image-keyboard-response","38","79626","0.0-5.0-1.17","63d69e4d6648b39324fdf0ad","bdp_cybrbll","Mon Mar 27 2023 10:17:50 GMT-0400 (Eastern Daylight Time)","450138","1","3","","null","","","","observe","","img/3to2/1.png","null","208","757","0.5","0.5","3","1","",""
"animation","39","80914","0.0-5.0-2.17","63d69e4d6648b39324fdf0ad","bdp_cybrbll","Mon Mar 27 2023 10:17:50 GMT-0400 (Eastern Daylight Time)","450138","1","3","","","","","","","","","","208","","","","3","1","[{""stimulus"":""img/3to1/1.png"",""time"":100},{""stimulus"":""img/3to1/2.png"",""time"":200},{""stimulus"":""img/3to1/3.png"",""time"":299},{""stimulus"":""img/3to1/4.png"",""time"":397},{""stimulus"":""img/3to1/5.png"",""time"":496},{""stimulus"":""img/3to1/6.png"",""time"":596},{""stimulus"":""img/3to1/7.png"",""time"":695},{""stimulus"":""img/3to1/8.png"",""time"":793},{""stimulus"":""img/3to1/9.png"",""time"":892},{""stimulus"":""img/3to1/10.png"",""time"":991},{""stimulus"":""img/3to1/11.png"",""time"":1091},{""stimulus"":""img/3to1/12.png"",""time"":1189}]","[]"
"image-keyboard-response","40","81227","0.0-5.0-1.18","63d69e4d6648b39324fdf0ad","bdp_cybrbll","Mon Mar 27 2023 10:17:50 GMT-0400 (Eastern Daylight Time)","450138","1","3","","null","","","","observe","","img/1to3/1.png","null","207","312","0.5","0.5","1","2","",""
"animation","41","82515","0.0-5.0-2.18","63d69e4d6648b39324fdf0ad","bdp_cybrbll","Mon Mar 27 2023 10:17:50 GMT-0400 (Eastern Daylight Time)","450138","1","3","","","","","","","","","","207","","","","1","2","[{""stimulus"":""img/1to2/1.png"",""time"":100},{""stimulus"":""img/1to2/2.png"",""time"":200},{""stimulus"":""img/1to2/3.png"",""time"":299},{""stimulus"":""img/1to2/4.png"",""time"":398},{""stimulus"":""img/1to2/5.png"",""time"":497},{""stimulus"":""img/1to2/6.png"",""time"":595},{""stimulus"":""img/1to2/7.png"",""time"":695},{""stimulus"":""img/1to2/8.png"",""time"":793},{""stimulus"":""img/1to2/9.png"",""time"":892},{""stimulus"":""img/1to2/10.png"",""time"":992},{""stimulus"":""img/1to2/11.png"",""time"":1091},{""stimulus"":""img/1to2/12.png"",""time"":1189}]","[]"
"image-keyboard-response","42","82834","0.0-5.0-1.19","63d69e4d6648b39324fdf0ad","bdp_cybrbll","Mon Mar 27 2023 10:17:50 GMT-0400 (Eastern Daylight Time)","450138","1","3","","319","","","","choice","","img/2to1/1.png","2","206","270","0.5","0.5","2","3","",""
"animation","43","84122","0.0-5.0-2.19","63d69e4d6648b39324fdf0ad","bdp_cybrbll","Mon Mar 27 2023 10:17:50 GMT-0400 (Eastern Daylight Time)","450138","1","3","","","","","","","","","","206","","","","2","3","[{""stimulus"":""img/2to3/1.png"",""time"":101},{""stimulus"":""img/2to3/2.png"",""time"":199},{""stimulus"":""img/2to3/3.png"",""time"":299},{""stimulus"":""img/2to3/4.png"",""time"":397},{""stimulus"":""img/2to3/5.png"",""time"":496},{""stimulus"":""img/2to3/6.png"",""time"":596},{""stimulus"":""img/2to3/7.png"",""time"":695},{""stimulus"":""img/2to3/8.png"",""time"":793},{""stimulus"":""img/2to3/9.png"",""time"":892},{""stimulus"":""img/2to3/10.png"",""time"":992},{""stimulus"":""img/2to3/11.png"",""time"":1091},{""stimulus"":""img/2to3/12.png"",""time"":1188}]","[]"
"image-keyboard-response","44","84322","0.0-5.0-1.20","63d69e4d6648b39324fdf0ad","bdp_cybrbll","Mon Mar 27 2023 10:17:50 GMT-0400 (Eastern Daylight Time)","450138","1","3","","null","","","","observe","","img/3to2/1.png","null","205","199","0.5","0.5","3","1","",""
"animation","45","85610","0.0-5.0-2.20","63d69e4d6648b39324fdf0ad","bdp_cybrbll","Mon Mar 27 2023 10:17:50 GMT-0400 (Eastern Daylight Time)","450138","1","3","","","","","","","","","","205","","","","3","1","[{""stimulus"":""img/3to1/1.png"",""time"":100},{""stimulus"":""img/3to1/2.png"",""time"":199},{""stimulus"":""img/3to1/3.png"",""time"":298},{""stimulus"":""img/3to1/4.png"",""time"":398},{""stimulus"":""img/3to1/5.png"",""time"":496},{""stimulus"":""img/3to1/6.png"",""time"":596},{""stimulus"":""img/3to1/7.png"",""time"":695},{""stimulus"":""img/3to1/8.png"",""time"":794},{""stimulus"":""img/3to1/9.png"",""time"":891},{""stimulus"":""img/3to1/10.png"",""time"":992},{""stimulus"":""img/3to1/11.png"",""time"":1091},{""stimulus"":""img/3to1/12.png"",""time"":1189}]","[]"
"image-keyboard-response","46","85975","0.0-5.0-1.21","63d69e4d6648b39324fdf0ad","bdp_cybrbll","Mon Mar 27 2023 10:17:50 GMT-0400 (Eastern Daylight Time)","450138","1","3","","null","","","","observe","","img/1to3/1.png","null","204","363","0.5","0.5","1","2","",""
"animation","47","87262","0.0-5.0-2.21","63d69e4d6648b39324fdf0ad","bdp_cybrbll","Mon Mar 27 2023 10:17:50 GMT-0400 (Eastern Daylight Time)","450138","1","3","","","","","","","","","","204","","","","1","2","[{""stimulus"":""img/1to2/1.png"",""time"":99},{""stimulus"":""img/1to2/2.png"",""time"":199},{""stimulus"":""img/1to2/3.png"",""time"":298},{""stimulus"":""img/1to2/4.png"",""time"":397},{""stimulus"":""img/1to2/5.png"",""time"":496},{""stimulus"":""img/1to2/6.png"",""time"":608},{""stimulus"":""img/1to2/7.png"",""time"":694},{""stimulus"":""img/1to2/8.png"",""time"":793},{""stimulus"":""img/1to2/9.png"",""time"":892},{""stimulus"":""img/1to2/10.png"",""time"":991},{""stimulus"":""img/1to2/11.png"",""time"":1090},{""stimulus"":""img/1to2/12.png"",""time"":1189}]","[]"
"image-keyboard-response","48","87354","0.0-5.0-1.22","63d69e4d6648b39324fdf0ad","bdp_cybrbll","Mon Mar 27 2023 10:17:50 GMT-0400 (Eastern Daylight Time)","450138","1","3","","91","","","","choice","","img/2to1/1.png","1","203","1603","0.5","0.5","2","1","",""
"animation","49","88641","0.0-5.0-2.22","63d69e4d6648b39324fdf0ad","bdp_cybrbll","Mon Mar 27 2023 10:17:50 GMT-0400 (Eastern Daylight Time)","450138","1","3","","","","","","","","","","203","","","","2","1","[{""stimulus"":""img/2to1/1.png"",""time"":102},{""stimulus"":""img/2to1/2.png"",""time"":199},{""stimulus"":""img/2to1/3.png"",""time"":298},{""stimulus"":""img/2to1/4.png"",""time"":398},{""stimulus"":""img/2to1/5.png"",""time"":496},{""stimulus"":""img/2to1/6.png"",""time"":595},{""stimulus"":""img/2to1/7.png"",""time"":694},{""stimulus"":""img/2to1/8.png"",""time"":793},{""stimulus"":""img/2to1/9.png"",""time"":892},{""stimulus"":""img/2to1/10.png"",""time"":992},{""stimulus"":""img/2to1/11.png"",""time"":1089},{""stimulus"":""img/2to1/12.png"",""time"":1189}]","[]"
"image-keyboard-response","50","88955","0.0-5.0-1.23","63d69e4d6648b39324fdf0ad","bdp_cybrbll","Mon Mar 27 2023 10:17:50 GMT-0400 (Eastern Daylight Time)","450138","1","3","","null","","","","observe","","img/1to3/1.png","null","202","313","0.5","0.5","1","3","",""
"animation","51","90243","0.0-5.0-2.23","63d69e4d6648b39324fdf0ad","bdp_cybrbll","Mon Mar 27 2023 10:17:50 GMT-0400 (Eastern Daylight Time)","450138","1","3","","","","","","","","","","202","","","","1","3","[{""stimulus"":""img/1to3/1.png"",""time"":99},{""stimulus"":""img/1to3/2.png"",""time"":200},{""stimulus"":""img/1to3/3.png"",""time"":297},{""stimulus"":""img/1to3/4.png"",""time"":397},{""stimulus"":""img/1to3/5.png"",""time"":495},{""stimulus"":""img/1to3/6.png"",""time"":595},{""stimulus"":""img/1to3/7.png"",""time"":694},{""stimulus"":""img/1to3/8.png"",""time"":793},{""stimulus"":""img/1to3/9.png"",""time"":892},{""stimulus"":""img/1to3/10.png"",""time"":990},{""stimulus"":""img/1to3/11.png"",""time"":1089},{""stimulus"":""img/1to3/12.png"",""time"":1188}]","[]"
"image-keyboard-response","52","90528","0.0-5.0-1.24","63d69e4d6648b39324fdf0ad","bdp_cybrbll","Mon Mar 27 2023 10:17:50 GMT-0400 (Eastern Daylight Time)","450138","1","3","","null","","","","observe","","img/3to2/1.png","null","201","283","0.5","0.5","3","1","",""
"animation","53","91815","0.0-5.0-2.24","63d69e4d6648b39324fdf0ad","bdp_cybrbll","Mon Mar 27 2023 10:17:50 GMT-0400 (Eastern Daylight Time)","450138","1","3","","","","","","","","","","201","","","","3","1","[{""stimulus"":""img/3to1/1.png"",""time"":100},{""stimulus"":""img/3to1/2.png"",""time"":199},{""stimulus"":""img/3to1/3.png"",""time"":298},{""stimulus"":""img/3to1/4.png"",""time"":398},{""stimulus"":""img/3to1/5.png"",""time"":496},{""stimulus"":""img/3to1/6.png"",""time"":595},{""stimulus"":""img/3to1/7.png"",""time"":694},{""stimulus"":""img/3to1/8.png"",""time"":793},{""stimulus"":""img/3to1/9.png"",""time"":892},{""stimulus"":""img/3to1/10.png"",""time"":991},{""stimulus"":""img/3to1/11.png"",""time"":1090},{""stimulus"":""img/3to1/12.png"",""time"":1188}]","[]"
"image-keyboard-response","54","92205","0.0-5.0-1.25","63d69e4d6648b39324fdf0ad","bdp_cybrbll","Mon Mar 27 2023 10:17:50 GMT-0400 (Eastern Daylight Time)","450138","1","3","","null","","","","observe","","img/1to3/1.png","null","200","388","0.5","0.5","1","2","",""
"animation","55","93492","0.0-5.0-2.25","63d69e4d6648b39324fdf0ad","bdp_cybrbll","Mon Mar 27 2023 10:17:50 GMT-0400 (Eastern Daylight Time)","450138","1","3","","","","","","","","","","200","","","","1","2","[{""stimulus"":""img/1to2/1.png"",""time"":100},{""stimulus"":""img/1to2/2.png"",""time"":199},{""stimulus"":""img/1to2/3.png"",""time"":298},{""stimulus"":""img/1to2/4.png"",""time"":397},{""stimulus"":""img/1to2/5.png"",""time"":496},{""stimulus"":""img/1to2/6.png"",""time"":595},{""stimulus"":""img/1to2/7.png"",""time"":694},{""stimulus"":""img/1to2/8.png"",""time"":793},{""stimulus"":""img/1to2/9.png"",""time"":892},{""stimulus"":""img/1to2/10.png"",""time"":991},{""stimulus"":""img/1to2/11.png"",""time"":1090},{""stimulus"":""img/1to2/12.png"",""time"":1189}]","[]"
"image-keyboard-response","56","93614","0.0-5.0-1.26","63d69e4d6648b39324fdf0ad","bdp_cybrbll","Mon Mar 27 2023 10:17:50 GMT-0400 (Eastern Daylight Time)","450138","1","3","","121","","","","choice","","img/2to1/1.png","2","199","302","0.5","0.5","2","3","",""
"animation","57","94902","0.0-5.0-2.26","63d69e4d6648b39324fdf0ad","bdp_cybrbll","Mon Mar 27 2023 10:17:50 GMT-0400 (Eastern Daylight Time)","450138","1","3","","","","","","","","","","199","","","","2","3","[{""stimulus"":""img/2to3/1.png"",""time"":100},{""stimulus"":""img/2to3/2.png"",""time"":200},{""stimulus"":""img/2to3/3.png"",""time"":307},{""stimulus"":""img/2to3/4.png"",""time"":402},{""stimulus"":""img/2to3/5.png"",""time"":495},{""stimulus"":""img/2to3/6.png"",""time"":595},{""stimulus"":""img/2to3/7.png"",""time"":694},{""stimulus"":""img/2to3/8.png"",""time"":793},{""stimulus"":""img/2to3/9.png"",""time"":892},{""stimulus"":""img/2to3/10.png"",""time"":991},{""stimulus"":""img/2to3/11.png"",""time"":1090},{""stimulus"":""img/2to3/12.png"",""time"":1189}]","[]"
"image-keyboard-response","58","95384","0.0-5.0-1.27","63d69e4d6648b39324fdf0ad","bdp_cybrbll","Mon Mar 27 2023 10:17:50 GMT-0400 (Eastern Daylight Time)","450138","1","3","","null","","","","observe","","img/3to2/1.png","null","198","481","0.5","0.5","3","2","",""
"animation","59","96673","0.0-5.0-2.27","63d69e4d6648b39324fdf0ad","bdp_cybrbll","Mon Mar 27 2023 10:17:50 GMT-0400 (Eastern Daylight Time)","450138","1","3","","","","","","","","","","198","","","","3","2","[{""stimulus"":""img/3to2/1.png"",""time"":100},{""stimulus"":""img/3to2/2.png"",""time"":199},{""stimulus"":""img/3to2/3.png"",""time"":298},{""stimulus"":""img/3to2/4.png"",""time"":398},{""stimulus"":""img/3to2/5.png"",""time"":496},{""stimulus"":""img/3to2/6.png"",""time"":595},{""stimulus"":""img/3to2/7.png"",""time"":694},{""stimulus"":""img/3to2/8.png"",""time"":793},{""stimulus"":""img/3to2/9.png"",""time"":892},{""stimulus"":""img/3to2/10.png"",""time"":992},{""stimulus"":""img/3to2/11.png"",""time"":1091},{""stimulus"":""img/3to2/12.png"",""time"":1190}]","[]"
"image-keyboard-response","60","96676","0.0-5.0-1.28","63d69e4d6648b39324fdf0ad","bdp_cybrbll","Mon Mar 27 2023 10:17:50 GMT-0400 (Eastern Daylight Time)","450138","1","3","","3","","","","choice","","img/2to1/1.png","1","197","379","0.5","0.5","2","1","",""
"animation","61","97964","0.0-5.0-2.28","63d69e4d6648b39324fdf0ad","bdp_cybrbll","Mon Mar 27 2023 10:17:50 GMT-0400 (Eastern Daylight Time)","450138","1","3","","","","","","","","","","197","","","","2","1","[{""stimulus"":""img/2to1/1.png"",""time"":100},{""stimulus"":""img/2to1/2.png"",""time"":200},{""stimulus"":""img/2to1/3.png"",""time"":298},{""stimulus"":""img/2to1/4.png"",""time"":398},{""stimulus"":""img/2to1/5.png"",""time"":497},{""stimulus"":""img/2to1/6.png"",""time"":596},{""stimulus"":""img/2to1/7.png"",""time"":694},{""stimulus"":""img/2to1/8.png"",""time"":794},{""stimulus"":""img/2to1/9.png"",""time"":892},{""stimulus"":""img/2to1/10.png"",""time"":991},{""stimulus"":""img/2to1/11.png"",""time"":1091},{""stimulus"":""img/2to1/12.png"",""time"":1189}]","[]"
"image-keyboard-response","62","98742","0.0-5.0-1.29","63d69e4d6648b39324fdf0ad","bdp_cybrbll","Mon Mar 27 2023 10:17:50 GMT-0400 (Eastern Daylight Time)","450138","1","3","","null","","","","observe","","img/1to3/1.png","null","196","776","0.5","0.5","1","2","",""
"animation","63","100030","0.0-5.0-2.29","63d69e4d6648b39324fdf0ad","bdp_cybrbll","Mon Mar 27 2023 10:17:50 GMT-0400 (Eastern Daylight Time)","450138","1","3","","","","","","","","","","196","","","","1","2","[{""stimulus"":""img/1to2/1.png"",""time"":100},{""stimulus"":""img/1to2/2.png"",""time"":200},{""stimulus"":""img/1to2/3.png"",""time"":298},{""stimulus"":""img/1to2/4.png"",""time"":398},{""stimulus"":""img/1to2/5.png"",""time"":497},{""stimulus"":""img/1to2/6.png"",""time"":595},{""stimulus"":""img/1to2/7.png"",""time"":694},{""stimulus"":""img/1to2/8.png"",""time"":794},{""stimulus"":""img/1to2/9.png"",""time"":892},{""stimulus"":""img/1to2/10.png"",""time"":992},{""stimulus"":""img/1to2/11.png"",""time"":1091},{""stimulus"":""img/1to2/12.png"",""time"":1190}]","[]"
"image-keyboard-response","64","100243","0.0-5.0-1.30","63d69e4d6648b39324fdf0ad","bdp_cybrbll","Mon Mar 27 2023 10:17:50 GMT-0400 (Eastern Daylight Time)","450138","1","3","","213","","","","choice","","img/2to1/1.png","2","195","788","0.5","0.5","2","3","",""
"animation","65","101530","0.0-5.0-2.30","63d69e4d6648b39324fdf0ad","bdp_cybrbll","Mon Mar 27 2023 10:17:50 GMT-0400 (Eastern Daylight Time)","450138","1","3","","","","","","","","","","195","","","","2","3","[{""stimulus"":""img/2to3/1.png"",""time"":100},{""stimulus"":""img/2to3/2.png"",""time"":199},{""stimulus"":""img/2to3/3.png"",""time"":298},{""stimulus"":""img/2to3/4.png"",""time"":397},{""stimulus"":""img/2to3/5.png"",""time"":496},{""stimulus"":""img/2to3/6.png"",""time"":595},{""stimulus"":""img/2to3/7.png"",""time"":694},{""stimulus"":""img/2to3/8.png"",""time"":793},{""stimulus"":""img/2to3/9.png"",""time"":906},{""stimulus"":""img/2to3/10.png"",""time"":991},{""stimulus"":""img/2to3/11.png"",""time"":1089},{""stimulus"":""img/2to3/12.png"",""time"":1189}]","[]"
"image-keyboard-response","66","101742","0.0-5.0-1.31","63d69e4d6648b39324fdf0ad","bdp_cybrbll","Mon Mar 27 2023 10:17:50 GMT-0400 (Eastern Daylight Time)","450138","1","3","","null","","","","observe","","img/3to2/1.png","null","194","210","0.5","0.5","3","2","",""
"animation","67","103030","0.0-5.0-2.31","63d69e4d6648b39324fdf0ad","bdp_cybrbll","Mon Mar 27 2023 10:17:50 GMT-0400 (Eastern Daylight Time)","450138","1","3","","","","","","","","","","194","","","","3","2","[{""stimulus"":""img/3to2/1.png"",""time"":100},{""stimulus"":""img/3to2/2.png"",""time"":200},{""stimulus"":""img/3to2/3.png"",""time"":299},{""stimulus"":""img/3to2/4.png"",""time"":398},{""stimulus"":""img/3to2/5.png"",""time"":508},{""stimulus"":""img/3to2/6.png"",""time"":596},{""stimulus"":""img/3to2/7.png"",""time"":694},{""stimulus"":""img/3to2/8.png"",""time"":794},{""stimulus"":""img/3to2/9.png"",""time"":892},{""stimulus"":""img/3to2/10.png"",""time"":992},{""stimulus"":""img/3to2/11.png"",""time"":1090},{""stimulus"":""img/3to2/12.png"",""time"":1189}]","[]"
"image-keyboard-response","68","103156","0.0-5.0-1.32","63d69e4d6648b39324fdf0ad","bdp_cybrbll","Mon Mar 27 2023 10:17:50 GMT-0400 (Eastern Daylight Time)","450138","1","3","","125","","","","choice","","img/2to1/1.png","1","193","306","0.5","0.5","2","1","",""
"animation","69","104445","0.0-5.0-2.32","63d69e4d6648b39324fdf0ad","bdp_cybrbll","Mon Mar 27 2023 10:17:50 GMT-0400 (Eastern Daylight Time)","450138","1","3","","","","","","","","","","193","","","","2","1","[{""stimulus"":""img/2to1/1.png"",""time"":99},{""stimulus"":""img/2to1/2.png"",""time"":198},{""stimulus"":""img/2to1/3.png"",""time"":298},{""stimulus"":""img/2to1/4.png"",""time"":397},{""stimulus"":""img/2to1/5.png"",""time"":496},{""stimulus"":""img/2to1/6.png"",""time"":595},{""stimulus"":""img/2to1/7.png"",""time"":693},{""stimulus"":""img/2to1/8.png"",""time"":792},{""stimulus"":""img/2to1/9.png"",""time"":891},{""stimulus"":""img/2to1/10.png"",""time"":991},{""stimulus"":""img/2to1/11.png"",""time"":1090},{""stimulus"":""img/2to1/12.png"",""time"":1189}]","[]"
"image-keyboard-response","70","104712","0.0-5.0-1.33","63d69e4d6648b39324fdf0ad","bdp_cybrbll","Mon Mar 27 2023 10:17:50 GMT-0400 (Eastern Daylight Time)","450138","1","3","","null","","","","observe","","img/1to3/1.png","null","192","265","0.5","0.5","1","3","",""
"animation","71","106000","0.0-5.0-2.33","63d69e4d6648b39324fdf0ad","bdp_cybrbll","Mon Mar 27 2023 10:17:50 GMT-0400 (Eastern Daylight Time)","450138","1","3","","","","","","","","","","192","","","","1","3","[{""stimulus"":""img/1to3/1.png"",""time"":100},{""stimulus"":""img/1to3/2.png"",""time"":199},{""stimulus"":""img/1to3/3.png"",""time"":298},{""stimulus"":""img/1to3/4.png"",""time"":397},{""stimulus"":""img/1to3/5.png"",""time"":496},{""stimulus"":""img/1to3/6.png"",""time"":595},{""stimulus"":""img/1to3/7.png"",""time"":693},{""stimulus"":""img/1to3/8.png"",""time"":794},{""stimulus"":""img/1to3/9.png"",""time"":892},{""stimulus"":""img/1to3/10.png"",""time"":991},{""stimulus"":""img/1to3/11.png"",""time"":1090},{""stimulus"":""img/1to3/12.png"",""time"":1189}]","[]"
"image-keyboard-response","72","106753","0.0-5.0-1.34","63d69e4d6648b39324fdf0ad","bdp_cybrbll","Mon Mar 27 2023 10:17:50 GMT-0400 (Eastern Daylight Time)","450138","1","3","","null","","","","observe","","img/3to2/1.png","null","191","751","0.5","0.5","3","1","",""
"animation","73","108040","0.0-5.0-2.34","63d69e4d6648b39324fdf0ad","bdp_cybrbll","Mon Mar 27 2023 10:17:50 GMT-0400 (Eastern Daylight Time)","450138","1","3","","","","","","","","","","191","","","","3","1","[{""stimulus"":""img/3to1/1.png"",""time"":99},{""stimulus"":""img/3to1/2.png"",""time"":199},{""stimulus"":""img/3to1/3.png"",""time"":298},{""stimulus"":""img/3to1/4.png"",""time"":397},{""stimulus"":""img/3to1/5.png"",""time"":495},{""stimulus"":""img/3to1/6.png"",""time"":595},{""stimulus"":""img/3to1/7.png"",""time"":694},{""stimulus"":""img/3to1/8.png"",""time"":793},{""stimulus"":""img/3to1/9.png"",""time"":892},{""stimulus"":""img/3to1/10.png"",""time"":991},{""stimulus"":""img/3to1/11.png"",""time"":1089},{""stimulus"":""img/3to1/12.png"",""time"":1189}]","[]"
"image-keyboard-response","74","108336","0.0-5.0-1.35","63d69e4d6648b39324fdf0ad","bdp_cybrbll","Mon Mar 27 2023 10:17:50 GMT-0400 (Eastern Daylight Time)","450138","1","3","","null","","","","observe","","img/1to3/1.png","null","190","293","0.5","0.5","1","2","",""
"animation","75","109624","0.0-5.0-2.35","63d69e4d6648b39324fdf0ad","bdp_cybrbll","Mon Mar 27 2023 10:17:50 GMT-0400 (Eastern Daylight Time)","450138","1","3","","","","","","","","","","190","","","","1","2","[{""stimulus"":""img/1to2/1.png"",""time"":100},{""stimulus"":""img/1to2/2.png"",""time"":200},{""stimulus"":""img/1to2/3.png"",""time"":298},{""stimulus"":""img/1to2/4.png"",""time"":396},{""stimulus"":""img/1to2/5.png"",""time"":496},{""stimulus"":""img/1to2/6.png"",""time"":596},{""stimulus"":""img/1to2/7.png"",""time"":694},{""stimulus"":""img/1to2/8.png"",""time"":793},{""stimulus"":""img/1to2/9.png"",""time"":892},{""stimulus"":""img/1to2/10.png"",""time"":991},{""stimulus"":""img/1to2/11.png"",""time"":1089},{""stimulus"":""img/1to2/12.png"",""time"":1190}]","[]"
"image-keyboard-response","76","109681","0.0-5.0-1.36","63d69e4d6648b39324fdf0ad","bdp_cybrbll","Mon Mar 27 2023 10:17:50 GMT-0400 (Eastern Daylight Time)","450138","1","3","","57","","","","choice","","img/2to1/1.png","2","189","488","0.5","0.5","2","3","",""
"animation","77","110969","0.0-5.0-2.36","63d69e4d6648b39324fdf0ad","bdp_cybrbll","Mon Mar 27 2023 10:17:50 GMT-0400 (Eastern Daylight Time)","450138","1","3","","","","","","","","","","189","","","","2","3","[{""stimulus"":""img/2to3/1.png"",""time"":102},{""stimulus"":""img/2to3/2.png"",""time"":199},{""stimulus"":""img/2to3/3.png"",""time"":298},{""stimulus"":""img/2to3/4.png"",""time"":398},{""stimulus"":""img/2to3/5.png"",""time"":496},{""stimulus"":""img/2to3/6.png"",""time"":595},{""stimulus"":""img/2to3/7.png"",""time"":693},{""stimulus"":""img/2to3/8.png"",""time"":794},{""stimulus"":""img/2to3/9.png"",""time"":906},{""stimulus"":""img/2to3/10.png"",""time"":991},{""stimulus"":""img/2to3/11.png"",""time"":1090},{""stimulus"":""img/2to3/12.png"",""time"":1189}]","[]"
"image-keyboard-response","78","111249","0.0-5.0-1.37","63d69e4d6648b39324fdf0ad","bdp_cybrbll","Mon Mar 27 2023 10:17:50 GMT-0400 (Eastern Daylight Time)","450138","1","3","","null","","","","observe","","img/3to2/1.png","null","188","278","0.5","0.5","3","2","",""
"animation","79","112538","0.0-5.0-2.37","63d69e4d6648b39324fdf0ad","bdp_cybrbll","Mon Mar 27 2023 10:17:50 GMT-0400 (Eastern Daylight Time)","450138","1","3","","","","","","","","","","188","","","","3","2","[{""stimulus"":""img/3to2/1.png"",""time"":100},{""stimulus"":""img/3to2/2.png"",""time"":199},{""stimulus"":""img/3to2/3.png"",""time"":298},{""stimulus"":""img/3to2/4.png"",""time"":397},{""stimulus"":""img/3to2/5.png"",""time"":496},{""stimulus"":""img/3to2/6.png"",""time"":595},{""stimulus"":""img/3to2/7.png"",""time"":695},{""stimulus"":""img/3to2/8.png"",""time"":793},{""stimulus"":""img/3to2/9.png"",""time"":892},{""stimulus"":""img/3to2/10.png"",""time"":991},{""stimulus"":""img/3to2/11.png"",""time"":1090},{""stimulus"":""img/3to2/12.png"",""time"":1189}]","[]"
"image-keyboard-response","80","112824","0.0-5.0-1.38","63d69e4d6648b39324fdf0ad","bdp_cybrbll","Mon Mar 27 2023 10:17:50 GMT-0400 (Eastern Daylight Time)","450138","1","3","","286","","","","choice","","img/2to1/1.png","1","187","687","0.5","0.5","2","1","",""
"animation","81","114113","0.0-5.0-2.38","63d69e4d6648b39324fdf0ad","bdp_cybrbll","Mon Mar 27 2023 10:17:50 GMT-0400 (Eastern Daylight Time)","450138","1","3","","","","","","","","","","187","","","","2","1","[{""stimulus"":""img/2to1/1.png"",""time"":99},{""stimulus"":""img/2to1/2.png"",""time"":198},{""stimulus"":""img/2to1/3.png"",""time"":297},{""stimulus"":""img/2to1/4.png"",""time"":397},{""stimulus"":""img/2to1/5.png"",""time"":496},{""stimulus"":""img/2to1/6.png"",""time"":595},{""stimulus"":""img/2to1/7.png"",""time"":694},{""stimulus"":""img/2to1/8.png"",""time"":792},{""stimulus"":""img/2to1/9.png"",""time"":891},{""stimulus"":""img/2to1/10.png"",""time"":991},{""stimulus"":""img/2to1/11.png"",""time"":1090},{""stimulus"":""img/2to1/12.png"",""time"":1189}]","[]"
"image-keyboard-response","82","115102","0.0-5.0-1.39","63d69e4d6648b39324fdf0ad","bdp_cybrbll","Mon Mar 27 2023 10:17:50 GMT-0400 (Eastern Daylight Time)","450138","1","3","","null","","","","observe","","img/1to3/1.png","null","186","987","0.5","0.5","1","2","",""
"animation","83","116390","0.0-5.0-2.39","63d69e4d6648b39324fdf0ad","bdp_cybrbll","Mon Mar 27 2023 10:17:50 GMT-0400 (Eastern Daylight Time)","450138","1","3","","","","","","","","","","186","","","","1","2","[{""stimulus"":""img/1to2/1.png"",""time"":100},{""stimulus"":""img/1to2/2.png"",""time"":200},{""stimulus"":""img/1to2/3.png"",""time"":298},{""stimulus"":""img/1to2/4.png"",""time"":397},{""stimulus"":""img/1to2/5.png"",""time"":496},{""stimulus"":""img/1to2/6.png"",""time"":595},{""stimulus"":""img/1to2/7.png"",""time"":694},{""stimulus"":""img/1to2/8.png"",""time"":793},{""stimulus"":""img/1to2/9.png"",""time"":892},{""stimulus"":""img/1to2/10.png"",""time"":991},{""stimulus"":""img/1to2/11.png"",""time"":1090},{""stimulus"":""img/1to2/12.png"",""time"":1189}]","[]"
"image-keyboard-response","84","116710","0.0-5.0-1.40","63d69e4d6648b39324fdf0ad","bdp_cybrbll","Mon Mar 27 2023 10:17:50 GMT-0400 (Eastern Daylight Time)","450138","1","3","","320","","","","choice","","img/2to1/1.png","2","185","530","0.5","0.5","2","3","",""
"animation","85","117998","0.0-5.0-2.40","63d69e4d6648b39324fdf0ad","bdp_cybrbll","Mon Mar 27 2023 10:17:50 GMT-0400 (Eastern Daylight Time)","450138","1","3","","","","","","","","","","185","","","","2","3","[{""stimulus"":""img/2to3/1.png"",""time"":101},{""stimulus"":""img/2to3/2.png"",""time"":200},{""stimulus"":""img/2to3/3.png"",""time"":298},{""stimulus"":""img/2to3/4.png"",""time"":398},{""stimulus"":""img/2to3/5.png"",""time"":496},{""stimulus"":""img/2to3/6.png"",""time"":596},{""stimulus"":""img/2to3/7.png"",""time"":694},{""stimulus"":""img/2to3/8.png"",""time"":793},{""stimulus"":""img/2to3/9.png"",""time"":892},{""stimulus"":""img/2to3/10.png"",""time"":991},{""stimulus"":""img/2to3/11.png"",""time"":1090},{""stimulus"":""img/2to3/12.png"",""time"":1189}]","[]"
"image-keyboard-response","86","118305","0.0-5.0-1.41","63d69e4d6648b39324fdf0ad","bdp_cybrbll","Mon Mar 27 2023 10:17:50 GMT-0400 (Eastern Daylight Time)","450138","1","3","","null","","","","observe","","img/3to2/1.png","null","184","306","0.5","0.5","3","2","",""
"animation","87","119594","0.0-5.0-2.41","63d69e4d6648b39324fdf0ad","bdp_cybrbll","Mon Mar 27 2023 10:17:50 GMT-0400 (Eastern Daylight Time)","450138","1","3","","","","","","","","","","184","","","","3","2","[{""stimulus"":""img/3to2/1.png"",""time"":101},{""stimulus"":""img/3to2/2.png"",""time"":201},{""stimulus"":""img/3to2/3.png"",""time"":299},{""stimulus"":""img/3to2/4.png"",""time"":397},{""stimulus"":""img/3to2/5.png"",""time"":497},{""stimulus"":""img/3to2/6.png"",""time"":595},{""stimulus"":""img/3to2/7.png"",""time"":695},{""stimulus"":""img/3to2/8.png"",""time"":793},{""stimulus"":""img/3to2/9.png"",""time"":893},{""stimulus"":""img/3to2/10.png"",""time"":991},{""stimulus"":""img/3to2/11.png"",""time"":1090},{""stimulus"":""img/3to2/12.png"",""time"":1190}]","[]"
"image-keyboard-response","88","119995","0.0-5.0-1.42","63d69e4d6648b39324fdf0ad","bdp_cybrbll","Mon Mar 27 2023 10:17:50 GMT-0400 (Eastern Daylight Time)","450138","1","3","","401","","","","choice","","img/2to1/1.png","1","183","552","0.5","0.5","2","1","",""
"animation","89","121283","0.0-5.0-2.42","63d69e4d6648b39324fdf0ad","bdp_cybrbll","Mon Mar 27 2023 10:17:50 GMT-0400 (Eastern Daylight Time)","450138","1","3","","","","","","","","","","183","","","","2","1","[{""stimulus"":""img/2to1/1.png"",""time"":101},{""stimulus"":""img/2to1/2.png"",""time"":200},{""stimulus"":""img/2to1/3.png"",""time"":298},{""stimulus"":""img/2to1/4.png"",""time"":398},{""stimulus"":""img/2to1/5.png"",""time"":497},{""stimulus"":""img/2to1/6.png"",""time"":596},{""stimulus"":""img/2to1/7.png"",""time"":695},{""stimulus"":""img/2to1/8.png"",""time"":794},{""stimulus"":""img/2to1/9.png"",""time"":892},{""stimulus"":""img/2to1/10.png"",""time"":991},{""stimulus"":""img/2to1/11.png"",""time"":1090},{""stimulus"":""img/2to1/12.png"",""time"":1189}]","[]"
"image-keyboard-response","90","121629","0.0-5.0-1.43","63d69e4d6648b39324fdf0ad","bdp_cybrbll","Mon Mar 27 2023 10:17:50 GMT-0400 (Eastern Daylight Time)","450138","1","3","","null","","","","observe","","img/1to3/1.png","null","182","345","0.5","0.5","1","3","",""
"animation","91","122917","0.0-5.0-2.43","63d69e4d6648b39324fdf0ad","bdp_cybrbll","Mon Mar 27 2023 10:17:50 GMT-0400 (Eastern Daylight Time)","450138","1","3","","","","","","","","","","182","","","","1","3","[{""stimulus"":""img/1to3/1.png"",""time"":100},{""stimulus"":""img/1to3/2.png"",""time"":199},{""stimulus"":""img/1to3/3.png"",""time"":298},{""stimulus"":""img/1to3/4.png"",""time"":397},{""stimulus"":""img/1to3/5.png"",""time"":497},{""stimulus"":""img/1to3/6.png"",""time"":595},{""stimulus"":""img/1to3/7.png"",""time"":695},{""stimulus"":""img/1to3/8.png"",""time"":793},{""stimulus"":""img/1to3/9.png"",""time"":892},{""stimulus"":""img/1to3/10.png"",""time"":992},{""stimulus"":""img/1to3/11.png"",""time"":1090},{""stimulus"":""img/1to3/12.png"",""time"":1190}]","[]"
"image-keyboard-response","92","123106","0.0-5.0-1.44","63d69e4d6648b39324fdf0ad","bdp_cybrbll","Mon Mar 27 2023 10:17:50 GMT-0400 (Eastern Daylight Time)","450138","1","3","","null","","","","observe","","img/3to2/1.png","null","181","188","0.5","0.5","3","2","",""
"animation","93","124394","0.0-5.0-2.44","63d69e4d6648b39324fdf0ad","bdp_cybrbll","Mon Mar 27 2023 10:17:50 GMT-0400 (Eastern Daylight Time)","450138","1","3","","","","","","","","","","181","","","","3","2","[{""stimulus"":""img/3to2/1.png"",""time"":100},{""stimulus"":""img/3to2/2.png"",""time"":200},{""stimulus"":""img/3to2/3.png"",""time"":299},{""stimulus"":""img/3to2/4.png"",""time"":397},{""stimulus"":""img/3to2/5.png"",""time"":497},{""stimulus"":""img/3to2/6.png"",""time"":596},{""stimulus"":""img/3to2/7.png"",""time"":694},{""stimulus"":""img/3to2/8.png"",""time"":793},{""stimulus"":""img/3to2/9.png"",""time"":892},{""stimulus"":""img/3to2/10.png"",""time"":990},{""stimulus"":""img/3to2/11.png"",""time"":1090},{""stimulus"":""img/3to2/12.png"",""time"":1190}]","[]"
"image-keyboard-response","94","124521","0.0-5.0-1.45","63d69e4d6648b39324fdf0ad","bdp_cybrbll","Mon Mar 27 2023 10:17:50 GMT-0400 (Eastern Daylight Time)","450138","1","3","","127","","","","choice","","img/2to1/1.png","1","180","313","0.5","0.5","2","1","",""
"animation","95","125809","0.0-5.0-2.45","63d69e4d6648b39324fdf0ad","bdp_cybrbll","Mon Mar 27 2023 10:17:50 GMT-0400 (Eastern Daylight Time)","450138","1","3","","","","","","","","","","180","","","","2","1","[{""stimulus"":""img/2to1/1.png"",""time"":101},{""stimulus"":""img/2to1/2.png"",""time"":199},{""stimulus"":""img/2to1/3.png"",""time"":310},{""stimulus"":""img/2to1/4.png"",""time"":398},{""stimulus"":""img/2to1/5.png"",""time"":496},{""stimulus"":""img/2to1/6.png"",""time"":596},{""stimulus"":""img/2to1/7.png"",""time"":694},{""stimulus"":""img/2to1/8.png"",""time"":794},{""stimulus"":""img/2to1/9.png"",""time"":892},{""stimulus"":""img/2to1/10.png"",""time"":1003},{""stimulus"":""img/2to1/11.png"",""time"":1091},{""stimulus"":""img/2to1/12.png"",""time"":1190}]","[]"
"image-keyboard-response","96","126727","0.0-5.0-1.46","63d69e4d6648b39324fdf0ad","bdp_cybrbll","Mon Mar 27 2023 10:17:50 GMT-0400 (Eastern Daylight Time)","450138","1","3","","null","","","","observe","","img/1to3/1.png","null","179","916","0.5","0.5","1","2","",""
"animation","97","128016","0.0-5.0-2.46","63d69e4d6648b39324fdf0ad","bdp_cybrbll","Mon Mar 27 2023 10:17:50 GMT-0400 (Eastern Daylight Time)","450138","1","3","","","","","","","","","","179","","","","1","2","[{""stimulus"":""img/1to2/1.png"",""time"":101},{""stimulus"":""img/1to2/2.png"",""time"":199},{""stimulus"":""img/1to2/3.png"",""time"":311},{""stimulus"":""img/1to2/4.png"",""time"":397},{""stimulus"":""img/1to2/5.png"",""time"":496},{""stimulus"":""img/1to2/6.png"",""time"":596},{""stimulus"":""img/1to2/7.png"",""time"":695},{""stimulus"":""img/1to2/8.png"",""time"":794},{""stimulus"":""img/1to2/9.png"",""time"":893},{""stimulus"":""img/1to2/10.png"",""time"":991},{""stimulus"":""img/1to2/11.png"",""time"":1090},{""stimulus"":""img/1to2/12.png"",""time"":1189}]","[]"
"image-keyboard-response","98","128341","0.0-5.0-1.47","63d69e4d6648b39324fdf0ad","bdp_cybrbll","Mon Mar 27 2023 10:17:50 GMT-0400 (Eastern Daylight Time)","450138","1","3","","325","","","","choice","","img/2to1/1.png","2","178","804","0.5","0.5","2","3","",""
"animation","99","129628","0.0-5.0-2.47","63d69e4d6648b39324fdf0ad","bdp_cybrbll","Mon Mar 27 2023 10:17:50 GMT-0400 (Eastern Daylight Time)","450138","1","3","","","","","","","","","","178","","","","2","3","[{""stimulus"":""img/2to3/1.png"",""time"":99},{""stimulus"":""img/2to3/2.png"",""time"":199},{""stimulus"":""img/2to3/3.png"",""time"":298},{""stimulus"":""img/2to3/4.png"",""time"":396},{""stimulus"":""img/2to3/5.png"",""time"":496},{""stimulus"":""img/2to3/6.png"",""time"":595},{""stimulus"":""img/2to3/7.png"",""time"":694},{""stimulus"":""img/2to3/8.png"",""time"":794},{""stimulus"":""img/2to3/9.png"",""time"":892},{""stimulus"":""img/2to3/10.png"",""time"":991},{""stimulus"":""img/2to3/11.png"",""time"":1090},{""stimulus"":""img/2to3/12.png"",""time"":1189}]","[]"
"image-keyboard-response","100","130502","0.0-5.0-1.48","63d69e4d6648b39324fdf0ad","bdp_cybrbll","Mon Mar 27 2023 10:17:50 GMT-0400 (Eastern Daylight Time)","450138","1","3","","null","","","","observe","","img/3to2/1.png","null","177","872","0.5","0.5","3","2","",""
"animation","101","131790","0.0-5.0-2.48","63d69e4d6648b39324fdf0ad","bdp_cybrbll","Mon Mar 27 2023 10:17:50 GMT-0400 (Eastern Daylight Time)","450138","1","3","","","","","","","","","","177","","","","3","2","[{""stimulus"":""img/3to2/1.png"",""time"":100},{""stimulus"":""img/3to2/2.png"",""time"":199},{""stimulus"":""img/3to2/3.png"",""time"":298},{""stimulus"":""img/3to2/4.png"",""time"":397},{""stimulus"":""img/3to2/5.png"",""time"":496},{""stimulus"":""img/3to2/6.png"",""time"":595},{""stimulus"":""img/3to2/7.png"",""time"":694},{""stimulus"":""img/3to2/8.png"",""time"":794},{""stimulus"":""img/3to2/9.png"",""time"":893},{""stimulus"":""img/3to2/10.png"",""time"":991},{""stimulus"":""img/3to2/11.png"",""time"":1090},{""stimulus"":""img/3to2/12.png"",""time"":1189}]","[]"
"image-keyboard-response","102","131840","0.0-5.0-1.49","63d69e4d6648b39324fdf0ad","bdp_cybrbll","Mon Mar 27 2023 10:17:50 GMT-0400 (Eastern Daylight Time)","450138","1","3","","49","","","","choice","","img/2to1/1.png","1","176","468","0.5","0.5","2","1","",""
"animation","103","133128","0.0-5.0-2.49","63d69e4d6648b39324fdf0ad","bdp_cybrbll","Mon Mar 27 2023 10:17:50 GMT-0400 (Eastern Daylight Time)","450138","1","3","","","","","","","","","","176","","","","2","1","[{""stimulus"":""img/2to1/1.png"",""time"":100},{""stimulus"":""img/2to1/2.png"",""time"":199},{""stimulus"":""img/2to1/3.png"",""time"":298},{""stimulus"":""img/2to1/4.png"",""time"":397},{""stimulus"":""img/2to1/5.png"",""time"":496},{""stimulus"":""img/2to1/6.png"",""time"":596},{""stimulus"":""img/2to1/7.png"",""time"":694},{""stimulus"":""img/2to1/8.png"",""time"":793},{""stimulus"":""img/2to1/9.png"",""time"":893},{""stimulus"":""img/2to1/10.png"",""time"":991},{""stimulus"":""img/2to1/11.png"",""time"":1090},{""stimulus"":""img/2to1/12.png"",""time"":1189}]","[]"
"image-keyboard-response","104","133387","0.0-5.0-1.50","63d69e4d6648b39324fdf0ad","bdp_cybrbll","Mon Mar 27 2023 10:17:50 GMT-0400 (Eastern Daylight Time)","450138","1","3","","null","","","","observe","","img/1to3/1.png","null","175","258","0.5","0.5","1","3","",""
"animation","105","134676","0.0-5.0-2.50","63d69e4d6648b39324fdf0ad","bdp_cybrbll","Mon Mar 27 2023 10:17:50 GMT-0400 (Eastern Daylight Time)","450138","1","3","","","","","","","","","","175","","","","1","3","[{""stimulus"":""img/1to3/1.png"",""time"":100},{""stimulus"":""img/1to3/2.png"",""time"":199},{""stimulus"":""img/1to3/3.png"",""time"":299},{""stimulus"":""img/1to3/4.png"",""time"":405},{""stimulus"":""img/1to3/5.png"",""time"":496},{""stimulus"":""img/1to3/6.png"",""time"":596},{""stimulus"":""img/1to3/7.png"",""time"":694},{""stimulus"":""img/1to3/8.png"",""time"":793},{""stimulus"":""img/1to3/9.png"",""time"":893},{""stimulus"":""img/1to3/10.png"",""time"":991},{""stimulus"":""img/1to3/11.png"",""time"":1090},{""stimulus"":""img/1to3/12.png"",""time"":1189}]","[]"
"image-keyboard-response","106","134833","0.0-5.0-1.51","63d69e4d6648b39324fdf0ad","bdp_cybrbll","Mon Mar 27 2023 10:17:50 GMT-0400 (Eastern Daylight Time)","450138","1","3","","null","","","","observe","","img/3to2/1.png","null","174","157","0.5","0.5","3","1","",""
"animation","107","136122","0.0-5.0-2.51","63d69e4d6648b39324fdf0ad","bdp_cybrbll","Mon Mar 27 2023 10:17:50 GMT-0400 (Eastern Daylight Time)","450138","1","3","","","","","","","","","","174","","","","3","1","[{""stimulus"":""img/3to1/1.png"",""time"":99},{""stimulus"":""img/3to1/2.png"",""time"":199},{""stimulus"":""img/3to1/3.png"",""time"":298},{""stimulus"":""img/3to1/4.png"",""time"":397},{""stimulus"":""img/3to1/5.png"",""time"":496},{""stimulus"":""img/3to1/6.png"",""time"":595},{""stimulus"":""img/3to1/7.png"",""time"":694},{""stimulus"":""img/3to1/8.png"",""time"":793},{""stimulus"":""img/3to1/9.png"",""time"":892},{""stimulus"":""img/3to1/10.png"",""time"":990},{""stimulus"":""img/3to1/11.png"",""time"":1091},{""stimulus"":""img/3to1/12.png"",""time"":1190}]","[]"
"image-keyboard-response","108","136798","0.0-5.0-1.52","63d69e4d6648b39324fdf0ad","bdp_cybrbll","Mon Mar 27 2023 10:17:50 GMT-0400 (Eastern Daylight Time)","450138","1","3","","null","","","","observe","","img/1to3/1.png","null","173","674","0.5","0.5","1","3","",""
"animation","109","138085","0.0-5.0-2.52","63d69e4d6648b39324fdf0ad","bdp_cybrbll","Mon Mar 27 2023 10:17:50 GMT-0400 (Eastern Daylight Time)","450138","1","3","","","","","","","","","","173","","","","1","3","[{""stimulus"":""img/1to3/1.png"",""time"":101},{""stimulus"":""img/1to3/2.png"",""time"":198},{""stimulus"":""img/1to3/3.png"",""time"":298},{""stimulus"":""img/1to3/4.png"",""time"":397},{""stimulus"":""img/1to3/5.png"",""time"":496},{""stimulus"":""img/1to3/6.png"",""time"":595},{""stimulus"":""img/1to3/7.png"",""time"":694},{""stimulus"":""img/1to3/8.png"",""time"":793},{""stimulus"":""img/1to3/9.png"",""time"":892},{""stimulus"":""img/1to3/10.png"",""time"":991},{""stimulus"":""img/1to3/11.png"",""time"":1090},{""stimulus"":""img/1to3/12.png"",""time"":1189}]","[]"
"image-keyboard-response","110","139075","0.0-5.0-1.53","63d69e4d6648b39324fdf0ad","bdp_cybrbll","Mon Mar 27 2023 10:17:50 GMT-0400 (Eastern Daylight Time)","450138","1","3","","null","","","","observe","","img/3to2/1.png","null","172","987","0.5","0.5","3","2","",""
"animation","111","140364","0.0-5.0-2.53","63d69e4d6648b39324fdf0ad","bdp_cybrbll","Mon Mar 27 2023 10:17:50 GMT-0400 (Eastern Daylight Time)","450138","1","3","","","","","","","","","","172","","","","3","2","[{""stimulus"":""img/3to2/1.png"",""time"":100},{""stimulus"":""img/3to2/2.png"",""time"":199},{""stimulus"":""img/3to2/3.png"",""time"":298},{""stimulus"":""img/3to2/4.png"",""time"":397},{""stimulus"":""img/3to2/5.png"",""time"":497},{""stimulus"":""img/3to2/6.png"",""time"":596},{""stimulus"":""img/3to2/7.png"",""time"":694},{""stimulus"":""img/3to2/8.png"",""time"":793},{""stimulus"":""img/3to2/9.png"",""time"":892},{""stimulus"":""img/3to2/10.png"",""time"":991},{""stimulus"":""img/3to2/11.png"",""time"":1090},{""stimulus"":""img/3to2/12.png"",""time"":1188}]","[]"
"image-keyboard-response","112","141211","0.0-5.0-1.54","63d69e4d6648b39324fdf0ad","bdp_cybrbll","Mon Mar 27 2023 10:17:50 GMT-0400 (Eastern Daylight Time)","450138","1","3","","847","","","","choice","","img/2to1/1.png","1","171","346","0.5","0.5","2","1","",""
"animation","113","142500","0.0-5.0-2.54","63d69e4d6648b39324fdf0ad","bdp_cybrbll","Mon Mar 27 2023 10:17:50 GMT-0400 (Eastern Daylight Time)","450138","1","3","","","","","","","","","","171","","","","2","1","[{""stimulus"":""img/2to1/1.png"",""time"":100},{""stimulus"":""img/2to1/2.png"",""time"":200},{""stimulus"":""img/2to1/3.png"",""time"":299},{""stimulus"":""img/2to1/4.png"",""time"":398},{""stimulus"":""img/2to1/5.png"",""time"":496},{""stimulus"":""img/2to1/6.png"",""time"":602},{""stimulus"":""img/2to1/7.png"",""time"":695},{""stimulus"":""img/2to1/8.png"",""time"":793},{""stimulus"":""img/2to1/9.png"",""time"":892},{""stimulus"":""img/2to1/10.png"",""time"":992},{""stimulus"":""img/2to1/11.png"",""time"":1091},{""stimulus"":""img/2to1/12.png"",""time"":1189}]","[]"
"image-keyboard-response","114","142842","0.0-5.0-1.55","63d69e4d6648b39324fdf0ad","bdp_cybrbll","Mon Mar 27 2023 10:17:50 GMT-0400 (Eastern Daylight Time)","450138","1","3","","null","","","","observe","","img/1to3/1.png","null","170","341","0.5","0.5","1","3","",""
"animation","115","144130","0.0-5.0-2.55","63d69e4d6648b39324fdf0ad","bdp_cybrbll","Mon Mar 27 2023 10:17:50 GMT-0400 (Eastern Daylight Time)","450138","1","3","","","","","","","","","","170","","","","1","3","[{""stimulus"":""img/1to3/1.png"",""time"":100},{""stimulus"":""img/1to3/2.png"",""time"":199},{""stimulus"":""img/1to3/3.png"",""time"":298},{""stimulus"":""img/1to3/4.png"",""time"":397},{""stimulus"":""img/1to3/5.png"",""time"":496},{""stimulus"":""img/1to3/6.png"",""time"":595},{""stimulus"":""img/1to3/7.png"",""time"":694},{""stimulus"":""img/1to3/8.png"",""time"":794},{""stimulus"":""img/1to3/9.png"",""time"":892},{""stimulus"":""img/1to3/10.png"",""time"":991},{""stimulus"":""img/1to3/11.png"",""time"":1090},{""stimulus"":""img/1to3/12.png"",""time"":1189}]","[]"
"image-keyboard-response","116","144485","0.0-5.0-1.56","63d69e4d6648b39324fdf0ad","bdp_cybrbll","Mon Mar 27 2023 10:17:50 GMT-0400 (Eastern Daylight Time)","450138","1","3","","null","","","","observe","","img/3to2/1.png","null","169","353","0.5","0.5","3","1","",""
"animation","117","145775","0.0-5.0-2.56","63d69e4d6648b39324fdf0ad","bdp_cybrbll","Mon Mar 27 2023 10:17:50 GMT-0400 (Eastern Daylight Time)","450138","1","3","","","","","","","","","","169","","","","3","1","[{""stimulus"":""img/3to1/1.png"",""time"":100},{""stimulus"":""img/3to1/2.png"",""time"":200},{""stimulus"":""img/3to1/3.png"",""time"":298},{""stimulus"":""img/3to1/4.png"",""time"":396},{""stimulus"":""img/3to1/5.png"",""time"":496},{""stimulus"":""img/3to1/6.png"",""time"":595},{""stimulus"":""img/3to1/7.png"",""time"":694},{""stimulus"":""img/3to1/8.png"",""time"":792},{""stimulus"":""img/3to1/9.png"",""time"":892},{""stimulus"":""img/3to1/10.png"",""time"":990},{""stimulus"":""img/3to1/11.png"",""time"":1090},{""stimulus"":""img/3to1/12.png"",""time"":1190}]","[]"
"image-keyboard-response","118","146913","0.0-5.0-1.57","63d69e4d6648b39324fdf0ad","bdp_cybrbll","Mon Mar 27 2023 10:17:50 GMT-0400 (Eastern Daylight Time)","450138","1","3","","null","","","","observe","","img/1to3/1.png","null","168","1137","0.5","0.5","1","3","",""
"animation","119","148202","0.0-5.0-2.57","63d69e4d6648b39324fdf0ad","bdp_cybrbll","Mon Mar 27 2023 10:17:50 GMT-0400 (Eastern Daylight Time)","450138","1","3","","","","","","","","","","168","","","","1","3","[{""stimulus"":""img/1to3/1.png"",""time"":100},{""stimulus"":""img/1to3/2.png"",""time"":199},{""stimulus"":""img/1to3/3.png"",""time"":298},{""stimulus"":""img/1to3/4.png"",""time"":397},{""stimulus"":""img/1to3/5.png"",""time"":497},{""stimulus"":""img/1to3/6.png"",""time"":595},{""stimulus"":""img/1to3/7.png"",""time"":694},{""stimulus"":""img/1to3/8.png"",""time"":793},{""stimulus"":""img/1to3/9.png"",""time"":893},{""stimulus"":""img/1to3/10.png"",""time"":991},{""stimulus"":""img/1to3/11.png"",""time"":1090},{""stimulus"":""img/1to3/12.png"",""time"":1189}]","[]"
"image-keyboard-response","120","148380","0.0-5.0-1.58","63d69e4d6648b39324fdf0ad","bdp_cybrbll","Mon Mar 27 2023 10:17:50 GMT-0400 (Eastern Daylight Time)","450138","1","3","","null","","","","observe","","img/3to2/1.png","null","167","177","0.5","0.5","3","1","",""
"animation","121","149669","0.0-5.0-2.58","63d69e4d6648b39324fdf0ad","bdp_cybrbll","Mon Mar 27 2023 10:17:50 GMT-0400 (Eastern Daylight Time)","450138","1","3","","","","","","","","","","167","","","","3","1","[{""stimulus"":""img/3to1/1.png"",""time"":100},{""stimulus"":""img/3to1/2.png"",""time"":199},{""stimulus"":""img/3to1/3.png"",""time"":298},{""stimulus"":""img/3to1/4.png"",""time"":397},{""stimulus"":""img/3to1/5.png"",""time"":496},{""stimulus"":""img/3to1/6.png"",""time"":595},{""stimulus"":""img/3to1/7.png"",""time"":694},{""stimulus"":""img/3to1/8.png"",""time"":793},{""stimulus"":""img/3to1/9.png"",""time"":892},{""stimulus"":""img/3to1/10.png"",""time"":991},{""stimulus"":""img/3to1/11.png"",""time"":1090},{""stimulus"":""img/3to1/12.png"",""time"":1190}]","[]"
"image-keyboard-response","122","150137","0.0-5.0-1.59","63d69e4d6648b39324fdf0ad","bdp_cybrbll","Mon Mar 27 2023 10:17:50 GMT-0400 (Eastern Daylight Time)","450138","1","3","","null","","","","observe","","img/1to3/1.png","null","166","467","0.5","0.5","1","3","",""
"animation","123","151425","0.0-5.0-2.59","63d69e4d6648b39324fdf0ad","bdp_cybrbll","Mon Mar 27 2023 10:17:50 GMT-0400 (Eastern Daylight Time)","450138","1","3","","","","","","","","","","166","","","","1","3","[{""stimulus"":""img/1to3/1.png"",""time"":100},{""stimulus"":""img/1to3/2.png"",""time"":200},{""stimulus"":""img/1to3/3.png"",""time"":299},{""stimulus"":""img/1to3/4.png"",""time"":397},{""stimulus"":""img/1to3/5.png"",""time"":496},{""stimulus"":""img/1to3/6.png"",""time"":595},{""stimulus"":""img/1to3/7.png"",""time"":695},{""stimulus"":""img/1to3/8.png"",""time"":794},{""stimulus"":""img/1to3/9.png"",""time"":892},{""stimulus"":""img/1to3/10.png"",""time"":991},{""stimulus"":""img/1to3/11.png"",""time"":1090},{""stimulus"":""img/1to3/12.png"",""time"":1189}]","[]"
"image-keyboard-response","124","151870","0.0-5.0-1.60","63d69e4d6648b39324fdf0ad","bdp_cybrbll","Mon Mar 27 2023 10:17:50 GMT-0400 (Eastern Daylight Time)","450138","1","3","","null","","","","observe","","img/3to2/1.png","null","165","440","0.5","0.5","3","1","",""
"animation","125","153158","0.0-5.0-2.60","63d69e4d6648b39324fdf0ad","bdp_cybrbll","Mon Mar 27 2023 10:17:50 GMT-0400 (Eastern Daylight Time)","450138","1","3","","","","","","","","","","165","","","","3","1","[{""stimulus"":""img/3to1/1.png"",""time"":100},{""stimulus"":""img/3to1/2.png"",""time"":199},{""stimulus"":""img/3to1/3.png"",""time"":298},{""stimulus"":""img/3to1/4.png"",""time"":397},{""stimulus"":""img/3to1/5.png"",""time"":497},{""stimulus"":""img/3to1/6.png"",""time"":608},{""stimulus"":""img/3to1/7.png"",""time"":695},{""stimulus"":""img/3to1/8.png"",""time"":793},{""stimulus"":""img/3to1/9.png"",""time"":892},{""stimulus"":""img/3to1/10.png"",""time"":992},{""stimulus"":""img/3to1/11.png"",""time"":1090},{""stimulus"":""img/3to1/12.png"",""time"":1189}]","[]"
"image-keyboard-response","126","153443","0.0-5.0-1.61","63d69e4d6648b39324fdf0ad","bdp_cybrbll","Mon Mar 27 2023 10:17:50 GMT-0400 (Eastern Daylight Time)","450138","1","3","","null","","","","observe","","img/1to3/1.png","null","164","283","0.5","0.5","1","3","",""
"animation","127","154731","0.0-5.0-2.61","63d69e4d6648b39324fdf0ad","bdp_cybrbll","Mon Mar 27 2023 10:17:50 GMT-0400 (Eastern Daylight Time)","450138","1","3","","","","","","","","","","164","","","","1","3","[{""stimulus"":""img/1to3/1.png"",""time"":99},{""stimulus"":""img/1to3/2.png"",""time"":199},{""stimulus"":""img/1to3/3.png"",""time"":298},{""stimulus"":""img/1to3/4.png"",""time"":397},{""stimulus"":""img/1to3/5.png"",""time"":496},{""stimulus"":""img/1to3/6.png"",""time"":595},{""stimulus"":""img/1to3/7.png"",""time"":694},{""stimulus"":""img/1to3/8.png"",""time"":793},{""stimulus"":""img/1to3/9.png"",""time"":893},{""stimulus"":""img/1to3/10.png"",""time"":991},{""stimulus"":""img/1to3/11.png"",""time"":1090},{""stimulus"":""img/1to3/12.png"",""time"":1189}]","[]"
"image-keyboard-response","128","154900","0.0-5.0-1.62","63d69e4d6648b39324fdf0ad","bdp_cybrbll","Mon Mar 27 2023 10:17:50 GMT-0400 (Eastern Daylight Time)","450138","1","3","","null","","","","observe","","img/3to2/1.png","null","163","168","0.5","0.5","3","1","",""
"animation","129","156188","0.0-5.0-2.62","63d69e4d6648b39324fdf0ad","bdp_cybrbll","Mon Mar 27 2023 10:17:50 GMT-0400 (Eastern Daylight Time)","450138","1","3","","","","","","","","","","163","","","","3","1","[{""stimulus"":""img/3to1/1.png"",""time"":100},{""stimulus"":""img/3to1/2.png"",""time"":199},{""stimulus"":""img/3to1/3.png"",""time"":298},{""stimulus"":""img/3to1/4.png"",""time"":398},{""stimulus"":""img/3to1/5.png"",""time"":496},{""stimulus"":""img/3to1/6.png"",""time"":606},{""stimulus"":""img/3to1/7.png"",""time"":696},{""stimulus"":""img/3to1/8.png"",""time"":793},{""stimulus"":""img/3to1/9.png"",""time"":893},{""stimulus"":""img/3to1/10.png"",""time"":991},{""stimulus"":""img/3to1/11.png"",""time"":1091},{""stimulus"":""img/3to1/12.png"",""time"":1189}]","[]"
"image-keyboard-response","130","157125","0.0-5.0-1.63","63d69e4d6648b39324fdf0ad","bdp_cybrbll","Mon Mar 27 2023 10:17:50 GMT-0400 (Eastern Daylight Time)","450138","1","3","","null","","","","observe","","img/1to3/1.png","null","162","935","0.5","0.5","1","3","",""
"animation","131","158413","0.0-5.0-2.63","63d69e4d6648b39324fdf0ad","bdp_cybrbll","Mon Mar 27 2023 10:17:50 GMT-0400 (Eastern Daylight Time)","450138","1","3","","","","","","","","","","162","","","","1","3","[{""stimulus"":""img/1to3/1.png"",""time"":101},{""stimulus"":""img/1to3/2.png"",""time"":199},{""stimulus"":""img/1to3/3.png"",""time"":298},{""stimulus"":""img/1to3/4.png"",""time"":398},{""stimulus"":""img/1to3/5.png"",""time"":497},{""stimulus"":""img/1to3/6.png"",""time"":596},{""stimulus"":""img/1to3/7.png"",""time"":694},{""stimulus"":""img/1to3/8.png"",""time"":793},{""stimulus"":""img/1to3/9.png"",""time"":892},{""stimulus"":""img/1to3/10.png"",""time"":991},{""stimulus"":""img/1to3/11.png"",""time"":1091},{""stimulus"":""img/1to3/12.png"",""time"":1189}]","[]"
"image-keyboard-response","132","158706","0.0-5.0-1.64","63d69e4d6648b39324fdf0ad","bdp_cybrbll","Mon Mar 27 2023 10:17:50 GMT-0400 (Eastern Daylight Time)","450138","1","3","","null","","","","observe","","img/3to2/1.png","null","161","285","0.5","0.5","3","2","",""
"animation","133","159993","0.0-5.0-2.64","63d69e4d6648b39324fdf0ad","bdp_cybrbll","Mon Mar 27 2023 10:17:50 GMT-0400 (Eastern Daylight Time)","450138","1","3","","","","","","","","","","161","","","","3","2","[{""stimulus"":""img/3to2/1.png"",""time"":113},{""stimulus"":""img/3to2/2.png"",""time"":200},{""stimulus"":""img/3to2/3.png"",""time"":298},{""stimulus"":""img/3to2/4.png"",""time"":408},{""stimulus"":""img/3to2/5.png"",""time"":496},{""stimulus"":""img/3to2/6.png"",""time"":595},{""stimulus"":""img/3to2/7.png"",""time"":694},{""stimulus"":""img/3to2/8.png"",""time"":793},{""stimulus"":""img/3to2/9.png"",""time"":892},{""stimulus"":""img/3to2/10.png"",""time"":991},{""stimulus"":""img/3to2/11.png"",""time"":1090},{""stimulus"":""img/3to2/12.png"",""time"":1202}]","[]"
"image-keyboard-response","134","160538","0.0-5.0-1.65","63d69e4d6648b39324fdf0ad","bdp_cybrbll","Mon Mar 27 2023 10:17:50 GMT-0400 (Eastern Daylight Time)","450138","1","3","","545","","","","choice","","img/2to1/1.png","1","160","872","0.5","0.5","2","1","",""
"animation","135","161827","0.0-5.0-2.65","63d69e4d6648b39324fdf0ad","bdp_cybrbll","Mon Mar 27 2023 10:17:50 GMT-0400 (Eastern Daylight Time)","450138","1","3","","","","","","","","","","160","","","","2","1","[{""stimulus"":""img/2to1/1.png"",""time"":100},{""stimulus"":""img/2to1/2.png"",""time"":199},{""stimulus"":""img/2to1/3.png"",""time"":299},{""stimulus"":""img/2to1/4.png"",""time"":398},{""stimulus"":""img/2to1/5.png"",""time"":498},{""stimulus"":""img/2to1/6.png"",""time"":596},{""stimulus"":""img/2to1/7.png"",""time"":694},{""stimulus"":""img/2to1/8.png"",""time"":794},{""stimulus"":""img/2to1/9.png"",""time"":892},{""stimulus"":""img/2to1/10.png"",""time"":992},{""stimulus"":""img/2to1/11.png"",""time"":1090},{""stimulus"":""img/2to1/12.png"",""time"":1189}]","[]"
"image-keyboard-response","136","162000","0.0-5.0-1.66","63d69e4d6648b39324fdf0ad","bdp_cybrbll","Mon Mar 27 2023 10:17:50 GMT-0400 (Eastern Daylight Time)","450138","1","3","","null","","","","observe","","img/1to3/1.png","null","159","172","0.5","0.5","1","2","",""
"animation","137","163289","0.0-5.0-2.66","63d69e4d6648b39324fdf0ad","bdp_cybrbll","Mon Mar 27 2023 10:17:50 GMT-0400 (Eastern Daylight Time)","450138","1","3","","","","","","","","","","159","","","","1","2","[{""stimulus"":""img/1to2/1.png"",""time"":99},{""stimulus"":""img/1to2/2.png"",""time"":199},{""stimulus"":""img/1to2/3.png"",""time"":298},{""stimulus"":""img/1to2/4.png"",""time"":397},{""stimulus"":""img/1to2/5.png"",""time"":495},{""stimulus"":""img/1to2/6.png"",""time"":594},{""stimulus"":""img/1to2/7.png"",""time"":693},{""stimulus"":""img/1to2/8.png"",""time"":794},{""stimulus"":""img/1to2/9.png"",""time"":891},{""stimulus"":""img/1to2/10.png"",""time"":991},{""stimulus"":""img/1to2/11.png"",""time"":1089},{""stimulus"":""img/1to2/12.png"",""time"":1189}]","[]"
"image-keyboard-response","138","163560","0.0-5.0-1.67","63d69e4d6648b39324fdf0ad","bdp_cybrbll","Mon Mar 27 2023 10:17:50 GMT-0400 (Eastern Daylight Time)","450138","1","3","","271","","","","choice","","img/2to1/1.png","2","158","355","0.5","0.5","2","3","",""
"animation","139","164848","0.0-5.0-2.67","63d69e4d6648b39324fdf0ad","bdp_cybrbll","Mon Mar 27 2023 10:17:50 GMT-0400 (Eastern Daylight Time)","450138","1","3","","","","","","","","","","158","","","","2","3","[{""stimulus"":""img/2to3/1.png"",""time"":100},{""stimulus"":""img/2to3/2.png"",""time"":199},{""stimulus"":""img/2to3/3.png"",""time"":299},{""stimulus"":""img/2to3/4.png"",""time"":397},{""stimulus"":""img/2to3/5.png"",""time"":496},{""stimulus"":""img/2to3/6.png"",""time"":596},{""stimulus"":""img/2to3/7.png"",""time"":695},{""stimulus"":""img/2to3/8.png"",""time"":793},{""stimulus"":""img/2to3/9.png"",""time"":892},{""stimulus"":""img/2to3/10.png"",""time"":991},{""stimulus"":""img/2to3/11.png"",""time"":1091},{""stimulus"":""img/2to3/12.png"",""time"":1189}]","[]"
"image-keyboard-response","140","165251","0.0-5.0-1.68","63d69e4d6648b39324fdf0ad","bdp_cybrbll","Mon Mar 27 2023 10:17:50 GMT-0400 (Eastern Daylight Time)","450138","1","3","","null","","","","observe","","img/3to2/1.png","null","157","402","0.5","0.5","3","2","",""
"animation","141","166539","0.0-5.0-2.68","63d69e4d6648b39324fdf0ad","bdp_cybrbll","Mon Mar 27 2023 10:17:50 GMT-0400 (Eastern Daylight Time)","450138","1","3","","","","","","","","","","157","","","","3","2","[{""stimulus"":""img/3to2/1.png"",""time"":99},{""stimulus"":""img/3to2/2.png"",""time"":199},{""stimulus"":""img/3to2/3.png"",""time"":298},{""stimulus"":""img/3to2/4.png"",""time"":397},{""stimulus"":""img/3to2/5.png"",""time"":496},{""stimulus"":""img/3to2/6.png"",""time"":595},{""stimulus"":""img/3to2/7.png"",""time"":694},{""stimulus"":""img/3to2/8.png"",""time"":792},{""stimulus"":""img/3to2/9.png"",""time"":891},{""stimulus"":""img/3to2/10.png"",""time"":990},{""stimulus"":""img/3to2/11.png"",""time"":1090},{""stimulus"":""img/3to2/12.png"",""time"":1189}]","[]"
"image-keyboard-response","142","166894","0.0-5.0-1.69","63d69e4d6648b39324fdf0ad","bdp_cybrbll","Mon Mar 27 2023 10:17:50 GMT-0400 (Eastern Daylight Time)","450138","1","3","","354","","","","choice","","img/2to1/1.png","1","156","276","0.5","0.5","2","1","",""
"animation","143","168198","0.0-5.0-2.69","63d69e4d6648b39324fdf0ad","bdp_cybrbll","Mon Mar 27 2023 10:17:50 GMT-0400 (Eastern Daylight Time)","450138","1","3","","","","","","","","","","156","","","","2","1","[{""stimulus"":""img/2to1/1.png"",""time"":101},{""stimulus"":""img/2to1/2.png"",""time"":199},{""stimulus"":""img/2to1/3.png"",""time"":298},{""stimulus"":""img/2to1/4.png"",""time"":398},{""stimulus"":""img/2to1/5.png"",""time"":496},{""stimulus"":""img/2to1/6.png"",""time"":595},{""stimulus"":""img/2to1/7.png"",""time"":695},{""stimulus"":""img/2to1/8.png"",""time"":793},{""stimulus"":""img/2to1/9.png"",""time"":892},{""stimulus"":""img/2to1/10.png"",""time"":991},{""stimulus"":""img/2to1/11.png"",""time"":1090},{""stimulus"":""img/2to1/12.png"",""time"":1190}]","[]"
"image-keyboard-response","144","168778","0.0-5.0-1.70","63d69e4d6648b39324fdf0ad","bdp_cybrbll","Mon Mar 27 2023 10:17:50 GMT-0400 (Eastern Daylight Time)","450138","1","3","","null","","","","observe","","img/1to3/1.png","null","155","579","0.5","0.5","1","2","",""
"animation","145","170067","0.0-5.0-2.70","63d69e4d6648b39324fdf0ad","bdp_cybrbll","Mon Mar 27 2023 10:17:50 GMT-0400 (Eastern Daylight Time)","450138","1","3","","","","","","","","","","155","","","","1","2","[{""stimulus"":""img/1to2/1.png"",""time"":100},{""stimulus"":""img/1to2/2.png"",""time"":198},{""stimulus"":""img/1to2/3.png"",""time"":297},{""stimulus"":""img/1to2/4.png"",""time"":397},{""stimulus"":""img/1to2/5.png"",""time"":497},{""stimulus"":""img/1to2/6.png"",""time"":596},{""stimulus"":""img/1to2/7.png"",""time"":694},{""stimulus"":""img/1to2/8.png"",""time"":792},{""stimulus"":""img/1to2/9.png"",""time"":891},{""stimulus"":""img/1to2/10.png"",""time"":990},{""stimulus"":""img/1to2/11.png"",""time"":1089},{""stimulus"":""img/1to2/12.png"",""time"":1188}]","[]"
"image-keyboard-response","146","170385","0.0-5.0-1.71","63d69e4d6648b39324fdf0ad","bdp_cybrbll","Mon Mar 27 2023 10:17:50 GMT-0400 (Eastern Daylight Time)","450138","1","3","","318","","","","choice","","img/2to1/1.png","2","154","343","0.5","0.5","2","3","",""
"animation","147","171673","0.0-5.0-2.71","63d69e4d6648b39324fdf0ad","bdp_cybrbll","Mon Mar 27 2023 10:17:50 GMT-0400 (Eastern Daylight Time)","450138","1","3","","","","","","","","","","154","","","","2","3","[{""stimulus"":""img/2to3/1.png"",""time"":101},{""stimulus"":""img/2to3/2.png"",""time"":199},{""stimulus"":""img/2to3/3.png"",""time"":306},{""stimulus"":""img/2to3/4.png"",""time"":398},{""stimulus"":""img/2to3/5.png"",""time"":496},{""stimulus"":""img/2to3/6.png"",""time"":595},{""stimulus"":""img/2to3/7.png"",""time"":693},{""stimulus"":""img/2to3/8.png"",""time"":793},{""stimulus"":""img/2to3/9.png"",""time"":891},{""stimulus"":""img/2to3/10.png"",""time"":991},{""stimulus"":""img/2to3/11.png"",""time"":1091},{""stimulus"":""img/2to3/12.png"",""time"":1190}]","[]"
"image-keyboard-response","148","172317","0.0-5.0-1.72","63d69e4d6648b39324fdf0ad","bdp_cybrbll","Mon Mar 27 2023 10:17:50 GMT-0400 (Eastern Daylight Time)","450138","1","3","","null","","","","observe","","img/3to2/1.png","null","153","644","0.5","0.5","3","1","",""
"animation","149","173606","0.0-5.0-2.72","63d69e4d6648b39324fdf0ad","bdp_cybrbll","Mon Mar 27 2023 10:17:50 GMT-0400 (Eastern Daylight Time)","450138","1","3","","","","","","","","","","153","","","","3","1","[{""stimulus"":""img/3to1/1.png"",""time"":99},{""stimulus"":""img/3to1/2.png"",""time"":199},{""stimulus"":""img/3to1/3.png"",""time"":298},{""stimulus"":""img/3to1/4.png"",""time"":396},{""stimulus"":""img/3to1/5.png"",""time"":496},{""stimulus"":""img/3to1/6.png"",""time"":594},{""stimulus"":""img/3to1/7.png"",""time"":694},{""stimulus"":""img/3to1/8.png"",""time"":792},{""stimulus"":""img/3to1/9.png"",""time"":891},{""stimulus"":""img/3to1/10.png"",""time"":991},{""stimulus"":""img/3to1/11.png"",""time"":1090},{""stimulus"":""img/3to1/12.png"",""time"":1188}]","[]"
"image-keyboard-response","150","173993","0.0-5.0-1.73","63d69e4d6648b39324fdf0ad","bdp_cybrbll","Mon Mar 27 2023 10:17:50 GMT-0400 (Eastern Daylight Time)","450138","1","3","","null","","","","observe","","img/1to3/1.png","null","152","385","0.5","0.5","1","2","",""
"animation","151","175281","0.0-5.0-2.73","63d69e4d6648b39324fdf0ad","bdp_cybrbll","Mon Mar 27 2023 10:17:50 GMT-0400 (Eastern Daylight Time)","450138","1","3","","","","","","","","","","152","","","","1","2","[{""stimulus"":""img/1to2/1.png"",""time"":99},{""stimulus"":""img/1to2/2.png"",""time"":199},{""stimulus"":""img/1to2/3.png"",""time"":298},{""stimulus"":""img/1to2/4.png"",""time"":397},{""stimulus"":""img/1to2/5.png"",""time"":496},{""stimulus"":""img/1to2/6.png"",""time"":595},{""stimulus"":""img/1to2/7.png"",""time"":694},{""stimulus"":""img/1to2/8.png"",""time"":793},{""stimulus"":""img/1to2/9.png"",""time"":893},{""stimulus"":""img/1to2/10.png"",""time"":990},{""stimulus"":""img/1to2/11.png"",""time"":1090},{""stimulus"":""img/1to2/12.png"",""time"":1188}]","[]"
"image-keyboard-response","152","181195","0.0-5.0-1.74","63d69e4d6648b39324fdf0ad","bdp_cybrbll","Mon Mar 27 2023 10:17:50 GMT-0400 (Eastern Daylight Time)","450138","1","3","","5914","","","","choice","","img/2to1/1.png","2","151","493","0.5","0.5","2","3","",""
"animation","153","182483","0.0-5.0-2.74","63d69e4d6648b39324fdf0ad","bdp_cybrbll","Mon Mar 27 2023 10:17:50 GMT-0400 (Eastern Daylight Time)","450138","1","3","","","","","","","","","","151","","","","2","3","[{""stimulus"":""img/2to3/1.png"",""time"":100},{""stimulus"":""img/2to3/2.png"",""time"":201},{""stimulus"":""img/2to3/3.png"",""time"":304},{""stimulus"":""img/2to3/4.png"",""time"":397},{""stimulus"":""img/2to3/5.png"",""time"":496},{""stimulus"":""img/2to3/6.png"",""time"":595},{""stimulus"":""img/2to3/7.png"",""time"":695},{""stimulus"":""img/2to3/8.png"",""time"":793},{""stimulus"":""img/2to3/9.png"",""time"":892},{""stimulus"":""img/2to3/10.png"",""time"":992},{""stimulus"":""img/2to3/11.png"",""time"":1091},{""stimulus"":""img/2to3/12.png"",""time"":1189}]","[]"
"image-keyboard-response","154","182679","0.0-5.0-1.75","63d69e4d6648b39324fdf0ad","bdp_cybrbll","Mon Mar 27 2023 10:17:50 GMT-0400 (Eastern Daylight Time)","450138","1","3","","null","","","","observe","","img/3to2/1.png","null","150","191","0.5","0.5","3","1","",""
"animation","155","183967","0.0-5.0-2.75","63d69e4d6648b39324fdf0ad","bdp_cybrbll","Mon Mar 27 2023 10:17:50 GMT-0400 (Eastern Daylight Time)","450138","1","3","","","","","","","","","","150","","","","3","1","[{""stimulus"":""img/3to1/1.png"",""time"":99},{""stimulus"":""img/3to1/2.png"",""time"":199},{""stimulus"":""img/3to1/3.png"",""time"":298},{""stimulus"":""img/3to1/4.png"",""time"":397},{""stimulus"":""img/3to1/5.png"",""time"":496},{""stimulus"":""img/3to1/6.png"",""time"":595},{""stimulus"":""img/3to1/7.png"",""time"":694},{""stimulus"":""img/3to1/8.png"",""time"":792},{""stimulus"":""img/3to1/9.png"",""time"":893},{""stimulus"":""img/3to1/10.png"",""time"":991},{""stimulus"":""img/3to1/11.png"",""time"":1090},{""stimulus"":""img/3to1/12.png"",""time"":1190}]","[]"
"image-keyboard-response","156","184218","0.0-5.0-1.76","63d69e4d6648b39324fdf0ad","bdp_cybrbll","Mon Mar 27 2023 10:17:50 GMT-0400 (Eastern Daylight Time)","450138","1","3","","null","","","","observe","","img/1to3/1.png","null","149","249","0.5","0.1","1","2","",""
"animation","157","185505","0.0-5.0-2.76","63d69e4d6648b39324fdf0ad","bdp_cybrbll","Mon Mar 27 2023 10:17:50 GMT-0400 (Eastern Daylight Time)","450138","1","3","","","","","","","","","","149","","","","1","2","[{""stimulus"":""img/1to2/1.png"",""time"":100},{""stimulus"":""img/1to2/2.png"",""time"":198},{""stimulus"":""img/1to2/3.png"",""time"":297},{""stimulus"":""img/1to2/4.png"",""time"":397},{""stimulus"":""img/1to2/5.png"",""time"":497},{""stimulus"":""img/1to2/6.png"",""time"":595},{""stimulus"":""img/1to2/7.png"",""time"":694},{""stimulus"":""img/1to2/8.png"",""time"":793},{""stimulus"":""img/1to2/9.png"",""time"":892},{""stimulus"":""img/1to2/10.png"",""time"":991},{""stimulus"":""img/1to2/11.png"",""time"":1090},{""stimulus"":""img/1to2/12.png"",""time"":1188}]","[]"
"image-keyboard-response","158","185850","0.0-5.0-1.77","63d69e4d6648b39324fdf0ad","bdp_cybrbll","Mon Mar 27 2023 10:17:50 GMT-0400 (Eastern Daylight Time)","450138","1","3","","344","","","","choice","","img/2to1/1.png","1","148","1042","0.5","0.1","2","1","",""
"animation","159","187137","0.0-5.0-2.77","63d69e4d6648b39324fdf0ad","bdp_cybrbll","Mon Mar 27 2023 10:17:50 GMT-0400 (Eastern Daylight Time)","450138","1","3","","","","","","","","","","148","","","","2","1","[{""stimulus"":""img/2to1/1.png"",""time"":100},{""stimulus"":""img/2to1/2.png"",""time"":199},{""stimulus"":""img/2to1/3.png"",""time"":298},{""stimulus"":""img/2to1/4.png"",""time"":397},{""stimulus"":""img/2to1/5.png"",""time"":496},{""stimulus"":""img/2to1/6.png"",""time"":595},{""stimulus"":""img/2to1/7.png"",""time"":693},{""stimulus"":""img/2to1/8.png"",""time"":793},{""stimulus"":""img/2to1/9.png"",""time"":892},{""stimulus"":""img/2to1/10.png"",""time"":992},{""stimulus"":""img/2to1/11.png"",""time"":1090},{""stimulus"":""img/2to1/12.png"",""time"":1189}]","[]"
"image-keyboard-response","160","187456","0.0-5.0-1.78","63d69e4d6648b39324fdf0ad","bdp_cybrbll","Mon Mar 27 2023 10:17:50 GMT-0400 (Eastern Daylight Time)","450138","1","3","","null","","","","observe","","img/1to3/1.png","null","147","317","0.5","0.1","1","2","",""
"animation","161","188743","0.0-5.0-2.78","63d69e4d6648b39324fdf0ad","bdp_cybrbll","Mon Mar 27 2023 10:17:50 GMT-0400 (Eastern Daylight Time)","450138","1","3","","","","","","","","","","147","","","","1","2","[{""stimulus"":""img/1to2/1.png"",""time"":99},{""stimulus"":""img/1to2/2.png"",""time"":198},{""stimulus"":""img/1to2/3.png"",""time"":298},{""stimulus"":""img/1to2/4.png"",""time"":397},{""stimulus"":""img/1to2/5.png"",""time"":496},{""stimulus"":""img/1to2/6.png"",""time"":595},{""stimulus"":""img/1to2/7.png"",""time"":694},{""stimulus"":""img/1to2/8.png"",""time"":793},{""stimulus"":""img/1to2/9.png"",""time"":892},{""stimulus"":""img/1to2/10.png"",""time"":992},{""stimulus"":""img/1to2/11.png"",""time"":1090},{""stimulus"":""img/1to2/12.png"",""time"":1189}]","[]"
"image-keyboard-response","162","189100","0.0-5.0-1.79","63d69e4d6648b39324fdf0ad","bdp_cybrbll","Mon Mar 27 2023 10:17:50 GMT-0400 (Eastern Daylight Time)","450138","1","3","","356","","","","choice","","img/2to1/1.png","2","146","440","0.5","0.1","2","3","",""
"animation","163","190388","0.0-5.0-2.79","63d69e4d6648b39324fdf0ad","bdp_cybrbll","Mon Mar 27 2023 10:17:50 GMT-0400 (Eastern Daylight Time)","450138","1","3","","","","","","","","","","146","","","","2","3","[{""stimulus"":""img/2to3/1.png"",""time"":100},{""stimulus"":""img/2to3/2.png"",""time"":199},{""stimulus"":""img/2to3/3.png"",""time"":300},{""stimulus"":""img/2to3/4.png"",""time"":397},{""stimulus"":""img/2to3/5.png"",""time"":497},{""stimulus"":""img/2to3/6.png"",""time"":596},{""stimulus"":""img/2to3/7.png"",""time"":694},{""stimulus"":""img/2to3/8.png"",""time"":793},{""stimulus"":""img/2to3/9.png"",""time"":893},{""stimulus"":""img/2to3/10.png"",""time"":991},{""stimulus"":""img/2to3/11.png"",""time"":1090},{""stimulus"":""img/2to3/12.png"",""time"":1189}]","[]"
"image-keyboard-response","164","191081","0.0-5.0-1.80","63d69e4d6648b39324fdf0ad","bdp_cybrbll","Mon Mar 27 2023 10:17:50 GMT-0400 (Eastern Daylight Time)","450138","1","3","","null","","","","observe","","img/3to2/1.png","null","145","691","0.5","0.1","3","1","",""
"animation","165","192370","0.0-5.0-2.80","63d69e4d6648b39324fdf0ad","bdp_cybrbll","Mon Mar 27 2023 10:17:50 GMT-0400 (Eastern Daylight Time)","450138","1","3","","","","","","","","","","145","","","","3","1","[{""stimulus"":""img/3to1/1.png"",""time"":100},{""stimulus"":""img/3to1/2.png"",""time"":200},{""stimulus"":""img/3to1/3.png"",""time"":307},{""stimulus"":""img/3to1/4.png"",""time"":398},{""stimulus"":""img/3to1/5.png"",""time"":497},{""stimulus"":""img/3to1/6.png"",""time"":595},{""stimulus"":""img/3to1/7.png"",""time"":694},{""stimulus"":""img/3to1/8.png"",""time"":793},{""stimulus"":""img/3to1/9.png"",""time"":892},{""stimulus"":""img/3to1/10.png"",""time"":991},{""stimulus"":""img/3to1/11.png"",""time"":1090},{""stimulus"":""img/3to1/12.png"",""time"":1190}]","[]"
"image-keyboard-response","166","192560","0.0-5.0-1.81","63d69e4d6648b39324fdf0ad","bdp_cybrbll","Mon Mar 27 2023 10:17:50 GMT-0400 (Eastern Daylight Time)","450138","1","3","","null","","","","observe","","img/1to3/1.png","null","144","189","0.5","0.1","1","3","",""
"animation","167","193848","0.0-5.0-2.81","63d69e4d6648b39324fdf0ad","bdp_cybrbll","Mon Mar 27 2023 10:17:50 GMT-0400 (Eastern Daylight Time)","450138","1","3","","","","","","","","","","144","","","","1","3","[{""stimulus"":""img/1to3/1.png"",""time"":101},{""stimulus"":""img/1to3/2.png"",""time"":200},{""stimulus"":""img/1to3/3.png"",""time"":299},{""stimulus"":""img/1to3/4.png"",""time"":398},{""stimulus"":""img/1to3/5.png"",""time"":496},{""stimulus"":""img/1to3/6.png"",""time"":595},{""stimulus"":""img/1to3/7.png"",""time"":695},{""stimulus"":""img/1to3/8.png"",""time"":802},{""stimulus"":""img/1to3/9.png"",""time"":892},{""stimulus"":""img/1to3/10.png"",""time"":991},{""stimulus"":""img/1to3/11.png"",""time"":1091},{""stimulus"":""img/1to3/12.png"",""time"":1189}]","[]"
"image-keyboard-response","168","194096","0.0-5.0-1.82","63d69e4d6648b39324fdf0ad","bdp_cybrbll","Mon Mar 27 2023 10:17:50 GMT-0400 (Eastern Daylight Time)","450138","1","3","","null","","","","observe","","img/3to2/1.png","null","143","247","0.5","0.1","3","1","",""
"animation","169","195385","0.0-5.0-2.82","63d69e4d6648b39324fdf0ad","bdp_cybrbll","Mon Mar 27 2023 10:17:50 GMT-0400 (Eastern Daylight Time)","450138","1","3","","","","","","","","","","143","","","","3","1","[{""stimulus"":""img/3to1/1.png"",""time"":100},{""stimulus"":""img/3to1/2.png"",""time"":199},{""stimulus"":""img/3to1/3.png"",""time"":299},{""stimulus"":""img/3to1/4.png"",""time"":397},{""stimulus"":""img/3to1/5.png"",""time"":496},{""stimulus"":""img/3to1/6.png"",""time"":596},{""stimulus"":""img/3to1/7.png"",""time"":694},{""stimulus"":""img/3to1/8.png"",""time"":794},{""stimulus"":""img/3to1/9.png"",""time"":893},{""stimulus"":""img/3to1/10.png"",""time"":992},{""stimulus"":""img/3to1/11.png"",""time"":1091},{""stimulus"":""img/3to1/12.png"",""time"":1189}]","[]"
"image-keyboard-response","170","195610","0.0-5.0-1.83","63d69e4d6648b39324fdf0ad","bdp_cybrbll","Mon Mar 27 2023 10:17:50 GMT-0400 (Eastern Daylight Time)","450138","1","3","","null","","","","observe","","img/1to3/1.png","null","142","224","0.5","0.1","1","3","",""
"animation","171","196899","0.0-5.0-2.83","63d69e4d6648b39324fdf0ad","bdp_cybrbll","Mon Mar 27 2023 10:17:50 GMT-0400 (Eastern Daylight Time)","450138","1","3","","","","","","","","","","142","","","","1","3","[{""stimulus"":""img/1to3/1.png"",""time"":100},{""stimulus"":""img/1to3/2.png"",""time"":199},{""stimulus"":""img/1to3/3.png"",""time"":298},{""stimulus"":""img/1to3/4.png"",""time"":398},{""stimulus"":""img/1to3/5.png"",""time"":497},{""stimulus"":""img/1to3/6.png"",""time"":595},{""stimulus"":""img/1to3/7.png"",""time"":694},{""stimulus"":""img/1to3/8.png"",""time"":795},{""stimulus"":""img/1to3/9.png"",""time"":893},{""stimulus"":""img/1to3/10.png"",""time"":992},{""stimulus"":""img/1to3/11.png"",""time"":1091},{""stimulus"":""img/1to3/12.png"",""time"":1190}]","[]"
"image-keyboard-response","172","197234","0.0-5.0-1.84","63d69e4d6648b39324fdf0ad","bdp_cybrbll","Mon Mar 27 2023 10:17:50 GMT-0400 (Eastern Daylight Time)","450138","1","3","","null","","","","observe","","img/3to2/1.png","null","141","334","0.5","0.1","3","1","",""
"animation","173","198523","0.0-5.0-2.84","63d69e4d6648b39324fdf0ad","bdp_cybrbll","Mon Mar 27 2023 10:17:50 GMT-0400 (Eastern Daylight Time)","450138","1","3","","","","","","","","","","141","","","","3","1","[{""stimulus"":""img/3to1/1.png"",""time"":101},{""stimulus"":""img/3to1/2.png"",""time"":200},{""stimulus"":""img/3to1/3.png"",""time"":298},{""stimulus"":""img/3to1/4.png"",""time"":398},{""stimulus"":""img/3to1/5.png"",""time"":497},{""stimulus"":""img/3to1/6.png"",""time"":596},{""stimulus"":""img/3to1/7.png"",""time"":695},{""stimulus"":""img/3to1/8.png"",""time"":793},{""stimulus"":""img/3to1/9.png"",""time"":893},{""stimulus"":""img/3to1/10.png"",""time"":992},{""stimulus"":""img/3to1/11.png"",""time"":1091},{""stimulus"":""img/3to1/12.png"",""time"":1191}]","[]"
"image-keyboard-response","174","198919","0.0-5.0-1.85","63d69e4d6648b39324fdf0ad","bdp_cybrbll","Mon Mar 27 2023 10:17:50 GMT-0400 (Eastern Daylight Time)","450138","1","3","","null","","","","observe","","img/1to3/1.png","null","140","394","0.5","0.1","1","3","",""
"animation","175","200206","0.0-5.0-2.85","63d69e4d6648b39324fdf0ad","bdp_cybrbll","Mon Mar 27 2023 10:17:50 GMT-0400 (Eastern Daylight Time)","450138","1","3","","","","","","","","","","140","","","","1","3","[{""stimulus"":""img/1to3/1.png"",""time"":99},{""stimulus"":""img/1to3/2.png"",""time"":199},{""stimulus"":""img/1to3/3.png"",""time"":298},{""stimulus"":""img/1to3/4.png"",""time"":397},{""stimulus"":""img/1to3/5.png"",""time"":496},{""stimulus"":""img/1to3/6.png"",""time"":594},{""stimulus"":""img/1to3/7.png"",""time"":694},{""stimulus"":""img/1to3/8.png"",""time"":793},{""stimulus"":""img/1to3/9.png"",""time"":892},{""stimulus"":""img/1to3/10.png"",""time"":991},{""stimulus"":""img/1to3/11.png"",""time"":1090},{""stimulus"":""img/1to3/12.png"",""time"":1189}]","[]"
"image-keyboard-response","176","200847","0.0-5.0-1.86","63d69e4d6648b39324fdf0ad","bdp_cybrbll","Mon Mar 27 2023 10:17:50 GMT-0400 (Eastern Daylight Time)","450138","1","3","","null","","","","observe","","img/3to2/1.png","null","139","639","0.5","0.1","3","1","",""
"animation","177","202135","0.0-5.0-2.86","63d69e4d6648b39324fdf0ad","bdp_cybrbll","Mon Mar 27 2023 10:17:50 GMT-0400 (Eastern Daylight Time)","450138","1","3","","","","","","","","","","139","","","","3","1","[{""stimulus"":""img/3to1/1.png"",""time"":100},{""stimulus"":""img/3to1/2.png"",""time"":199},{""stimulus"":""img/3to1/3.png"",""time"":298},{""stimulus"":""img/3to1/4.png"",""time"":396},{""stimulus"":""img/3to1/5.png"",""time"":496},{""stimulus"":""img/3to1/6.png"",""time"":596},{""stimulus"":""img/3to1/7.png"",""time"":693},{""stimulus"":""img/3to1/8.png"",""time"":793},{""stimulus"":""img/3to1/9.png"",""time"":892},{""stimulus"":""img/3to1/10.png"",""time"":992},{""stimulus"":""img/3to1/11.png"",""time"":1091},{""stimulus"":""img/3to1/12.png"",""time"":1190}]","[]"
"image-keyboard-response","178","202587","0.0-5.0-1.87","63d69e4d6648b39324fdf0ad","bdp_cybrbll","Mon Mar 27 2023 10:17:50 GMT-0400 (Eastern Daylight Time)","450138","1","3","","null","","","","observe","","img/1to3/1.png","null","138","450","0.5","0.1","1","2","",""
"animation","179","203875","0.0-5.0-2.87","63d69e4d6648b39324fdf0ad","bdp_cybrbll","Mon Mar 27 2023 10:17:50 GMT-0400 (Eastern Daylight Time)","450138","1","3","","","","","","","","","","138","","","","1","2","[{""stimulus"":""img/1to2/1.png"",""time"":101},{""stimulus"":""img/1to2/2.png"",""time"":200},{""stimulus"":""img/1to2/3.png"",""time"":298},{""stimulus"":""img/1to2/4.png"",""time"":398},{""stimulus"":""img/1to2/5.png"",""time"":496},{""stimulus"":""img/1to2/6.png"",""time"":595},{""stimulus"":""img/1to2/7.png"",""time"":695},{""stimulus"":""img/1to2/8.png"",""time"":793},{""stimulus"":""img/1to2/9.png"",""time"":892},{""stimulus"":""img/1to2/10.png"",""time"":991},{""stimulus"":""img/1to2/11.png"",""time"":1090},{""stimulus"":""img/1to2/12.png"",""time"":1189}]","[]"
"image-keyboard-response","180","203953","0.0-5.0-1.88","63d69e4d6648b39324fdf0ad","bdp_cybrbll","Mon Mar 27 2023 10:17:50 GMT-0400 (Eastern Daylight Time)","450138","1","3","","77","","","","choice","","img/2to1/1.png","2","137","693","0.5","0.1","2","3","",""
"animation","181","205242","0.0-5.0-2.88","63d69e4d6648b39324fdf0ad","bdp_cybrbll","Mon Mar 27 2023 10:17:50 GMT-0400 (Eastern Daylight Time)","450138","1","3","","","","","","","","","","137","","","","2","3","[{""stimulus"":""img/2to3/1.png"",""time"":101},{""stimulus"":""img/2to3/2.png"",""time"":200},{""stimulus"":""img/2to3/3.png"",""time"":299},{""stimulus"":""img/2to3/4.png"",""time"":397},{""stimulus"":""img/2to3/5.png"",""time"":496},{""stimulus"":""img/2to3/6.png"",""time"":595},{""stimulus"":""img/2to3/7.png"",""time"":705},{""stimulus"":""img/2to3/8.png"",""time"":793},{""stimulus"":""img/2to3/9.png"",""time"":893},{""stimulus"":""img/2to3/10.png"",""time"":991},{""stimulus"":""img/2to3/11.png"",""time"":1090},{""stimulus"":""img/2to3/12.png"",""time"":1190}]","[]"
"image-keyboard-response","182","205576","0.0-5.0-1.89","63d69e4d6648b39324fdf0ad","bdp_cybrbll","Mon Mar 27 2023 10:17:50 GMT-0400 (Eastern Daylight Time)","450138","1","3","","null","","","","observe","","img/3to2/1.png","null","136","333","0.5","0.1","3","1","",""
"animation","183","206864","0.0-5.0-2.89","63d69e4d6648b39324fdf0ad","bdp_cybrbll","Mon Mar 27 2023 10:17:50 GMT-0400 (Eastern Daylight Time)","450138","1","3","","","","","","","","","","136","","","","3","1","[{""stimulus"":""img/3to1/1.png"",""time"":100},{""stimulus"":""img/3to1/2.png"",""time"":199},{""stimulus"":""img/3to1/3.png"",""time"":298},{""stimulus"":""img/3to1/4.png"",""time"":398},{""stimulus"":""img/3to1/5.png"",""time"":496},{""stimulus"":""img/3to1/6.png"",""time"":596},{""stimulus"":""img/3to1/7.png"",""time"":695},{""stimulus"":""img/3to1/8.png"",""time"":800},{""stimulus"":""img/3to1/9.png"",""time"":893},{""stimulus"":""img/3to1/10.png"",""time"":991},{""stimulus"":""img/3to1/11.png"",""time"":1094},{""stimulus"":""img/3to1/12.png"",""time"":1189}]","[]"
"image-keyboard-response","184","207672","0.0-5.0-1.90","63d69e4d6648b39324fdf0ad","bdp_cybrbll","Mon Mar 27 2023 10:17:50 GMT-0400 (Eastern Daylight Time)","450138","1","3","","null","","","","observe","","img/1to3/1.png","null","135","807","0.5","0.1","1","3","",""
"animation","185","208960","0.0-5.0-2.90","63d69e4d6648b39324fdf0ad","bdp_cybrbll","Mon Mar 27 2023 10:17:50 GMT-0400 (Eastern Daylight Time)","450138","1","3","","","","","","","","","","135","","","","1","3","[{""stimulus"":""img/1to3/1.png"",""time"":99},{""stimulus"":""img/1to3/2.png"",""time"":199},{""stimulus"":""img/1to3/3.png"",""time"":298},{""stimulus"":""img/1to3/4.png"",""time"":397},{""stimulus"":""img/1to3/5.png"",""time"":496},{""stimulus"":""img/1to3/6.png"",""time"":594},{""stimulus"":""img/1to3/7.png"",""time"":694},{""stimulus"":""img/1to3/8.png"",""time"":793},{""stimulus"":""img/1to3/9.png"",""time"":891},{""stimulus"":""img/1to3/10.png"",""time"":991},{""stimulus"":""img/1to3/11.png"",""time"":1090},{""stimulus"":""img/1to3/12.png"",""time"":1189}]","[]"
"image-keyboard-response","186","209385","0.0-5.0-1.91","63d69e4d6648b39324fdf0ad","bdp_cybrbll","Mon Mar 27 2023 10:17:50 GMT-0400 (Eastern Daylight Time)","450138","1","3","","null","","","","observe","","img/3to2/1.png","null","134","423","0.5","0.1","3","1","",""
"animation","187","210673","0.0-5.0-2.91","63d69e4d6648b39324fdf0ad","bdp_cybrbll","Mon Mar 27 2023 10:17:50 GMT-0400 (Eastern Daylight Time)","450138","1","3","","","","","","","","","","134","","","","3","1","[{""stimulus"":""img/3to1/1.png"",""time"":100},{""stimulus"":""img/3to1/2.png"",""time"":199},{""stimulus"":""img/3to1/3.png"",""time"":297},{""stimulus"":""img/3to1/4.png"",""time"":397},{""stimulus"":""img/3to1/5.png"",""time"":496},{""stimulus"":""img/3to1/6.png"",""time"":595},{""stimulus"":""img/3to1/7.png"",""time"":694},{""stimulus"":""img/3to1/8.png"",""time"":793},{""stimulus"":""img/3to1/9.png"",""time"":892},{""stimulus"":""img/3to1/10.png"",""time"":991},{""stimulus"":""img/3to1/11.png"",""time"":1090},{""stimulus"":""img/3to1/12.png"",""time"":1189}]","[]"
"image-keyboard-response","188","210958","0.0-5.0-1.92","63d69e4d6648b39324fdf0ad","bdp_cybrbll","Mon Mar 27 2023 10:17:50 GMT-0400 (Eastern Daylight Time)","450138","1","3","","null","","","","observe","","img/1to3/1.png","null","133","283","0.5","0.1","1","2","",""
"animation","189","212246","0.0-5.0-2.92","63d69e4d6648b39324fdf0ad","bdp_cybrbll","Mon Mar 27 2023 10:17:50 GMT-0400 (Eastern Daylight Time)","450138","1","3","","","","","","","","","","133","","","","1","2","[{""stimulus"":""img/1to2/1.png"",""time"":100},{""stimulus"":""img/1to2/2.png"",""time"":199},{""stimulus"":""img/1to2/3.png"",""time"":298},{""stimulus"":""img/1to2/4.png"",""time"":397},{""stimulus"":""img/1to2/5.png"",""time"":495},{""stimulus"":""img/1to2/6.png"",""time"":595},{""stimulus"":""img/1to2/7.png"",""time"":694},{""stimulus"":""img/1to2/8.png"",""time"":793},{""stimulus"":""img/1to2/9.png"",""time"":892},{""stimulus"":""img/1to2/10.png"",""time"":991},{""stimulus"":""img/1to2/11.png"",""time"":1090},{""stimulus"":""img/1to2/12.png"",""time"":1189}]","[]"
"image-keyboard-response","190","212334","0.0-5.0-1.93","63d69e4d6648b39324fdf0ad","bdp_cybrbll","Mon Mar 27 2023 10:17:50 GMT-0400 (Eastern Daylight Time)","450138","1","3","","88","","","","choice","","img/2to1/1.png","2","132","778","0.5","0.1","2","3","",""
