"trial_type","trial_index","time_elapsed","internal_node_id","subject_id","task","startTime","totalTime","fairPartner","unfairPartner","view_history","rt","event","trial","time","trialtype","success","numBlurs","stimulus","key_press","throwsLeft","rtDur","pFair","pUnfair","holder","receiver","animation_sequence","responses"
"pavlovia","0","2","0.0-0.0","63034df51d918e1e3b97e5ce","bdp_cybrbll","Sun Mar 26 2023 18:13:58 GMT-0400 (Eastern Daylight Time)","492369","3","1","","","","","","","","","","","","","","","","","",""
"instructions","1","4140","0.0-1.0","63034df51d918e1e3b97e5ce","bdp_cybrbll","Sun Mar 26 2023 18:13:58 GMT-0400 (Eastern Daylight Time)","492369","3","1","[{""page_index"":0,""viewing_time"":4138}]","4138","","","","","","","","","","","","","","","",""
"","","","","63034df51d918e1e3b97e5ce","bdp_cybrbll","Sun Mar 26 2023 18:13:58 GMT-0400 (Eastern Daylight Time)","492369","3","1","","","fullscreenenter","2","7028","fullscreenenter","","","","","","","","","","","",""
"fullscreen","2","8019","0.0-2.0","63034df51d918e1e3b97e5ce","bdp_cybrbll","Sun Mar 26 2023 18:13:58 GMT-0400 (Eastern Daylight Time)","492369","3","1","","","","","","","true","","","","","","","","","","",""
"","","","","63034df51d918e1e3b97e5ce","bdp_cybrbll","Sun Mar 26 2023 18:13:58 GMT-0400 (Eastern Daylight Time)","492369","3","1","","","blur","3","58316","blurevent","","1","","","","","","","","","",""
"","","","","63034df51d918e1e3b97e5ce","bdp_cybrbll","Sun Mar 26 2023 18:13:58 GMT-0400 (Eastern Daylight Time)","492369","3","1","","","focus","3","59593","focusevent","","","","","","","","","","","",""
"instructions","3","61327","0.0-4.0","63034df51d918e1e3b97e5ce","bdp_cybrbll","Sun Mar 26 2023 18:13:58 GMT-0400 (Eastern Daylight Time)","492369","3","1","[{""page_index"":0,""viewing_time"":53307}]","53307","","","","","","","","","","","","","","","",""
"image-keyboard-response","4","74051","0.0-5.0-0.0-0.0","63034df51d918e1e3b97e5ce","bdp_cybrbll","Sun Mar 26 2023 18:13:58 GMT-0400 (Eastern Daylight Time)","492369","3","1","","12723","","","","blurwarn","","1","","49","","","","","","","",""
"image-keyboard-response","5","76273","0.0-5.0-1.0","63034df51d918e1e3b97e5ce","bdp_cybrbll","Sun Mar 26 2023 18:13:58 GMT-0400 (Eastern Daylight Time)","492369","3","1","","1970","","","","choice","","","img/2to1/1.png","1","225","513","0.5","0.5","2","1","",""
"animation","6","77562","0.0-5.0-2.0","63034df51d918e1e3b97e5ce","bdp_cybrbll","Sun Mar 26 2023 18:13:58 GMT-0400 (Eastern Daylight Time)","492369","3","1","","","","","","","","","","","225","","","","2","1","[{""stimulus"":""img/2to1/1.png"",""time"":100},{""stimulus"":""img/2to1/2.png"",""time"":200},{""stimulus"":""img/2to1/3.png"",""time"":299},{""stimulus"":""img/2to1/4.png"",""time"":397},{""stimulus"":""img/2to1/5.png"",""time"":495},{""stimulus"":""img/2to1/6.png"",""time"":594},{""stimulus"":""img/2to1/7.png"",""time"":694},{""stimulus"":""img/2to1/8.png"",""time"":794},{""stimulus"":""img/2to1/9.png"",""time"":892},{""stimulus"":""img/2to1/10.png"",""time"":991},{""stimulus"":""img/2to1/11.png"",""time"":1090},{""stimulus"":""img/2to1/12.png"",""time"":1189}]","[]"
"image-keyboard-response","7","77780","0.0-5.0-1.1","63034df51d918e1e3b97e5ce","bdp_cybrbll","Sun Mar 26 2023 18:13:58 GMT-0400 (Eastern Daylight Time)","492369","3","1","","null","","","","observe","","","img/1to3/1.png","null","224","216","0.5","0.5","1","3","",""
"animation","8","79068","0.0-5.0-2.1","63034df51d918e1e3b97e5ce","bdp_cybrbll","Sun Mar 26 2023 18:13:58 GMT-0400 (Eastern Daylight Time)","492369","3","1","","","","","","","","","","","224","","","","1","3","[{""stimulus"":""img/1to3/1.png"",""time"":100},{""stimulus"":""img/1to3/2.png"",""time"":199},{""stimulus"":""img/1to3/3.png"",""time"":298},{""stimulus"":""img/1to3/4.png"",""time"":397},{""stimulus"":""img/1to3/5.png"",""time"":496},{""stimulus"":""img/1to3/6.png"",""time"":595},{""stimulus"":""img/1to3/7.png"",""time"":694},{""stimulus"":""img/1to3/8.png"",""time"":793},{""stimulus"":""img/1to3/9.png"",""time"":892},{""stimulus"":""img/1to3/10.png"",""time"":991},{""stimulus"":""img/1to3/11.png"",""time"":1090},{""stimulus"":""img/1to3/12.png"",""time"":1189}]","[]"
"image-keyboard-response","9","79658","0.0-5.0-1.2","63034df51d918e1e3b97e5ce","bdp_cybrbll","Sun Mar 26 2023 18:13:58 GMT-0400 (Eastern Daylight Time)","492369","3","1","","null","","","","observe","","","img/3to2/1.png","null","223","589","0.5","0.5","3","2","",""
"animation","10","80947","0.0-5.0-2.2","63034df51d918e1e3b97e5ce","bdp_cybrbll","Sun Mar 26 2023 18:13:58 GMT-0400 (Eastern Daylight Time)","492369","3","1","","","","","","","","","","","223","","","","3","2","[{""stimulus"":""img/3to2/1.png"",""time"":101},{""stimulus"":""img/3to2/2.png"",""time"":200},{""stimulus"":""img/3to2/3.png"",""time"":298},{""stimulus"":""img/3to2/4.png"",""time"":397},{""stimulus"":""img/3to2/5.png"",""time"":496},{""stimulus"":""img/3to2/6.png"",""time"":596},{""stimulus"":""img/3to2/7.png"",""time"":694},{""stimulus"":""img/3to2/8.png"",""time"":794},{""stimulus"":""img/3to2/9.png"",""time"":893},{""stimulus"":""img/3to2/10.png"",""time"":991},{""stimulus"":""img/3to2/11.png"",""time"":1091},{""stimulus"":""img/3to2/12.png"",""time"":1189}]","[]"
"image-keyboard-response","11","81714","0.0-5.0-1.3","63034df51d918e1e3b97e5ce","bdp_cybrbll","Sun Mar 26 2023 18:13:58 GMT-0400 (Eastern Daylight Time)","492369","3","1","","767","","","","choice","","","img/2to1/1.png","1","222","719","0.5","0.5","2","1","",""
"animation","12","83003","0.0-5.0-2.3","63034df51d918e1e3b97e5ce","bdp_cybrbll","Sun Mar 26 2023 18:13:58 GMT-0400 (Eastern Daylight Time)","492369","3","1","","","","","","","","","","","222","","","","2","1","[{""stimulus"":""img/2to1/1.png"",""time"":100},{""stimulus"":""img/2to1/2.png"",""time"":199},{""stimulus"":""img/2to1/3.png"",""time"":298},{""stimulus"":""img/2to1/4.png"",""time"":411},{""stimulus"":""img/2to1/5.png"",""time"":497},{""stimulus"":""img/2to1/6.png"",""time"":595},{""stimulus"":""img/2to1/7.png"",""time"":695},{""stimulus"":""img/2to1/8.png"",""time"":793},{""stimulus"":""img/2to1/9.png"",""time"":907},{""stimulus"":""img/2to1/10.png"",""time"":991},{""stimulus"":""img/2to1/11.png"",""time"":1090},{""stimulus"":""img/2to1/12.png"",""time"":1190}]","[]"
"image-keyboard-response","13","83857","0.0-5.0-1.4","63034df51d918e1e3b97e5ce","bdp_cybrbll","Sun Mar 26 2023 18:13:58 GMT-0400 (Eastern Daylight Time)","492369","3","1","","null","","","","observe","","","img/1to3/1.png","null","221","853","0.5","0.5","1","2","",""
"animation","14","85145","0.0-5.0-2.4","63034df51d918e1e3b97e5ce","bdp_cybrbll","Sun Mar 26 2023 18:13:58 GMT-0400 (Eastern Daylight Time)","492369","3","1","","","","","","","","","","","221","","","","1","2","[{""stimulus"":""img/1to2/1.png"",""time"":100},{""stimulus"":""img/1to2/2.png"",""time"":200},{""stimulus"":""img/1to2/3.png"",""time"":299},{""stimulus"":""img/1to2/4.png"",""time"":398},{""stimulus"":""img/1to2/5.png"",""time"":496},{""stimulus"":""img/1to2/6.png"",""time"":595},{""stimulus"":""img/1to2/7.png"",""time"":695},{""stimulus"":""img/1to2/8.png"",""time"":793},{""stimulus"":""img/1to2/9.png"",""time"":892},{""stimulus"":""img/1to2/10.png"",""time"":991},{""stimulus"":""img/1to2/11.png"",""time"":1090},{""stimulus"":""img/1to2/12.png"",""time"":1189}]","[]"
"image-keyboard-response","15","85308","0.0-5.0-1.5","63034df51d918e1e3b97e5ce","bdp_cybrbll","Sun Mar 26 2023 18:13:58 GMT-0400 (Eastern Daylight Time)","492369","3","1","","163","","","","choice","","","img/2to1/1.png","2","220","681","0.5","0.5","2","3","",""
"animation","16","86597","0.0-5.0-2.5","63034df51d918e1e3b97e5ce","bdp_cybrbll","Sun Mar 26 2023 18:13:58 GMT-0400 (Eastern Daylight Time)","492369","3","1","","","","","","","","","","","220","","","","2","3","[{""stimulus"":""img/2to3/1.png"",""time"":100},{""stimulus"":""img/2to3/2.png"",""time"":199},{""stimulus"":""img/2to3/3.png"",""time"":298},{""stimulus"":""img/2to3/4.png"",""time"":398},{""stimulus"":""img/2to3/5.png"",""time"":496},{""stimulus"":""img/2to3/6.png"",""time"":596},{""stimulus"":""img/2to3/7.png"",""time"":694},{""stimulus"":""img/2to3/8.png"",""time"":794},{""stimulus"":""img/2to3/9.png"",""time"":892},{""stimulus"":""img/2to3/10.png"",""time"":991},{""stimulus"":""img/2to3/11.png"",""time"":1091},{""stimulus"":""img/2to3/12.png"",""time"":1190}]","[]"
"image-keyboard-response","17","87615","0.0-5.0-1.6","63034df51d918e1e3b97e5ce","bdp_cybrbll","Sun Mar 26 2023 18:13:58 GMT-0400 (Eastern Daylight Time)","492369","3","1","","null","","","","observe","","","img/3to2/1.png","null","219","1004","0.5","0.5","3","2","",""
"animation","18","88903","0.0-5.0-2.6","63034df51d918e1e3b97e5ce","bdp_cybrbll","Sun Mar 26 2023 18:13:58 GMT-0400 (Eastern Daylight Time)","492369","3","1","","","","","","","","","","","219","","","","3","2","[{""stimulus"":""img/3to2/1.png"",""time"":100},{""stimulus"":""img/3to2/2.png"",""time"":199},{""stimulus"":""img/3to2/3.png"",""time"":298},{""stimulus"":""img/3to2/4.png"",""time"":397},{""stimulus"":""img/3to2/5.png"",""time"":496},{""stimulus"":""img/3to2/6.png"",""time"":596},{""stimulus"":""img/3to2/7.png"",""time"":694},{""stimulus"":""img/3to2/8.png"",""time"":794},{""stimulus"":""img/3to2/9.png"",""time"":892},{""stimulus"":""img/3to2/10.png"",""time"":991},{""stimulus"":""img/3to2/11.png"",""time"":1090},{""stimulus"":""img/3to2/12.png"",""time"":1189}]","[]"
"image-keyboard-response","19","89601","0.0-5.0-1.7","63034df51d918e1e3b97e5ce","bdp_cybrbll","Sun Mar 26 2023 18:13:58 GMT-0400 (Eastern Daylight Time)","492369","3","1","","698","","","","choice","","","img/2to1/1.png","1","218","599","0.5","0.5","2","1","",""
"animation","20","90889","0.0-5.0-2.7","63034df51d918e1e3b97e5ce","bdp_cybrbll","Sun Mar 26 2023 18:13:58 GMT-0400 (Eastern Daylight Time)","492369","3","1","","","","","","","","","","","218","","","","2","1","[{""stimulus"":""img/2to1/1.png"",""time"":100},{""stimulus"":""img/2to1/2.png"",""time"":200},{""stimulus"":""img/2to1/3.png"",""time"":298},{""stimulus"":""img/2to1/4.png"",""time"":397},{""stimulus"":""img/2to1/5.png"",""time"":497},{""stimulus"":""img/2to1/6.png"",""time"":595},{""stimulus"":""img/2to1/7.png"",""time"":695},{""stimulus"":""img/2to1/8.png"",""time"":793},{""stimulus"":""img/2to1/9.png"",""time"":892},{""stimulus"":""img/2to1/10.png"",""time"":992},{""stimulus"":""img/2to1/11.png"",""time"":1090},{""stimulus"":""img/2to1/12.png"",""time"":1189}]","[]"
"image-keyboard-response","21","91125","0.0-5.0-1.8","63034df51d918e1e3b97e5ce","bdp_cybrbll","Sun Mar 26 2023 18:13:58 GMT-0400 (Eastern Daylight Time)","492369","3","1","","null","","","","observe","","","img/1to3/1.png","null","217","235","0.5","0.5","1","2","",""
"animation","22","92414","0.0-5.0-2.8","63034df51d918e1e3b97e5ce","bdp_cybrbll","Sun Mar 26 2023 18:13:58 GMT-0400 (Eastern Daylight Time)","492369","3","1","","","","","","","","","","","217","","","","1","2","[{""stimulus"":""img/1to2/1.png"",""time"":100},{""stimulus"":""img/1to2/2.png"",""time"":199},{""stimulus"":""img/1to2/3.png"",""time"":298},{""stimulus"":""img/1to2/4.png"",""time"":398},{""stimulus"":""img/1to2/5.png"",""time"":496},{""stimulus"":""img/1to2/6.png"",""time"":595},{""stimulus"":""img/1to2/7.png"",""time"":694},{""stimulus"":""img/1to2/8.png"",""time"":794},{""stimulus"":""img/1to2/9.png"",""time"":893},{""stimulus"":""img/1to2/10.png"",""time"":992},{""stimulus"":""img/1to2/11.png"",""time"":1090},{""stimulus"":""img/1to2/12.png"",""time"":1190}]","[]"
"image-keyboard-response","23","92989","0.0-5.0-1.9","63034df51d918e1e3b97e5ce","bdp_cybrbll","Sun Mar 26 2023 18:13:58 GMT-0400 (Eastern Daylight Time)","492369","3","1","","575","","","","choice","","","img/2to1/1.png","2","216","545","0.5","0.5","2","3","",""
"animation","24","94277","0.0-5.0-2.9","63034df51d918e1e3b97e5ce","bdp_cybrbll","Sun Mar 26 2023 18:13:58 GMT-0400 (Eastern Daylight Time)","492369","3","1","","","","","","","","","","","216","","","","2","3","[{""stimulus"":""img/2to3/1.png"",""time"":101},{""stimulus"":""img/2to3/2.png"",""time"":199},{""stimulus"":""img/2to3/3.png"",""time"":299},{""stimulus"":""img/2to3/4.png"",""time"":397},{""stimulus"":""img/2to3/5.png"",""time"":496},{""stimulus"":""img/2to3/6.png"",""time"":595},{""stimulus"":""img/2to3/7.png"",""time"":695},{""stimulus"":""img/2to3/8.png"",""time"":794},{""stimulus"":""img/2to3/9.png"",""time"":893},{""stimulus"":""img/2to3/10.png"",""time"":991},{""stimulus"":""img/2to3/11.png"",""time"":1090},{""stimulus"":""img/2to3/12.png"",""time"":1189}]","[]"
"image-keyboard-response","25","94788","0.0-5.0-1.10","63034df51d918e1e3b97e5ce","bdp_cybrbll","Sun Mar 26 2023 18:13:58 GMT-0400 (Eastern Daylight Time)","492369","3","1","","null","","","","observe","","","img/3to2/1.png","null","215","509","0.5","0.5","3","2","",""
"animation","26","96076","0.0-5.0-2.10","63034df51d918e1e3b97e5ce","bdp_cybrbll","Sun Mar 26 2023 18:13:58 GMT-0400 (Eastern Daylight Time)","492369","3","1","","","","","","","","","","","215","","","","3","2","[{""stimulus"":""img/3to2/1.png"",""time"":100},{""stimulus"":""img/3to2/2.png"",""time"":199},{""stimulus"":""img/3to2/3.png"",""time"":299},{""stimulus"":""img/3to2/4.png"",""time"":398},{""stimulus"":""img/3to2/5.png"",""time"":496},{""stimulus"":""img/3to2/6.png"",""time"":595},{""stimulus"":""img/3to2/7.png"",""time"":694},{""stimulus"":""img/3to2/8.png"",""time"":793},{""stimulus"":""img/3to2/9.png"",""time"":892},{""stimulus"":""img/3to2/10.png"",""time"":992},{""stimulus"":""img/3to2/11.png"",""time"":1091},{""stimulus"":""img/3to2/12.png"",""time"":1190}]","[]"
"image-keyboard-response","27","97402","0.0-5.0-1.11","63034df51d918e1e3b97e5ce","bdp_cybrbll","Sun Mar 26 2023 18:13:58 GMT-0400 (Eastern Daylight Time)","492369","3","1","","1326","","","","choice","","","img/2to1/1.png","1","214","563","0.5","0.5","2","1","",""
"animation","28","98691","0.0-5.0-2.11","63034df51d918e1e3b97e5ce","bdp_cybrbll","Sun Mar 26 2023 18:13:58 GMT-0400 (Eastern Daylight Time)","492369","3","1","","","","","","","","","","","214","","","","2","1","[{""stimulus"":""img/2to1/1.png"",""time"":100},{""stimulus"":""img/2to1/2.png"",""time"":199},{""stimulus"":""img/2to1/3.png"",""time"":299},{""stimulus"":""img/2to1/4.png"",""time"":398},{""stimulus"":""img/2to1/5.png"",""time"":497},{""stimulus"":""img/2to1/6.png"",""time"":596},{""stimulus"":""img/2to1/7.png"",""time"":694},{""stimulus"":""img/2to1/8.png"",""time"":794},{""stimulus"":""img/2to1/9.png"",""time"":892},{""stimulus"":""img/2to1/10.png"",""time"":992},{""stimulus"":""img/2to1/11.png"",""time"":1091},{""stimulus"":""img/2to1/12.png"",""time"":1189}]","[]"
"image-keyboard-response","29","99101","0.0-5.0-1.12","63034df51d918e1e3b97e5ce","bdp_cybrbll","Sun Mar 26 2023 18:13:58 GMT-0400 (Eastern Daylight Time)","492369","3","1","","null","","","","observe","","","img/1to3/1.png","null","213","409","0.5","0.5","1","3","",""
"animation","30","100389","0.0-5.0-2.12","63034df51d918e1e3b97e5ce","bdp_cybrbll","Sun Mar 26 2023 18:13:58 GMT-0400 (Eastern Daylight Time)","492369","3","1","","","","","","","","","","","213","","","","1","3","[{""stimulus"":""img/1to3/1.png"",""time"":101},{""stimulus"":""img/1to3/2.png"",""time"":200},{""stimulus"":""img/1to3/3.png"",""time"":299},{""stimulus"":""img/1to3/4.png"",""time"":398},{""stimulus"":""img/1to3/5.png"",""time"":496},{""stimulus"":""img/1to3/6.png"",""time"":595},{""stimulus"":""img/1to3/7.png"",""time"":694},{""stimulus"":""img/1to3/8.png"",""time"":794},{""stimulus"":""img/1to3/9.png"",""time"":892},{""stimulus"":""img/1to3/10.png"",""time"":991},{""stimulus"":""img/1to3/11.png"",""time"":1090},{""stimulus"":""img/1to3/12.png"",""time"":1189}]","[]"
"image-keyboard-response","31","100902","0.0-5.0-1.13","63034df51d918e1e3b97e5ce","bdp_cybrbll","Sun Mar 26 2023 18:13:58 GMT-0400 (Eastern Daylight Time)","492369","3","1","","null","","","","observe","","","img/3to2/1.png","null","212","512","0.5","0.5","3","2","",""
"animation","32","102191","0.0-5.0-2.13","63034df51d918e1e3b97e5ce","bdp_cybrbll","Sun Mar 26 2023 18:13:58 GMT-0400 (Eastern Daylight Time)","492369","3","1","","","","","","","","","","","212","","","","3","2","[{""stimulus"":""img/3to2/1.png"",""time"":101},{""stimulus"":""img/3to2/2.png"",""time"":199},{""stimulus"":""img/3to2/3.png"",""time"":299},{""stimulus"":""img/3to2/4.png"",""time"":397},{""stimulus"":""img/3to2/5.png"",""time"":496},{""stimulus"":""img/3to2/6.png"",""time"":595},{""stimulus"":""img/3to2/7.png"",""time"":694},{""stimulus"":""img/3to2/8.png"",""time"":794},{""stimulus"":""img/3to2/9.png"",""time"":892},{""stimulus"":""img/3to2/10.png"",""time"":992},{""stimulus"":""img/3to2/11.png"",""time"":1091},{""stimulus"":""img/3to2/12.png"",""time"":1190}]","[]"
"image-keyboard-response","33","103314","0.0-5.0-1.14","63034df51d918e1e3b97e5ce","bdp_cybrbll","Sun Mar 26 2023 18:13:58 GMT-0400 (Eastern Daylight Time)","492369","3","1","","1123","","","","choice","","","img/2to1/1.png","2","211","456","0.5","0.5","2","3","",""
"animation","34","104603","0.0-5.0-2.14","63034df51d918e1e3b97e5ce","bdp_cybrbll","Sun Mar 26 2023 18:13:58 GMT-0400 (Eastern Daylight Time)","492369","3","1","","","","","","","","","","","211","","","","2","3","[{""stimulus"":""img/2to3/1.png"",""time"":100},{""stimulus"":""img/2to3/2.png"",""time"":200},{""stimulus"":""img/2to3/3.png"",""time"":298},{""stimulus"":""img/2to3/4.png"",""time"":398},{""stimulus"":""img/2to3/5.png"",""time"":496},{""stimulus"":""img/2to3/6.png"",""time"":596},{""stimulus"":""img/2to3/7.png"",""time"":694},{""stimulus"":""img/2to3/8.png"",""time"":793},{""stimulus"":""img/2to3/9.png"",""time"":893},{""stimulus"":""img/2to3/10.png"",""time"":992},{""stimulus"":""img/2to3/11.png"",""time"":1091},{""stimulus"":""img/2to3/12.png"",""time"":1189}]","[]"
"image-keyboard-response","35","105077","0.0-5.0-1.15","63034df51d918e1e3b97e5ce","bdp_cybrbll","Sun Mar 26 2023 18:13:58 GMT-0400 (Eastern Daylight Time)","492369","3","1","","null","","","","observe","","","img/3to2/1.png","null","210","473","0.5","0.5","3","2","",""
"animation","36","106365","0.0-5.0-2.15","63034df51d918e1e3b97e5ce","bdp_cybrbll","Sun Mar 26 2023 18:13:58 GMT-0400 (Eastern Daylight Time)","492369","3","1","","","","","","","","","","","210","","","","3","2","[{""stimulus"":""img/3to2/1.png"",""time"":101},{""stimulus"":""img/3to2/2.png"",""time"":200},{""stimulus"":""img/3to2/3.png"",""time"":298},{""stimulus"":""img/3to2/4.png"",""time"":397},{""stimulus"":""img/3to2/5.png"",""time"":496},{""stimulus"":""img/3to2/6.png"",""time"":595},{""stimulus"":""img/3to2/7.png"",""time"":694},{""stimulus"":""img/3to2/8.png"",""time"":793},{""stimulus"":""img/3to2/9.png"",""time"":892},{""stimulus"":""img/3to2/10.png"",""time"":991},{""stimulus"":""img/3to2/11.png"",""time"":1090},{""stimulus"":""img/3to2/12.png"",""time"":1189}]","[]"
"image-keyboard-response","37","106901","0.0-5.0-1.16","63034df51d918e1e3b97e5ce","bdp_cybrbll","Sun Mar 26 2023 18:13:58 GMT-0400 (Eastern Daylight Time)","492369","3","1","","536","","","","choice","","","img/2to1/1.png","1","209","162","0.5","0.5","2","1","",""
"animation","38","108190","0.0-5.0-2.16","63034df51d918e1e3b97e5ce","bdp_cybrbll","Sun Mar 26 2023 18:13:58 GMT-0400 (Eastern Daylight Time)","492369","3","1","","","","","","","","","","","209","","","","2","1","[{""stimulus"":""img/2to1/1.png"",""time"":101},{""stimulus"":""img/2to1/2.png"",""time"":199},{""stimulus"":""img/2to1/3.png"",""time"":299},{""stimulus"":""img/2to1/4.png"",""time"":397},{""stimulus"":""img/2to1/5.png"",""time"":497},{""stimulus"":""img/2to1/6.png"",""time"":595},{""stimulus"":""img/2to1/7.png"",""time"":694},{""stimulus"":""img/2to1/8.png"",""time"":793},{""stimulus"":""img/2to1/9.png"",""time"":892},{""stimulus"":""img/2to1/10.png"",""time"":991},{""stimulus"":""img/2to1/11.png"",""time"":1091},{""stimulus"":""img/2to1/12.png"",""time"":1189}]","[]"
"image-keyboard-response","39","108908","0.0-5.0-1.17","63034df51d918e1e3b97e5ce","bdp_cybrbll","Sun Mar 26 2023 18:13:58 GMT-0400 (Eastern Daylight Time)","492369","3","1","","null","","","","observe","","","img/1to3/1.png","null","208","716","0.5","0.5","1","3","",""
"animation","40","110197","0.0-5.0-2.17","63034df51d918e1e3b97e5ce","bdp_cybrbll","Sun Mar 26 2023 18:13:58 GMT-0400 (Eastern Daylight Time)","492369","3","1","","","","","","","","","","","208","","","","1","3","[{""stimulus"":""img/1to3/1.png"",""time"":100},{""stimulus"":""img/1to3/2.png"",""time"":199},{""stimulus"":""img/1to3/3.png"",""time"":298},{""stimulus"":""img/1to3/4.png"",""time"":397},{""stimulus"":""img/1to3/5.png"",""time"":497},{""stimulus"":""img/1to3/6.png"",""time"":595},{""stimulus"":""img/1to3/7.png"",""time"":704},{""stimulus"":""img/1to3/8.png"",""time"":793},{""stimulus"":""img/1to3/9.png"",""time"":892},{""stimulus"":""img/1to3/10.png"",""time"":991},{""stimulus"":""img/1to3/11.png"",""time"":1090},{""stimulus"":""img/1to3/12.png"",""time"":1189}]","[]"
"image-keyboard-response","41","110792","0.0-5.0-1.18","63034df51d918e1e3b97e5ce","bdp_cybrbll","Sun Mar 26 2023 18:13:58 GMT-0400 (Eastern Daylight Time)","492369","3","1","","null","","","","observe","","","img/3to2/1.png","null","207","594","0.5","0.5","3","2","",""
"animation","42","112081","0.0-5.0-2.18","63034df51d918e1e3b97e5ce","bdp_cybrbll","Sun Mar 26 2023 18:13:58 GMT-0400 (Eastern Daylight Time)","492369","3","1","","","","","","","","","","","207","","","","3","2","[{""stimulus"":""img/3to2/1.png"",""time"":100},{""stimulus"":""img/3to2/2.png"",""time"":199},{""stimulus"":""img/3to2/3.png"",""time"":298},{""stimulus"":""img/3to2/4.png"",""time"":397},{""stimulus"":""img/3to2/5.png"",""time"":496},{""stimulus"":""img/3to2/6.png"",""time"":595},{""stimulus"":""img/3to2/7.png"",""time"":694},{""stimulus"":""img/3to2/8.png"",""time"":793},{""stimulus"":""img/3to2/9.png"",""time"":892},{""stimulus"":""img/3to2/10.png"",""time"":991},{""stimulus"":""img/3to2/11.png"",""time"":1090},{""stimulus"":""img/3to2/12.png"",""time"":1189}]","[]"
"image-keyboard-response","43","113515","0.0-5.0-1.19","63034df51d918e1e3b97e5ce","bdp_cybrbll","Sun Mar 26 2023 18:13:58 GMT-0400 (Eastern Daylight Time)","492369","3","1","","1434","","","","choice","","","img/2to1/1.png","1","206","228","0.5","0.5","2","1","",""
"animation","44","114803","0.0-5.0-2.19","63034df51d918e1e3b97e5ce","bdp_cybrbll","Sun Mar 26 2023 18:13:58 GMT-0400 (Eastern Daylight Time)","492369","3","1","","","","","","","","","","","206","","","","2","1","[{""stimulus"":""img/2to1/1.png"",""time"":99},{""stimulus"":""img/2to1/2.png"",""time"":198},{""stimulus"":""img/2to1/3.png"",""time"":298},{""stimulus"":""img/2to1/4.png"",""time"":396},{""stimulus"":""img/2to1/5.png"",""time"":496},{""stimulus"":""img/2to1/6.png"",""time"":602},{""stimulus"":""img/2to1/7.png"",""time"":694},{""stimulus"":""img/2to1/8.png"",""time"":792},{""stimulus"":""img/2to1/9.png"",""time"":891},{""stimulus"":""img/2to1/10.png"",""time"":991},{""stimulus"":""img/2to1/11.png"",""time"":1089},{""stimulus"":""img/2to1/12.png"",""time"":1189}]","[]"
"image-keyboard-response","45","115002","0.0-5.0-1.20","63034df51d918e1e3b97e5ce","bdp_cybrbll","Sun Mar 26 2023 18:13:58 GMT-0400 (Eastern Daylight Time)","492369","3","1","","null","","","","observe","","","img/1to3/1.png","null","205","197","0.5","0.5","1","2","",""
"animation","46","116290","0.0-5.0-2.20","63034df51d918e1e3b97e5ce","bdp_cybrbll","Sun Mar 26 2023 18:13:58 GMT-0400 (Eastern Daylight Time)","492369","3","1","","","","","","","","","","","205","","","","1","2","[{""stimulus"":""img/1to2/1.png"",""time"":100},{""stimulus"":""img/1to2/2.png"",""time"":199},{""stimulus"":""img/1to2/3.png"",""time"":299},{""stimulus"":""img/1to2/4.png"",""time"":398},{""stimulus"":""img/1to2/5.png"",""time"":497},{""stimulus"":""img/1to2/6.png"",""time"":596},{""stimulus"":""img/1to2/7.png"",""time"":694},{""stimulus"":""img/1to2/8.png"",""time"":793},{""stimulus"":""img/1to2/9.png"",""time"":892},{""stimulus"":""img/1to2/10.png"",""time"":991},{""stimulus"":""img/1to2/11.png"",""time"":1091},{""stimulus"":""img/1to2/12.png"",""time"":1189}]","[]"
"image-keyboard-response","47","116788","0.0-5.0-1.21","63034df51d918e1e3b97e5ce","bdp_cybrbll","Sun Mar 26 2023 18:13:58 GMT-0400 (Eastern Daylight Time)","492369","3","1","","497","","","","choice","","","img/2to1/1.png","2","204","530","0.5","0.5","2","3","",""
"animation","48","118076","0.0-5.0-2.21","63034df51d918e1e3b97e5ce","bdp_cybrbll","Sun Mar 26 2023 18:13:58 GMT-0400 (Eastern Daylight Time)","492369","3","1","","","","","","","","","","","204","","","","2","3","[{""stimulus"":""img/2to3/1.png"",""time"":101},{""stimulus"":""img/2to3/2.png"",""time"":200},{""stimulus"":""img/2to3/3.png"",""time"":298},{""stimulus"":""img/2to3/4.png"",""time"":397},{""stimulus"":""img/2to3/5.png"",""time"":497},{""stimulus"":""img/2to3/6.png"",""time"":595},{""stimulus"":""img/2to3/7.png"",""time"":695},{""stimulus"":""img/2to3/8.png"",""time"":793},{""stimulus"":""img/2to3/9.png"",""time"":893},{""stimulus"":""img/2to3/10.png"",""time"":992},{""stimulus"":""img/2to3/11.png"",""time"":1090},{""stimulus"":""img/2to3/12.png"",""time"":1189}]","[]"
"image-keyboard-response","49","118402","0.0-5.0-1.22","63034df51d918e1e3b97e5ce","bdp_cybrbll","Sun Mar 26 2023 18:13:58 GMT-0400 (Eastern Daylight Time)","492369","3","1","","null","","","","observe","","","img/3to2/1.png","null","203","325","0.5","0.5","3","2","",""
"animation","50","119690","0.0-5.0-2.22","63034df51d918e1e3b97e5ce","bdp_cybrbll","Sun Mar 26 2023 18:13:58 GMT-0400 (Eastern Daylight Time)","492369","3","1","","","","","","","","","","","203","","","","3","2","[{""stimulus"":""img/3to2/1.png"",""time"":100},{""stimulus"":""img/3to2/2.png"",""time"":199},{""stimulus"":""img/3to2/3.png"",""time"":299},{""stimulus"":""img/3to2/4.png"",""time"":398},{""stimulus"":""img/3to2/5.png"",""time"":496},{""stimulus"":""img/3to2/6.png"",""time"":595},{""stimulus"":""img/3to2/7.png"",""time"":695},{""stimulus"":""img/3to2/8.png"",""time"":793},{""stimulus"":""img/3to2/9.png"",""time"":892},{""stimulus"":""img/3to2/10.png"",""time"":991},{""stimulus"":""img/3to2/11.png"",""time"":1090},{""stimulus"":""img/3to2/12.png"",""time"":1189}]","[]"
"image-keyboard-response","51","120081","0.0-5.0-1.23","63034df51d918e1e3b97e5ce","bdp_cybrbll","Sun Mar 26 2023 18:13:58 GMT-0400 (Eastern Daylight Time)","492369","3","1","","390","","","","choice","","","img/2to1/1.png","1","202","445","0.5","0.5","2","1","",""
"animation","52","121368","0.0-5.0-2.23","63034df51d918e1e3b97e5ce","bdp_cybrbll","Sun Mar 26 2023 18:13:58 GMT-0400 (Eastern Daylight Time)","492369","3","1","","","","","","","","","","","202","","","","2","1","[{""stimulus"":""img/2to1/1.png"",""time"":100},{""stimulus"":""img/2to1/2.png"",""time"":199},{""stimulus"":""img/2to1/3.png"",""time"":298},{""stimulus"":""img/2to1/4.png"",""time"":396},{""stimulus"":""img/2to1/5.png"",""time"":496},{""stimulus"":""img/2to1/6.png"",""time"":608},{""stimulus"":""img/2to1/7.png"",""time"":693},{""stimulus"":""img/2to1/8.png"",""time"":792},{""stimulus"":""img/2to1/9.png"",""time"":892},{""stimulus"":""img/2to1/10.png"",""time"":991},{""stimulus"":""img/2to1/11.png"",""time"":1089},{""stimulus"":""img/2to1/12.png"",""time"":1188}]","[]"
"image-keyboard-response","53","121812","0.0-5.0-1.24","63034df51d918e1e3b97e5ce","bdp_cybrbll","Sun Mar 26 2023 18:13:58 GMT-0400 (Eastern Daylight Time)","492369","3","1","","null","","","","observe","","","img/1to3/1.png","null","201","442","0.5","0.5","1","3","",""
"animation","54","123100","0.0-5.0-2.24","63034df51d918e1e3b97e5ce","bdp_cybrbll","Sun Mar 26 2023 18:13:58 GMT-0400 (Eastern Daylight Time)","492369","3","1","","","","","","","","","","","201","","","","1","3","[{""stimulus"":""img/1to3/1.png"",""time"":101},{""stimulus"":""img/1to3/2.png"",""time"":199},{""stimulus"":""img/1to3/3.png"",""time"":298},{""stimulus"":""img/1to3/4.png"",""time"":398},{""stimulus"":""img/1to3/5.png"",""time"":497},{""stimulus"":""img/1to3/6.png"",""time"":595},{""stimulus"":""img/1to3/7.png"",""time"":694},{""stimulus"":""img/1to3/8.png"",""time"":793},{""stimulus"":""img/1to3/9.png"",""time"":893},{""stimulus"":""img/1to3/10.png"",""time"":991},{""stimulus"":""img/1to3/11.png"",""time"":1090},{""stimulus"":""img/1to3/12.png"",""time"":1190}]","[]"
"image-keyboard-response","55","123426","0.0-5.0-1.25","63034df51d918e1e3b97e5ce","bdp_cybrbll","Sun Mar 26 2023 18:13:58 GMT-0400 (Eastern Daylight Time)","492369","3","1","","null","","","","observe","","","img/3to2/1.png","null","200","325","0.5","0.5","3","2","",""
"animation","56","124714","0.0-5.0-2.25","63034df51d918e1e3b97e5ce","bdp_cybrbll","Sun Mar 26 2023 18:13:58 GMT-0400 (Eastern Daylight Time)","492369","3","1","","","","","","","","","","","200","","","","3","2","[{""stimulus"":""img/3to2/1.png"",""time"":100},{""stimulus"":""img/3to2/2.png"",""time"":199},{""stimulus"":""img/3to2/3.png"",""time"":298},{""stimulus"":""img/3to2/4.png"",""time"":398},{""stimulus"":""img/3to2/5.png"",""time"":496},{""stimulus"":""img/3to2/6.png"",""time"":595},{""stimulus"":""img/3to2/7.png"",""time"":694},{""stimulus"":""img/3to2/8.png"",""time"":793},{""stimulus"":""img/3to2/9.png"",""time"":894},{""stimulus"":""img/3to2/10.png"",""time"":992},{""stimulus"":""img/3to2/11.png"",""time"":1090},{""stimulus"":""img/3to2/12.png"",""time"":1189}]","[]"
"image-keyboard-response","57","125320","0.0-5.0-1.26","63034df51d918e1e3b97e5ce","bdp_cybrbll","Sun Mar 26 2023 18:13:58 GMT-0400 (Eastern Daylight Time)","492369","3","1","","605","","","","choice","","","img/2to1/1.png","1","199","276","0.5","0.5","2","1","",""
"animation","58","126608","0.0-5.0-2.26","63034df51d918e1e3b97e5ce","bdp_cybrbll","Sun Mar 26 2023 18:13:58 GMT-0400 (Eastern Daylight Time)","492369","3","1","","","","","","","","","","","199","","","","2","1","[{""stimulus"":""img/2to1/1.png"",""time"":99},{""stimulus"":""img/2to1/2.png"",""time"":199},{""stimulus"":""img/2to1/3.png"",""time"":298},{""stimulus"":""img/2to1/4.png"",""time"":396},{""stimulus"":""img/2to1/5.png"",""time"":495},{""stimulus"":""img/2to1/6.png"",""time"":594},{""stimulus"":""img/2to1/7.png"",""time"":694},{""stimulus"":""img/2to1/8.png"",""time"":793},{""stimulus"":""img/2to1/9.png"",""time"":891},{""stimulus"":""img/2to1/10.png"",""time"":990},{""stimulus"":""img/2to1/11.png"",""time"":1089},{""stimulus"":""img/2to1/12.png"",""time"":1189}]","[]"
"image-keyboard-response","59","127041","0.0-5.0-1.27","63034df51d918e1e3b97e5ce","bdp_cybrbll","Sun Mar 26 2023 18:13:58 GMT-0400 (Eastern Daylight Time)","492369","3","1","","null","","","","observe","","","img/1to3/1.png","null","198","432","0.5","0.5","1","3","",""
"animation","60","128329","0.0-5.0-2.27","63034df51d918e1e3b97e5ce","bdp_cybrbll","Sun Mar 26 2023 18:13:58 GMT-0400 (Eastern Daylight Time)","492369","3","1","","","","","","","","","","","198","","","","1","3","[{""stimulus"":""img/1to3/1.png"",""time"":100},{""stimulus"":""img/1to3/2.png"",""time"":199},{""stimulus"":""img/1to3/3.png"",""time"":298},{""stimulus"":""img/1to3/4.png"",""time"":397},{""stimulus"":""img/1to3/5.png"",""time"":496},{""stimulus"":""img/1to3/6.png"",""time"":596},{""stimulus"":""img/1to3/7.png"",""time"":694},{""stimulus"":""img/1to3/8.png"",""time"":794},{""stimulus"":""img/1to3/9.png"",""time"":892},{""stimulus"":""img/1to3/10.png"",""time"":992},{""stimulus"":""img/1to3/11.png"",""time"":1090},{""stimulus"":""img/1to3/12.png"",""time"":1190}]","[]"
"image-keyboard-response","61","128747","0.0-5.0-1.28","63034df51d918e1e3b97e5ce","bdp_cybrbll","Sun Mar 26 2023 18:13:58 GMT-0400 (Eastern Daylight Time)","492369","3","1","","null","","","","observe","","","img/3to2/1.png","null","197","417","0.5","0.5","3","2","",""
"animation","62","130035","0.0-5.0-2.28","63034df51d918e1e3b97e5ce","bdp_cybrbll","Sun Mar 26 2023 18:13:58 GMT-0400 (Eastern Daylight Time)","492369","3","1","","","","","","","","","","","197","","","","3","2","[{""stimulus"":""img/3to2/1.png"",""time"":100},{""stimulus"":""img/3to2/2.png"",""time"":199},{""stimulus"":""img/3to2/3.png"",""time"":299},{""stimulus"":""img/3to2/4.png"",""time"":397},{""stimulus"":""img/3to2/5.png"",""time"":497},{""stimulus"":""img/3to2/6.png"",""time"":596},{""stimulus"":""img/3to2/7.png"",""time"":694},{""stimulus"":""img/3to2/8.png"",""time"":794},{""stimulus"":""img/3to2/9.png"",""time"":894},{""stimulus"":""img/3to2/10.png"",""time"":992},{""stimulus"":""img/3to2/11.png"",""time"":1090},{""stimulus"":""img/3to2/12.png"",""time"":1190}]","[]"
"image-keyboard-response","63","130378","0.0-5.0-1.29","63034df51d918e1e3b97e5ce","bdp_cybrbll","Sun Mar 26 2023 18:13:58 GMT-0400 (Eastern Daylight Time)","492369","3","1","","342","","","","choice","","","img/2to1/1.png","1","196","213","0.5","0.5","2","1","",""
"animation","64","131666","0.0-5.0-2.29","63034df51d918e1e3b97e5ce","bdp_cybrbll","Sun Mar 26 2023 18:13:58 GMT-0400 (Eastern Daylight Time)","492369","3","1","","","","","","","","","","","196","","","","2","1","[{""stimulus"":""img/2to1/1.png"",""time"":100},{""stimulus"":""img/2to1/2.png"",""time"":198},{""stimulus"":""img/2to1/3.png"",""time"":298},{""stimulus"":""img/2to1/4.png"",""time"":396},{""stimulus"":""img/2to1/5.png"",""time"":495},{""stimulus"":""img/2to1/6.png"",""time"":595},{""stimulus"":""img/2to1/7.png"",""time"":694},{""stimulus"":""img/2to1/8.png"",""time"":793},{""stimulus"":""img/2to1/9.png"",""time"":891},{""stimulus"":""img/2to1/10.png"",""time"":990},{""stimulus"":""img/2to1/11.png"",""time"":1090},{""stimulus"":""img/2to1/12.png"",""time"":1188}]","[]"
"image-keyboard-response","65","132348","0.0-5.0-1.30","63034df51d918e1e3b97e5ce","bdp_cybrbll","Sun Mar 26 2023 18:13:58 GMT-0400 (Eastern Daylight Time)","492369","3","1","","null","","","","observe","","","img/1to3/1.png","null","195","680","0.5","0.5","1","3","",""
"animation","66","133637","0.0-5.0-2.30","63034df51d918e1e3b97e5ce","bdp_cybrbll","Sun Mar 26 2023 18:13:58 GMT-0400 (Eastern Daylight Time)","492369","3","1","","","","","","","","","","","195","","","","1","3","[{""stimulus"":""img/1to3/1.png"",""time"":100},{""stimulus"":""img/1to3/2.png"",""time"":199},{""stimulus"":""img/1to3/3.png"",""time"":298},{""stimulus"":""img/1to3/4.png"",""time"":398},{""stimulus"":""img/1to3/5.png"",""time"":497},{""stimulus"":""img/1to3/6.png"",""time"":595},{""stimulus"":""img/1to3/7.png"",""time"":694},{""stimulus"":""img/1to3/8.png"",""time"":793},{""stimulus"":""img/1to3/9.png"",""time"":892},{""stimulus"":""img/1to3/10.png"",""time"":991},{""stimulus"":""img/1to3/11.png"",""time"":1091},{""stimulus"":""img/1to3/12.png"",""time"":1189}]","[]"
"image-keyboard-response","67","134089","0.0-5.0-1.31","63034df51d918e1e3b97e5ce","bdp_cybrbll","Sun Mar 26 2023 18:13:58 GMT-0400 (Eastern Daylight Time)","492369","3","1","","null","","","","observe","","","img/3to2/1.png","null","194","450","0.5","0.5","3","1","",""
"animation","68","135378","0.0-5.0-2.31","63034df51d918e1e3b97e5ce","bdp_cybrbll","Sun Mar 26 2023 18:13:58 GMT-0400 (Eastern Daylight Time)","492369","3","1","","","","","","","","","","","194","","","","3","1","[{""stimulus"":""img/3to1/1.png"",""time"":100},{""stimulus"":""img/3to1/2.png"",""time"":199},{""stimulus"":""img/3to1/3.png"",""time"":298},{""stimulus"":""img/3to1/4.png"",""time"":397},{""stimulus"":""img/3to1/5.png"",""time"":496},{""stimulus"":""img/3to1/6.png"",""time"":596},{""stimulus"":""img/3to1/7.png"",""time"":695},{""stimulus"":""img/3to1/8.png"",""time"":794},{""stimulus"":""img/3to1/9.png"",""time"":892},{""stimulus"":""img/3to1/10.png"",""time"":991},{""stimulus"":""img/3to1/11.png"",""time"":1090},{""stimulus"":""img/3to1/12.png"",""time"":1189}]","[]"
"image-keyboard-response","69","135829","0.0-5.0-1.32","63034df51d918e1e3b97e5ce","bdp_cybrbll","Sun Mar 26 2023 18:13:58 GMT-0400 (Eastern Daylight Time)","492369","3","1","","null","","","","observe","","","img/1to3/1.png","null","193","450","0.5","0.5","1","3","",""
"animation","70","137118","0.0-5.0-2.32","63034df51d918e1e3b97e5ce","bdp_cybrbll","Sun Mar 26 2023 18:13:58 GMT-0400 (Eastern Daylight Time)","492369","3","1","","","","","","","","","","","193","","","","1","3","[{""stimulus"":""img/1to3/1.png"",""time"":100},{""stimulus"":""img/1to3/2.png"",""time"":200},{""stimulus"":""img/1to3/3.png"",""time"":312},{""stimulus"":""img/1to3/4.png"",""time"":398},{""stimulus"":""img/1to3/5.png"",""time"":496},{""stimulus"":""img/1to3/6.png"",""time"":596},{""stimulus"":""img/1to3/7.png"",""time"":694},{""stimulus"":""img/1to3/8.png"",""time"":793},{""stimulus"":""img/1to3/9.png"",""time"":892},{""stimulus"":""img/1to3/10.png"",""time"":991},{""stimulus"":""img/1to3/11.png"",""time"":1090},{""stimulus"":""img/1to3/12.png"",""time"":1190}]","[]"
"image-keyboard-response","71","137364","0.0-5.0-1.33","63034df51d918e1e3b97e5ce","bdp_cybrbll","Sun Mar 26 2023 18:13:58 GMT-0400 (Eastern Daylight Time)","492369","3","1","","null","","","","observe","","","img/3to2/1.png","null","192","245","0.5","0.5","3","1","",""
"animation","72","138661","0.0-5.0-2.33","63034df51d918e1e3b97e5ce","bdp_cybrbll","Sun Mar 26 2023 18:13:58 GMT-0400 (Eastern Daylight Time)","492369","3","1","","","","","","","","","","","192","","","","3","1","[{""stimulus"":""img/3to1/1.png"",""time"":100},{""stimulus"":""img/3to1/2.png"",""time"":200},{""stimulus"":""img/3to1/3.png"",""time"":299},{""stimulus"":""img/3to1/4.png"",""time"":397},{""stimulus"":""img/3to1/5.png"",""time"":496},{""stimulus"":""img/3to1/6.png"",""time"":596},{""stimulus"":""img/3to1/7.png"",""time"":694},{""stimulus"":""img/3to1/8.png"",""time"":794},{""stimulus"":""img/3to1/9.png"",""time"":892},{""stimulus"":""img/3to1/10.png"",""time"":991},{""stimulus"":""img/3to1/11.png"",""time"":1090},{""stimulus"":""img/3to1/12.png"",""time"":1189}]","[]"
"image-keyboard-response","73","139398","0.0-5.0-1.34","63034df51d918e1e3b97e5ce","bdp_cybrbll","Sun Mar 26 2023 18:13:58 GMT-0400 (Eastern Daylight Time)","492369","3","1","","null","","","","observe","","","img/1to3/1.png","null","191","736","0.5","0.5","1","3","",""
"animation","74","140686","0.0-5.0-2.34","63034df51d918e1e3b97e5ce","bdp_cybrbll","Sun Mar 26 2023 18:13:58 GMT-0400 (Eastern Daylight Time)","492369","3","1","","","","","","","","","","","191","","","","1","3","[{""stimulus"":""img/1to3/1.png"",""time"":101},{""stimulus"":""img/1to3/2.png"",""time"":199},{""stimulus"":""img/1to3/3.png"",""time"":313},{""stimulus"":""img/1to3/4.png"",""time"":397},{""stimulus"":""img/1to3/5.png"",""time"":496},{""stimulus"":""img/1to3/6.png"",""time"":595},{""stimulus"":""img/1to3/7.png"",""time"":694},{""stimulus"":""img/1to3/8.png"",""time"":793},{""stimulus"":""img/1to3/9.png"",""time"":892},{""stimulus"":""img/1to3/10.png"",""time"":992},{""stimulus"":""img/1to3/11.png"",""time"":1090},{""stimulus"":""img/1to3/12.png"",""time"":1189}]","[]"
"image-keyboard-response","75","140975","0.0-5.0-1.35","63034df51d918e1e3b97e5ce","bdp_cybrbll","Sun Mar 26 2023 18:13:58 GMT-0400 (Eastern Daylight Time)","492369","3","1","","null","","","","observe","","","img/3to2/1.png","null","190","287","0.5","0.5","3","1","",""
"animation","76","142264","0.0-5.0-2.35","63034df51d918e1e3b97e5ce","bdp_cybrbll","Sun Mar 26 2023 18:13:58 GMT-0400 (Eastern Daylight Time)","492369","3","1","","","","","","","","","","","190","","","","3","1","[{""stimulus"":""img/3to1/1.png"",""time"":100},{""stimulus"":""img/3to1/2.png"",""time"":200},{""stimulus"":""img/3to1/3.png"",""time"":298},{""stimulus"":""img/3to1/4.png"",""time"":398},{""stimulus"":""img/3to1/5.png"",""time"":496},{""stimulus"":""img/3to1/6.png"",""time"":596},{""stimulus"":""img/3to1/7.png"",""time"":695},{""stimulus"":""img/3to1/8.png"",""time"":793},{""stimulus"":""img/3to1/9.png"",""time"":892},{""stimulus"":""img/3to1/10.png"",""time"":992},{""stimulus"":""img/3to1/11.png"",""time"":1091},{""stimulus"":""img/3to1/12.png"",""time"":1190}]","[]"
"image-keyboard-response","77","143113","0.0-5.0-1.36","63034df51d918e1e3b97e5ce","bdp_cybrbll","Sun Mar 26 2023 18:13:58 GMT-0400 (Eastern Daylight Time)","492369","3","1","","null","","","","observe","","","img/1to3/1.png","null","189","849","0.5","0.5","1","3","",""
"animation","78","144401","0.0-5.0-2.36","63034df51d918e1e3b97e5ce","bdp_cybrbll","Sun Mar 26 2023 18:13:58 GMT-0400 (Eastern Daylight Time)","492369","3","1","","","","","","","","","","","189","","","","1","3","[{""stimulus"":""img/1to3/1.png"",""time"":100},{""stimulus"":""img/1to3/2.png"",""time"":199},{""stimulus"":""img/1to3/3.png"",""time"":298},{""stimulus"":""img/1to3/4.png"",""time"":397},{""stimulus"":""img/1to3/5.png"",""time"":497},{""stimulus"":""img/1to3/6.png"",""time"":595},{""stimulus"":""img/1to3/7.png"",""time"":694},{""stimulus"":""img/1to3/8.png"",""time"":793},{""stimulus"":""img/1to3/9.png"",""time"":892},{""stimulus"":""img/1to3/10.png"",""time"":991},{""stimulus"":""img/1to3/11.png"",""time"":1091},{""stimulus"":""img/1to3/12.png"",""time"":1190}]","[]"
"image-keyboard-response","79","144746","0.0-5.0-1.37","63034df51d918e1e3b97e5ce","bdp_cybrbll","Sun Mar 26 2023 18:13:58 GMT-0400 (Eastern Daylight Time)","492369","3","1","","null","","","","observe","","","img/3to2/1.png","null","188","344","0.5","0.5","3","1","",""
"animation","80","146034","0.0-5.0-2.37","63034df51d918e1e3b97e5ce","bdp_cybrbll","Sun Mar 26 2023 18:13:58 GMT-0400 (Eastern Daylight Time)","492369","3","1","","","","","","","","","","","188","","","","3","1","[{""stimulus"":""img/3to1/1.png"",""time"":100},{""stimulus"":""img/3to1/2.png"",""time"":200},{""stimulus"":""img/3to1/3.png"",""time"":299},{""stimulus"":""img/3to1/4.png"",""time"":398},{""stimulus"":""img/3to1/5.png"",""time"":496},{""stimulus"":""img/3to1/6.png"",""time"":596},{""stimulus"":""img/3to1/7.png"",""time"":695},{""stimulus"":""img/3to1/8.png"",""time"":793},{""stimulus"":""img/3to1/9.png"",""time"":893},{""stimulus"":""img/3to1/10.png"",""time"":991},{""stimulus"":""img/3to1/11.png"",""time"":1091},{""stimulus"":""img/3to1/12.png"",""time"":1190}]","[]"
"image-keyboard-response","81","146721","0.0-5.0-1.38","63034df51d918e1e3b97e5ce","bdp_cybrbll","Sun Mar 26 2023 18:13:58 GMT-0400 (Eastern Daylight Time)","492369","3","1","","null","","","","observe","","","img/1to3/1.png","null","187","685","0.5","0.5","1","2","",""
"animation","82","148009","0.0-5.0-2.38","63034df51d918e1e3b97e5ce","bdp_cybrbll","Sun Mar 26 2023 18:13:58 GMT-0400 (Eastern Daylight Time)","492369","3","1","","","","","","","","","","","187","","","","1","2","[{""stimulus"":""img/1to2/1.png"",""time"":101},{""stimulus"":""img/1to2/2.png"",""time"":200},{""stimulus"":""img/1to2/3.png"",""time"":299},{""stimulus"":""img/1to2/4.png"",""time"":397},{""stimulus"":""img/1to2/5.png"",""time"":497},{""stimulus"":""img/1to2/6.png"",""time"":595},{""stimulus"":""img/1to2/7.png"",""time"":694},{""stimulus"":""img/1to2/8.png"",""time"":793},{""stimulus"":""img/1to2/9.png"",""time"":893},{""stimulus"":""img/1to2/10.png"",""time"":991},{""stimulus"":""img/1to2/11.png"",""time"":1090},{""stimulus"":""img/1to2/12.png"",""time"":1189}]","[]"
"image-keyboard-response","83","148916","0.0-5.0-1.39","63034df51d918e1e3b97e5ce","bdp_cybrbll","Sun Mar 26 2023 18:13:58 GMT-0400 (Eastern Daylight Time)","492369","3","1","","906","","","","choice","","","img/2to1/1.png","2","186","472","0.5","0.5","2","3","",""
"animation","84","150204","0.0-5.0-2.39","63034df51d918e1e3b97e5ce","bdp_cybrbll","Sun Mar 26 2023 18:13:58 GMT-0400 (Eastern Daylight Time)","492369","3","1","","","","","","","","","","","186","","","","2","3","[{""stimulus"":""img/2to3/1.png"",""time"":100},{""stimulus"":""img/2to3/2.png"",""time"":199},{""stimulus"":""img/2to3/3.png"",""time"":299},{""stimulus"":""img/2to3/4.png"",""time"":397},{""stimulus"":""img/2to3/5.png"",""time"":497},{""stimulus"":""img/2to3/6.png"",""time"":595},{""stimulus"":""img/2to3/7.png"",""time"":695},{""stimulus"":""img/2to3/8.png"",""time"":793},{""stimulus"":""img/2to3/9.png"",""time"":893},{""stimulus"":""img/2to3/10.png"",""time"":991},{""stimulus"":""img/2to3/11.png"",""time"":1090},{""stimulus"":""img/2to3/12.png"",""time"":1189}]","[]"
"image-keyboard-response","85","150732","0.0-5.0-1.40","63034df51d918e1e3b97e5ce","bdp_cybrbll","Sun Mar 26 2023 18:13:58 GMT-0400 (Eastern Daylight Time)","492369","3","1","","null","","","","observe","","","img/3to2/1.png","null","185","526","0.5","0.5","3","2","",""
"animation","86","152021","0.0-5.0-2.40","63034df51d918e1e3b97e5ce","bdp_cybrbll","Sun Mar 26 2023 18:13:58 GMT-0400 (Eastern Daylight Time)","492369","3","1","","","","","","","","","","","185","","","","3","2","[{""stimulus"":""img/3to2/1.png"",""time"":100},{""stimulus"":""img/3to2/2.png"",""time"":200},{""stimulus"":""img/3to2/3.png"",""time"":298},{""stimulus"":""img/3to2/4.png"",""time"":397},{""stimulus"":""img/3to2/5.png"",""time"":497},{""stimulus"":""img/3to2/6.png"",""time"":595},{""stimulus"":""img/3to2/7.png"",""time"":695},{""stimulus"":""img/3to2/8.png"",""time"":794},{""stimulus"":""img/3to2/9.png"",""time"":892},{""stimulus"":""img/3to2/10.png"",""time"":991},{""stimulus"":""img/3to2/11.png"",""time"":1090},{""stimulus"":""img/3to2/12.png"",""time"":1189}]","[]"
"image-keyboard-response","87","153070","0.0-5.0-1.41","63034df51d918e1e3b97e5ce","bdp_cybrbll","Sun Mar 26 2023 18:13:58 GMT-0400 (Eastern Daylight Time)","492369","3","1","","1049","","","","choice","","","img/2to1/1.png","2","184","1353","0.5","0.5","2","3","",""
"animation","88","154359","0.0-5.0-2.41","63034df51d918e1e3b97e5ce","bdp_cybrbll","Sun Mar 26 2023 18:13:58 GMT-0400 (Eastern Daylight Time)","492369","3","1","","","","","","","","","","","184","","","","2","3","[{""stimulus"":""img/2to3/1.png"",""time"":101},{""stimulus"":""img/2to3/2.png"",""time"":199},{""stimulus"":""img/2to3/3.png"",""time"":298},{""stimulus"":""img/2to3/4.png"",""time"":397},{""stimulus"":""img/2to3/5.png"",""time"":496},{""stimulus"":""img/2to3/6.png"",""time"":596},{""stimulus"":""img/2to3/7.png"",""time"":694},{""stimulus"":""img/2to3/8.png"",""time"":794},{""stimulus"":""img/2to3/9.png"",""time"":893},{""stimulus"":""img/2to3/10.png"",""time"":991},{""stimulus"":""img/2to3/11.png"",""time"":1090},{""stimulus"":""img/2to3/12.png"",""time"":1189}]","[]"
"image-keyboard-response","89","155052","0.0-5.0-1.42","63034df51d918e1e3b97e5ce","bdp_cybrbll","Sun Mar 26 2023 18:13:58 GMT-0400 (Eastern Daylight Time)","492369","3","1","","null","","","","observe","","","img/3to2/1.png","null","183","691","0.5","0.5","3","2","",""
"animation","90","156340","0.0-5.0-2.42","63034df51d918e1e3b97e5ce","bdp_cybrbll","Sun Mar 26 2023 18:13:58 GMT-0400 (Eastern Daylight Time)","492369","3","1","","","","","","","","","","","183","","","","3","2","[{""stimulus"":""img/3to2/1.png"",""time"":100},{""stimulus"":""img/3to2/2.png"",""time"":200},{""stimulus"":""img/3to2/3.png"",""time"":298},{""stimulus"":""img/3to2/4.png"",""time"":397},{""stimulus"":""img/3to2/5.png"",""time"":496},{""stimulus"":""img/3to2/6.png"",""time"":596},{""stimulus"":""img/3to2/7.png"",""time"":695},{""stimulus"":""img/3to2/8.png"",""time"":793},{""stimulus"":""img/3to2/9.png"",""time"":892},{""stimulus"":""img/3to2/10.png"",""time"":992},{""stimulus"":""img/3to2/11.png"",""time"":1090},{""stimulus"":""img/3to2/12.png"",""time"":1190}]","[]"
"image-keyboard-response","91","156435","0.0-5.0-1.43","63034df51d918e1e3b97e5ce","bdp_cybrbll","Sun Mar 26 2023 18:13:58 GMT-0400 (Eastern Daylight Time)","492369","3","1","","94","","","","choice","","","img/2to1/1.png","2","182","298","0.5","0.5","2","3","",""
"animation","92","157724","0.0-5.0-2.43","63034df51d918e1e3b97e5ce","bdp_cybrbll","Sun Mar 26 2023 18:13:58 GMT-0400 (Eastern Daylight Time)","492369","3","1","","","","","","","","","","","182","","","","2","3","[{""stimulus"":""img/2to3/1.png"",""time"":100},{""stimulus"":""img/2to3/2.png"",""time"":200},{""stimulus"":""img/2to3/3.png"",""time"":298},{""stimulus"":""img/2to3/4.png"",""time"":397},{""stimulus"":""img/2to3/5.png"",""time"":496},{""stimulus"":""img/2to3/6.png"",""time"":596},{""stimulus"":""img/2to3/7.png"",""time"":694},{""stimulus"":""img/2to3/8.png"",""time"":794},{""stimulus"":""img/2to3/9.png"",""time"":892},{""stimulus"":""img/2to3/10.png"",""time"":992},{""stimulus"":""img/2to3/11.png"",""time"":1090},{""stimulus"":""img/2to3/12.png"",""time"":1190}]","[]"
"image-keyboard-response","93","158094","0.0-5.0-1.44","63034df51d918e1e3b97e5ce","bdp_cybrbll","Sun Mar 26 2023 18:13:58 GMT-0400 (Eastern Daylight Time)","492369","3","1","","null","","","","observe","","","img/3to2/1.png","null","181","369","0.5","0.5","3","2","",""
"animation","94","159383","0.0-5.0-2.44","63034df51d918e1e3b97e5ce","bdp_cybrbll","Sun Mar 26 2023 18:13:58 GMT-0400 (Eastern Daylight Time)","492369","3","1","","","","","","","","","","","181","","","","3","2","[{""stimulus"":""img/3to2/1.png"",""time"":100},{""stimulus"":""img/3to2/2.png"",""time"":200},{""stimulus"":""img/3to2/3.png"",""time"":298},{""stimulus"":""img/3to2/4.png"",""time"":398},{""stimulus"":""img/3to2/5.png"",""time"":496},{""stimulus"":""img/3to2/6.png"",""time"":595},{""stimulus"":""img/3to2/7.png"",""time"":695},{""stimulus"":""img/3to2/8.png"",""time"":794},{""stimulus"":""img/3to2/9.png"",""time"":892},{""stimulus"":""img/3to2/10.png"",""time"":991},{""stimulus"":""img/3to2/11.png"",""time"":1090},{""stimulus"":""img/3to2/12.png"",""time"":1189}]","[]"
"image-keyboard-response","95","159537","0.0-5.0-1.45","63034df51d918e1e3b97e5ce","bdp_cybrbll","Sun Mar 26 2023 18:13:58 GMT-0400 (Eastern Daylight Time)","492369","3","1","","154","","","","choice","","","img/2to1/1.png","2","180","534","0.5","0.5","2","3","",""
"animation","96","160824","0.0-5.0-2.45","63034df51d918e1e3b97e5ce","bdp_cybrbll","Sun Mar 26 2023 18:13:58 GMT-0400 (Eastern Daylight Time)","492369","3","1","","","","","","","","","","","180","","","","2","3","[{""stimulus"":""img/2to3/1.png"",""time"":100},{""stimulus"":""img/2to3/2.png"",""time"":199},{""stimulus"":""img/2to3/3.png"",""time"":298},{""stimulus"":""img/2to3/4.png"",""time"":398},{""stimulus"":""img/2to3/5.png"",""time"":496},{""stimulus"":""img/2to3/6.png"",""time"":595},{""stimulus"":""img/2to3/7.png"",""time"":694},{""stimulus"":""img/2to3/8.png"",""time"":794},{""stimulus"":""img/2to3/9.png"",""time"":892},{""stimulus"":""img/2to3/10.png"",""time"":991},{""stimulus"":""img/2to3/11.png"",""time"":1090},{""stimulus"":""img/2to3/12.png"",""time"":1189}]","[]"
"image-keyboard-response","97","161337","0.0-5.0-1.46","63034df51d918e1e3b97e5ce","bdp_cybrbll","Sun Mar 26 2023 18:13:58 GMT-0400 (Eastern Daylight Time)","492369","3","1","","null","","","","observe","","","img/3to2/1.png","null","179","511","0.5","0.5","3","2","",""
"animation","98","162625","0.0-5.0-2.46","63034df51d918e1e3b97e5ce","bdp_cybrbll","Sun Mar 26 2023 18:13:58 GMT-0400 (Eastern Daylight Time)","492369","3","1","","","","","","","","","","","179","","","","3","2","[{""stimulus"":""img/3to2/1.png"",""time"":100},{""stimulus"":""img/3to2/2.png"",""time"":200},{""stimulus"":""img/3to2/3.png"",""time"":298},{""stimulus"":""img/3to2/4.png"",""time"":398},{""stimulus"":""img/3to2/5.png"",""time"":496},{""stimulus"":""img/3to2/6.png"",""time"":596},{""stimulus"":""img/3to2/7.png"",""time"":694},{""stimulus"":""img/3to2/8.png"",""time"":793},{""stimulus"":""img/3to2/9.png"",""time"":892},{""stimulus"":""img/3to2/10.png"",""time"":991},{""stimulus"":""img/3to2/11.png"",""time"":1090},{""stimulus"":""img/3to2/12.png"",""time"":1189}]","[]"
"image-keyboard-response","99","162743","0.0-5.0-1.47","63034df51d918e1e3b97e5ce","bdp_cybrbll","Sun Mar 26 2023 18:13:58 GMT-0400 (Eastern Daylight Time)","492369","3","1","","118","","","","choice","","","img/2to1/1.png","2","178","444","0.5","0.5","2","3","",""
"animation","100","164032","0.0-5.0-2.47","63034df51d918e1e3b97e5ce","bdp_cybrbll","Sun Mar 26 2023 18:13:58 GMT-0400 (Eastern Daylight Time)","492369","3","1","","","","","","","","","","","178","","","","2","3","[{""stimulus"":""img/2to3/1.png"",""time"":100},{""stimulus"":""img/2to3/2.png"",""time"":199},{""stimulus"":""img/2to3/3.png"",""time"":298},{""stimulus"":""img/2to3/4.png"",""time"":397},{""stimulus"":""img/2to3/5.png"",""time"":496},{""stimulus"":""img/2to3/6.png"",""time"":595},{""stimulus"":""img/2to3/7.png"",""time"":695},{""stimulus"":""img/2to3/8.png"",""time"":793},{""stimulus"":""img/2to3/9.png"",""time"":892},{""stimulus"":""img/2to3/10.png"",""time"":992},{""stimulus"":""img/2to3/11.png"",""time"":1090},{""stimulus"":""img/2to3/12.png"",""time"":1190}]","[]"
"image-keyboard-response","101","164396","0.0-5.0-1.48","63034df51d918e1e3b97e5ce","bdp_cybrbll","Sun Mar 26 2023 18:13:58 GMT-0400 (Eastern Daylight Time)","492369","3","1","","null","","","","observe","","","img/3to2/1.png","null","177","363","0.5","0.5","3","2","",""
"animation","102","165685","0.0-5.0-2.48","63034df51d918e1e3b97e5ce","bdp_cybrbll","Sun Mar 26 2023 18:13:58 GMT-0400 (Eastern Daylight Time)","492369","3","1","","","","","","","","","","","177","","","","3","2","[{""stimulus"":""img/3to2/1.png"",""time"":100},{""stimulus"":""img/3to2/2.png"",""time"":199},{""stimulus"":""img/3to2/3.png"",""time"":299},{""stimulus"":""img/3to2/4.png"",""time"":398},{""stimulus"":""img/3to2/5.png"",""time"":497},{""stimulus"":""img/3to2/6.png"",""time"":595},{""stimulus"":""img/3to2/7.png"",""time"":695},{""stimulus"":""img/3to2/8.png"",""time"":794},{""stimulus"":""img/3to2/9.png"",""time"":892},{""stimulus"":""img/3to2/10.png"",""time"":991},{""stimulus"":""img/3to2/11.png"",""time"":1090},{""stimulus"":""img/3to2/12.png"",""time"":1190}]","[]"
"image-keyboard-response","103","165764","0.0-5.0-1.49","63034df51d918e1e3b97e5ce","bdp_cybrbll","Sun Mar 26 2023 18:13:58 GMT-0400 (Eastern Daylight Time)","492369","3","1","","79","","","","choice","","","img/2to1/1.png","1","176","666","0.5","0.5","2","1","",""
"animation","104","167053","0.0-5.0-2.49","63034df51d918e1e3b97e5ce","bdp_cybrbll","Sun Mar 26 2023 18:13:58 GMT-0400 (Eastern Daylight Time)","492369","3","1","","","","","","","","","","","176","","","","2","1","[{""stimulus"":""img/2to1/1.png"",""time"":101},{""stimulus"":""img/2to1/2.png"",""time"":200},{""stimulus"":""img/2to1/3.png"",""time"":299},{""stimulus"":""img/2to1/4.png"",""time"":398},{""stimulus"":""img/2to1/5.png"",""time"":497},{""stimulus"":""img/2to1/6.png"",""time"":595},{""stimulus"":""img/2to1/7.png"",""time"":694},{""stimulus"":""img/2to1/8.png"",""time"":793},{""stimulus"":""img/2to1/9.png"",""time"":893},{""stimulus"":""img/2to1/10.png"",""time"":992},{""stimulus"":""img/2to1/11.png"",""time"":1090},{""stimulus"":""img/2to1/12.png"",""time"":1190}]","[]"
"image-keyboard-response","105","167371","0.0-5.0-1.50","63034df51d918e1e3b97e5ce","bdp_cybrbll","Sun Mar 26 2023 18:13:58 GMT-0400 (Eastern Daylight Time)","492369","3","1","","null","","","","observe","","","img/1to3/1.png","null","175","317","0.5","0.5","1","2","",""
"animation","106","168660","0.0-5.0-2.50","63034df51d918e1e3b97e5ce","bdp_cybrbll","Sun Mar 26 2023 18:13:58 GMT-0400 (Eastern Daylight Time)","492369","3","1","","","","","","","","","","","175","","","","1","2","[{""stimulus"":""img/1to2/1.png"",""time"":101},{""stimulus"":""img/1to2/2.png"",""time"":199},{""stimulus"":""img/1to2/3.png"",""time"":299},{""stimulus"":""img/1to2/4.png"",""time"":398},{""stimulus"":""img/1to2/5.png"",""time"":497},{""stimulus"":""img/1to2/6.png"",""time"":596},{""stimulus"":""img/1to2/7.png"",""time"":695},{""stimulus"":""img/1to2/8.png"",""time"":804},{""stimulus"":""img/1to2/9.png"",""time"":893},{""stimulus"":""img/1to2/10.png"",""time"":991},{""stimulus"":""img/1to2/11.png"",""time"":1091},{""stimulus"":""img/1to2/12.png"",""time"":1190}]","[]"
"image-keyboard-response","107","169430","0.0-5.0-1.51","63034df51d918e1e3b97e5ce","bdp_cybrbll","Sun Mar 26 2023 18:13:58 GMT-0400 (Eastern Daylight Time)","492369","3","1","","770","","","","choice","","","img/2to1/1.png","2","174","458","0.5","0.5","2","3","",""
"animation","108","170719","0.0-5.0-2.51","63034df51d918e1e3b97e5ce","bdp_cybrbll","Sun Mar 26 2023 18:13:58 GMT-0400 (Eastern Daylight Time)","492369","3","1","","","","","","","","","","","174","","","","2","3","[{""stimulus"":""img/2to3/1.png"",""time"":100},{""stimulus"":""img/2to3/2.png"",""time"":199},{""stimulus"":""img/2to3/3.png"",""time"":301},{""stimulus"":""img/2to3/4.png"",""time"":398},{""stimulus"":""img/2to3/5.png"",""time"":496},{""stimulus"":""img/2to3/6.png"",""time"":595},{""stimulus"":""img/2to3/7.png"",""time"":694},{""stimulus"":""img/2to3/8.png"",""time"":793},{""stimulus"":""img/2to3/9.png"",""time"":893},{""stimulus"":""img/2to3/10.png"",""time"":991},{""stimulus"":""img/2to3/11.png"",""time"":1091},{""stimulus"":""img/2to3/12.png"",""time"":1189}]","[]"
"image-keyboard-response","109","171126","0.0-5.0-1.52","63034df51d918e1e3b97e5ce","bdp_cybrbll","Sun Mar 26 2023 18:13:58 GMT-0400 (Eastern Daylight Time)","492369","3","1","","null","","","","observe","","","img/3to2/1.png","null","173","406","0.5","0.5","3","2","",""
"animation","110","172415","0.0-5.0-2.52","63034df51d918e1e3b97e5ce","bdp_cybrbll","Sun Mar 26 2023 18:13:58 GMT-0400 (Eastern Daylight Time)","492369","3","1","","","","","","","","","","","173","","","","3","2","[{""stimulus"":""img/3to2/1.png"",""time"":100},{""stimulus"":""img/3to2/2.png"",""time"":199},{""stimulus"":""img/3to2/3.png"",""time"":298},{""stimulus"":""img/3to2/4.png"",""time"":398},{""stimulus"":""img/3to2/5.png"",""time"":497},{""stimulus"":""img/3to2/6.png"",""time"":596},{""stimulus"":""img/3to2/7.png"",""time"":695},{""stimulus"":""img/3to2/8.png"",""time"":793},{""stimulus"":""img/3to2/9.png"",""time"":892},{""stimulus"":""img/3to2/10.png"",""time"":991},{""stimulus"":""img/3to2/11.png"",""time"":1090},{""stimulus"":""img/3to2/12.png"",""time"":1189}]","[]"
"image-keyboard-response","111","172791","0.0-5.0-1.53","63034df51d918e1e3b97e5ce","bdp_cybrbll","Sun Mar 26 2023 18:13:58 GMT-0400 (Eastern Daylight Time)","492369","3","1","","376","","","","choice","","","img/2to1/1.png","1","172","1269","0.5","0.5","2","1","",""
"animation","112","174079","0.0-5.0-2.53","63034df51d918e1e3b97e5ce","bdp_cybrbll","Sun Mar 26 2023 18:13:58 GMT-0400 (Eastern Daylight Time)","492369","3","1","","","","","","","","","","","172","","","","2","1","[{""stimulus"":""img/2to1/1.png"",""time"":101},{""stimulus"":""img/2to1/2.png"",""time"":200},{""stimulus"":""img/2to1/3.png"",""time"":299},{""stimulus"":""img/2to1/4.png"",""time"":398},{""stimulus"":""img/2to1/5.png"",""time"":497},{""stimulus"":""img/2to1/6.png"",""time"":595},{""stimulus"":""img/2to1/7.png"",""time"":694},{""stimulus"":""img/2to1/8.png"",""time"":793},{""stimulus"":""img/2to1/9.png"",""time"":892},{""stimulus"":""img/2to1/10.png"",""time"":992},{""stimulus"":""img/2to1/11.png"",""time"":1090},{""stimulus"":""img/2to1/12.png"",""time"":1190}]","[]"
"image-keyboard-response","113","174561","0.0-5.0-1.54","63034df51d918e1e3b97e5ce","bdp_cybrbll","Sun Mar 26 2023 18:13:58 GMT-0400 (Eastern Daylight Time)","492369","3","1","","null","","","","observe","","","img/1to3/1.png","null","171","480","0.5","0.5","1","3","",""
"animation","114","175849","0.0-5.0-2.54","63034df51d918e1e3b97e5ce","bdp_cybrbll","Sun Mar 26 2023 18:13:58 GMT-0400 (Eastern Daylight Time)","492369","3","1","","","","","","","","","","","171","","","","1","3","[{""stimulus"":""img/1to3/1.png"",""time"":101},{""stimulus"":""img/1to3/2.png"",""time"":199},{""stimulus"":""img/1to3/3.png"",""time"":299},{""stimulus"":""img/1to3/4.png"",""time"":397},{""stimulus"":""img/1to3/5.png"",""time"":497},{""stimulus"":""img/1to3/6.png"",""time"":595},{""stimulus"":""img/1to3/7.png"",""time"":694},{""stimulus"":""img/1to3/8.png"",""time"":794},{""stimulus"":""img/1to3/9.png"",""time"":893},{""stimulus"":""img/1to3/10.png"",""time"":991},{""stimulus"":""img/1to3/11.png"",""time"":1090},{""stimulus"":""img/1to3/12.png"",""time"":1189}]","[]"
"image-keyboard-response","115","176492","0.0-5.0-1.55","63034df51d918e1e3b97e5ce","bdp_cybrbll","Sun Mar 26 2023 18:13:58 GMT-0400 (Eastern Daylight Time)","492369","3","1","","null","","","","observe","","","img/3to2/1.png","null","170","642","0.5","0.5","3","2","",""
"animation","116","177781","0.0-5.0-2.55","63034df51d918e1e3b97e5ce","bdp_cybrbll","Sun Mar 26 2023 18:13:58 GMT-0400 (Eastern Daylight Time)","492369","3","1","","","","","","","","","","","170","","","","3","2","[{""stimulus"":""img/3to2/1.png"",""time"":100},{""stimulus"":""img/3to2/2.png"",""time"":199},{""stimulus"":""img/3to2/3.png"",""time"":298},{""stimulus"":""img/3to2/4.png"",""time"":397},{""stimulus"":""img/3to2/5.png"",""time"":497},{""stimulus"":""img/3to2/6.png"",""time"":595},{""stimulus"":""img/3to2/7.png"",""time"":694},{""stimulus"":""img/3to2/8.png"",""time"":793},{""stimulus"":""img/3to2/9.png"",""time"":893},{""stimulus"":""img/3to2/10.png"",""time"":991},{""stimulus"":""img/3to2/11.png"",""time"":1090},{""stimulus"":""img/3to2/12.png"",""time"":1190}]","[]"
"image-keyboard-response","117","178425","0.0-5.0-1.56","63034df51d918e1e3b97e5ce","bdp_cybrbll","Sun Mar 26 2023 18:13:58 GMT-0400 (Eastern Daylight Time)","492369","3","1","","644","","","","choice","","","img/2to1/1.png","1","169","673","0.5","0.5","2","1","",""
"animation","118","179713","0.0-5.0-2.56","63034df51d918e1e3b97e5ce","bdp_cybrbll","Sun Mar 26 2023 18:13:58 GMT-0400 (Eastern Daylight Time)","492369","3","1","","","","","","","","","","","169","","","","2","1","[{""stimulus"":""img/2to1/1.png"",""time"":100},{""stimulus"":""img/2to1/2.png"",""time"":198},{""stimulus"":""img/2to1/3.png"",""time"":297},{""stimulus"":""img/2to1/4.png"",""time"":396},{""stimulus"":""img/2to1/5.png"",""time"":496},{""stimulus"":""img/2to1/6.png"",""time"":595},{""stimulus"":""img/2to1/7.png"",""time"":693},{""stimulus"":""img/2to1/8.png"",""time"":793},{""stimulus"":""img/2to1/9.png"",""time"":892},{""stimulus"":""img/2to1/10.png"",""time"":990},{""stimulus"":""img/2to1/11.png"",""time"":1090},{""stimulus"":""img/2to1/12.png"",""time"":1188}]","[]"
"image-keyboard-response","119","179928","0.0-5.0-1.57","63034df51d918e1e3b97e5ce","bdp_cybrbll","Sun Mar 26 2023 18:13:58 GMT-0400 (Eastern Daylight Time)","492369","3","1","","null","","","","observe","","","img/1to3/1.png","null","168","214","0.5","0.5","1","3","",""
"animation","120","181216","0.0-5.0-2.57","63034df51d918e1e3b97e5ce","bdp_cybrbll","Sun Mar 26 2023 18:13:58 GMT-0400 (Eastern Daylight Time)","492369","3","1","","","","","","","","","","","168","","","","1","3","[{""stimulus"":""img/1to3/1.png"",""time"":100},{""stimulus"":""img/1to3/2.png"",""time"":212},{""stimulus"":""img/1to3/3.png"",""time"":298},{""stimulus"":""img/1to3/4.png"",""time"":398},{""stimulus"":""img/1to3/5.png"",""time"":496},{""stimulus"":""img/1to3/6.png"",""time"":595},{""stimulus"":""img/1to3/7.png"",""time"":694},{""stimulus"":""img/1to3/8.png"",""time"":794},{""stimulus"":""img/1to3/9.png"",""time"":893},{""stimulus"":""img/1to3/10.png"",""time"":991},{""stimulus"":""img/1to3/11.png"",""time"":1090},{""stimulus"":""img/1to3/12.png"",""time"":1189}]","[]"
"image-keyboard-response","121","182112","0.0-5.0-1.58","63034df51d918e1e3b97e5ce","bdp_cybrbll","Sun Mar 26 2023 18:13:58 GMT-0400 (Eastern Daylight Time)","492369","3","1","","null","","","","observe","","","img/3to2/1.png","null","167","895","0.5","0.5","3","1","",""
"animation","122","183400","0.0-5.0-2.58","63034df51d918e1e3b97e5ce","bdp_cybrbll","Sun Mar 26 2023 18:13:58 GMT-0400 (Eastern Daylight Time)","492369","3","1","","","","","","","","","","","167","","","","3","1","[{""stimulus"":""img/3to1/1.png"",""time"":101},{""stimulus"":""img/3to1/2.png"",""time"":199},{""stimulus"":""img/3to1/3.png"",""time"":298},{""stimulus"":""img/3to1/4.png"",""time"":398},{""stimulus"":""img/3to1/5.png"",""time"":496},{""stimulus"":""img/3to1/6.png"",""time"":596},{""stimulus"":""img/3to1/7.png"",""time"":694},{""stimulus"":""img/3to1/8.png"",""time"":794},{""stimulus"":""img/3to1/9.png"",""time"":892},{""stimulus"":""img/3to1/10.png"",""time"":992},{""stimulus"":""img/3to1/11.png"",""time"":1091},{""stimulus"":""img/3to1/12.png"",""time"":1189}]","[]"
"image-keyboard-response","123","183698","0.0-5.0-1.59","63034df51d918e1e3b97e5ce","bdp_cybrbll","Sun Mar 26 2023 18:13:58 GMT-0400 (Eastern Daylight Time)","492369","3","1","","null","","","","observe","","","img/1to3/1.png","null","166","297","0.5","0.5","1","3","",""
"animation","124","184986","0.0-5.0-2.59","63034df51d918e1e3b97e5ce","bdp_cybrbll","Sun Mar 26 2023 18:13:58 GMT-0400 (Eastern Daylight Time)","492369","3","1","","","","","","","","","","","166","","","","1","3","[{""stimulus"":""img/1to3/1.png"",""time"":101},{""stimulus"":""img/1to3/2.png"",""time"":200},{""stimulus"":""img/1to3/3.png"",""time"":298},{""stimulus"":""img/1to3/4.png"",""time"":397},{""stimulus"":""img/1to3/5.png"",""time"":497},{""stimulus"":""img/1to3/6.png"",""time"":596},{""stimulus"":""img/1to3/7.png"",""time"":695},{""stimulus"":""img/1to3/8.png"",""time"":793},{""stimulus"":""img/1to3/9.png"",""time"":892},{""stimulus"":""img/1to3/10.png"",""time"":991},{""stimulus"":""img/1to3/11.png"",""time"":1095},{""stimulus"":""img/1to3/12.png"",""time"":1189}]","[]"
"image-keyboard-response","125","185450","0.0-5.0-1.60","63034df51d918e1e3b97e5ce","bdp_cybrbll","Sun Mar 26 2023 18:13:58 GMT-0400 (Eastern Daylight Time)","492369","3","1","","null","","","","observe","","","img/3to2/1.png","null","165","463","0.5","0.5","3","1","",""
"animation","126","186738","0.0-5.0-2.60","63034df51d918e1e3b97e5ce","bdp_cybrbll","Sun Mar 26 2023 18:13:58 GMT-0400 (Eastern Daylight Time)","492369","3","1","","","","","","","","","","","165","","","","3","1","[{""stimulus"":""img/3to1/1.png"",""time"":101},{""stimulus"":""img/3to1/2.png"",""time"":200},{""stimulus"":""img/3to1/3.png"",""time"":299},{""stimulus"":""img/3to1/4.png"",""time"":397},{""stimulus"":""img/3to1/5.png"",""time"":497},{""stimulus"":""img/3to1/6.png"",""time"":596},{""stimulus"":""img/3to1/7.png"",""time"":694},{""stimulus"":""img/3to1/8.png"",""time"":794},{""stimulus"":""img/3to1/9.png"",""time"":893},{""stimulus"":""img/3to1/10.png"",""time"":991},{""stimulus"":""img/3to1/11.png"",""time"":1091},{""stimulus"":""img/3to1/12.png"",""time"":1190}]","[]"
"image-keyboard-response","127","187197","0.0-5.0-1.61","63034df51d918e1e3b97e5ce","bdp_cybrbll","Sun Mar 26 2023 18:13:58 GMT-0400 (Eastern Daylight Time)","492369","3","1","","null","","","","observe","","","img/1to3/1.png","null","164","458","0.5","0.5","1","3","",""
"animation","128","188485","0.0-5.0-2.61","63034df51d918e1e3b97e5ce","bdp_cybrbll","Sun Mar 26 2023 18:13:58 GMT-0400 (Eastern Daylight Time)","492369","3","1","","","","","","","","","","","164","","","","1","3","[{""stimulus"":""img/1to3/1.png"",""time"":100},{""stimulus"":""img/1to3/2.png"",""time"":199},{""stimulus"":""img/1to3/3.png"",""time"":298},{""stimulus"":""img/1to3/4.png"",""time"":397},{""stimulus"":""img/1to3/5.png"",""time"":496},{""stimulus"":""img/1to3/6.png"",""time"":595},{""stimulus"":""img/1to3/7.png"",""time"":695},{""stimulus"":""img/1to3/8.png"",""time"":794},{""stimulus"":""img/1to3/9.png"",""time"":893},{""stimulus"":""img/1to3/10.png"",""time"":991},{""stimulus"":""img/1to3/11.png"",""time"":1091},{""stimulus"":""img/1to3/12.png"",""time"":1189}]","[]"
"image-keyboard-response","129","188896","0.0-5.0-1.62","63034df51d918e1e3b97e5ce","bdp_cybrbll","Sun Mar 26 2023 18:13:58 GMT-0400 (Eastern Daylight Time)","492369","3","1","","null","","","","observe","","","img/3to2/1.png","null","163","410","0.5","0.5","3","1","",""
"animation","130","190184","0.0-5.0-2.62","63034df51d918e1e3b97e5ce","bdp_cybrbll","Sun Mar 26 2023 18:13:58 GMT-0400 (Eastern Daylight Time)","492369","3","1","","","","","","","","","","","163","","","","3","1","[{""stimulus"":""img/3to1/1.png"",""time"":100},{""stimulus"":""img/3to1/2.png"",""time"":199},{""stimulus"":""img/3to1/3.png"",""time"":298},{""stimulus"":""img/3to1/4.png"",""time"":398},{""stimulus"":""img/3to1/5.png"",""time"":496},{""stimulus"":""img/3to1/6.png"",""time"":595},{""stimulus"":""img/3to1/7.png"",""time"":694},{""stimulus"":""img/3to1/8.png"",""time"":794},{""stimulus"":""img/3to1/9.png"",""time"":892},{""stimulus"":""img/3to1/10.png"",""time"":991},{""stimulus"":""img/3to1/11.png"",""time"":1090},{""stimulus"":""img/3to1/12.png"",""time"":1190}]","[]"
"image-keyboard-response","131","190754","0.0-5.0-1.63","63034df51d918e1e3b97e5ce","bdp_cybrbll","Sun Mar 26 2023 18:13:58 GMT-0400 (Eastern Daylight Time)","492369","3","1","","null","","","","observe","","","img/1to3/1.png","null","162","568","0.5","0.5","1","2","",""
"animation","132","192042","0.0-5.0-2.63","63034df51d918e1e3b97e5ce","bdp_cybrbll","Sun Mar 26 2023 18:13:58 GMT-0400 (Eastern Daylight Time)","492369","3","1","","","","","","","","","","","162","","","","1","2","[{""stimulus"":""img/1to2/1.png"",""time"":100},{""stimulus"":""img/1to2/2.png"",""time"":200},{""stimulus"":""img/1to2/3.png"",""time"":298},{""stimulus"":""img/1to2/4.png"",""time"":398},{""stimulus"":""img/1to2/5.png"",""time"":496},{""stimulus"":""img/1to2/6.png"",""time"":595},{""stimulus"":""img/1to2/7.png"",""time"":695},{""stimulus"":""img/1to2/8.png"",""time"":794},{""stimulus"":""img/1to2/9.png"",""time"":893},{""stimulus"":""img/1to2/10.png"",""time"":991},{""stimulus"":""img/1to2/11.png"",""time"":1091},{""stimulus"":""img/1to2/12.png"",""time"":1189}]","[]"
"image-keyboard-response","133","192301","0.0-5.0-1.64","63034df51d918e1e3b97e5ce","bdp_cybrbll","Sun Mar 26 2023 18:13:58 GMT-0400 (Eastern Daylight Time)","492369","3","1","","259","","","","choice","","","img/2to1/1.png","2","161","348","0.5","0.5","2","3","",""
"animation","134","193590","0.0-5.0-2.64","63034df51d918e1e3b97e5ce","bdp_cybrbll","Sun Mar 26 2023 18:13:58 GMT-0400 (Eastern Daylight Time)","492369","3","1","","","","","","","","","","","161","","","","2","3","[{""stimulus"":""img/2to3/1.png"",""time"":101},{""stimulus"":""img/2to3/2.png"",""time"":200},{""stimulus"":""img/2to3/3.png"",""time"":298},{""stimulus"":""img/2to3/4.png"",""time"":397},{""stimulus"":""img/2to3/5.png"",""time"":505},{""stimulus"":""img/2to3/6.png"",""time"":596},{""stimulus"":""img/2to3/7.png"",""time"":695},{""stimulus"":""img/2to3/8.png"",""time"":793},{""stimulus"":""img/2to3/9.png"",""time"":893},{""stimulus"":""img/2to3/10.png"",""time"":992},{""stimulus"":""img/2to3/11.png"",""time"":1090},{""stimulus"":""img/2to3/12.png"",""time"":1189}]","[]"
"image-keyboard-response","135","194079","0.0-5.0-1.65","63034df51d918e1e3b97e5ce","bdp_cybrbll","Sun Mar 26 2023 18:13:58 GMT-0400 (Eastern Daylight Time)","492369","3","1","","null","","","","observe","","","img/3to2/1.png","null","160","488","0.5","0.5","3","2","",""
"animation","136","195367","0.0-5.0-2.65","63034df51d918e1e3b97e5ce","bdp_cybrbll","Sun Mar 26 2023 18:13:58 GMT-0400 (Eastern Daylight Time)","492369","3","1","","","","","","","","","","","160","","","","3","2","[{""stimulus"":""img/3to2/1.png"",""time"":106},{""stimulus"":""img/3to2/2.png"",""time"":199},{""stimulus"":""img/3to2/3.png"",""time"":299},{""stimulus"":""img/3to2/4.png"",""time"":397},{""stimulus"":""img/3to2/5.png"",""time"":497},{""stimulus"":""img/3to2/6.png"",""time"":595},{""stimulus"":""img/3to2/7.png"",""time"":695},{""stimulus"":""img/3to2/8.png"",""time"":793},{""stimulus"":""img/3to2/9.png"",""time"":893},{""stimulus"":""img/3to2/10.png"",""time"":991},{""stimulus"":""img/3to2/11.png"",""time"":1090},{""stimulus"":""img/3to2/12.png"",""time"":1189}]","[]"
"image-keyboard-response","137","196151","0.0-5.0-1.66","63034df51d918e1e3b97e5ce","bdp_cybrbll","Sun Mar 26 2023 18:13:58 GMT-0400 (Eastern Daylight Time)","492369","3","1","","784","","","","choice","","","img/2to1/1.png","1","159","277","0.5","0.5","2","1","",""
"animation","138","197440","0.0-5.0-2.66","63034df51d918e1e3b97e5ce","bdp_cybrbll","Sun Mar 26 2023 18:13:58 GMT-0400 (Eastern Daylight Time)","492369","3","1","","","","","","","","","","","159","","","","2","1","[{""stimulus"":""img/2to1/1.png"",""time"":99},{""stimulus"":""img/2to1/2.png"",""time"":199},{""stimulus"":""img/2to1/3.png"",""time"":298},{""stimulus"":""img/2to1/4.png"",""time"":397},{""stimulus"":""img/2to1/5.png"",""time"":495},{""stimulus"":""img/2to1/6.png"",""time"":594},{""stimulus"":""img/2to1/7.png"",""time"":694},{""stimulus"":""img/2to1/8.png"",""time"":792},{""stimulus"":""img/2to1/9.png"",""time"":892},{""stimulus"":""img/2to1/10.png"",""time"":991},{""stimulus"":""img/2to1/11.png"",""time"":1089},{""stimulus"":""img/2to1/12.png"",""time"":1189}]","[]"
"image-keyboard-response","139","198022","0.0-5.0-1.67","63034df51d918e1e3b97e5ce","bdp_cybrbll","Sun Mar 26 2023 18:13:58 GMT-0400 (Eastern Daylight Time)","492369","3","1","","null","","","","observe","","","img/1to3/1.png","null","158","581","0.5","0.5","1","3","",""
"animation","140","199310","0.0-5.0-2.67","63034df51d918e1e3b97e5ce","bdp_cybrbll","Sun Mar 26 2023 18:13:58 GMT-0400 (Eastern Daylight Time)","492369","3","1","","","","","","","","","","","158","","","","1","3","[{""stimulus"":""img/1to3/1.png"",""time"":100},{""stimulus"":""img/1to3/2.png"",""time"":199},{""stimulus"":""img/1to3/3.png"",""time"":298},{""stimulus"":""img/1to3/4.png"",""time"":397},{""stimulus"":""img/1to3/5.png"",""time"":496},{""stimulus"":""img/1to3/6.png"",""time"":595},{""stimulus"":""img/1to3/7.png"",""time"":695},{""stimulus"":""img/1to3/8.png"",""time"":793},{""stimulus"":""img/1to3/9.png"",""time"":892},{""stimulus"":""img/1to3/10.png"",""time"":992},{""stimulus"":""img/1to3/11.png"",""time"":1090},{""stimulus"":""img/1to3/12.png"",""time"":1189}]","[]"
"image-keyboard-response","141","199950","0.0-5.0-1.68","63034df51d918e1e3b97e5ce","bdp_cybrbll","Sun Mar 26 2023 18:13:58 GMT-0400 (Eastern Daylight Time)","492369","3","1","","null","","","","observe","","","img/3to2/1.png","null","157","638","0.5","0.5","3","2","",""
"animation","142","201238","0.0-5.0-2.68","63034df51d918e1e3b97e5ce","bdp_cybrbll","Sun Mar 26 2023 18:13:58 GMT-0400 (Eastern Daylight Time)","492369","3","1","","","","","","","","","","","157","","","","3","2","[{""stimulus"":""img/3to2/1.png"",""time"":101},{""stimulus"":""img/3to2/2.png"",""time"":200},{""stimulus"":""img/3to2/3.png"",""time"":298},{""stimulus"":""img/3to2/4.png"",""time"":397},{""stimulus"":""img/3to2/5.png"",""time"":496},{""stimulus"":""img/3to2/6.png"",""time"":595},{""stimulus"":""img/3to2/7.png"",""time"":695},{""stimulus"":""img/3to2/8.png"",""time"":794},{""stimulus"":""img/3to2/9.png"",""time"":892},{""stimulus"":""img/3to2/10.png"",""time"":992},{""stimulus"":""img/3to2/11.png"",""time"":1091},{""stimulus"":""img/3to2/12.png"",""time"":1189}]","[]"
"image-keyboard-response","143","201684","0.0-5.0-1.69","63034df51d918e1e3b97e5ce","bdp_cybrbll","Sun Mar 26 2023 18:13:58 GMT-0400 (Eastern Daylight Time)","492369","3","1","","446","","","","choice","","","img/2to1/1.png","2","156","414","0.5","0.5","2","3","",""
"animation","144","202972","0.0-5.0-2.69","63034df51d918e1e3b97e5ce","bdp_cybrbll","Sun Mar 26 2023 18:13:58 GMT-0400 (Eastern Daylight Time)","492369","3","1","","","","","","","","","","","156","","","","2","3","[{""stimulus"":""img/2to3/1.png"",""time"":100},{""stimulus"":""img/2to3/2.png"",""time"":199},{""stimulus"":""img/2to3/3.png"",""time"":299},{""stimulus"":""img/2to3/4.png"",""time"":398},{""stimulus"":""img/2to3/5.png"",""time"":496},{""stimulus"":""img/2to3/6.png"",""time"":596},{""stimulus"":""img/2to3/7.png"",""time"":694},{""stimulus"":""img/2to3/8.png"",""time"":793},{""stimulus"":""img/2to3/9.png"",""time"":893},{""stimulus"":""img/2to3/10.png"",""time"":992},{""stimulus"":""img/2to3/11.png"",""time"":1090},{""stimulus"":""img/2to3/12.png"",""time"":1189}]","[]"
"image-keyboard-response","145","203302","0.0-5.0-1.70","63034df51d918e1e3b97e5ce","bdp_cybrbll","Sun Mar 26 2023 18:13:58 GMT-0400 (Eastern Daylight Time)","492369","3","1","","null","","","","observe","","","img/3to2/1.png","null","155","328","0.5","0.5","3","2","",""
"animation","146","204590","0.0-5.0-2.70","63034df51d918e1e3b97e5ce","bdp_cybrbll","Sun Mar 26 2023 18:13:58 GMT-0400 (Eastern Daylight Time)","492369","3","1","","","","","","","","","","","155","","","","3","2","[{""stimulus"":""img/3to2/1.png"",""time"":100},{""stimulus"":""img/3to2/2.png"",""time"":199},{""stimulus"":""img/3to2/3.png"",""time"":299},{""stimulus"":""img/3to2/4.png"",""time"":397},{""stimulus"":""img/3to2/5.png"",""time"":497},{""stimulus"":""img/3to2/6.png"",""time"":596},{""stimulus"":""img/3to2/7.png"",""time"":694},{""stimulus"":""img/3to2/8.png"",""time"":793},{""stimulus"":""img/3to2/9.png"",""time"":892},{""stimulus"":""img/3to2/10.png"",""time"":991},{""stimulus"":""img/3to2/11.png"",""time"":1090},{""stimulus"":""img/3to2/12.png"",""time"":1190}]","[]"
"image-keyboard-response","147","204745","0.0-5.0-1.71","63034df51d918e1e3b97e5ce","bdp_cybrbll","Sun Mar 26 2023 18:13:58 GMT-0400 (Eastern Daylight Time)","492369","3","1","","155","","","","choice","","","img/2to1/1.png","1","154","469","0.5","0.5","2","1","",""
"animation","148","206033","0.0-5.0-2.71","63034df51d918e1e3b97e5ce","bdp_cybrbll","Sun Mar 26 2023 18:13:58 GMT-0400 (Eastern Daylight Time)","492369","3","1","","","","","","","","","","","154","","","","2","1","[{""stimulus"":""img/2to1/1.png"",""time"":100},{""stimulus"":""img/2to1/2.png"",""time"":199},{""stimulus"":""img/2to1/3.png"",""time"":297},{""stimulus"":""img/2to1/4.png"",""time"":396},{""stimulus"":""img/2to1/5.png"",""time"":495},{""stimulus"":""img/2to1/6.png"",""time"":595},{""stimulus"":""img/2to1/7.png"",""time"":694},{""stimulus"":""img/2to1/8.png"",""time"":793},{""stimulus"":""img/2to1/9.png"",""time"":892},{""stimulus"":""img/2to1/10.png"",""time"":990},{""stimulus"":""img/2to1/11.png"",""time"":1089},{""stimulus"":""img/2to1/12.png"",""time"":1188}]","[]"
"image-keyboard-response","149","206659","0.0-5.0-1.72","63034df51d918e1e3b97e5ce","bdp_cybrbll","Sun Mar 26 2023 18:13:58 GMT-0400 (Eastern Daylight Time)","492369","3","1","","null","","","","observe","","","img/1to3/1.png","null","153","619","0.5","0.5","1","2","",""
"animation","150","207947","0.0-5.0-2.72","63034df51d918e1e3b97e5ce","bdp_cybrbll","Sun Mar 26 2023 18:13:58 GMT-0400 (Eastern Daylight Time)","492369","3","1","","","","","","","","","","","153","","","","1","2","[{""stimulus"":""img/1to2/1.png"",""time"":101},{""stimulus"":""img/1to2/2.png"",""time"":199},{""stimulus"":""img/1to2/3.png"",""time"":298},{""stimulus"":""img/1to2/4.png"",""time"":397},{""stimulus"":""img/1to2/5.png"",""time"":497},{""stimulus"":""img/1to2/6.png"",""time"":595},{""stimulus"":""img/1to2/7.png"",""time"":694},{""stimulus"":""img/1to2/8.png"",""time"":794},{""stimulus"":""img/1to2/9.png"",""time"":893},{""stimulus"":""img/1to2/10.png"",""time"":992},{""stimulus"":""img/1to2/11.png"",""time"":1090},{""stimulus"":""img/1to2/12.png"",""time"":1189}]","[]"
"image-keyboard-response","151","208191","0.0-5.0-1.73","63034df51d918e1e3b97e5ce","bdp_cybrbll","Sun Mar 26 2023 18:13:58 GMT-0400 (Eastern Daylight Time)","492369","3","1","","244","","","","choice","","","img/2to1/1.png","2","152","619","0.5","0.5","2","3","",""
"animation","152","209479","0.0-5.0-2.73","63034df51d918e1e3b97e5ce","bdp_cybrbll","Sun Mar 26 2023 18:13:58 GMT-0400 (Eastern Daylight Time)","492369","3","1","","","","","","","","","","","152","","","","2","3","[{""stimulus"":""img/2to3/1.png"",""time"":101},{""stimulus"":""img/2to3/2.png"",""time"":199},{""stimulus"":""img/2to3/3.png"",""time"":298},{""stimulus"":""img/2to3/4.png"",""time"":398},{""stimulus"":""img/2to3/5.png"",""time"":496},{""stimulus"":""img/2to3/6.png"",""time"":596},{""stimulus"":""img/2to3/7.png"",""time"":695},{""stimulus"":""img/2to3/8.png"",""time"":794},{""stimulus"":""img/2to3/9.png"",""time"":892},{""stimulus"":""img/2to3/10.png"",""time"":991},{""stimulus"":""img/2to3/11.png"",""time"":1091},{""stimulus"":""img/2to3/12.png"",""time"":1190}]","[]"
"image-keyboard-response","153","209949","0.0-5.0-1.74","63034df51d918e1e3b97e5ce","bdp_cybrbll","Sun Mar 26 2023 18:13:58 GMT-0400 (Eastern Daylight Time)","492369","3","1","","null","","","","observe","","","img/3to2/1.png","null","151","468","0.5","0.5","3","2","",""
"animation","154","211238","0.0-5.0-2.74","63034df51d918e1e3b97e5ce","bdp_cybrbll","Sun Mar 26 2023 18:13:58 GMT-0400 (Eastern Daylight Time)","492369","3","1","","","","","","","","","","","151","","","","3","2","[{""stimulus"":""img/3to2/1.png"",""time"":101},{""stimulus"":""img/3to2/2.png"",""time"":200},{""stimulus"":""img/3to2/3.png"",""time"":299},{""stimulus"":""img/3to2/4.png"",""time"":397},{""stimulus"":""img/3to2/5.png"",""time"":496},{""stimulus"":""img/3to2/6.png"",""time"":595},{""stimulus"":""img/3to2/7.png"",""time"":695},{""stimulus"":""img/3to2/8.png"",""time"":793},{""stimulus"":""img/3to2/9.png"",""time"":893},{""stimulus"":""img/3to2/10.png"",""time"":992},{""stimulus"":""img/3to2/11.png"",""time"":1091},{""stimulus"":""img/3to2/12.png"",""time"":1189}]","[]"
"image-keyboard-response","155","211417","0.0-5.0-1.75","63034df51d918e1e3b97e5ce","bdp_cybrbll","Sun Mar 26 2023 18:13:58 GMT-0400 (Eastern Daylight Time)","492369","3","1","","179","","","","choice","","","img/2to1/1.png","1","150","552","0.5","0.5","2","1","",""
"animation","156","212706","0.0-5.0-2.75","63034df51d918e1e3b97e5ce","bdp_cybrbll","Sun Mar 26 2023 18:13:58 GMT-0400 (Eastern Daylight Time)","492369","3","1","","","","","","","","","","","150","","","","2","1","[{""stimulus"":""img/2to1/1.png"",""time"":101},{""stimulus"":""img/2to1/2.png"",""time"":200},{""stimulus"":""img/2to1/3.png"",""time"":298},{""stimulus"":""img/2to1/4.png"",""time"":398},{""stimulus"":""img/2to1/5.png"",""time"":496},{""stimulus"":""img/2to1/6.png"",""time"":595},{""stimulus"":""img/2to1/7.png"",""time"":694},{""stimulus"":""img/2to1/8.png"",""time"":794},{""stimulus"":""img/2to1/9.png"",""time"":893},{""stimulus"":""img/2to1/10.png"",""time"":992},{""stimulus"":""img/2to1/11.png"",""time"":1091},{""stimulus"":""img/2to1/12.png"",""time"":1190}]","[]"
"image-keyboard-response","157","212945","0.0-5.0-1.76","63034df51d918e1e3b97e5ce","bdp_cybrbll","Sun Mar 26 2023 18:13:58 GMT-0400 (Eastern Daylight Time)","492369","3","1","","null","","","","observe","","","img/1to3/1.png","null","149","238","0.5","0.1","1","3","",""
"animation","158","214233","0.0-5.0-2.76","63034df51d918e1e3b97e5ce","bdp_cybrbll","Sun Mar 26 2023 18:13:58 GMT-0400 (Eastern Daylight Time)","492369","3","1","","","","","","","","","","","149","","","","1","3","[{""stimulus"":""img/1to3/1.png"",""time"":100},{""stimulus"":""img/1to3/2.png"",""time"":199},{""stimulus"":""img/1to3/3.png"",""time"":298},{""stimulus"":""img/1to3/4.png"",""time"":398},{""stimulus"":""img/1to3/5.png"",""time"":496},{""stimulus"":""img/1to3/6.png"",""time"":595},{""stimulus"":""img/1to3/7.png"",""time"":695},{""stimulus"":""img/1to3/8.png"",""time"":794},{""stimulus"":""img/1to3/9.png"",""time"":892},{""stimulus"":""img/1to3/10.png"",""time"":991},{""stimulus"":""img/1to3/11.png"",""time"":1090},{""stimulus"":""img/1to3/12.png"",""time"":1188}]","[]"
"image-keyboard-response","159","214732","0.0-5.0-1.77","63034df51d918e1e3b97e5ce","bdp_cybrbll","Sun Mar 26 2023 18:13:58 GMT-0400 (Eastern Daylight Time)","492369","3","1","","null","","","","observe","","","img/3to2/1.png","null","148","499","0.5","0.1","3","1","",""
"animation","160","216020","0.0-5.0-2.77","63034df51d918e1e3b97e5ce","bdp_cybrbll","Sun Mar 26 2023 18:13:58 GMT-0400 (Eastern Daylight Time)","492369","3","1","","","","","","","","","","","148","","","","3","1","[{""stimulus"":""img/3to1/1.png"",""time"":101},{""stimulus"":""img/3to1/2.png"",""time"":199},{""stimulus"":""img/3to1/3.png"",""time"":299},{""stimulus"":""img/3to1/4.png"",""time"":397},{""stimulus"":""img/3to1/5.png"",""time"":497},{""stimulus"":""img/3to1/6.png"",""time"":596},{""stimulus"":""img/3to1/7.png"",""time"":694},{""stimulus"":""img/3to1/8.png"",""time"":793},{""stimulus"":""img/3to1/9.png"",""time"":893},{""stimulus"":""img/3to1/10.png"",""time"":991},{""stimulus"":""img/3to1/11.png"",""time"":1091},{""stimulus"":""img/3to1/12.png"",""time"":1189}]","[]"
"image-keyboard-response","161","216856","0.0-5.0-1.78","63034df51d918e1e3b97e5ce","bdp_cybrbll","Sun Mar 26 2023 18:13:58 GMT-0400 (Eastern Daylight Time)","492369","3","1","","null","","","","observe","","","img/1to3/1.png","null","147","835","0.5","0.1","1","3","",""
"animation","162","218144","0.0-5.0-2.78","63034df51d918e1e3b97e5ce","bdp_cybrbll","Sun Mar 26 2023 18:13:58 GMT-0400 (Eastern Daylight Time)","492369","3","1","","","","","","","","","","","147","","","","1","3","[{""stimulus"":""img/1to3/1.png"",""time"":100},{""stimulus"":""img/1to3/2.png"",""time"":199},{""stimulus"":""img/1to3/3.png"",""time"":298},{""stimulus"":""img/1to3/4.png"",""time"":397},{""stimulus"":""img/1to3/5.png"",""time"":496},{""stimulus"":""img/1to3/6.png"",""time"":595},{""stimulus"":""img/1to3/7.png"",""time"":695},{""stimulus"":""img/1to3/8.png"",""time"":794},{""stimulus"":""img/1to3/9.png"",""time"":893},{""stimulus"":""img/1to3/10.png"",""time"":992},{""stimulus"":""img/1to3/11.png"",""time"":1090},{""stimulus"":""img/1to3/12.png"",""time"":1189}]","[]"
"image-keyboard-response","163","218832","0.0-5.0-1.79","63034df51d918e1e3b97e5ce","bdp_cybrbll","Sun Mar 26 2023 18:13:58 GMT-0400 (Eastern Daylight Time)","492369","3","1","","null","","","","observe","","","img/3to2/1.png","null","146","687","0.5","0.1","3","2","",""
"animation","164","220120","0.0-5.0-2.79","63034df51d918e1e3b97e5ce","bdp_cybrbll","Sun Mar 26 2023 18:13:58 GMT-0400 (Eastern Daylight Time)","492369","3","1","","","","","","","","","","","146","","","","3","2","[{""stimulus"":""img/3to2/1.png"",""time"":101},{""stimulus"":""img/3to2/2.png"",""time"":199},{""stimulus"":""img/3to2/3.png"",""time"":299},{""stimulus"":""img/3to2/4.png"",""time"":398},{""stimulus"":""img/3to2/5.png"",""time"":497},{""stimulus"":""img/3to2/6.png"",""time"":596},{""stimulus"":""img/3to2/7.png"",""time"":694},{""stimulus"":""img/3to2/8.png"",""time"":793},{""stimulus"":""img/3to2/9.png"",""time"":892},{""stimulus"":""img/3to2/10.png"",""time"":991},{""stimulus"":""img/3to2/11.png"",""time"":1090},{""stimulus"":""img/3to2/12.png"",""time"":1189}]","[]"
"image-keyboard-response","165","221396","0.0-5.0-1.80","63034df51d918e1e3b97e5ce","bdp_cybrbll","Sun Mar 26 2023 18:13:58 GMT-0400 (Eastern Daylight Time)","492369","3","1","","1276","","","","choice","","","img/2to1/1.png","1","145","384","0.5","0.1","2","1","",""
"animation","166","222685","0.0-5.0-2.80","63034df51d918e1e3b97e5ce","bdp_cybrbll","Sun Mar 26 2023 18:13:58 GMT-0400 (Eastern Daylight Time)","492369","3","1","","","","","","","","","","","145","","","","2","1","[{""stimulus"":""img/2to1/1.png"",""time"":100},{""stimulus"":""img/2to1/2.png"",""time"":198},{""stimulus"":""img/2to1/3.png"",""time"":297},{""stimulus"":""img/2to1/4.png"",""time"":396},{""stimulus"":""img/2to1/5.png"",""time"":495},{""stimulus"":""img/2to1/6.png"",""time"":595},{""stimulus"":""img/2to1/7.png"",""time"":693},{""stimulus"":""img/2to1/8.png"",""time"":792},{""stimulus"":""img/2to1/9.png"",""time"":892},{""stimulus"":""img/2to1/10.png"",""time"":990},{""stimulus"":""img/2to1/11.png"",""time"":1089},{""stimulus"":""img/2to1/12.png"",""time"":1188}]","[]"
"image-keyboard-response","167","223303","0.0-5.0-1.81","63034df51d918e1e3b97e5ce","bdp_cybrbll","Sun Mar 26 2023 18:13:58 GMT-0400 (Eastern Daylight Time)","492369","3","1","","null","","","","observe","","","img/1to3/1.png","null","144","616","0.5","0.1","1","3","",""
"animation","168","224591","0.0-5.0-2.81","63034df51d918e1e3b97e5ce","bdp_cybrbll","Sun Mar 26 2023 18:13:58 GMT-0400 (Eastern Daylight Time)","492369","3","1","","","","","","","","","","","144","","","","1","3","[{""stimulus"":""img/1to3/1.png"",""time"":100},{""stimulus"":""img/1to3/2.png"",""time"":199},{""stimulus"":""img/1to3/3.png"",""time"":298},{""stimulus"":""img/1to3/4.png"",""time"":398},{""stimulus"":""img/1to3/5.png"",""time"":496},{""stimulus"":""img/1to3/6.png"",""time"":596},{""stimulus"":""img/1to3/7.png"",""time"":695},{""stimulus"":""img/1to3/8.png"",""time"":794},{""stimulus"":""img/1to3/9.png"",""time"":893},{""stimulus"":""img/1to3/10.png"",""time"":992},{""stimulus"":""img/1to3/11.png"",""time"":1091},{""stimulus"":""img/1to3/12.png"",""time"":1189}]","[]"
"image-keyboard-response","169","224865","0.0-5.0-1.82","63034df51d918e1e3b97e5ce","bdp_cybrbll","Sun Mar 26 2023 18:13:58 GMT-0400 (Eastern Daylight Time)","492369","3","1","","null","","","","observe","","","img/3to2/1.png","null","143","272","0.5","0.1","3","2","",""
"animation","170","226153","0.0-5.0-2.82","63034df51d918e1e3b97e5ce","bdp_cybrbll","Sun Mar 26 2023 18:13:58 GMT-0400 (Eastern Daylight Time)","492369","3","1","","","","","","","","","","","143","","","","3","2","[{""stimulus"":""img/3to2/1.png"",""time"":100},{""stimulus"":""img/3to2/2.png"",""time"":200},{""stimulus"":""img/3to2/3.png"",""time"":298},{""stimulus"":""img/3to2/4.png"",""time"":397},{""stimulus"":""img/3to2/5.png"",""time"":496},{""stimulus"":""img/3to2/6.png"",""time"":595},{""stimulus"":""img/3to2/7.png"",""time"":694},{""stimulus"":""img/3to2/8.png"",""time"":793},{""stimulus"":""img/3to2/9.png"",""time"":892},{""stimulus"":""img/3to2/10.png"",""time"":991},{""stimulus"":""img/3to2/11.png"",""time"":1090},{""stimulus"":""img/3to2/12.png"",""time"":1190}]","[]"
"image-keyboard-response","171","226581","0.0-5.0-1.83","63034df51d918e1e3b97e5ce","bdp_cybrbll","Sun Mar 26 2023 18:13:58 GMT-0400 (Eastern Daylight Time)","492369","3","1","","428","","","","choice","","","img/2to1/1.png","2","142","757","0.5","0.1","2","3","",""
"animation","172","227869","0.0-5.0-2.83","63034df51d918e1e3b97e5ce","bdp_cybrbll","Sun Mar 26 2023 18:13:58 GMT-0400 (Eastern Daylight Time)","492369","3","1","","","","","","","","","","","142","","","","2","3","[{""stimulus"":""img/2to3/1.png"",""time"":101},{""stimulus"":""img/2to3/2.png"",""time"":199},{""stimulus"":""img/2to3/3.png"",""time"":298},{""stimulus"":""img/2to3/4.png"",""time"":398},{""stimulus"":""img/2to3/5.png"",""time"":497},{""stimulus"":""img/2to3/6.png"",""time"":595},{""stimulus"":""img/2to3/7.png"",""time"":694},{""stimulus"":""img/2to3/8.png"",""time"":793},{""stimulus"":""img/2to3/9.png"",""time"":893},{""stimulus"":""img/2to3/10.png"",""time"":992},{""stimulus"":""img/2to3/11.png"",""time"":1091},{""stimulus"":""img/2to3/12.png"",""time"":1189}]","[]"
"image-keyboard-response","173","228279","0.0-5.0-1.84","63034df51d918e1e3b97e5ce","bdp_cybrbll","Sun Mar 26 2023 18:13:58 GMT-0400 (Eastern Daylight Time)","492369","3","1","","null","","","","observe","","","img/3to2/1.png","null","141","409","0.5","0.1","3","1","",""
"animation","174","229567","0.0-5.0-2.84","63034df51d918e1e3b97e5ce","bdp_cybrbll","Sun Mar 26 2023 18:13:58 GMT-0400 (Eastern Daylight Time)","492369","3","1","","","","","","","","","","","141","","","","3","1","[{""stimulus"":""img/3to1/1.png"",""time"":100},{""stimulus"":""img/3to1/2.png"",""time"":199},{""stimulus"":""img/3to1/3.png"",""time"":298},{""stimulus"":""img/3to1/4.png"",""time"":398},{""stimulus"":""img/3to1/5.png"",""time"":496},{""stimulus"":""img/3to1/6.png"",""time"":596},{""stimulus"":""img/3to1/7.png"",""time"":695},{""stimulus"":""img/3to1/8.png"",""time"":794},{""stimulus"":""img/3to1/9.png"",""time"":893},{""stimulus"":""img/3to1/10.png"",""time"":991},{""stimulus"":""img/3to1/11.png"",""time"":1091},{""stimulus"":""img/3to1/12.png"",""time"":1190}]","[]"
"image-keyboard-response","175","229852","0.0-5.0-1.85","63034df51d918e1e3b97e5ce","bdp_cybrbll","Sun Mar 26 2023 18:13:58 GMT-0400 (Eastern Daylight Time)","492369","3","1","","null","","","","observe","","","img/1to3/1.png","null","140","284","0.5","0.1","1","3","",""
"animation","176","231141","0.0-5.0-2.85","63034df51d918e1e3b97e5ce","bdp_cybrbll","Sun Mar 26 2023 18:13:58 GMT-0400 (Eastern Daylight Time)","492369","3","1","","","","","","","","","","","140","","","","1","3","[{""stimulus"":""img/1to3/1.png"",""time"":101},{""stimulus"":""img/1to3/2.png"",""time"":200},{""stimulus"":""img/1to3/3.png"",""time"":299},{""stimulus"":""img/1to3/4.png"",""time"":397},{""stimulus"":""img/1to3/5.png"",""time"":496},{""stimulus"":""img/1to3/6.png"",""time"":596},{""stimulus"":""img/1to3/7.png"",""time"":694},{""stimulus"":""img/1to3/8.png"",""time"":794},{""stimulus"":""img/1to3/9.png"",""time"":892},{""stimulus"":""img/1to3/10.png"",""time"":992},{""stimulus"":""img/1to3/11.png"",""time"":1090},{""stimulus"":""img/1to3/12.png"",""time"":1189}]","[]"
"image-keyboard-response","177","232121","0.0-5.0-1.86","63034df51d918e1e3b97e5ce","bdp_cybrbll","Sun Mar 26 2023 18:13:58 GMT-0400 (Eastern Daylight Time)","492369","3","1","","null","","","","observe","","","img/3to2/1.png","null","139","979","0.5","0.1","3","1","",""
"animation","178","233409","0.0-5.0-2.86","63034df51d918e1e3b97e5ce","bdp_cybrbll","Sun Mar 26 2023 18:13:58 GMT-0400 (Eastern Daylight Time)","492369","3","1","","","","","","","","","","","139","","","","3","1","[{""stimulus"":""img/3to1/1.png"",""time"":101},{""stimulus"":""img/3to1/2.png"",""time"":199},{""stimulus"":""img/3to1/3.png"",""time"":298},{""stimulus"":""img/3to1/4.png"",""time"":397},{""stimulus"":""img/3to1/5.png"",""time"":496},{""stimulus"":""img/3to1/6.png"",""time"":595},{""stimulus"":""img/3to1/7.png"",""time"":694},{""stimulus"":""img/3to1/8.png"",""time"":794},{""stimulus"":""img/3to1/9.png"",""time"":892},{""stimulus"":""img/3to1/10.png"",""time"":992},{""stimulus"":""img/3to1/11.png"",""time"":1090},{""stimulus"":""img/3to1/12.png"",""time"":1190}]","[]"
"image-keyboard-response","179","233994","0.0-5.0-1.87","63034df51d918e1e3b97e5ce","bdp_cybrbll","Sun Mar 26 2023 18:13:58 GMT-0400 (Eastern Daylight Time)","492369","3","1","","null","","","","observe","","","img/1to3/1.png","null","138","584","0.5","0.1","1","3","",""
"animation","180","235283","0.0-5.0-2.87","63034df51d918e1e3b97e5ce","bdp_cybrbll","Sun Mar 26 2023 18:13:58 GMT-0400 (Eastern Daylight Time)","492369","3","1","","","","","","","","","","","138","","","","1","3","[{""stimulus"":""img/1to3/1.png"",""time"":100},{""stimulus"":""img/1to3/2.png"",""time"":200},{""stimulus"":""img/1to3/3.png"",""time"":298},{""stimulus"":""img/1to3/4.png"",""time"":398},{""stimulus"":""img/1to3/5.png"",""time"":496},{""stimulus"":""img/1to3/6.png"",""time"":596},{""stimulus"":""img/1to3/7.png"",""time"":694},{""stimulus"":""img/1to3/8.png"",""time"":806},{""stimulus"":""img/1to3/9.png"",""time"":893},{""stimulus"":""img/1to3/10.png"",""time"":992},{""stimulus"":""img/1to3/11.png"",""time"":1091},{""stimulus"":""img/1to3/12.png"",""time"":1190}]","[]"
"image-keyboard-response","181","235595","0.0-5.0-1.88","63034df51d918e1e3b97e5ce","bdp_cybrbll","Sun Mar 26 2023 18:13:58 GMT-0400 (Eastern Daylight Time)","492369","3","1","","null","","","","observe","","","img/3to2/1.png","null","137","310","0.5","0.1","3","2","",""
"animation","182","236883","0.0-5.0-2.88","63034df51d918e1e3b97e5ce","bdp_cybrbll","Sun Mar 26 2023 18:13:58 GMT-0400 (Eastern Daylight Time)","492369","3","1","","","","","","","","","","","137","","","","3","2","[{""stimulus"":""img/3to2/1.png"",""time"":101},{""stimulus"":""img/3to2/2.png"",""time"":201},{""stimulus"":""img/3to2/3.png"",""time"":298},{""stimulus"":""img/3to2/4.png"",""time"":397},{""stimulus"":""img/3to2/5.png"",""time"":496},{""stimulus"":""img/3to2/6.png"",""time"":595},{""stimulus"":""img/3to2/7.png"",""time"":694},{""stimulus"":""img/3to2/8.png"",""time"":793},{""stimulus"":""img/3to2/9.png"",""time"":893},{""stimulus"":""img/3to2/10.png"",""time"":991},{""stimulus"":""img/3to2/11.png"",""time"":1091},{""stimulus"":""img/3to2/12.png"",""time"":1190}]","[]"
"image-keyboard-response","183","237268","0.0-5.0-1.89","63034df51d918e1e3b97e5ce","bdp_cybrbll","Sun Mar 26 2023 18:13:58 GMT-0400 (Eastern Daylight Time)","492369","3","1","","385","","","","choice","","","img/2to1/1.png","1","136","526","0.5","0.1","2","1","",""
"animation","184","238556","0.0-5.0-2.89","63034df51d918e1e3b97e5ce","bdp_cybrbll","Sun Mar 26 2023 18:13:58 GMT-0400 (Eastern Daylight Time)","492369","3","1","","","","","","","","","","","136","","","","2","1","[{""stimulus"":""img/2to1/1.png"",""time"":100},{""stimulus"":""img/2to1/2.png"",""time"":199},{""stimulus"":""img/2to1/3.png"",""time"":299},{""stimulus"":""img/2to1/4.png"",""time"":398},{""stimulus"":""img/2to1/5.png"",""time"":496},{""stimulus"":""img/2to1/6.png"",""time"":596},{""stimulus"":""img/2to1/7.png"",""time"":694},{""stimulus"":""img/2to1/8.png"",""time"":794},{""stimulus"":""img/2to1/9.png"",""time"":893},{""stimulus"":""img/2to1/10.png"",""time"":991},{""stimulus"":""img/2to1/11.png"",""time"":1090},{""stimulus"":""img/2to1/12.png"",""time"":1190}]","[]"
"image-keyboard-response","185","239038","0.0-5.0-1.90","63034df51d918e1e3b97e5ce","bdp_cybrbll","Sun Mar 26 2023 18:13:58 GMT-0400 (Eastern Daylight Time)","492369","3","1","","null","","","","observe","","","img/1to3/1.png","null","135","480","0.5","0.1","1","3","",""
"animation","186","240326","0.0-5.0-2.90","63034df51d918e1e3b97e5ce","bdp_cybrbll","Sun Mar 26 2023 18:13:58 GMT-0400 (Eastern Daylight Time)","492369","3","1","","","","","","","","","","","135","","","","1","3","[{""stimulus"":""img/1to3/1.png"",""time"":100},{""stimulus"":""img/1to3/2.png"",""time"":199},{""stimulus"":""img/1to3/3.png"",""time"":298},{""stimulus"":""img/1to3/4.png"",""time"":397},{""stimulus"":""img/1to3/5.png"",""time"":496},{""stimulus"":""img/1to3/6.png"",""time"":596},{""stimulus"":""img/1to3/7.png"",""time"":695},{""stimulus"":""img/1to3/8.png"",""time"":794},{""stimulus"":""img/1to3/9.png"",""time"":892},{""stimulus"":""img/1to3/10.png"",""time"":992},{""stimulus"":""img/1to3/11.png"",""time"":1091},{""stimulus"":""img/1to3/12.png"",""time"":1190}]","[]"
"image-keyboard-response","187","240641","0.0-5.0-1.91","63034df51d918e1e3b97e5ce","bdp_cybrbll","Sun Mar 26 2023 18:13:58 GMT-0400 (Eastern Daylight Time)","492369","3","1","","null","","","","observe","","","img/3to2/1.png","null","134","314","0.5","0.1","3","2","",""
"animation","188","241929","0.0-5.0-2.91","63034df51d918e1e3b97e5ce","bdp_cybrbll","Sun Mar 26 2023 18:13:58 GMT-0400 (Eastern Daylight Time)","492369","3","1","","","","","","","","","","","134","","","","3","2","[{""stimulus"":""img/3to2/1.png"",""time"":100},{""stimulus"":""img/3to2/2.png"",""time"":200},{""stimulus"":""img/3to2/3.png"",""time"":299},{""stimulus"":""img/3to2/4.png"",""time"":397},{""stimulus"":""img/3to2/5.png"",""time"":496},{""stimulus"":""img/3to2/6.png"",""time"":596},{""stimulus"":""img/3to2/7.png"",""time"":695},{""stimulus"":""img/3to2/8.png"",""time"":793},{""stimulus"":""img/3to2/9.png"",""time"":892},{""stimulus"":""img/3to2/10.png"",""time"":992},{""stimulus"":""img/3to2/11.png"",""time"":1090},{""stimulus"":""img/3to2/12.png"",""time"":1194}]","[]"
"image-keyboard-response","189","242541","0.0-5.0-1.92","63034df51d918e1e3b97e5ce","bdp_cybrbll","Sun Mar 26 2023 18:13:58 GMT-0400 (Eastern Daylight Time)","492369","3","1","","612","","","","choice","","","img/2to1/1.png","1","133","695","0.5","0.1","2","1","",""
