"trial_type","trial_index","time_elapsed","internal_node_id","subject_id","task","startTime","totalTime","fairPartner","unfairPartner","view_history","rt","event","trial","time","trialtype","success","stimulus","key_press","throwsLeft","rtDur","pFair","pUnfair","holder","receiver","animation_sequence","responses"
"pavlovia","0","1","0.0-0.0","63f3a7e45f338798fd025d99","bdp_cybrbll","Tue Mar 28 2023 08:27:29 GMT-0500 (Central Daylight Time)","434671","3","1","","","","","","","","","","","","","","","","",""
"instructions","1","3733","0.0-1.0","63f3a7e45f338798fd025d99","bdp_cybrbll","Tue Mar 28 2023 08:27:29 GMT-0500 (Central Daylight Time)","434671","3","1","[{""page_index"":0,""viewing_time"":3731}]","3731","","","","","","","","","","","","","","",""
"","","","","63f3a7e45f338798fd025d99","bdp_cybrbll","Tue Mar 28 2023 08:27:29 GMT-0500 (Central Daylight Time)","434671","3","1","","","fullscreenenter","2","8863","fullscreenenter","","","","","","","","","","",""
"fullscreen","2","9832","0.0-2.0","63f3a7e45f338798fd025d99","bdp_cybrbll","Tue Mar 28 2023 08:27:29 GMT-0500 (Central Daylight Time)","434671","3","1","","","","","","","true","","","","","","","","","",""
"instructions","3","16389","0.0-4.0","63f3a7e45f338798fd025d99","bdp_cybrbll","Tue Mar 28 2023 08:27:29 GMT-0500 (Central Daylight Time)","434671","3","1","[{""page_index"":0,""viewing_time"":6556}]","6556","","","","","","","","","","","","","","",""
"image-keyboard-response","4","17896","0.0-5.0-1.0","63f3a7e45f338798fd025d99","bdp_cybrbll","Tue Mar 28 2023 08:27:29 GMT-0500 (Central Daylight Time)","434671","3","1","","1506","","","","choice","","img/2to1/1.png","2","225","177","0.5","0.5","2","3","",""
"animation","5","19191","0.0-5.0-2.0","63f3a7e45f338798fd025d99","bdp_cybrbll","Tue Mar 28 2023 08:27:29 GMT-0500 (Central Daylight Time)","434671","3","1","","","","","","","","","","225","","","","2","3","[{""stimulus"":""img/2to3/1.png"",""time"":112},{""stimulus"":""img/2to3/2.png"",""time"":199},{""stimulus"":""img/2to3/3.png"",""time"":304},{""stimulus"":""img/2to3/4.png"",""time"":400},{""stimulus"":""img/2to3/5.png"",""time"":496},{""stimulus"":""img/2to3/6.png"",""time"":608},{""stimulus"":""img/2to3/7.png"",""time"":704},{""stimulus"":""img/2to3/8.png"",""time"":799},{""stimulus"":""img/2to3/9.png"",""time"":895},{""stimulus"":""img/2to3/10.png"",""time"":991},{""stimulus"":""img/2to3/11.png"",""time"":1103},{""stimulus"":""img/2to3/12.png"",""time"":1199}]","[]"
"image-keyboard-response","6","19431","0.0-5.0-1.1","63f3a7e45f338798fd025d99","bdp_cybrbll","Tue Mar 28 2023 08:27:29 GMT-0500 (Central Daylight Time)","434671","3","1","","null","","","","observe","","img/3to2/1.png","null","224","239","0.5","0.5","3","1","",""
"animation","7","20718","0.0-5.0-2.1","63f3a7e45f338798fd025d99","bdp_cybrbll","Tue Mar 28 2023 08:27:29 GMT-0500 (Central Daylight Time)","434671","3","1","","","","","","","","","","224","","","","3","1","[{""stimulus"":""img/3to1/1.png"",""time"":112},{""stimulus"":""img/3to1/2.png"",""time"":199},{""stimulus"":""img/3to1/3.png"",""time"":304},{""stimulus"":""img/3to1/4.png"",""time"":400},{""stimulus"":""img/3to1/5.png"",""time"":496},{""stimulus"":""img/3to1/6.png"",""time"":595},{""stimulus"":""img/3to1/7.png"",""time"":704},{""stimulus"":""img/3to1/8.png"",""time"":800},{""stimulus"":""img/3to1/9.png"",""time"":896},{""stimulus"":""img/3to1/10.png"",""time"":992},{""stimulus"":""img/3to1/11.png"",""time"":1104},{""stimulus"":""img/3to1/12.png"",""time"":1199}]","[]"
"image-keyboard-response","8","22290","0.0-5.0-1.2","63f3a7e45f338798fd025d99","bdp_cybrbll","Tue Mar 28 2023 08:27:29 GMT-0500 (Central Daylight Time)","434671","3","1","","null","","","","observe","","img/1to3/1.png","null","223","1567","0.5","0.5","1","2","",""
"animation","9","23582","0.0-5.0-2.2","63f3a7e45f338798fd025d99","bdp_cybrbll","Tue Mar 28 2023 08:27:29 GMT-0500 (Central Daylight Time)","434671","3","1","","","","","","","","","","223","","","","1","2","[{""stimulus"":""img/1to2/1.png"",""time"":112},{""stimulus"":""img/1to2/2.png"",""time"":199},{""stimulus"":""img/1to2/3.png"",""time"":304},{""stimulus"":""img/1to2/4.png"",""time"":400},{""stimulus"":""img/1to2/5.png"",""time"":496},{""stimulus"":""img/1to2/6.png"",""time"":606},{""stimulus"":""img/1to2/7.png"",""time"":702},{""stimulus"":""img/1to2/8.png"",""time"":798},{""stimulus"":""img/1to2/9.png"",""time"":894},{""stimulus"":""img/1to2/10.png"",""time"":1005},{""stimulus"":""img/1to2/11.png"",""time"":1100},{""stimulus"":""img/1to2/12.png"",""time"":1196}]","[]"
"image-keyboard-response","10","26138","0.0-5.0-1.3","63f3a7e45f338798fd025d99","bdp_cybrbll","Tue Mar 28 2023 08:27:29 GMT-0500 (Central Daylight Time)","434671","3","1","","2556","","","","choice","","img/2to1/1.png","2","222","483","0.5","0.5","2","3","",""
"animation","11","27430","0.0-5.0-2.3","63f3a7e45f338798fd025d99","bdp_cybrbll","Tue Mar 28 2023 08:27:29 GMT-0500 (Central Daylight Time)","434671","3","1","","","","","","","","","","222","","","","2","3","[{""stimulus"":""img/2to3/1.png"",""time"":111},{""stimulus"":""img/2to3/2.png"",""time"":198},{""stimulus"":""img/2to3/3.png"",""time"":297},{""stimulus"":""img/2to3/4.png"",""time"":398},{""stimulus"":""img/2to3/5.png"",""time"":508},{""stimulus"":""img/2to3/6.png"",""time"":604},{""stimulus"":""img/2to3/7.png"",""time"":700},{""stimulus"":""img/2to3/8.png"",""time"":796},{""stimulus"":""img/2to3/9.png"",""time"":892},{""stimulus"":""img/2to3/10.png"",""time"":1004},{""stimulus"":""img/2to3/11.png"",""time"":1090},{""stimulus"":""img/2to3/12.png"",""time"":1196}]","[]"
"image-keyboard-response","12","27766","0.0-5.0-1.4","63f3a7e45f338798fd025d99","bdp_cybrbll","Tue Mar 28 2023 08:27:29 GMT-0500 (Central Daylight Time)","434671","3","1","","null","","","","observe","","img/3to2/1.png","null","221","325","0.5","0.5","3","2","",""
"animation","13","29053","0.0-5.0-2.4","63f3a7e45f338798fd025d99","bdp_cybrbll","Tue Mar 28 2023 08:27:29 GMT-0500 (Central Daylight Time)","434671","3","1","","","","","","","","","","221","","","","3","2","[{""stimulus"":""img/3to2/1.png"",""time"":108},{""stimulus"":""img/3to2/2.png"",""time"":204},{""stimulus"":""img/3to2/3.png"",""time"":298},{""stimulus"":""img/3to2/4.png"",""time"":397},{""stimulus"":""img/3to2/5.png"",""time"":496},{""stimulus"":""img/3to2/6.png"",""time"":595},{""stimulus"":""img/3to2/7.png"",""time"":694},{""stimulus"":""img/3to2/8.png"",""time"":793},{""stimulus"":""img/3to2/9.png"",""time"":892},{""stimulus"":""img/3to2/10.png"",""time"":991},{""stimulus"":""img/3to2/11.png"",""time"":1089},{""stimulus"":""img/3to2/12.png"",""time"":1188}]","[]"
"image-keyboard-response","14","30085","0.0-5.0-1.5","63f3a7e45f338798fd025d99","bdp_cybrbll","Tue Mar 28 2023 08:27:29 GMT-0500 (Central Daylight Time)","434671","3","1","","1032","","","","choice","","img/2to1/1.png","1","220","219","0.5","0.5","2","1","",""
"animation","15","31373","0.0-5.0-2.5","63f3a7e45f338798fd025d99","bdp_cybrbll","Tue Mar 28 2023 08:27:29 GMT-0500 (Central Daylight Time)","434671","3","1","","","","","","","","","","220","","","","2","1","[{""stimulus"":""img/2to1/1.png"",""time"":100},{""stimulus"":""img/2to1/2.png"",""time"":199},{""stimulus"":""img/2to1/3.png"",""time"":298},{""stimulus"":""img/2to1/4.png"",""time"":397},{""stimulus"":""img/2to1/5.png"",""time"":496},{""stimulus"":""img/2to1/6.png"",""time"":594},{""stimulus"":""img/2to1/7.png"",""time"":693},{""stimulus"":""img/2to1/8.png"",""time"":793},{""stimulus"":""img/2to1/9.png"",""time"":892},{""stimulus"":""img/2to1/10.png"",""time"":991},{""stimulus"":""img/2to1/11.png"",""time"":1090},{""stimulus"":""img/2to1/12.png"",""time"":1189}]","[]"
"image-keyboard-response","16","31635","0.0-5.0-1.6","63f3a7e45f338798fd025d99","bdp_cybrbll","Tue Mar 28 2023 08:27:29 GMT-0500 (Central Daylight Time)","434671","3","1","","null","","","","observe","","img/1to3/1.png","null","219","261","0.5","0.5","1","2","",""
"animation","17","32922","0.0-5.0-2.6","63f3a7e45f338798fd025d99","bdp_cybrbll","Tue Mar 28 2023 08:27:29 GMT-0500 (Central Daylight Time)","434671","3","1","","","","","","","","","","219","","","","1","2","[{""stimulus"":""img/1to2/1.png"",""time"":100},{""stimulus"":""img/1to2/2.png"",""time"":199},{""stimulus"":""img/1to2/3.png"",""time"":299},{""stimulus"":""img/1to2/4.png"",""time"":397},{""stimulus"":""img/1to2/5.png"",""time"":496},{""stimulus"":""img/1to2/6.png"",""time"":595},{""stimulus"":""img/1to2/7.png"",""time"":693},{""stimulus"":""img/1to2/8.png"",""time"":792},{""stimulus"":""img/1to2/9.png"",""time"":891},{""stimulus"":""img/1to2/10.png"",""time"":990},{""stimulus"":""img/1to2/11.png"",""time"":1089},{""stimulus"":""img/1to2/12.png"",""time"":1188}]","[]"
"image-keyboard-response","18","33493","0.0-5.0-1.7","63f3a7e45f338798fd025d99","bdp_cybrbll","Tue Mar 28 2023 08:27:29 GMT-0500 (Central Daylight Time)","434671","3","1","","571","","","","choice","","img/2to1/1.png","2","218","850","0.5","0.5","2","3","",""
"animation","19","34780","0.0-5.0-2.7","63f3a7e45f338798fd025d99","bdp_cybrbll","Tue Mar 28 2023 08:27:29 GMT-0500 (Central Daylight Time)","434671","3","1","","","","","","","","","","218","","","","2","3","[{""stimulus"":""img/2to3/1.png"",""time"":99},{""stimulus"":""img/2to3/2.png"",""time"":198},{""stimulus"":""img/2to3/3.png"",""time"":297},{""stimulus"":""img/2to3/4.png"",""time"":396},{""stimulus"":""img/2to3/5.png"",""time"":499},{""stimulus"":""img/2to3/6.png"",""time"":594},{""stimulus"":""img/2to3/7.png"",""time"":693},{""stimulus"":""img/2to3/8.png"",""time"":792},{""stimulus"":""img/2to3/9.png"",""time"":891},{""stimulus"":""img/2to3/10.png"",""time"":990},{""stimulus"":""img/2to3/11.png"",""time"":1089},{""stimulus"":""img/2to3/12.png"",""time"":1188}]","[]"
"image-keyboard-response","20","35281","0.0-5.0-1.8","63f3a7e45f338798fd025d99","bdp_cybrbll","Tue Mar 28 2023 08:27:29 GMT-0500 (Central Daylight Time)","434671","3","1","","null","","","","observe","","img/3to2/1.png","null","217","500","0.5","0.5","3","1","",""
"animation","21","36569","0.0-5.0-2.8","63f3a7e45f338798fd025d99","bdp_cybrbll","Tue Mar 28 2023 08:27:29 GMT-0500 (Central Daylight Time)","434671","3","1","","","","","","","","","","217","","","","3","1","[{""stimulus"":""img/3to1/1.png"",""time"":101},{""stimulus"":""img/3to1/2.png"",""time"":200},{""stimulus"":""img/3to1/3.png"",""time"":299},{""stimulus"":""img/3to1/4.png"",""time"":398},{""stimulus"":""img/3to1/5.png"",""time"":497},{""stimulus"":""img/3to1/6.png"",""time"":596},{""stimulus"":""img/3to1/7.png"",""time"":694},{""stimulus"":""img/3to1/8.png"",""time"":793},{""stimulus"":""img/3to1/9.png"",""time"":892},{""stimulus"":""img/3to1/10.png"",""time"":991},{""stimulus"":""img/3to1/11.png"",""time"":1090},{""stimulus"":""img/3to1/12.png"",""time"":1189}]","[]"
"image-keyboard-response","22","36879","0.0-5.0-1.9","63f3a7e45f338798fd025d99","bdp_cybrbll","Tue Mar 28 2023 08:27:29 GMT-0500 (Central Daylight Time)","434671","3","1","","null","","","","observe","","img/1to3/1.png","null","216","309","0.5","0.5","1","2","",""
"animation","23","38166","0.0-5.0-2.9","63f3a7e45f338798fd025d99","bdp_cybrbll","Tue Mar 28 2023 08:27:29 GMT-0500 (Central Daylight Time)","434671","3","1","","","","","","","","","","216","","","","1","2","[{""stimulus"":""img/1to2/1.png"",""time"":100},{""stimulus"":""img/1to2/2.png"",""time"":199},{""stimulus"":""img/1to2/3.png"",""time"":298},{""stimulus"":""img/1to2/4.png"",""time"":397},{""stimulus"":""img/1to2/5.png"",""time"":496},{""stimulus"":""img/1to2/6.png"",""time"":595},{""stimulus"":""img/1to2/7.png"",""time"":693},{""stimulus"":""img/1to2/8.png"",""time"":792},{""stimulus"":""img/1to2/9.png"",""time"":891},{""stimulus"":""img/1to2/10.png"",""time"":990},{""stimulus"":""img/1to2/11.png"",""time"":1089},{""stimulus"":""img/1to2/12.png"",""time"":1188}]","[]"
"image-keyboard-response","24","38479","0.0-5.0-1.10","63f3a7e45f338798fd025d99","bdp_cybrbll","Tue Mar 28 2023 08:27:29 GMT-0500 (Central Daylight Time)","434671","3","1","","313","","","","choice","","img/2to1/1.png","2","215","1076","0.5","0.5","2","3","",""
"animation","25","39766","0.0-5.0-2.10","63f3a7e45f338798fd025d99","bdp_cybrbll","Tue Mar 28 2023 08:27:29 GMT-0500 (Central Daylight Time)","434671","3","1","","","","","","","","","","215","","","","2","3","[{""stimulus"":""img/2to3/1.png"",""time"":100},{""stimulus"":""img/2to3/2.png"",""time"":199},{""stimulus"":""img/2to3/3.png"",""time"":298},{""stimulus"":""img/2to3/4.png"",""time"":396},{""stimulus"":""img/2to3/5.png"",""time"":495},{""stimulus"":""img/2to3/6.png"",""time"":594},{""stimulus"":""img/2to3/7.png"",""time"":693},{""stimulus"":""img/2to3/8.png"",""time"":792},{""stimulus"":""img/2to3/9.png"",""time"":891},{""stimulus"":""img/2to3/10.png"",""time"":990},{""stimulus"":""img/2to3/11.png"",""time"":1089},{""stimulus"":""img/2to3/12.png"",""time"":1188}]","[]"
"image-keyboard-response","26","40028","0.0-5.0-1.11","63f3a7e45f338798fd025d99","bdp_cybrbll","Tue Mar 28 2023 08:27:29 GMT-0500 (Central Daylight Time)","434671","3","1","","null","","","","observe","","img/3to2/1.png","null","214","261","0.5","0.5","3","2","",""
"animation","27","41316","0.0-5.0-2.11","63f3a7e45f338798fd025d99","bdp_cybrbll","Tue Mar 28 2023 08:27:29 GMT-0500 (Central Daylight Time)","434671","3","1","","","","","","","","","","214","","","","3","2","[{""stimulus"":""img/3to2/1.png"",""time"":100},{""stimulus"":""img/3to2/2.png"",""time"":199},{""stimulus"":""img/3to2/3.png"",""time"":298},{""stimulus"":""img/3to2/4.png"",""time"":397},{""stimulus"":""img/3to2/5.png"",""time"":496},{""stimulus"":""img/3to2/6.png"",""time"":595},{""stimulus"":""img/3to2/7.png"",""time"":694},{""stimulus"":""img/3to2/8.png"",""time"":792},{""stimulus"":""img/3to2/9.png"",""time"":891},{""stimulus"":""img/3to2/10.png"",""time"":990},{""stimulus"":""img/3to2/11.png"",""time"":1089},{""stimulus"":""img/3to2/12.png"",""time"":1188}]","[]"
"image-keyboard-response","28","41583","0.0-5.0-1.12","63f3a7e45f338798fd025d99","bdp_cybrbll","Tue Mar 28 2023 08:27:29 GMT-0500 (Central Daylight Time)","434671","3","1","","267","","","","choice","","img/2to1/1.png","1","213","576","0.5","0.5","2","1","",""
"animation","29","42871","0.0-5.0-2.12","63f3a7e45f338798fd025d99","bdp_cybrbll","Tue Mar 28 2023 08:27:29 GMT-0500 (Central Daylight Time)","434671","3","1","","","","","","","","","","213","","","","2","1","[{""stimulus"":""img/2to1/1.png"",""time"":99},{""stimulus"":""img/2to1/2.png"",""time"":198},{""stimulus"":""img/2to1/3.png"",""time"":297},{""stimulus"":""img/2to1/4.png"",""time"":396},{""stimulus"":""img/2to1/5.png"",""time"":495},{""stimulus"":""img/2to1/6.png"",""time"":594},{""stimulus"":""img/2to1/7.png"",""time"":693},{""stimulus"":""img/2to1/8.png"",""time"":792},{""stimulus"":""img/2to1/9.png"",""time"":891},{""stimulus"":""img/2to1/10.png"",""time"":990},{""stimulus"":""img/2to1/11.png"",""time"":1089},{""stimulus"":""img/2to1/12.png"",""time"":1188}]","[]"
"image-keyboard-response","30","43280","0.0-5.0-1.13","63f3a7e45f338798fd025d99","bdp_cybrbll","Tue Mar 28 2023 08:27:29 GMT-0500 (Central Daylight Time)","434671","3","1","","null","","","","observe","","img/1to3/1.png","null","212","408","0.5","0.5","1","2","",""
"animation","31","44567","0.0-5.0-2.13","63f3a7e45f338798fd025d99","bdp_cybrbll","Tue Mar 28 2023 08:27:29 GMT-0500 (Central Daylight Time)","434671","3","1","","","","","","","","","","212","","","","1","2","[{""stimulus"":""img/1to2/1.png"",""time"":100},{""stimulus"":""img/1to2/2.png"",""time"":199},{""stimulus"":""img/1to2/3.png"",""time"":298},{""stimulus"":""img/1to2/4.png"",""time"":397},{""stimulus"":""img/1to2/5.png"",""time"":496},{""stimulus"":""img/1to2/6.png"",""time"":595},{""stimulus"":""img/1to2/7.png"",""time"":693},{""stimulus"":""img/1to2/8.png"",""time"":792},{""stimulus"":""img/1to2/9.png"",""time"":891},{""stimulus"":""img/1to2/10.png"",""time"":991},{""stimulus"":""img/1to2/11.png"",""time"":1090},{""stimulus"":""img/1to2/12.png"",""time"":1189}]","[]"
"image-keyboard-response","32","45540","0.0-5.0-1.14","63f3a7e45f338798fd025d99","bdp_cybrbll","Tue Mar 28 2023 08:27:29 GMT-0500 (Central Daylight Time)","434671","3","1","","972","","","","choice","","img/2to1/1.png","2","211","979","0.5","0.5","2","3","",""
"animation","33","46828","0.0-5.0-2.14","63f3a7e45f338798fd025d99","bdp_cybrbll","Tue Mar 28 2023 08:27:29 GMT-0500 (Central Daylight Time)","434671","3","1","","","","","","","","","","211","","","","2","3","[{""stimulus"":""img/2to3/1.png"",""time"":100},{""stimulus"":""img/2to3/2.png"",""time"":199},{""stimulus"":""img/2to3/3.png"",""time"":298},{""stimulus"":""img/2to3/4.png"",""time"":397},{""stimulus"":""img/2to3/5.png"",""time"":496},{""stimulus"":""img/2to3/6.png"",""time"":595},{""stimulus"":""img/2to3/7.png"",""time"":694},{""stimulus"":""img/2to3/8.png"",""time"":793},{""stimulus"":""img/2to3/9.png"",""time"":892},{""stimulus"":""img/2to3/10.png"",""time"":991},{""stimulus"":""img/2to3/11.png"",""time"":1090},{""stimulus"":""img/2to3/12.png"",""time"":1189}]","[]"
"image-keyboard-response","34","47590","0.0-5.0-1.15","63f3a7e45f338798fd025d99","bdp_cybrbll","Tue Mar 28 2023 08:27:29 GMT-0500 (Central Daylight Time)","434671","3","1","","null","","","","observe","","img/3to2/1.png","null","210","761","0.5","0.5","3","2","",""
"animation","35","48877","0.0-5.0-2.15","63f3a7e45f338798fd025d99","bdp_cybrbll","Tue Mar 28 2023 08:27:29 GMT-0500 (Central Daylight Time)","434671","3","1","","","","","","","","","","210","","","","3","2","[{""stimulus"":""img/3to2/1.png"",""time"":100},{""stimulus"":""img/3to2/2.png"",""time"":199},{""stimulus"":""img/3to2/3.png"",""time"":298},{""stimulus"":""img/3to2/4.png"",""time"":397},{""stimulus"":""img/3to2/5.png"",""time"":496},{""stimulus"":""img/3to2/6.png"",""time"":595},{""stimulus"":""img/3to2/7.png"",""time"":694},{""stimulus"":""img/3to2/8.png"",""time"":792},{""stimulus"":""img/3to2/9.png"",""time"":891},{""stimulus"":""img/3to2/10.png"",""time"":990},{""stimulus"":""img/3to2/11.png"",""time"":1090},{""stimulus"":""img/3to2/12.png"",""time"":1189}]","[]"
"image-keyboard-response","36","49712","0.0-5.0-1.16","63f3a7e45f338798fd025d99","bdp_cybrbll","Tue Mar 28 2023 08:27:29 GMT-0500 (Central Daylight Time)","434671","3","1","","834","","","","choice","","img/2to1/1.png","1","209","701","0.5","0.5","2","1","",""
"animation","37","51000","0.0-5.0-2.16","63f3a7e45f338798fd025d99","bdp_cybrbll","Tue Mar 28 2023 08:27:29 GMT-0500 (Central Daylight Time)","434671","3","1","","","","","","","","","","209","","","","2","1","[{""stimulus"":""img/2to1/1.png"",""time"":100},{""stimulus"":""img/2to1/2.png"",""time"":199},{""stimulus"":""img/2to1/3.png"",""time"":298},{""stimulus"":""img/2to1/4.png"",""time"":397},{""stimulus"":""img/2to1/5.png"",""time"":496},{""stimulus"":""img/2to1/6.png"",""time"":595},{""stimulus"":""img/2to1/7.png"",""time"":694},{""stimulus"":""img/2to1/8.png"",""time"":793},{""stimulus"":""img/2to1/9.png"",""time"":892},{""stimulus"":""img/2to1/10.png"",""time"":991},{""stimulus"":""img/2to1/11.png"",""time"":1090},{""stimulus"":""img/2to1/12.png"",""time"":1189}]","[]"
"image-keyboard-response","38","51889","0.0-5.0-1.17","63f3a7e45f338798fd025d99","bdp_cybrbll","Tue Mar 28 2023 08:27:29 GMT-0500 (Central Daylight Time)","434671","3","1","","null","","","","observe","","img/1to3/1.png","null","208","888","0.5","0.5","1","3","",""
"animation","39","53176","0.0-5.0-2.17","63f3a7e45f338798fd025d99","bdp_cybrbll","Tue Mar 28 2023 08:27:29 GMT-0500 (Central Daylight Time)","434671","3","1","","","","","","","","","","208","","","","1","3","[{""stimulus"":""img/1to3/1.png"",""time"":100},{""stimulus"":""img/1to3/2.png"",""time"":199},{""stimulus"":""img/1to3/3.png"",""time"":298},{""stimulus"":""img/1to3/4.png"",""time"":397},{""stimulus"":""img/1to3/5.png"",""time"":496},{""stimulus"":""img/1to3/6.png"",""time"":595},{""stimulus"":""img/1to3/7.png"",""time"":694},{""stimulus"":""img/1to3/8.png"",""time"":792},{""stimulus"":""img/1to3/9.png"",""time"":891},{""stimulus"":""img/1to3/10.png"",""time"":990},{""stimulus"":""img/1to3/11.png"",""time"":1089},{""stimulus"":""img/1to3/12.png"",""time"":1188}]","[]"
"image-keyboard-response","40","53536","0.0-5.0-1.18","63f3a7e45f338798fd025d99","bdp_cybrbll","Tue Mar 28 2023 08:27:29 GMT-0500 (Central Daylight Time)","434671","3","1","","null","","","","observe","","img/3to2/1.png","null","207","359","0.5","0.5","3","1","",""
"animation","41","54824","0.0-5.0-2.18","63f3a7e45f338798fd025d99","bdp_cybrbll","Tue Mar 28 2023 08:27:29 GMT-0500 (Central Daylight Time)","434671","3","1","","","","","","","","","","207","","","","3","1","[{""stimulus"":""img/3to1/1.png"",""time"":100},{""stimulus"":""img/3to1/2.png"",""time"":199},{""stimulus"":""img/3to1/3.png"",""time"":298},{""stimulus"":""img/3to1/4.png"",""time"":397},{""stimulus"":""img/3to1/5.png"",""time"":496},{""stimulus"":""img/3to1/6.png"",""time"":595},{""stimulus"":""img/3to1/7.png"",""time"":693},{""stimulus"":""img/3to1/8.png"",""time"":792},{""stimulus"":""img/3to1/9.png"",""time"":891},{""stimulus"":""img/3to1/10.png"",""time"":990},{""stimulus"":""img/3to1/11.png"",""time"":1089},{""stimulus"":""img/3to1/12.png"",""time"":1188}]","[]"
"image-keyboard-response","42","55370","0.0-5.0-1.19","63f3a7e45f338798fd025d99","bdp_cybrbll","Tue Mar 28 2023 08:27:29 GMT-0500 (Central Daylight Time)","434671","3","1","","null","","","","observe","","img/1to3/1.png","null","206","545","0.5","0.5","1","2","",""
"animation","43","56657","0.0-5.0-2.19","63f3a7e45f338798fd025d99","bdp_cybrbll","Tue Mar 28 2023 08:27:29 GMT-0500 (Central Daylight Time)","434671","3","1","","","","","","","","","","206","","","","1","2","[{""stimulus"":""img/1to2/1.png"",""time"":100},{""stimulus"":""img/1to2/2.png"",""time"":199},{""stimulus"":""img/1to2/3.png"",""time"":298},{""stimulus"":""img/1to2/4.png"",""time"":397},{""stimulus"":""img/1to2/5.png"",""time"":496},{""stimulus"":""img/1to2/6.png"",""time"":595},{""stimulus"":""img/1to2/7.png"",""time"":693},{""stimulus"":""img/1to2/8.png"",""time"":792},{""stimulus"":""img/1to2/9.png"",""time"":891},{""stimulus"":""img/1to2/10.png"",""time"":990},{""stimulus"":""img/1to2/11.png"",""time"":1089},{""stimulus"":""img/1to2/12.png"",""time"":1188}]","[]"
"image-keyboard-response","44","57163","0.0-5.0-1.20","63f3a7e45f338798fd025d99","bdp_cybrbll","Tue Mar 28 2023 08:27:29 GMT-0500 (Central Daylight Time)","434671","3","1","","505","","","","choice","","img/2to1/1.png","2","205","1271","0.5","0.5","2","3","",""
"animation","45","58451","0.0-5.0-2.20","63f3a7e45f338798fd025d99","bdp_cybrbll","Tue Mar 28 2023 08:27:29 GMT-0500 (Central Daylight Time)","434671","3","1","","","","","","","","","","205","","","","2","3","[{""stimulus"":""img/2to3/1.png"",""time"":100},{""stimulus"":""img/2to3/2.png"",""time"":199},{""stimulus"":""img/2to3/3.png"",""time"":297},{""stimulus"":""img/2to3/4.png"",""time"":397},{""stimulus"":""img/2to3/5.png"",""time"":496},{""stimulus"":""img/2to3/6.png"",""time"":595},{""stimulus"":""img/2to3/7.png"",""time"":694},{""stimulus"":""img/2to3/8.png"",""time"":793},{""stimulus"":""img/2to3/9.png"",""time"":892},{""stimulus"":""img/2to3/10.png"",""time"":991},{""stimulus"":""img/2to3/11.png"",""time"":1090},{""stimulus"":""img/2to3/12.png"",""time"":1189}]","[]"
"image-keyboard-response","46","59137","0.0-5.0-1.21","63f3a7e45f338798fd025d99","bdp_cybrbll","Tue Mar 28 2023 08:27:29 GMT-0500 (Central Daylight Time)","434671","3","1","","null","","","","observe","","img/3to2/1.png","null","204","685","0.5","0.5","3","2","",""
"animation","47","60424","0.0-5.0-2.21","63f3a7e45f338798fd025d99","bdp_cybrbll","Tue Mar 28 2023 08:27:29 GMT-0500 (Central Daylight Time)","434671","3","1","","","","","","","","","","204","","","","3","2","[{""stimulus"":""img/3to2/1.png"",""time"":100},{""stimulus"":""img/3to2/2.png"",""time"":199},{""stimulus"":""img/3to2/3.png"",""time"":298},{""stimulus"":""img/3to2/4.png"",""time"":397},{""stimulus"":""img/3to2/5.png"",""time"":496},{""stimulus"":""img/3to2/6.png"",""time"":595},{""stimulus"":""img/3to2/7.png"",""time"":693},{""stimulus"":""img/3to2/8.png"",""time"":792},{""stimulus"":""img/3to2/9.png"",""time"":891},{""stimulus"":""img/3to2/10.png"",""time"":990},{""stimulus"":""img/3to2/11.png"",""time"":1089},{""stimulus"":""img/3to2/12.png"",""time"":1188}]","[]"
"image-keyboard-response","48","60704","0.0-5.0-1.22","63f3a7e45f338798fd025d99","bdp_cybrbll","Tue Mar 28 2023 08:27:29 GMT-0500 (Central Daylight Time)","434671","3","1","","280","","","","choice","","img/2to1/1.png","1","203","272","0.5","0.5","2","1","",""
"animation","49","61992","0.0-5.0-2.22","63f3a7e45f338798fd025d99","bdp_cybrbll","Tue Mar 28 2023 08:27:29 GMT-0500 (Central Daylight Time)","434671","3","1","","","","","","","","","","203","","","","2","1","[{""stimulus"":""img/2to1/1.png"",""time"":99},{""stimulus"":""img/2to1/2.png"",""time"":198},{""stimulus"":""img/2to1/3.png"",""time"":297},{""stimulus"":""img/2to1/4.png"",""time"":396},{""stimulus"":""img/2to1/5.png"",""time"":495},{""stimulus"":""img/2to1/6.png"",""time"":594},{""stimulus"":""img/2to1/7.png"",""time"":693},{""stimulus"":""img/2to1/8.png"",""time"":792},{""stimulus"":""img/2to1/9.png"",""time"":891},{""stimulus"":""img/2to1/10.png"",""time"":990},{""stimulus"":""img/2to1/11.png"",""time"":1089},{""stimulus"":""img/2to1/12.png"",""time"":1188}]","[]"
"image-keyboard-response","50","62534","0.0-5.0-1.23","63f3a7e45f338798fd025d99","bdp_cybrbll","Tue Mar 28 2023 08:27:29 GMT-0500 (Central Daylight Time)","434671","3","1","","null","","","","observe","","img/1to3/1.png","null","202","541","0.5","0.5","1","3","",""
"animation","51","63822","0.0-5.0-2.23","63f3a7e45f338798fd025d99","bdp_cybrbll","Tue Mar 28 2023 08:27:29 GMT-0500 (Central Daylight Time)","434671","3","1","","","","","","","","","","202","","","","1","3","[{""stimulus"":""img/1to3/1.png"",""time"":100},{""stimulus"":""img/1to3/2.png"",""time"":199},{""stimulus"":""img/1to3/3.png"",""time"":298},{""stimulus"":""img/1to3/4.png"",""time"":397},{""stimulus"":""img/1to3/5.png"",""time"":496},{""stimulus"":""img/1to3/6.png"",""time"":595},{""stimulus"":""img/1to3/7.png"",""time"":693},{""stimulus"":""img/1to3/8.png"",""time"":792},{""stimulus"":""img/1to3/9.png"",""time"":891},{""stimulus"":""img/1to3/10.png"",""time"":990},{""stimulus"":""img/1to3/11.png"",""time"":1089},{""stimulus"":""img/1to3/12.png"",""time"":1188}]","[]"
"image-keyboard-response","52","64453","0.0-5.0-1.24","63f3a7e45f338798fd025d99","bdp_cybrbll","Tue Mar 28 2023 08:27:29 GMT-0500 (Central Daylight Time)","434671","3","1","","null","","","","observe","","img/3to2/1.png","null","201","630","0.5","0.5","3","1","",""
"animation","53","65740","0.0-5.0-2.24","63f3a7e45f338798fd025d99","bdp_cybrbll","Tue Mar 28 2023 08:27:29 GMT-0500 (Central Daylight Time)","434671","3","1","","","","","","","","","","201","","","","3","1","[{""stimulus"":""img/3to1/1.png"",""time"":100},{""stimulus"":""img/3to1/2.png"",""time"":199},{""stimulus"":""img/3to1/3.png"",""time"":298},{""stimulus"":""img/3to1/4.png"",""time"":397},{""stimulus"":""img/3to1/5.png"",""time"":496},{""stimulus"":""img/3to1/6.png"",""time"":595},{""stimulus"":""img/3to1/7.png"",""time"":693},{""stimulus"":""img/3to1/8.png"",""time"":792},{""stimulus"":""img/3to1/9.png"",""time"":891},{""stimulus"":""img/3to1/10.png"",""time"":990},{""stimulus"":""img/3to1/11.png"",""time"":1089},{""stimulus"":""img/3to1/12.png"",""time"":1188}]","[]"
"image-keyboard-response","54","66377","0.0-5.0-1.25","63f3a7e45f338798fd025d99","bdp_cybrbll","Tue Mar 28 2023 08:27:29 GMT-0500 (Central Daylight Time)","434671","3","1","","null","","","","observe","","img/1to3/1.png","null","200","636","0.5","0.5","1","3","",""
"animation","55","67665","0.0-5.0-2.25","63f3a7e45f338798fd025d99","bdp_cybrbll","Tue Mar 28 2023 08:27:29 GMT-0500 (Central Daylight Time)","434671","3","1","","","","","","","","","","200","","","","1","3","[{""stimulus"":""img/1to3/1.png"",""time"":101},{""stimulus"":""img/1to3/2.png"",""time"":200},{""stimulus"":""img/1to3/3.png"",""time"":299},{""stimulus"":""img/1to3/4.png"",""time"":398},{""stimulus"":""img/1to3/5.png"",""time"":497},{""stimulus"":""img/1to3/6.png"",""time"":595},{""stimulus"":""img/1to3/7.png"",""time"":694},{""stimulus"":""img/1to3/8.png"",""time"":793},{""stimulus"":""img/1to3/9.png"",""time"":892},{""stimulus"":""img/1to3/10.png"",""time"":991},{""stimulus"":""img/1to3/11.png"",""time"":1090},{""stimulus"":""img/1to3/12.png"",""time"":1189}]","[]"
"image-keyboard-response","56","68255","0.0-5.0-1.26","63f3a7e45f338798fd025d99","bdp_cybrbll","Tue Mar 28 2023 08:27:29 GMT-0500 (Central Daylight Time)","434671","3","1","","null","","","","observe","","img/3to2/1.png","null","199","589","0.5","0.5","3","1","",""
"animation","57","69542","0.0-5.0-2.26","63f3a7e45f338798fd025d99","bdp_cybrbll","Tue Mar 28 2023 08:27:29 GMT-0500 (Central Daylight Time)","434671","3","1","","","","","","","","","","199","","","","3","1","[{""stimulus"":""img/3to1/1.png"",""time"":100},{""stimulus"":""img/3to1/2.png"",""time"":199},{""stimulus"":""img/3to1/3.png"",""time"":298},{""stimulus"":""img/3to1/4.png"",""time"":397},{""stimulus"":""img/3to1/5.png"",""time"":496},{""stimulus"":""img/3to1/6.png"",""time"":594},{""stimulus"":""img/3to1/7.png"",""time"":693},{""stimulus"":""img/3to1/8.png"",""time"":792},{""stimulus"":""img/3to1/9.png"",""time"":891},{""stimulus"":""img/3to1/10.png"",""time"":990},{""stimulus"":""img/3to1/11.png"",""time"":1089},{""stimulus"":""img/3to1/12.png"",""time"":1188}]","[]"
"image-keyboard-response","58","70015","0.0-5.0-1.27","63f3a7e45f338798fd025d99","bdp_cybrbll","Tue Mar 28 2023 08:27:29 GMT-0500 (Central Daylight Time)","434671","3","1","","null","","","","observe","","img/1to3/1.png","null","198","472","0.5","0.5","1","2","",""
"animation","59","71302","0.0-5.0-2.27","63f3a7e45f338798fd025d99","bdp_cybrbll","Tue Mar 28 2023 08:27:29 GMT-0500 (Central Daylight Time)","434671","3","1","","","","","","","","","","198","","","","1","2","[{""stimulus"":""img/1to2/1.png"",""time"":100},{""stimulus"":""img/1to2/2.png"",""time"":199},{""stimulus"":""img/1to2/3.png"",""time"":298},{""stimulus"":""img/1to2/4.png"",""time"":397},{""stimulus"":""img/1to2/5.png"",""time"":496},{""stimulus"":""img/1to2/6.png"",""time"":594},{""stimulus"":""img/1to2/7.png"",""time"":693},{""stimulus"":""img/1to2/8.png"",""time"":792},{""stimulus"":""img/1to2/9.png"",""time"":891},{""stimulus"":""img/1to2/10.png"",""time"":991},{""stimulus"":""img/1to2/11.png"",""time"":1090},{""stimulus"":""img/1to2/12.png"",""time"":1189}]","[]"
"image-keyboard-response","60","72043","0.0-5.0-1.28","63f3a7e45f338798fd025d99","bdp_cybrbll","Tue Mar 28 2023 08:27:29 GMT-0500 (Central Daylight Time)","434671","3","1","","740","","","","choice","","img/2to1/1.png","2","197","265","0.5","0.5","2","3","",""
"animation","61","73331","0.0-5.0-2.28","63f3a7e45f338798fd025d99","bdp_cybrbll","Tue Mar 28 2023 08:27:29 GMT-0500 (Central Daylight Time)","434671","3","1","","","","","","","","","","197","","","","2","3","[{""stimulus"":""img/2to3/1.png"",""time"":100},{""stimulus"":""img/2to3/2.png"",""time"":199},{""stimulus"":""img/2to3/3.png"",""time"":298},{""stimulus"":""img/2to3/4.png"",""time"":397},{""stimulus"":""img/2to3/5.png"",""time"":496},{""stimulus"":""img/2to3/6.png"",""time"":595},{""stimulus"":""img/2to3/7.png"",""time"":694},{""stimulus"":""img/2to3/8.png"",""time"":793},{""stimulus"":""img/2to3/9.png"",""time"":892},{""stimulus"":""img/2to3/10.png"",""time"":991},{""stimulus"":""img/2to3/11.png"",""time"":1090},{""stimulus"":""img/2to3/12.png"",""time"":1189}]","[]"
"image-keyboard-response","62","73830","0.0-5.0-1.29","63f3a7e45f338798fd025d99","bdp_cybrbll","Tue Mar 28 2023 08:27:29 GMT-0500 (Central Daylight Time)","434671","3","1","","null","","","","observe","","img/3to2/1.png","null","196","498","0.5","0.5","3","1","",""
"animation","63","75117","0.0-5.0-2.29","63f3a7e45f338798fd025d99","bdp_cybrbll","Tue Mar 28 2023 08:27:29 GMT-0500 (Central Daylight Time)","434671","3","1","","","","","","","","","","196","","","","3","1","[{""stimulus"":""img/3to1/1.png"",""time"":100},{""stimulus"":""img/3to1/2.png"",""time"":199},{""stimulus"":""img/3to1/3.png"",""time"":298},{""stimulus"":""img/3to1/4.png"",""time"":397},{""stimulus"":""img/3to1/5.png"",""time"":496},{""stimulus"":""img/3to1/6.png"",""time"":594},{""stimulus"":""img/3to1/7.png"",""time"":693},{""stimulus"":""img/3to1/8.png"",""time"":792},{""stimulus"":""img/3to1/9.png"",""time"":891},{""stimulus"":""img/3to1/10.png"",""time"":990},{""stimulus"":""img/3to1/11.png"",""time"":1089},{""stimulus"":""img/3to1/12.png"",""time"":1188}]","[]"
"image-keyboard-response","64","75340","0.0-5.0-1.30","63f3a7e45f338798fd025d99","bdp_cybrbll","Tue Mar 28 2023 08:27:29 GMT-0500 (Central Daylight Time)","434671","3","1","","null","","","","observe","","img/1to3/1.png","null","195","222","0.5","0.5","1","2","",""
"animation","65","76628","0.0-5.0-2.30","63f3a7e45f338798fd025d99","bdp_cybrbll","Tue Mar 28 2023 08:27:29 GMT-0500 (Central Daylight Time)","434671","3","1","","","","","","","","","","195","","","","1","2","[{""stimulus"":""img/1to2/1.png"",""time"":101},{""stimulus"":""img/1to2/2.png"",""time"":200},{""stimulus"":""img/1to2/3.png"",""time"":299},{""stimulus"":""img/1to2/4.png"",""time"":398},{""stimulus"":""img/1to2/5.png"",""time"":496},{""stimulus"":""img/1to2/6.png"",""time"":595},{""stimulus"":""img/1to2/7.png"",""time"":694},{""stimulus"":""img/1to2/8.png"",""time"":793},{""stimulus"":""img/1to2/9.png"",""time"":892},{""stimulus"":""img/1to2/10.png"",""time"":991},{""stimulus"":""img/1to2/11.png"",""time"":1090},{""stimulus"":""img/1to2/12.png"",""time"":1189}]","[]"
"image-keyboard-response","66","77827","0.0-5.0-1.31","63f3a7e45f338798fd025d99","bdp_cybrbll","Tue Mar 28 2023 08:27:29 GMT-0500 (Central Daylight Time)","434671","3","1","","1199","","","","choice","","img/2to1/1.png","2","194","514","0.5","0.5","2","3","",""
"animation","67","79115","0.0-5.0-2.31","63f3a7e45f338798fd025d99","bdp_cybrbll","Tue Mar 28 2023 08:27:29 GMT-0500 (Central Daylight Time)","434671","3","1","","","","","","","","","","194","","","","2","3","[{""stimulus"":""img/2to3/1.png"",""time"":100},{""stimulus"":""img/2to3/2.png"",""time"":199},{""stimulus"":""img/2to3/3.png"",""time"":298},{""stimulus"":""img/2to3/4.png"",""time"":397},{""stimulus"":""img/2to3/5.png"",""time"":496},{""stimulus"":""img/2to3/6.png"",""time"":595},{""stimulus"":""img/2to3/7.png"",""time"":694},{""stimulus"":""img/2to3/8.png"",""time"":793},{""stimulus"":""img/2to3/9.png"",""time"":892},{""stimulus"":""img/2to3/10.png"",""time"":992},{""stimulus"":""img/2to3/11.png"",""time"":1090},{""stimulus"":""img/2to3/12.png"",""time"":1189}]","[]"
"image-keyboard-response","68","79638","0.0-5.0-1.32","63f3a7e45f338798fd025d99","bdp_cybrbll","Tue Mar 28 2023 08:27:29 GMT-0500 (Central Daylight Time)","434671","3","1","","null","","","","observe","","img/3to2/1.png","null","193","522","0.5","0.5","3","1","",""
"animation","69","80926","0.0-5.0-2.32","63f3a7e45f338798fd025d99","bdp_cybrbll","Tue Mar 28 2023 08:27:29 GMT-0500 (Central Daylight Time)","434671","3","1","","","","","","","","","","193","","","","3","1","[{""stimulus"":""img/3to1/1.png"",""time"":101},{""stimulus"":""img/3to1/2.png"",""time"":199},{""stimulus"":""img/3to1/3.png"",""time"":299},{""stimulus"":""img/3to1/4.png"",""time"":398},{""stimulus"":""img/3to1/5.png"",""time"":496},{""stimulus"":""img/3to1/6.png"",""time"":595},{""stimulus"":""img/3to1/7.png"",""time"":694},{""stimulus"":""img/3to1/8.png"",""time"":793},{""stimulus"":""img/3to1/9.png"",""time"":892},{""stimulus"":""img/3to1/10.png"",""time"":991},{""stimulus"":""img/3to1/11.png"",""time"":1090},{""stimulus"":""img/3to1/12.png"",""time"":1189}]","[]"
"image-keyboard-response","70","81534","0.0-5.0-1.33","63f3a7e45f338798fd025d99","bdp_cybrbll","Tue Mar 28 2023 08:27:29 GMT-0500 (Central Daylight Time)","434671","3","1","","null","","","","observe","","img/1to3/1.png","null","192","607","0.5","0.5","1","3","",""
"animation","71","82821","0.0-5.0-2.33","63f3a7e45f338798fd025d99","bdp_cybrbll","Tue Mar 28 2023 08:27:29 GMT-0500 (Central Daylight Time)","434671","3","1","","","","","","","","","","192","","","","1","3","[{""stimulus"":""img/1to3/1.png"",""time"":100},{""stimulus"":""img/1to3/2.png"",""time"":199},{""stimulus"":""img/1to3/3.png"",""time"":298},{""stimulus"":""img/1to3/4.png"",""time"":397},{""stimulus"":""img/1to3/5.png"",""time"":496},{""stimulus"":""img/1to3/6.png"",""time"":595},{""stimulus"":""img/1to3/7.png"",""time"":693},{""stimulus"":""img/1to3/8.png"",""time"":792},{""stimulus"":""img/1to3/9.png"",""time"":891},{""stimulus"":""img/1to3/10.png"",""time"":990},{""stimulus"":""img/1to3/11.png"",""time"":1089},{""stimulus"":""img/1to3/12.png"",""time"":1188}]","[]"
"image-keyboard-response","72","83787","0.0-5.0-1.34","63f3a7e45f338798fd025d99","bdp_cybrbll","Tue Mar 28 2023 08:27:29 GMT-0500 (Central Daylight Time)","434671","3","1","","null","","","","observe","","img/3to2/1.png","null","191","965","0.5","0.5","3","2","",""
"animation","73","85075","0.0-5.0-2.34","63f3a7e45f338798fd025d99","bdp_cybrbll","Tue Mar 28 2023 08:27:29 GMT-0500 (Central Daylight Time)","434671","3","1","","","","","","","","","","191","","","","3","2","[{""stimulus"":""img/3to2/1.png"",""time"":100},{""stimulus"":""img/3to2/2.png"",""time"":199},{""stimulus"":""img/3to2/3.png"",""time"":298},{""stimulus"":""img/3to2/4.png"",""time"":397},{""stimulus"":""img/3to2/5.png"",""time"":495},{""stimulus"":""img/3to2/6.png"",""time"":594},{""stimulus"":""img/3to2/7.png"",""time"":693},{""stimulus"":""img/3to2/8.png"",""time"":792},{""stimulus"":""img/3to2/9.png"",""time"":891},{""stimulus"":""img/3to2/10.png"",""time"":990},{""stimulus"":""img/3to2/11.png"",""time"":1089},{""stimulus"":""img/3to2/12.png"",""time"":1188}]","[]"
"image-keyboard-response","74","85377","0.0-5.0-1.35","63f3a7e45f338798fd025d99","bdp_cybrbll","Tue Mar 28 2023 08:27:29 GMT-0500 (Central Daylight Time)","434671","3","1","","302","","","","choice","","img/2to1/1.png","1","190","526","0.5","0.5","2","1","",""
"animation","75","86664","0.0-5.0-2.35","63f3a7e45f338798fd025d99","bdp_cybrbll","Tue Mar 28 2023 08:27:29 GMT-0500 (Central Daylight Time)","434671","3","1","","","","","","","","","","190","","","","2","1","[{""stimulus"":""img/2to1/1.png"",""time"":100},{""stimulus"":""img/2to1/2.png"",""time"":199},{""stimulus"":""img/2to1/3.png"",""time"":307},{""stimulus"":""img/2to1/4.png"",""time"":396},{""stimulus"":""img/2to1/5.png"",""time"":495},{""stimulus"":""img/2to1/6.png"",""time"":594},{""stimulus"":""img/2to1/7.png"",""time"":693},{""stimulus"":""img/2to1/8.png"",""time"":792},{""stimulus"":""img/2to1/9.png"",""time"":891},{""stimulus"":""img/2to1/10.png"",""time"":990},{""stimulus"":""img/2to1/11.png"",""time"":1089},{""stimulus"":""img/2to1/12.png"",""time"":1188}]","[]"
"image-keyboard-response","76","86976","0.0-5.0-1.36","63f3a7e45f338798fd025d99","bdp_cybrbll","Tue Mar 28 2023 08:27:29 GMT-0500 (Central Daylight Time)","434671","3","1","","null","","","","observe","","img/1to3/1.png","null","189","311","0.5","0.5","1","2","",""
"animation","77","88263","0.0-5.0-2.36","63f3a7e45f338798fd025d99","bdp_cybrbll","Tue Mar 28 2023 08:27:29 GMT-0500 (Central Daylight Time)","434671","3","1","","","","","","","","","","189","","","","1","2","[{""stimulus"":""img/1to2/1.png"",""time"":100},{""stimulus"":""img/1to2/2.png"",""time"":199},{""stimulus"":""img/1to2/3.png"",""time"":297},{""stimulus"":""img/1to2/4.png"",""time"":397},{""stimulus"":""img/1to2/5.png"",""time"":496},{""stimulus"":""img/1to2/6.png"",""time"":595},{""stimulus"":""img/1to2/7.png"",""time"":693},{""stimulus"":""img/1to2/8.png"",""time"":792},{""stimulus"":""img/1to2/9.png"",""time"":891},{""stimulus"":""img/1to2/10.png"",""time"":991},{""stimulus"":""img/1to2/11.png"",""time"":1090},{""stimulus"":""img/1to2/12.png"",""time"":1189}]","[]"
"image-keyboard-response","78","88754","0.0-5.0-1.37","63f3a7e45f338798fd025d99","bdp_cybrbll","Tue Mar 28 2023 08:27:29 GMT-0500 (Central Daylight Time)","434671","3","1","","490","","","","choice","","img/2to1/1.png","2","188","394","0.5","0.5","2","3","",""
"animation","79","90042","0.0-5.0-2.37","63f3a7e45f338798fd025d99","bdp_cybrbll","Tue Mar 28 2023 08:27:29 GMT-0500 (Central Daylight Time)","434671","3","1","","","","","","","","","","188","","","","2","3","[{""stimulus"":""img/2to3/1.png"",""time"":100},{""stimulus"":""img/2to3/2.png"",""time"":199},{""stimulus"":""img/2to3/3.png"",""time"":298},{""stimulus"":""img/2to3/4.png"",""time"":397},{""stimulus"":""img/2to3/5.png"",""time"":496},{""stimulus"":""img/2to3/6.png"",""time"":595},{""stimulus"":""img/2to3/7.png"",""time"":694},{""stimulus"":""img/2to3/8.png"",""time"":793},{""stimulus"":""img/2to3/9.png"",""time"":892},{""stimulus"":""img/2to3/10.png"",""time"":991},{""stimulus"":""img/2to3/11.png"",""time"":1090},{""stimulus"":""img/2to3/12.png"",""time"":1189}]","[]"
"image-keyboard-response","80","90428","0.0-5.0-1.38","63f3a7e45f338798fd025d99","bdp_cybrbll","Tue Mar 28 2023 08:27:29 GMT-0500 (Central Daylight Time)","434671","3","1","","null","","","","observe","","img/3to2/1.png","null","187","385","0.5","0.5","3","2","",""
"animation","81","91715","0.0-5.0-2.38","63f3a7e45f338798fd025d99","bdp_cybrbll","Tue Mar 28 2023 08:27:29 GMT-0500 (Central Daylight Time)","434671","3","1","","","","","","","","","","187","","","","3","2","[{""stimulus"":""img/3to2/1.png"",""time"":100},{""stimulus"":""img/3to2/2.png"",""time"":199},{""stimulus"":""img/3to2/3.png"",""time"":298},{""stimulus"":""img/3to2/4.png"",""time"":397},{""stimulus"":""img/3to2/5.png"",""time"":496},{""stimulus"":""img/3to2/6.png"",""time"":594},{""stimulus"":""img/3to2/7.png"",""time"":693},{""stimulus"":""img/3to2/8.png"",""time"":792},{""stimulus"":""img/3to2/9.png"",""time"":891},{""stimulus"":""img/3to2/10.png"",""time"":990},{""stimulus"":""img/3to2/11.png"",""time"":1089},{""stimulus"":""img/3to2/12.png"",""time"":1188}]","[]"
"image-keyboard-response","82","91880","0.0-5.0-1.39","63f3a7e45f338798fd025d99","bdp_cybrbll","Tue Mar 28 2023 08:27:29 GMT-0500 (Central Daylight Time)","434671","3","1","","164","","","","choice","","img/2to1/1.png","1","186","331","0.5","0.5","2","1","",""
"animation","83","93168","0.0-5.0-2.39","63f3a7e45f338798fd025d99","bdp_cybrbll","Tue Mar 28 2023 08:27:29 GMT-0500 (Central Daylight Time)","434671","3","1","","","","","","","","","","186","","","","2","1","[{""stimulus"":""img/2to1/1.png"",""time"":99},{""stimulus"":""img/2to1/2.png"",""time"":198},{""stimulus"":""img/2to1/3.png"",""time"":297},{""stimulus"":""img/2to1/4.png"",""time"":397},{""stimulus"":""img/2to1/5.png"",""time"":496},{""stimulus"":""img/2to1/6.png"",""time"":595},{""stimulus"":""img/2to1/7.png"",""time"":694},{""stimulus"":""img/2to1/8.png"",""time"":793},{""stimulus"":""img/2to1/9.png"",""time"":892},{""stimulus"":""img/2to1/10.png"",""time"":991},{""stimulus"":""img/2to1/11.png"",""time"":1090},{""stimulus"":""img/2to1/12.png"",""time"":1189}]","[]"
"image-keyboard-response","84","94109","0.0-5.0-1.40","63f3a7e45f338798fd025d99","bdp_cybrbll","Tue Mar 28 2023 08:27:29 GMT-0500 (Central Daylight Time)","434671","3","1","","null","","","","observe","","img/1to3/1.png","null","185","940","0.5","0.5","1","2","",""
"animation","85","95396","0.0-5.0-2.40","63f3a7e45f338798fd025d99","bdp_cybrbll","Tue Mar 28 2023 08:27:29 GMT-0500 (Central Daylight Time)","434671","3","1","","","","","","","","","","185","","","","1","2","[{""stimulus"":""img/1to2/1.png"",""time"":100},{""stimulus"":""img/1to2/2.png"",""time"":199},{""stimulus"":""img/1to2/3.png"",""time"":298},{""stimulus"":""img/1to2/4.png"",""time"":397},{""stimulus"":""img/1to2/5.png"",""time"":496},{""stimulus"":""img/1to2/6.png"",""time"":594},{""stimulus"":""img/1to2/7.png"",""time"":693},{""stimulus"":""img/1to2/8.png"",""time"":792},{""stimulus"":""img/1to2/9.png"",""time"":891},{""stimulus"":""img/1to2/10.png"",""time"":990},{""stimulus"":""img/1to2/11.png"",""time"":1089},{""stimulus"":""img/1to2/12.png"",""time"":1188}]","[]"
"image-keyboard-response","86","95535","0.0-5.0-1.41","63f3a7e45f338798fd025d99","bdp_cybrbll","Tue Mar 28 2023 08:27:29 GMT-0500 (Central Daylight Time)","434671","3","1","","139","","","","choice","","img/2to1/1.png","2","184","483","0.5","0.5","2","3","",""
"animation","87","96822","0.0-5.0-2.41","63f3a7e45f338798fd025d99","bdp_cybrbll","Tue Mar 28 2023 08:27:29 GMT-0500 (Central Daylight Time)","434671","3","1","","","","","","","","","","184","","","","2","3","[{""stimulus"":""img/2to3/1.png"",""time"":99},{""stimulus"":""img/2to3/2.png"",""time"":198},{""stimulus"":""img/2to3/3.png"",""time"":297},{""stimulus"":""img/2to3/4.png"",""time"":396},{""stimulus"":""img/2to3/5.png"",""time"":495},{""stimulus"":""img/2to3/6.png"",""time"":594},{""stimulus"":""img/2to3/7.png"",""time"":693},{""stimulus"":""img/2to3/8.png"",""time"":792},{""stimulus"":""img/2to3/9.png"",""time"":891},{""stimulus"":""img/2to3/10.png"",""time"":990},{""stimulus"":""img/2to3/11.png"",""time"":1089},{""stimulus"":""img/2to3/12.png"",""time"":1188}]","[]"
"image-keyboard-response","88","97324","0.0-5.0-1.42","63f3a7e45f338798fd025d99","bdp_cybrbll","Tue Mar 28 2023 08:27:29 GMT-0500 (Central Daylight Time)","434671","3","1","","null","","","","observe","","img/3to2/1.png","null","183","501","0.5","0.5","3","1","",""
"animation","89","98612","0.0-5.0-2.42","63f3a7e45f338798fd025d99","bdp_cybrbll","Tue Mar 28 2023 08:27:29 GMT-0500 (Central Daylight Time)","434671","3","1","","","","","","","","","","183","","","","3","1","[{""stimulus"":""img/3to1/1.png"",""time"":100},{""stimulus"":""img/3to1/2.png"",""time"":199},{""stimulus"":""img/3to1/3.png"",""time"":298},{""stimulus"":""img/3to1/4.png"",""time"":397},{""stimulus"":""img/3to1/5.png"",""time"":497},{""stimulus"":""img/3to1/6.png"",""time"":594},{""stimulus"":""img/3to1/7.png"",""time"":693},{""stimulus"":""img/3to1/8.png"",""time"":792},{""stimulus"":""img/3to1/9.png"",""time"":891},{""stimulus"":""img/3to1/10.png"",""time"":990},{""stimulus"":""img/3to1/11.png"",""time"":1089},{""stimulus"":""img/3to1/12.png"",""time"":1188}]","[]"
"image-keyboard-response","90","99113","0.0-5.0-1.43","63f3a7e45f338798fd025d99","bdp_cybrbll","Tue Mar 28 2023 08:27:29 GMT-0500 (Central Daylight Time)","434671","3","1","","null","","","","observe","","img/1to3/1.png","null","182","500","0.5","0.5","1","3","",""
"animation","91","100400","0.0-5.0-2.43","63f3a7e45f338798fd025d99","bdp_cybrbll","Tue Mar 28 2023 08:27:29 GMT-0500 (Central Daylight Time)","434671","3","1","","","","","","","","","","182","","","","1","3","[{""stimulus"":""img/1to3/1.png"",""time"":100},{""stimulus"":""img/1to3/2.png"",""time"":199},{""stimulus"":""img/1to3/3.png"",""time"":298},{""stimulus"":""img/1to3/4.png"",""time"":397},{""stimulus"":""img/1to3/5.png"",""time"":496},{""stimulus"":""img/1to3/6.png"",""time"":594},{""stimulus"":""img/1to3/7.png"",""time"":693},{""stimulus"":""img/1to3/8.png"",""time"":792},{""stimulus"":""img/1to3/9.png"",""time"":891},{""stimulus"":""img/1to3/10.png"",""time"":990},{""stimulus"":""img/1to3/11.png"",""time"":1089},{""stimulus"":""img/1to3/12.png"",""time"":1188}]","[]"
"image-keyboard-response","92","101329","0.0-5.0-1.44","63f3a7e45f338798fd025d99","bdp_cybrbll","Tue Mar 28 2023 08:27:29 GMT-0500 (Central Daylight Time)","434671","3","1","","null","","","","observe","","img/3to2/1.png","null","181","928","0.5","0.5","3","2","",""
"animation","93","102617","0.0-5.0-2.44","63f3a7e45f338798fd025d99","bdp_cybrbll","Tue Mar 28 2023 08:27:29 GMT-0500 (Central Daylight Time)","434671","3","1","","","","","","","","","","181","","","","3","2","[{""stimulus"":""img/3to2/1.png"",""time"":101},{""stimulus"":""img/3to2/2.png"",""time"":201},{""stimulus"":""img/3to2/3.png"",""time"":299},{""stimulus"":""img/3to2/4.png"",""time"":398},{""stimulus"":""img/3to2/5.png"",""time"":497},{""stimulus"":""img/3to2/6.png"",""time"":595},{""stimulus"":""img/3to2/7.png"",""time"":694},{""stimulus"":""img/3to2/8.png"",""time"":793},{""stimulus"":""img/3to2/9.png"",""time"":892},{""stimulus"":""img/3to2/10.png"",""time"":991},{""stimulus"":""img/3to2/11.png"",""time"":1090},{""stimulus"":""img/3to2/12.png"",""time"":1189}]","[]"
"image-keyboard-response","94","103106","0.0-5.0-1.45","63f3a7e45f338798fd025d99","bdp_cybrbll","Tue Mar 28 2023 08:27:29 GMT-0500 (Central Daylight Time)","434671","3","1","","489","","","","choice","","img/2to1/1.png","1","180","1161","0.5","0.5","2","1","",""
"animation","95","104394","0.0-5.0-2.45","63f3a7e45f338798fd025d99","bdp_cybrbll","Tue Mar 28 2023 08:27:29 GMT-0500 (Central Daylight Time)","434671","3","1","","","","","","","","","","180","","","","2","1","[{""stimulus"":""img/2to1/1.png"",""time"":100},{""stimulus"":""img/2to1/2.png"",""time"":199},{""stimulus"":""img/2to1/3.png"",""time"":298},{""stimulus"":""img/2to1/4.png"",""time"":397},{""stimulus"":""img/2to1/5.png"",""time"":496},{""stimulus"":""img/2to1/6.png"",""time"":595},{""stimulus"":""img/2to1/7.png"",""time"":694},{""stimulus"":""img/2to1/8.png"",""time"":793},{""stimulus"":""img/2to1/9.png"",""time"":892},{""stimulus"":""img/2to1/10.png"",""time"":991},{""stimulus"":""img/2to1/11.png"",""time"":1090},{""stimulus"":""img/2to1/12.png"",""time"":1189}]","[]"
"image-keyboard-response","96","104844","0.0-5.0-1.46","63f3a7e45f338798fd025d99","bdp_cybrbll","Tue Mar 28 2023 08:27:29 GMT-0500 (Central Daylight Time)","434671","3","1","","null","","","","observe","","img/1to3/1.png","null","179","449","0.5","0.5","1","2","",""
"animation","97","106131","0.0-5.0-2.46","63f3a7e45f338798fd025d99","bdp_cybrbll","Tue Mar 28 2023 08:27:29 GMT-0500 (Central Daylight Time)","434671","3","1","","","","","","","","","","179","","","","1","2","[{""stimulus"":""img/1to2/1.png"",""time"":100},{""stimulus"":""img/1to2/2.png"",""time"":199},{""stimulus"":""img/1to2/3.png"",""time"":298},{""stimulus"":""img/1to2/4.png"",""time"":397},{""stimulus"":""img/1to2/5.png"",""time"":495},{""stimulus"":""img/1to2/6.png"",""time"":594},{""stimulus"":""img/1to2/7.png"",""time"":693},{""stimulus"":""img/1to2/8.png"",""time"":792},{""stimulus"":""img/1to2/9.png"",""time"":891},{""stimulus"":""img/1to2/10.png"",""time"":991},{""stimulus"":""img/1to2/11.png"",""time"":1090},{""stimulus"":""img/1to2/12.png"",""time"":1189}]","[]"
"image-keyboard-response","98","106319","0.0-5.0-1.47","63f3a7e45f338798fd025d99","bdp_cybrbll","Tue Mar 28 2023 08:27:29 GMT-0500 (Central Daylight Time)","434671","3","1","","187","","","","choice","","img/2to1/1.png","2","178","833","0.5","0.5","2","3","",""
"animation","99","107607","0.0-5.0-2.47","63f3a7e45f338798fd025d99","bdp_cybrbll","Tue Mar 28 2023 08:27:29 GMT-0500 (Central Daylight Time)","434671","3","1","","","","","","","","","","178","","","","2","3","[{""stimulus"":""img/2to3/1.png"",""time"":100},{""stimulus"":""img/2to3/2.png"",""time"":199},{""stimulus"":""img/2to3/3.png"",""time"":298},{""stimulus"":""img/2to3/4.png"",""time"":397},{""stimulus"":""img/2to3/5.png"",""time"":496},{""stimulus"":""img/2to3/6.png"",""time"":595},{""stimulus"":""img/2to3/7.png"",""time"":694},{""stimulus"":""img/2to3/8.png"",""time"":793},{""stimulus"":""img/2to3/9.png"",""time"":892},{""stimulus"":""img/2to3/10.png"",""time"":991},{""stimulus"":""img/2to3/11.png"",""time"":1090},{""stimulus"":""img/2to3/12.png"",""time"":1189}]","[]"
"image-keyboard-response","100","107837","0.0-5.0-1.48","63f3a7e45f338798fd025d99","bdp_cybrbll","Tue Mar 28 2023 08:27:29 GMT-0500 (Central Daylight Time)","434671","3","1","","null","","","","observe","","img/3to2/1.png","null","177","229","0.5","0.5","3","2","",""
"animation","101","109124","0.0-5.0-2.48","63f3a7e45f338798fd025d99","bdp_cybrbll","Tue Mar 28 2023 08:27:29 GMT-0500 (Central Daylight Time)","434671","3","1","","","","","","","","","","177","","","","3","2","[{""stimulus"":""img/3to2/1.png"",""time"":100},{""stimulus"":""img/3to2/2.png"",""time"":199},{""stimulus"":""img/3to2/3.png"",""time"":298},{""stimulus"":""img/3to2/4.png"",""time"":397},{""stimulus"":""img/3to2/5.png"",""time"":496},{""stimulus"":""img/3to2/6.png"",""time"":594},{""stimulus"":""img/3to2/7.png"",""time"":693},{""stimulus"":""img/3to2/8.png"",""time"":792},{""stimulus"":""img/3to2/9.png"",""time"":891},{""stimulus"":""img/3to2/10.png"",""time"":990},{""stimulus"":""img/3to2/11.png"",""time"":1089},{""stimulus"":""img/3to2/12.png"",""time"":1188}]","[]"
"image-keyboard-response","102","109408","0.0-5.0-1.49","63f3a7e45f338798fd025d99","bdp_cybrbll","Tue Mar 28 2023 08:27:29 GMT-0500 (Central Daylight Time)","434671","3","1","","283","","","","choice","","img/2to1/1.png","1","176","189","0.5","0.5","2","1","",""
"animation","103","110695","0.0-5.0-2.49","63f3a7e45f338798fd025d99","bdp_cybrbll","Tue Mar 28 2023 08:27:29 GMT-0500 (Central Daylight Time)","434671","3","1","","","","","","","","","","176","","","","2","1","[{""stimulus"":""img/2to1/1.png"",""time"":100},{""stimulus"":""img/2to1/2.png"",""time"":199},{""stimulus"":""img/2to1/3.png"",""time"":298},{""stimulus"":""img/2to1/4.png"",""time"":397},{""stimulus"":""img/2to1/5.png"",""time"":495},{""stimulus"":""img/2to1/6.png"",""time"":594},{""stimulus"":""img/2to1/7.png"",""time"":693},{""stimulus"":""img/2to1/8.png"",""time"":792},{""stimulus"":""img/2to1/9.png"",""time"":892},{""stimulus"":""img/2to1/10.png"",""time"":991},{""stimulus"":""img/2to1/11.png"",""time"":1090},{""stimulus"":""img/2to1/12.png"",""time"":1189}]","[]"
"image-keyboard-response","104","111592","0.0-5.0-1.50","63f3a7e45f338798fd025d99","bdp_cybrbll","Tue Mar 28 2023 08:27:29 GMT-0500 (Central Daylight Time)","434671","3","1","","null","","","","observe","","img/1to3/1.png","null","175","895","0.5","0.5","1","3","",""
"animation","105","112879","0.0-5.0-2.50","63f3a7e45f338798fd025d99","bdp_cybrbll","Tue Mar 28 2023 08:27:29 GMT-0500 (Central Daylight Time)","434671","3","1","","","","","","","","","","175","","","","1","3","[{""stimulus"":""img/1to3/1.png"",""time"":100},{""stimulus"":""img/1to3/2.png"",""time"":199},{""stimulus"":""img/1to3/3.png"",""time"":298},{""stimulus"":""img/1to3/4.png"",""time"":397},{""stimulus"":""img/1to3/5.png"",""time"":496},{""stimulus"":""img/1to3/6.png"",""time"":595},{""stimulus"":""img/1to3/7.png"",""time"":693},{""stimulus"":""img/1to3/8.png"",""time"":792},{""stimulus"":""img/1to3/9.png"",""time"":891},{""stimulus"":""img/1to3/10.png"",""time"":990},{""stimulus"":""img/1to3/11.png"",""time"":1089},{""stimulus"":""img/1to3/12.png"",""time"":1188}]","[]"
"image-keyboard-response","106","113410","0.0-5.0-1.51","63f3a7e45f338798fd025d99","bdp_cybrbll","Tue Mar 28 2023 08:27:29 GMT-0500 (Central Daylight Time)","434671","3","1","","null","","","","observe","","img/3to2/1.png","null","174","530","0.5","0.5","3","1","",""
"animation","107","114697","0.0-5.0-2.51","63f3a7e45f338798fd025d99","bdp_cybrbll","Tue Mar 28 2023 08:27:29 GMT-0500 (Central Daylight Time)","434671","3","1","","","","","","","","","","174","","","","3","1","[{""stimulus"":""img/3to1/1.png"",""time"":100},{""stimulus"":""img/3to1/2.png"",""time"":199},{""stimulus"":""img/3to1/3.png"",""time"":298},{""stimulus"":""img/3to1/4.png"",""time"":397},{""stimulus"":""img/3to1/5.png"",""time"":496},{""stimulus"":""img/3to1/6.png"",""time"":594},{""stimulus"":""img/3to1/7.png"",""time"":693},{""stimulus"":""img/3to1/8.png"",""time"":792},{""stimulus"":""img/3to1/9.png"",""time"":891},{""stimulus"":""img/3to1/10.png"",""time"":990},{""stimulus"":""img/3to1/11.png"",""time"":1089},{""stimulus"":""img/3to1/12.png"",""time"":1188}]","[]"
"image-keyboard-response","108","114943","0.0-5.0-1.52","63f3a7e45f338798fd025d99","bdp_cybrbll","Tue Mar 28 2023 08:27:29 GMT-0500 (Central Daylight Time)","434671","3","1","","null","","","","observe","","img/1to3/1.png","null","173","245","0.5","0.5","1","2","",""
"animation","109","116231","0.0-5.0-2.52","63f3a7e45f338798fd025d99","bdp_cybrbll","Tue Mar 28 2023 08:27:29 GMT-0500 (Central Daylight Time)","434671","3","1","","","","","","","","","","173","","","","1","2","[{""stimulus"":""img/1to2/1.png"",""time"":100},{""stimulus"":""img/1to2/2.png"",""time"":199},{""stimulus"":""img/1to2/3.png"",""time"":298},{""stimulus"":""img/1to2/4.png"",""time"":397},{""stimulus"":""img/1to2/5.png"",""time"":496},{""stimulus"":""img/1to2/6.png"",""time"":594},{""stimulus"":""img/1to2/7.png"",""time"":693},{""stimulus"":""img/1to2/8.png"",""time"":792},{""stimulus"":""img/1to2/9.png"",""time"":891},{""stimulus"":""img/1to2/10.png"",""time"":990},{""stimulus"":""img/1to2/11.png"",""time"":1089},{""stimulus"":""img/1to2/12.png"",""time"":1188}]","[]"
"image-keyboard-response","110","116345","0.0-5.0-1.53","63f3a7e45f338798fd025d99","bdp_cybrbll","Tue Mar 28 2023 08:27:29 GMT-0500 (Central Daylight Time)","434671","3","1","","114","","","","choice","","img/2to1/1.png","2","172","569","0.5","0.5","2","3","",""
"animation","111","117632","0.0-5.0-2.53","63f3a7e45f338798fd025d99","bdp_cybrbll","Tue Mar 28 2023 08:27:29 GMT-0500 (Central Daylight Time)","434671","3","1","","","","","","","","","","172","","","","2","3","[{""stimulus"":""img/2to3/1.png"",""time"":100},{""stimulus"":""img/2to3/2.png"",""time"":199},{""stimulus"":""img/2to3/3.png"",""time"":298},{""stimulus"":""img/2to3/4.png"",""time"":397},{""stimulus"":""img/2to3/5.png"",""time"":496},{""stimulus"":""img/2to3/6.png"",""time"":595},{""stimulus"":""img/2to3/7.png"",""time"":693},{""stimulus"":""img/2to3/8.png"",""time"":792},{""stimulus"":""img/2to3/9.png"",""time"":891},{""stimulus"":""img/2to3/10.png"",""time"":990},{""stimulus"":""img/2to3/11.png"",""time"":1089},{""stimulus"":""img/2to3/12.png"",""time"":1188}]","[]"
"image-keyboard-response","112","118822","0.0-5.0-1.54","63f3a7e45f338798fd025d99","bdp_cybrbll","Tue Mar 28 2023 08:27:29 GMT-0500 (Central Daylight Time)","434671","3","1","","null","","","","observe","","img/3to2/1.png","null","171","1189","0.5","0.5","3","2","",""
"animation","113","120110","0.0-5.0-2.54","63f3a7e45f338798fd025d99","bdp_cybrbll","Tue Mar 28 2023 08:27:29 GMT-0500 (Central Daylight Time)","434671","3","1","","","","","","","","","","171","","","","3","2","[{""stimulus"":""img/3to2/1.png"",""time"":101},{""stimulus"":""img/3to2/2.png"",""time"":199},{""stimulus"":""img/3to2/3.png"",""time"":298},{""stimulus"":""img/3to2/4.png"",""time"":397},{""stimulus"":""img/3to2/5.png"",""time"":496},{""stimulus"":""img/3to2/6.png"",""time"":595},{""stimulus"":""img/3to2/7.png"",""time"":694},{""stimulus"":""img/3to2/8.png"",""time"":793},{""stimulus"":""img/3to2/9.png"",""time"":892},{""stimulus"":""img/3to2/10.png"",""time"":991},{""stimulus"":""img/3to2/11.png"",""time"":1090},{""stimulus"":""img/3to2/12.png"",""time"":1189}]","[]"
"image-keyboard-response","114","120953","0.0-5.0-1.55","63f3a7e45f338798fd025d99","bdp_cybrbll","Tue Mar 28 2023 08:27:29 GMT-0500 (Central Daylight Time)","434671","3","1","","843","","","","choice","","img/2to1/1.png","1","170","581","0.5","0.5","2","1","",""
"animation","115","122241","0.0-5.0-2.55","63f3a7e45f338798fd025d99","bdp_cybrbll","Tue Mar 28 2023 08:27:29 GMT-0500 (Central Daylight Time)","434671","3","1","","","","","","","","","","170","","","","2","1","[{""stimulus"":""img/2to1/1.png"",""time"":100},{""stimulus"":""img/2to1/2.png"",""time"":199},{""stimulus"":""img/2to1/3.png"",""time"":302},{""stimulus"":""img/2to1/4.png"",""time"":397},{""stimulus"":""img/2to1/5.png"",""time"":496},{""stimulus"":""img/2to1/6.png"",""time"":595},{""stimulus"":""img/2to1/7.png"",""time"":694},{""stimulus"":""img/2to1/8.png"",""time"":793},{""stimulus"":""img/2to1/9.png"",""time"":892},{""stimulus"":""img/2to1/10.png"",""time"":991},{""stimulus"":""img/2to1/11.png"",""time"":1090},{""stimulus"":""img/2to1/12.png"",""time"":1189}]","[]"
"image-keyboard-response","116","122516","0.0-5.0-1.56","63f3a7e45f338798fd025d99","bdp_cybrbll","Tue Mar 28 2023 08:27:29 GMT-0500 (Central Daylight Time)","434671","3","1","","null","","","","observe","","img/1to3/1.png","null","169","274","0.5","0.5","1","3","",""
"animation","117","123803","0.0-5.0-2.56","63f3a7e45f338798fd025d99","bdp_cybrbll","Tue Mar 28 2023 08:27:29 GMT-0500 (Central Daylight Time)","434671","3","1","","","","","","","","","","169","","","","1","3","[{""stimulus"":""img/1to3/1.png"",""time"":100},{""stimulus"":""img/1to3/2.png"",""time"":199},{""stimulus"":""img/1to3/3.png"",""time"":298},{""stimulus"":""img/1to3/4.png"",""time"":397},{""stimulus"":""img/1to3/5.png"",""time"":496},{""stimulus"":""img/1to3/6.png"",""time"":595},{""stimulus"":""img/1to3/7.png"",""time"":693},{""stimulus"":""img/1to3/8.png"",""time"":792},{""stimulus"":""img/1to3/9.png"",""time"":891},{""stimulus"":""img/1to3/10.png"",""time"":991},{""stimulus"":""img/1to3/11.png"",""time"":1090},{""stimulus"":""img/1to3/12.png"",""time"":1188}]","[]"
"image-keyboard-response","118","124131","0.0-5.0-1.57","63f3a7e45f338798fd025d99","bdp_cybrbll","Tue Mar 28 2023 08:27:29 GMT-0500 (Central Daylight Time)","434671","3","1","","null","","","","observe","","img/3to2/1.png","null","168","326","0.5","0.5","3","1","",""
"animation","119","125418","0.0-5.0-2.57","63f3a7e45f338798fd025d99","bdp_cybrbll","Tue Mar 28 2023 08:27:29 GMT-0500 (Central Daylight Time)","434671","3","1","","","","","","","","","","168","","","","3","1","[{""stimulus"":""img/3to1/1.png"",""time"":100},{""stimulus"":""img/3to1/2.png"",""time"":199},{""stimulus"":""img/3to1/3.png"",""time"":298},{""stimulus"":""img/3to1/4.png"",""time"":397},{""stimulus"":""img/3to1/5.png"",""time"":496},{""stimulus"":""img/3to1/6.png"",""time"":594},{""stimulus"":""img/3to1/7.png"",""time"":693},{""stimulus"":""img/3to1/8.png"",""time"":792},{""stimulus"":""img/3to1/9.png"",""time"":891},{""stimulus"":""img/3to1/10.png"",""time"":990},{""stimulus"":""img/3to1/11.png"",""time"":1089},{""stimulus"":""img/3to1/12.png"",""time"":1188}]","[]"
"image-keyboard-response","120","126013","0.0-5.0-1.58","63f3a7e45f338798fd025d99","bdp_cybrbll","Tue Mar 28 2023 08:27:29 GMT-0500 (Central Daylight Time)","434671","3","1","","null","","","","observe","","img/1to3/1.png","null","167","594","0.5","0.5","1","2","",""
"animation","121","127300","0.0-5.0-2.58","63f3a7e45f338798fd025d99","bdp_cybrbll","Tue Mar 28 2023 08:27:29 GMT-0500 (Central Daylight Time)","434671","3","1","","","","","","","","","","167","","","","1","2","[{""stimulus"":""img/1to2/1.png"",""time"":100},{""stimulus"":""img/1to2/2.png"",""time"":199},{""stimulus"":""img/1to2/3.png"",""time"":298},{""stimulus"":""img/1to2/4.png"",""time"":397},{""stimulus"":""img/1to2/5.png"",""time"":496},{""stimulus"":""img/1to2/6.png"",""time"":594},{""stimulus"":""img/1to2/7.png"",""time"":693},{""stimulus"":""img/1to2/8.png"",""time"":792},{""stimulus"":""img/1to2/9.png"",""time"":891},{""stimulus"":""img/1to2/10.png"",""time"":990},{""stimulus"":""img/1to2/11.png"",""time"":1089},{""stimulus"":""img/1to2/12.png"",""time"":1188}]","[]"
"image-keyboard-response","122","127611","0.0-5.0-1.59","63f3a7e45f338798fd025d99","bdp_cybrbll","Tue Mar 28 2023 08:27:29 GMT-0500 (Central Daylight Time)","434671","3","1","","310","","","","choice","","img/2to1/1.png","2","166","663","0.5","0.5","2","3","",""
"animation","123","128899","0.0-5.0-2.59","63f3a7e45f338798fd025d99","bdp_cybrbll","Tue Mar 28 2023 08:27:29 GMT-0500 (Central Daylight Time)","434671","3","1","","","","","","","","","","166","","","","2","3","[{""stimulus"":""img/2to3/1.png"",""time"":100},{""stimulus"":""img/2to3/2.png"",""time"":199},{""stimulus"":""img/2to3/3.png"",""time"":298},{""stimulus"":""img/2to3/4.png"",""time"":396},{""stimulus"":""img/2to3/5.png"",""time"":496},{""stimulus"":""img/2to3/6.png"",""time"":595},{""stimulus"":""img/2to3/7.png"",""time"":694},{""stimulus"":""img/2to3/8.png"",""time"":793},{""stimulus"":""img/2to3/9.png"",""time"":892},{""stimulus"":""img/2to3/10.png"",""time"":991},{""stimulus"":""img/2to3/11.png"",""time"":1090},{""stimulus"":""img/2to3/12.png"",""time"":1189}]","[]"
"image-keyboard-response","124","129796","0.0-5.0-1.60","63f3a7e45f338798fd025d99","bdp_cybrbll","Tue Mar 28 2023 08:27:29 GMT-0500 (Central Daylight Time)","434671","3","1","","null","","","","observe","","img/3to2/1.png","null","165","896","0.5","0.5","3","1","",""
"animation","125","131083","0.0-5.0-2.60","63f3a7e45f338798fd025d99","bdp_cybrbll","Tue Mar 28 2023 08:27:29 GMT-0500 (Central Daylight Time)","434671","3","1","","","","","","","","","","165","","","","3","1","[{""stimulus"":""img/3to1/1.png"",""time"":100},{""stimulus"":""img/3to1/2.png"",""time"":199},{""stimulus"":""img/3to1/3.png"",""time"":298},{""stimulus"":""img/3to1/4.png"",""time"":397},{""stimulus"":""img/3to1/5.png"",""time"":495},{""stimulus"":""img/3to1/6.png"",""time"":594},{""stimulus"":""img/3to1/7.png"",""time"":693},{""stimulus"":""img/3to1/8.png"",""time"":792},{""stimulus"":""img/3to1/9.png"",""time"":891},{""stimulus"":""img/3to1/10.png"",""time"":990},{""stimulus"":""img/3to1/11.png"",""time"":1089},{""stimulus"":""img/3to1/12.png"",""time"":1188}]","[]"
"image-keyboard-response","126","131396","0.0-5.0-1.61","63f3a7e45f338798fd025d99","bdp_cybrbll","Tue Mar 28 2023 08:27:29 GMT-0500 (Central Daylight Time)","434671","3","1","","null","","","","observe","","img/1to3/1.png","null","164","312","0.5","0.5","1","3","",""
"animation","127","132683","0.0-5.0-2.61","63f3a7e45f338798fd025d99","bdp_cybrbll","Tue Mar 28 2023 08:27:29 GMT-0500 (Central Daylight Time)","434671","3","1","","","","","","","","","","164","","","","1","3","[{""stimulus"":""img/1to3/1.png"",""time"":100},{""stimulus"":""img/1to3/2.png"",""time"":199},{""stimulus"":""img/1to3/3.png"",""time"":298},{""stimulus"":""img/1to3/4.png"",""time"":397},{""stimulus"":""img/1to3/5.png"",""time"":495},{""stimulus"":""img/1to3/6.png"",""time"":594},{""stimulus"":""img/1to3/7.png"",""time"":693},{""stimulus"":""img/1to3/8.png"",""time"":792},{""stimulus"":""img/1to3/9.png"",""time"":891},{""stimulus"":""img/1to3/10.png"",""time"":990},{""stimulus"":""img/1to3/11.png"",""time"":1090},{""stimulus"":""img/1to3/12.png"",""time"":1189}]","[]"
"image-keyboard-response","128","133267","0.0-5.0-1.62","63f3a7e45f338798fd025d99","bdp_cybrbll","Tue Mar 28 2023 08:27:29 GMT-0500 (Central Daylight Time)","434671","3","1","","null","","","","observe","","img/3to2/1.png","null","163","582","0.5","0.5","3","1","",""
"animation","129","134554","0.0-5.0-2.62","63f3a7e45f338798fd025d99","bdp_cybrbll","Tue Mar 28 2023 08:27:29 GMT-0500 (Central Daylight Time)","434671","3","1","","","","","","","","","","163","","","","3","1","[{""stimulus"":""img/3to1/1.png"",""time"":100},{""stimulus"":""img/3to1/2.png"",""time"":199},{""stimulus"":""img/3to1/3.png"",""time"":298},{""stimulus"":""img/3to1/4.png"",""time"":397},{""stimulus"":""img/3to1/5.png"",""time"":496},{""stimulus"":""img/3to1/6.png"",""time"":594},{""stimulus"":""img/3to1/7.png"",""time"":693},{""stimulus"":""img/3to1/8.png"",""time"":792},{""stimulus"":""img/3to1/9.png"",""time"":891},{""stimulus"":""img/3to1/10.png"",""time"":990},{""stimulus"":""img/3to1/11.png"",""time"":1089},{""stimulus"":""img/3to1/12.png"",""time"":1188}]","[]"
"image-keyboard-response","130","135006","0.0-5.0-1.63","63f3a7e45f338798fd025d99","bdp_cybrbll","Tue Mar 28 2023 08:27:29 GMT-0500 (Central Daylight Time)","434671","3","1","","null","","","","observe","","img/1to3/1.png","null","162","451","0.5","0.5","1","3","",""
"animation","131","136293","0.0-5.0-2.63","63f3a7e45f338798fd025d99","bdp_cybrbll","Tue Mar 28 2023 08:27:29 GMT-0500 (Central Daylight Time)","434671","3","1","","","","","","","","","","162","","","","1","3","[{""stimulus"":""img/1to3/1.png"",""time"":100},{""stimulus"":""img/1to3/2.png"",""time"":199},{""stimulus"":""img/1to3/3.png"",""time"":298},{""stimulus"":""img/1to3/4.png"",""time"":397},{""stimulus"":""img/1to3/5.png"",""time"":496},{""stimulus"":""img/1to3/6.png"",""time"":594},{""stimulus"":""img/1to3/7.png"",""time"":693},{""stimulus"":""img/1to3/8.png"",""time"":792},{""stimulus"":""img/1to3/9.png"",""time"":891},{""stimulus"":""img/1to3/10.png"",""time"":990},{""stimulus"":""img/1to3/11.png"",""time"":1089},{""stimulus"":""img/1to3/12.png"",""time"":1188}]","[]"
"image-keyboard-response","132","136797","0.0-5.0-1.64","63f3a7e45f338798fd025d99","bdp_cybrbll","Tue Mar 28 2023 08:27:29 GMT-0500 (Central Daylight Time)","434671","3","1","","null","","","","observe","","img/3to2/1.png","null","161","503","0.5","0.5","3","1","",""
"animation","133","138085","0.0-5.0-2.64","63f3a7e45f338798fd025d99","bdp_cybrbll","Tue Mar 28 2023 08:27:29 GMT-0500 (Central Daylight Time)","434671","3","1","","","","","","","","","","161","","","","3","1","[{""stimulus"":""img/3to1/1.png"",""time"":101},{""stimulus"":""img/3to1/2.png"",""time"":199},{""stimulus"":""img/3to1/3.png"",""time"":299},{""stimulus"":""img/3to1/4.png"",""time"":398},{""stimulus"":""img/3to1/5.png"",""time"":496},{""stimulus"":""img/3to1/6.png"",""time"":595},{""stimulus"":""img/3to1/7.png"",""time"":694},{""stimulus"":""img/3to1/8.png"",""time"":793},{""stimulus"":""img/3to1/9.png"",""time"":892},{""stimulus"":""img/3to1/10.png"",""time"":991},{""stimulus"":""img/3to1/11.png"",""time"":1090},{""stimulus"":""img/3to1/12.png"",""time"":1189}]","[]"
"image-keyboard-response","134","138494","0.0-5.0-1.65","63f3a7e45f338798fd025d99","bdp_cybrbll","Tue Mar 28 2023 08:27:29 GMT-0500 (Central Daylight Time)","434671","3","1","","null","","","","observe","","img/1to3/1.png","null","160","408","0.5","0.5","1","2","",""
"animation","135","139781","0.0-5.0-2.65","63f3a7e45f338798fd025d99","bdp_cybrbll","Tue Mar 28 2023 08:27:29 GMT-0500 (Central Daylight Time)","434671","3","1","","","","","","","","","","160","","","","1","2","[{""stimulus"":""img/1to2/1.png"",""time"":100},{""stimulus"":""img/1to2/2.png"",""time"":199},{""stimulus"":""img/1to2/3.png"",""time"":298},{""stimulus"":""img/1to2/4.png"",""time"":397},{""stimulus"":""img/1to2/5.png"",""time"":496},{""stimulus"":""img/1to2/6.png"",""time"":594},{""stimulus"":""img/1to2/7.png"",""time"":693},{""stimulus"":""img/1to2/8.png"",""time"":792},{""stimulus"":""img/1to2/9.png"",""time"":891},{""stimulus"":""img/1to2/10.png"",""time"":990},{""stimulus"":""img/1to2/11.png"",""time"":1089},{""stimulus"":""img/1to2/12.png"",""time"":1188}]","[]"
"image-keyboard-response","136","140115","0.0-5.0-1.66","63f3a7e45f338798fd025d99","bdp_cybrbll","Tue Mar 28 2023 08:27:29 GMT-0500 (Central Daylight Time)","434671","3","1","","334","","","","choice","","img/2to1/1.png","2","159","302","0.5","0.5","2","3","",""
"animation","137","141403","0.0-5.0-2.66","63f3a7e45f338798fd025d99","bdp_cybrbll","Tue Mar 28 2023 08:27:29 GMT-0500 (Central Daylight Time)","434671","3","1","","","","","","","","","","159","","","","2","3","[{""stimulus"":""img/2to3/1.png"",""time"":100},{""stimulus"":""img/2to3/2.png"",""time"":199},{""stimulus"":""img/2to3/3.png"",""time"":298},{""stimulus"":""img/2to3/4.png"",""time"":397},{""stimulus"":""img/2to3/5.png"",""time"":496},{""stimulus"":""img/2to3/6.png"",""time"":595},{""stimulus"":""img/2to3/7.png"",""time"":694},{""stimulus"":""img/2to3/8.png"",""time"":793},{""stimulus"":""img/2to3/9.png"",""time"":892},{""stimulus"":""img/2to3/10.png"",""time"":991},{""stimulus"":""img/2to3/11.png"",""time"":1090},{""stimulus"":""img/2to3/12.png"",""time"":1189}]","[]"
"image-keyboard-response","138","141783","0.0-5.0-1.67","63f3a7e45f338798fd025d99","bdp_cybrbll","Tue Mar 28 2023 08:27:29 GMT-0500 (Central Daylight Time)","434671","3","1","","null","","","","observe","","img/3to2/1.png","null","158","379","0.5","0.5","3","2","",""
"animation","139","143071","0.0-5.0-2.67","63f3a7e45f338798fd025d99","bdp_cybrbll","Tue Mar 28 2023 08:27:29 GMT-0500 (Central Daylight Time)","434671","3","1","","","","","","","","","","158","","","","3","2","[{""stimulus"":""img/3to2/1.png"",""time"":100},{""stimulus"":""img/3to2/2.png"",""time"":199},{""stimulus"":""img/3to2/3.png"",""time"":298},{""stimulus"":""img/3to2/4.png"",""time"":397},{""stimulus"":""img/3to2/5.png"",""time"":496},{""stimulus"":""img/3to2/6.png"",""time"":594},{""stimulus"":""img/3to2/7.png"",""time"":693},{""stimulus"":""img/3to2/8.png"",""time"":792},{""stimulus"":""img/3to2/9.png"",""time"":891},{""stimulus"":""img/3to2/10.png"",""time"":990},{""stimulus"":""img/3to2/11.png"",""time"":1089},{""stimulus"":""img/3to2/12.png"",""time"":1188}]","[]"
"image-keyboard-response","140","144608","0.0-5.0-1.68","63f3a7e45f338798fd025d99","bdp_cybrbll","Tue Mar 28 2023 08:27:29 GMT-0500 (Central Daylight Time)","434671","3","1","","1537","","","","choice","","img/2to1/1.png","1","157","450","0.5","0.5","2","1","",""
"animation","141","145895","0.0-5.0-2.68","63f3a7e45f338798fd025d99","bdp_cybrbll","Tue Mar 28 2023 08:27:29 GMT-0500 (Central Daylight Time)","434671","3","1","","","","","","","","","","157","","","","2","1","[{""stimulus"":""img/2to1/1.png"",""time"":99},{""stimulus"":""img/2to1/2.png"",""time"":198},{""stimulus"":""img/2to1/3.png"",""time"":297},{""stimulus"":""img/2to1/4.png"",""time"":396},{""stimulus"":""img/2to1/5.png"",""time"":495},{""stimulus"":""img/2to1/6.png"",""time"":594},{""stimulus"":""img/2to1/7.png"",""time"":693},{""stimulus"":""img/2to1/8.png"",""time"":792},{""stimulus"":""img/2to1/9.png"",""time"":891},{""stimulus"":""img/2to1/10.png"",""time"":990},{""stimulus"":""img/2to1/11.png"",""time"":1089},{""stimulus"":""img/2to1/12.png"",""time"":1188}]","[]"
"image-keyboard-response","142","146230","0.0-5.0-1.69","63f3a7e45f338798fd025d99","bdp_cybrbll","Tue Mar 28 2023 08:27:29 GMT-0500 (Central Daylight Time)","434671","3","1","","null","","","","observe","","img/1to3/1.png","null","156","334","0.5","0.5","1","3","",""
"animation","143","147518","0.0-5.0-2.69","63f3a7e45f338798fd025d99","bdp_cybrbll","Tue Mar 28 2023 08:27:29 GMT-0500 (Central Daylight Time)","434671","3","1","","","","","","","","","","156","","","","1","3","[{""stimulus"":""img/1to3/1.png"",""time"":100},{""stimulus"":""img/1to3/2.png"",""time"":199},{""stimulus"":""img/1to3/3.png"",""time"":299},{""stimulus"":""img/1to3/4.png"",""time"":397},{""stimulus"":""img/1to3/5.png"",""time"":496},{""stimulus"":""img/1to3/6.png"",""time"":595},{""stimulus"":""img/1to3/7.png"",""time"":694},{""stimulus"":""img/1to3/8.png"",""time"":793},{""stimulus"":""img/1to3/9.png"",""time"":892},{""stimulus"":""img/1to3/10.png"",""time"":991},{""stimulus"":""img/1to3/11.png"",""time"":1090},{""stimulus"":""img/1to3/12.png"",""time"":1189}]","[]"
"image-keyboard-response","144","147982","0.0-5.0-1.70","63f3a7e45f338798fd025d99","bdp_cybrbll","Tue Mar 28 2023 08:27:29 GMT-0500 (Central Daylight Time)","434671","3","1","","null","","","","observe","","img/3to2/1.png","null","155","463","0.5","0.5","3","1","",""
"animation","145","149269","0.0-5.0-2.70","63f3a7e45f338798fd025d99","bdp_cybrbll","Tue Mar 28 2023 08:27:29 GMT-0500 (Central Daylight Time)","434671","3","1","","","","","","","","","","155","","","","3","1","[{""stimulus"":""img/3to1/1.png"",""time"":100},{""stimulus"":""img/3to1/2.png"",""time"":199},{""stimulus"":""img/3to1/3.png"",""time"":298},{""stimulus"":""img/3to1/4.png"",""time"":397},{""stimulus"":""img/3to1/5.png"",""time"":496},{""stimulus"":""img/3to1/6.png"",""time"":594},{""stimulus"":""img/3to1/7.png"",""time"":693},{""stimulus"":""img/3to1/8.png"",""time"":792},{""stimulus"":""img/3to1/9.png"",""time"":891},{""stimulus"":""img/3to1/10.png"",""time"":990},{""stimulus"":""img/3to1/11.png"",""time"":1089},{""stimulus"":""img/3to1/12.png"",""time"":1188}]","[]"
"image-keyboard-response","146","149531","0.0-5.0-1.71","63f3a7e45f338798fd025d99","bdp_cybrbll","Tue Mar 28 2023 08:27:29 GMT-0500 (Central Daylight Time)","434671","3","1","","null","","","","observe","","img/1to3/1.png","null","154","261","0.5","0.5","1","2","",""
"animation","147","150818","0.0-5.0-2.71","63f3a7e45f338798fd025d99","bdp_cybrbll","Tue Mar 28 2023 08:27:29 GMT-0500 (Central Daylight Time)","434671","3","1","","","","","","","","","","154","","","","1","2","[{""stimulus"":""img/1to2/1.png"",""time"":100},{""stimulus"":""img/1to2/2.png"",""time"":199},{""stimulus"":""img/1to2/3.png"",""time"":298},{""stimulus"":""img/1to2/4.png"",""time"":397},{""stimulus"":""img/1to2/5.png"",""time"":496},{""stimulus"":""img/1to2/6.png"",""time"":596},{""stimulus"":""img/1to2/7.png"",""time"":694},{""stimulus"":""img/1to2/8.png"",""time"":792},{""stimulus"":""img/1to2/9.png"",""time"":891},{""stimulus"":""img/1to2/10.png"",""time"":990},{""stimulus"":""img/1to2/11.png"",""time"":1089},{""stimulus"":""img/1to2/12.png"",""time"":1188}]","[]"
"image-keyboard-response","148","151085","0.0-5.0-1.72","63f3a7e45f338798fd025d99","bdp_cybrbll","Tue Mar 28 2023 08:27:29 GMT-0500 (Central Daylight Time)","434671","3","1","","266","","","","choice","","img/2to1/1.png","2","153","450","0.5","0.5","2","3","",""
"animation","149","152373","0.0-5.0-2.72","63f3a7e45f338798fd025d99","bdp_cybrbll","Tue Mar 28 2023 08:27:29 GMT-0500 (Central Daylight Time)","434671","3","1","","","","","","","","","","153","","","","2","3","[{""stimulus"":""img/2to3/1.png"",""time"":101},{""stimulus"":""img/2to3/2.png"",""time"":200},{""stimulus"":""img/2to3/3.png"",""time"":299},{""stimulus"":""img/2to3/4.png"",""time"":398},{""stimulus"":""img/2to3/5.png"",""time"":497},{""stimulus"":""img/2to3/6.png"",""time"":597},{""stimulus"":""img/2to3/7.png"",""time"":695},{""stimulus"":""img/2to3/8.png"",""time"":794},{""stimulus"":""img/2to3/9.png"",""time"":892},{""stimulus"":""img/2to3/10.png"",""time"":991},{""stimulus"":""img/2to3/11.png"",""time"":1090},{""stimulus"":""img/2to3/12.png"",""time"":1189}]","[]"
"image-keyboard-response","150","153092","0.0-5.0-1.73","63f3a7e45f338798fd025d99","bdp_cybrbll","Tue Mar 28 2023 08:27:29 GMT-0500 (Central Daylight Time)","434671","3","1","","null","","","","observe","","img/3to2/1.png","null","152","718","0.5","0.5","3","1","",""
"animation","151","154379","0.0-5.0-2.73","63f3a7e45f338798fd025d99","bdp_cybrbll","Tue Mar 28 2023 08:27:29 GMT-0500 (Central Daylight Time)","434671","3","1","","","","","","","","","","152","","","","3","1","[{""stimulus"":""img/3to1/1.png"",""time"":100},{""stimulus"":""img/3to1/2.png"",""time"":199},{""stimulus"":""img/3to1/3.png"",""time"":298},{""stimulus"":""img/3to1/4.png"",""time"":397},{""stimulus"":""img/3to1/5.png"",""time"":496},{""stimulus"":""img/3to1/6.png"",""time"":594},{""stimulus"":""img/3to1/7.png"",""time"":693},{""stimulus"":""img/3to1/8.png"",""time"":792},{""stimulus"":""img/3to1/9.png"",""time"":891},{""stimulus"":""img/3to1/10.png"",""time"":990},{""stimulus"":""img/3to1/11.png"",""time"":1089},{""stimulus"":""img/3to1/12.png"",""time"":1188}]","[]"
"image-keyboard-response","152","154577","0.0-5.0-1.74","63f3a7e45f338798fd025d99","bdp_cybrbll","Tue Mar 28 2023 08:27:29 GMT-0500 (Central Daylight Time)","434671","3","1","","null","","","","observe","","img/1to3/1.png","null","151","197","0.5","0.5","1","2","",""
"animation","153","155864","0.0-5.0-2.74","63f3a7e45f338798fd025d99","bdp_cybrbll","Tue Mar 28 2023 08:27:29 GMT-0500 (Central Daylight Time)","434671","3","1","","","","","","","","","","151","","","","1","2","[{""stimulus"":""img/1to2/1.png"",""time"":100},{""stimulus"":""img/1to2/2.png"",""time"":199},{""stimulus"":""img/1to2/3.png"",""time"":298},{""stimulus"":""img/1to2/4.png"",""time"":397},{""stimulus"":""img/1to2/5.png"",""time"":496},{""stimulus"":""img/1to2/6.png"",""time"":594},{""stimulus"":""img/1to2/7.png"",""time"":693},{""stimulus"":""img/1to2/8.png"",""time"":792},{""stimulus"":""img/1to2/9.png"",""time"":891},{""stimulus"":""img/1to2/10.png"",""time"":991},{""stimulus"":""img/1to2/11.png"",""time"":1090},{""stimulus"":""img/1to2/12.png"",""time"":1189}]","[]"
"image-keyboard-response","154","156087","0.0-5.0-1.75","63f3a7e45f338798fd025d99","bdp_cybrbll","Tue Mar 28 2023 08:27:29 GMT-0500 (Central Daylight Time)","434671","3","1","","222","","","","choice","","img/2to1/1.png","2","150","585","0.5","0.5","2","3","",""
"animation","155","157375","0.0-5.0-2.75","63f3a7e45f338798fd025d99","bdp_cybrbll","Tue Mar 28 2023 08:27:29 GMT-0500 (Central Daylight Time)","434671","3","1","","","","","","","","","","150","","","","2","3","[{""stimulus"":""img/2to3/1.png"",""time"":100},{""stimulus"":""img/2to3/2.png"",""time"":199},{""stimulus"":""img/2to3/3.png"",""time"":298},{""stimulus"":""img/2to3/4.png"",""time"":397},{""stimulus"":""img/2to3/5.png"",""time"":496},{""stimulus"":""img/2to3/6.png"",""time"":595},{""stimulus"":""img/2to3/7.png"",""time"":694},{""stimulus"":""img/2to3/8.png"",""time"":793},{""stimulus"":""img/2to3/9.png"",""time"":892},{""stimulus"":""img/2to3/10.png"",""time"":999},{""stimulus"":""img/2to3/11.png"",""time"":1090},{""stimulus"":""img/2to3/12.png"",""time"":1189}]","[]"
"image-keyboard-response","156","157719","0.0-5.0-1.76","63f3a7e45f338798fd025d99","bdp_cybrbll","Tue Mar 28 2023 08:27:29 GMT-0500 (Central Daylight Time)","434671","3","1","","null","","","","observe","","img/3to2/1.png","null","149","343","0.5","0.1","3","1","",""
"animation","157","159006","0.0-5.0-2.76","63f3a7e45f338798fd025d99","bdp_cybrbll","Tue Mar 28 2023 08:27:29 GMT-0500 (Central Daylight Time)","434671","3","1","","","","","","","","","","149","","","","3","1","[{""stimulus"":""img/3to1/1.png"",""time"":100},{""stimulus"":""img/3to1/2.png"",""time"":199},{""stimulus"":""img/3to1/3.png"",""time"":298},{""stimulus"":""img/3to1/4.png"",""time"":397},{""stimulus"":""img/3to1/5.png"",""time"":496},{""stimulus"":""img/3to1/6.png"",""time"":595},{""stimulus"":""img/3to1/7.png"",""time"":694},{""stimulus"":""img/3to1/8.png"",""time"":792},{""stimulus"":""img/3to1/9.png"",""time"":891},{""stimulus"":""img/3to1/10.png"",""time"":990},{""stimulus"":""img/3to1/11.png"",""time"":1089},{""stimulus"":""img/3to1/12.png"",""time"":1188}]","[]"
"image-keyboard-response","158","159398","0.0-5.0-1.77","63f3a7e45f338798fd025d99","bdp_cybrbll","Tue Mar 28 2023 08:27:29 GMT-0500 (Central Daylight Time)","434671","3","1","","null","","","","observe","","img/1to3/1.png","null","148","391","0.5","0.1","1","3","",""
"animation","159","160686","0.0-5.0-2.77","63f3a7e45f338798fd025d99","bdp_cybrbll","Tue Mar 28 2023 08:27:29 GMT-0500 (Central Daylight Time)","434671","3","1","","","","","","","","","","148","","","","1","3","[{""stimulus"":""img/1to3/1.png"",""time"":103},{""stimulus"":""img/1to3/2.png"",""time"":199},{""stimulus"":""img/1to3/3.png"",""time"":298},{""stimulus"":""img/1to3/4.png"",""time"":397},{""stimulus"":""img/1to3/5.png"",""time"":496},{""stimulus"":""img/1to3/6.png"",""time"":594},{""stimulus"":""img/1to3/7.png"",""time"":693},{""stimulus"":""img/1to3/8.png"",""time"":792},{""stimulus"":""img/1to3/9.png"",""time"":892},{""stimulus"":""img/1to3/10.png"",""time"":991},{""stimulus"":""img/1to3/11.png"",""time"":1090},{""stimulus"":""img/1to3/12.png"",""time"":1189}]","[]"
"image-keyboard-response","160","161120","0.0-5.0-1.78","63f3a7e45f338798fd025d99","bdp_cybrbll","Tue Mar 28 2023 08:27:29 GMT-0500 (Central Daylight Time)","434671","3","1","","null","","","","observe","","img/3to2/1.png","null","147","433","0.5","0.1","3","2","",""
"animation","161","162407","0.0-5.0-2.78","63f3a7e45f338798fd025d99","bdp_cybrbll","Tue Mar 28 2023 08:27:29 GMT-0500 (Central Daylight Time)","434671","3","1","","","","","","","","","","147","","","","3","2","[{""stimulus"":""img/3to2/1.png"",""time"":100},{""stimulus"":""img/3to2/2.png"",""time"":199},{""stimulus"":""img/3to2/3.png"",""time"":298},{""stimulus"":""img/3to2/4.png"",""time"":398},{""stimulus"":""img/3to2/5.png"",""time"":496},{""stimulus"":""img/3to2/6.png"",""time"":595},{""stimulus"":""img/3to2/7.png"",""time"":694},{""stimulus"":""img/3to2/8.png"",""time"":792},{""stimulus"":""img/3to2/9.png"",""time"":891},{""stimulus"":""img/3to2/10.png"",""time"":990},{""stimulus"":""img/3to2/11.png"",""time"":1089},{""stimulus"":""img/3to2/12.png"",""time"":1188}]","[]"
"image-keyboard-response","162","163548","0.0-5.0-1.79","63f3a7e45f338798fd025d99","bdp_cybrbll","Tue Mar 28 2023 08:27:29 GMT-0500 (Central Daylight Time)","434671","3","1","","1141","","","","choice","","img/2to1/1.png","1","146","596","0.5","0.1","2","1","",""
"animation","163","164835","0.0-5.0-2.79","63f3a7e45f338798fd025d99","bdp_cybrbll","Tue Mar 28 2023 08:27:29 GMT-0500 (Central Daylight Time)","434671","3","1","","","","","","","","","","146","","","","2","1","[{""stimulus"":""img/2to1/1.png"",""time"":99},{""stimulus"":""img/2to1/2.png"",""time"":198},{""stimulus"":""img/2to1/3.png"",""time"":297},{""stimulus"":""img/2to1/4.png"",""time"":396},{""stimulus"":""img/2to1/5.png"",""time"":495},{""stimulus"":""img/2to1/6.png"",""time"":594},{""stimulus"":""img/2to1/7.png"",""time"":693},{""stimulus"":""img/2to1/8.png"",""time"":792},{""stimulus"":""img/2to1/9.png"",""time"":891},{""stimulus"":""img/2to1/10.png"",""time"":1004},{""stimulus"":""img/2to1/11.png"",""time"":1090},{""stimulus"":""img/2to1/12.png"",""time"":1189}]","[]"
"image-keyboard-response","164","165295","0.0-5.0-1.80","63f3a7e45f338798fd025d99","bdp_cybrbll","Tue Mar 28 2023 08:27:29 GMT-0500 (Central Daylight Time)","434671","3","1","","null","","","","observe","","img/1to3/1.png","null","145","458","0.5","0.1","1","3","",""
"animation","165","166582","0.0-5.0-2.80","63f3a7e45f338798fd025d99","bdp_cybrbll","Tue Mar 28 2023 08:27:29 GMT-0500 (Central Daylight Time)","434671","3","1","","","","","","","","","","145","","","","1","3","[{""stimulus"":""img/1to3/1.png"",""time"":100},{""stimulus"":""img/1to3/2.png"",""time"":199},{""stimulus"":""img/1to3/3.png"",""time"":298},{""stimulus"":""img/1to3/4.png"",""time"":397},{""stimulus"":""img/1to3/5.png"",""time"":496},{""stimulus"":""img/1to3/6.png"",""time"":595},{""stimulus"":""img/1to3/7.png"",""time"":694},{""stimulus"":""img/1to3/8.png"",""time"":792},{""stimulus"":""img/1to3/9.png"",""time"":891},{""stimulus"":""img/1to3/10.png"",""time"":990},{""stimulus"":""img/1to3/11.png"",""time"":1089},{""stimulus"":""img/1to3/12.png"",""time"":1188}]","[]"
"image-keyboard-response","166","166876","0.0-5.0-1.81","63f3a7e45f338798fd025d99","bdp_cybrbll","Tue Mar 28 2023 08:27:29 GMT-0500 (Central Daylight Time)","434671","3","1","","null","","","","observe","","img/3to2/1.png","null","144","293","0.5","0.1","3","2","",""
"animation","167","168163","0.0-5.0-2.81","63f3a7e45f338798fd025d99","bdp_cybrbll","Tue Mar 28 2023 08:27:29 GMT-0500 (Central Daylight Time)","434671","3","1","","","","","","","","","","144","","","","3","2","[{""stimulus"":""img/3to2/1.png"",""time"":100},{""stimulus"":""img/3to2/2.png"",""time"":199},{""stimulus"":""img/3to2/3.png"",""time"":298},{""stimulus"":""img/3to2/4.png"",""time"":397},{""stimulus"":""img/3to2/5.png"",""time"":496},{""stimulus"":""img/3to2/6.png"",""time"":595},{""stimulus"":""img/3to2/7.png"",""time"":693},{""stimulus"":""img/3to2/8.png"",""time"":792},{""stimulus"":""img/3to2/9.png"",""time"":891},{""stimulus"":""img/3to2/10.png"",""time"":990},{""stimulus"":""img/3to2/11.png"",""time"":1089},{""stimulus"":""img/3to2/12.png"",""time"":1188}]","[]"
"image-keyboard-response","168","168643","0.0-5.0-1.82","63f3a7e45f338798fd025d99","bdp_cybrbll","Tue Mar 28 2023 08:27:29 GMT-0500 (Central Daylight Time)","434671","3","1","","479","","","","choice","","img/2to1/1.png","1","143","242","0.5","0.1","2","1","",""
"animation","169","169931","0.0-5.0-2.82","63f3a7e45f338798fd025d99","bdp_cybrbll","Tue Mar 28 2023 08:27:29 GMT-0500 (Central Daylight Time)","434671","3","1","","","","","","","","","","143","","","","2","1","[{""stimulus"":""img/2to1/1.png"",""time"":101},{""stimulus"":""img/2to1/2.png"",""time"":199},{""stimulus"":""img/2to1/3.png"",""time"":298},{""stimulus"":""img/2to1/4.png"",""time"":398},{""stimulus"":""img/2to1/5.png"",""time"":497},{""stimulus"":""img/2to1/6.png"",""time"":596},{""stimulus"":""img/2to1/7.png"",""time"":694},{""stimulus"":""img/2to1/8.png"",""time"":793},{""stimulus"":""img/2to1/9.png"",""time"":892},{""stimulus"":""img/2to1/10.png"",""time"":991},{""stimulus"":""img/2to1/11.png"",""time"":1090},{""stimulus"":""img/2to1/12.png"",""time"":1189}]","[]"
"image-keyboard-response","170","170258","0.0-5.0-1.83","63f3a7e45f338798fd025d99","bdp_cybrbll","Tue Mar 28 2023 08:27:29 GMT-0500 (Central Daylight Time)","434671","3","1","","null","","","","observe","","img/1to3/1.png","null","142","326","0.5","0.1","1","3","",""
"animation","171","171545","0.0-5.0-2.83","63f3a7e45f338798fd025d99","bdp_cybrbll","Tue Mar 28 2023 08:27:29 GMT-0500 (Central Daylight Time)","434671","3","1","","","","","","","","","","142","","","","1","3","[{""stimulus"":""img/1to3/1.png"",""time"":100},{""stimulus"":""img/1to3/2.png"",""time"":199},{""stimulus"":""img/1to3/3.png"",""time"":298},{""stimulus"":""img/1to3/4.png"",""time"":397},{""stimulus"":""img/1to3/5.png"",""time"":496},{""stimulus"":""img/1to3/6.png"",""time"":594},{""stimulus"":""img/1to3/7.png"",""time"":693},{""stimulus"":""img/1to3/8.png"",""time"":792},{""stimulus"":""img/1to3/9.png"",""time"":891},{""stimulus"":""img/1to3/10.png"",""time"":990},{""stimulus"":""img/1to3/11.png"",""time"":1089},{""stimulus"":""img/1to3/12.png"",""time"":1188}]","[]"
"image-keyboard-response","172","171726","0.0-5.0-1.84","63f3a7e45f338798fd025d99","bdp_cybrbll","Tue Mar 28 2023 08:27:29 GMT-0500 (Central Daylight Time)","434671","3","1","","null","","","","observe","","img/3to2/1.png","null","141","180","0.5","0.1","3","1","",""
"animation","173","173013","0.0-5.0-2.84","63f3a7e45f338798fd025d99","bdp_cybrbll","Tue Mar 28 2023 08:27:29 GMT-0500 (Central Daylight Time)","434671","3","1","","","","","","","","","","141","","","","3","1","[{""stimulus"":""img/3to1/1.png"",""time"":100},{""stimulus"":""img/3to1/2.png"",""time"":199},{""stimulus"":""img/3to1/3.png"",""time"":298},{""stimulus"":""img/3to1/4.png"",""time"":397},{""stimulus"":""img/3to1/5.png"",""time"":496},{""stimulus"":""img/3to1/6.png"",""time"":594},{""stimulus"":""img/3to1/7.png"",""time"":693},{""stimulus"":""img/3to1/8.png"",""time"":792},{""stimulus"":""img/3to1/9.png"",""time"":891},{""stimulus"":""img/3to1/10.png"",""time"":990},{""stimulus"":""img/3to1/11.png"",""time"":1089},{""stimulus"":""img/3to1/12.png"",""time"":1188}]","[]"
"image-keyboard-response","174","173384","0.0-5.0-1.85","63f3a7e45f338798fd025d99","bdp_cybrbll","Tue Mar 28 2023 08:27:29 GMT-0500 (Central Daylight Time)","434671","3","1","","null","","","","observe","","img/1to3/1.png","null","140","370","0.5","0.1","1","3","",""
"animation","175","174672","0.0-5.0-2.85","63f3a7e45f338798fd025d99","bdp_cybrbll","Tue Mar 28 2023 08:27:29 GMT-0500 (Central Daylight Time)","434671","3","1","","","","","","","","","","140","","","","1","3","[{""stimulus"":""img/1to3/1.png"",""time"":101},{""stimulus"":""img/1to3/2.png"",""time"":200},{""stimulus"":""img/1to3/3.png"",""time"":299},{""stimulus"":""img/1to3/4.png"",""time"":398},{""stimulus"":""img/1to3/5.png"",""time"":497},{""stimulus"":""img/1to3/6.png"",""time"":595},{""stimulus"":""img/1to3/7.png"",""time"":694},{""stimulus"":""img/1to3/8.png"",""time"":793},{""stimulus"":""img/1to3/9.png"",""time"":892},{""stimulus"":""img/1to3/10.png"",""time"":991},{""stimulus"":""img/1to3/11.png"",""time"":1090},{""stimulus"":""img/1to3/12.png"",""time"":1189}]","[]"
"image-keyboard-response","176","176276","0.0-5.0-1.86","63f3a7e45f338798fd025d99","bdp_cybrbll","Tue Mar 28 2023 08:27:29 GMT-0500 (Central Daylight Time)","434671","3","1","","null","","","","observe","","img/3to2/1.png","null","139","1603","0.5","0.1","3","2","",""
"animation","177","177563","0.0-5.0-2.86","63f3a7e45f338798fd025d99","bdp_cybrbll","Tue Mar 28 2023 08:27:29 GMT-0500 (Central Daylight Time)","434671","3","1","","","","","","","","","","139","","","","3","2","[{""stimulus"":""img/3to2/1.png"",""time"":100},{""stimulus"":""img/3to2/2.png"",""time"":199},{""stimulus"":""img/3to2/3.png"",""time"":298},{""stimulus"":""img/3to2/4.png"",""time"":397},{""stimulus"":""img/3to2/5.png"",""time"":496},{""stimulus"":""img/3to2/6.png"",""time"":595},{""stimulus"":""img/3to2/7.png"",""time"":693},{""stimulus"":""img/3to2/8.png"",""time"":792},{""stimulus"":""img/3to2/9.png"",""time"":891},{""stimulus"":""img/3to2/10.png"",""time"":990},{""stimulus"":""img/3to2/11.png"",""time"":1089},{""stimulus"":""img/3to2/12.png"",""time"":1188}]","[]"
"image-keyboard-response","178","177773","0.0-5.0-1.87","63f3a7e45f338798fd025d99","bdp_cybrbll","Tue Mar 28 2023 08:27:29 GMT-0500 (Central Daylight Time)","434671","3","1","","209","","","","choice","","img/2to1/1.png","1","138","172","0.5","0.1","2","1","",""
"animation","179","179061","0.0-5.0-2.87","63f3a7e45f338798fd025d99","bdp_cybrbll","Tue Mar 28 2023 08:27:29 GMT-0500 (Central Daylight Time)","434671","3","1","","","","","","","","","","138","","","","2","1","[{""stimulus"":""img/2to1/1.png"",""time"":101},{""stimulus"":""img/2to1/2.png"",""time"":199},{""stimulus"":""img/2to1/3.png"",""time"":299},{""stimulus"":""img/2to1/4.png"",""time"":397},{""stimulus"":""img/2to1/5.png"",""time"":496},{""stimulus"":""img/2to1/6.png"",""time"":595},{""stimulus"":""img/2to1/7.png"",""time"":694},{""stimulus"":""img/2to1/8.png"",""time"":793},{""stimulus"":""img/2to1/9.png"",""time"":892},{""stimulus"":""img/2to1/10.png"",""time"":991},{""stimulus"":""img/2to1/11.png"",""time"":1090},{""stimulus"":""img/2to1/12.png"",""time"":1189}]","[]"
"image-keyboard-response","180","179386","0.0-5.0-1.88","63f3a7e45f338798fd025d99","bdp_cybrbll","Tue Mar 28 2023 08:27:29 GMT-0500 (Central Daylight Time)","434671","3","1","","null","","","","observe","","img/1to3/1.png","null","137","324","0.5","0.1","1","3","",""
"animation","181","180673","0.0-5.0-2.88","63f3a7e45f338798fd025d99","bdp_cybrbll","Tue Mar 28 2023 08:27:29 GMT-0500 (Central Daylight Time)","434671","3","1","","","","","","","","","","137","","","","1","3","[{""stimulus"":""img/1to3/1.png"",""time"":100},{""stimulus"":""img/1to3/2.png"",""time"":199},{""stimulus"":""img/1to3/3.png"",""time"":298},{""stimulus"":""img/1to3/4.png"",""time"":397},{""stimulus"":""img/1to3/5.png"",""time"":496},{""stimulus"":""img/1to3/6.png"",""time"":594},{""stimulus"":""img/1to3/7.png"",""time"":693},{""stimulus"":""img/1to3/8.png"",""time"":792},{""stimulus"":""img/1to3/9.png"",""time"":891},{""stimulus"":""img/1to3/10.png"",""time"":990},{""stimulus"":""img/1to3/11.png"",""time"":1089},{""stimulus"":""img/1to3/12.png"",""time"":1188}]","[]"
"image-keyboard-response","182","181545","0.0-5.0-1.89","63f3a7e45f338798fd025d99","bdp_cybrbll","Tue Mar 28 2023 08:27:29 GMT-0500 (Central Daylight Time)","434671","3","1","","null","","","","observe","","img/3to2/1.png","null","136","871","0.5","0.1","3","1","",""
"animation","183","182832","0.0-5.0-2.89","63f3a7e45f338798fd025d99","bdp_cybrbll","Tue Mar 28 2023 08:27:29 GMT-0500 (Central Daylight Time)","434671","3","1","","","","","","","","","","136","","","","3","1","[{""stimulus"":""img/3to1/1.png"",""time"":100},{""stimulus"":""img/3to1/2.png"",""time"":199},{""stimulus"":""img/3to1/3.png"",""time"":298},{""stimulus"":""img/3to1/4.png"",""time"":397},{""stimulus"":""img/3to1/5.png"",""time"":496},{""stimulus"":""img/3to1/6.png"",""time"":595},{""stimulus"":""img/3to1/7.png"",""time"":694},{""stimulus"":""img/3to1/8.png"",""time"":792},{""stimulus"":""img/3to1/9.png"",""time"":891},{""stimulus"":""img/3to1/10.png"",""time"":991},{""stimulus"":""img/3to1/11.png"",""time"":1090},{""stimulus"":""img/3to1/12.png"",""time"":1189}]","[]"
"image-keyboard-response","184","183203","0.0-5.0-1.90","63f3a7e45f338798fd025d99","bdp_cybrbll","Tue Mar 28 2023 08:27:29 GMT-0500 (Central Daylight Time)","434671","3","1","","null","","","","observe","","img/1to3/1.png","null","135","369","0.5","0.1","1","2","",""
"animation","185","184490","0.0-5.0-2.90","63f3a7e45f338798fd025d99","bdp_cybrbll","Tue Mar 28 2023 08:27:29 GMT-0500 (Central Daylight Time)","434671","3","1","","","","","","","","","","135","","","","1","2","[{""stimulus"":""img/1to2/1.png"",""time"":100},{""stimulus"":""img/1to2/2.png"",""time"":199},{""stimulus"":""img/1to2/3.png"",""time"":298},{""stimulus"":""img/1to2/4.png"",""time"":397},{""stimulus"":""img/1to2/5.png"",""time"":495},{""stimulus"":""img/1to2/6.png"",""time"":594},{""stimulus"":""img/1to2/7.png"",""time"":693},{""stimulus"":""img/1to2/8.png"",""time"":792},{""stimulus"":""img/1to2/9.png"",""time"":891},{""stimulus"":""img/1to2/10.png"",""time"":990},{""stimulus"":""img/1to2/11.png"",""time"":1089},{""stimulus"":""img/1to2/12.png"",""time"":1188}]","[]"
"image-keyboard-response","186","184883","0.0-5.0-1.91","63f3a7e45f338798fd025d99","bdp_cybrbll","Tue Mar 28 2023 08:27:29 GMT-0500 (Central Daylight Time)","434671","3","1","","393","","","","choice","","img/2to1/1.png","2","134","1001","0.5","0.1","2","3","",""
"animation","187","186170","0.0-5.0-2.91","63f3a7e45f338798fd025d99","bdp_cybrbll","Tue Mar 28 2023 08:27:29 GMT-0500 (Central Daylight Time)","434671","3","1","","","","","","","","","","134","","","","2","3","[{""stimulus"":""img/2to3/1.png"",""time"":100},{""stimulus"":""img/2to3/2.png"",""time"":199},{""stimulus"":""img/2to3/3.png"",""time"":298},{""stimulus"":""img/2to3/4.png"",""time"":397},{""stimulus"":""img/2to3/5.png"",""time"":496},{""stimulus"":""img/2to3/6.png"",""time"":595},{""stimulus"":""img/2to3/7.png"",""time"":694},{""stimulus"":""img/2to3/8.png"",""time"":792},{""stimulus"":""img/2to3/9.png"",""time"":891},{""stimulus"":""img/2to3/10.png"",""time"":990},{""stimulus"":""img/2to3/11.png"",""time"":1089},{""stimulus"":""img/2to3/12.png"",""time"":1188}]","[]"
"image-keyboard-response","188","186492","0.0-5.0-1.92","63f3a7e45f338798fd025d99","bdp_cybrbll","Tue Mar 28 2023 08:27:29 GMT-0500 (Central Daylight Time)","434671","3","1","","null","","","","observe","","img/3to2/1.png","null","133","321","0.5","0.1","3","1","",""
"animation","189","187780","0.0-5.0-2.92","63f3a7e45f338798fd025d99","bdp_cybrbll","Tue Mar 28 2023 08:27:29 GMT-0500 (Central Daylight Time)","434671","3","1","","","","","","","","","","133","","","","3","1","[{""stimulus"":""img/3to1/1.png"",""time"":101},{""stimulus"":""img/3to1/2.png"",""time"":199},{""stimulus"":""img/3to1/3.png"",""time"":298},{""stimulus"":""img/3to1/4.png"",""time"":398},{""stimulus"":""img/3to1/5.png"",""time"":497},{""stimulus"":""img/3to1/6.png"",""time"":595},{""stimulus"":""img/3to1/7.png"",""time"":694},{""stimulus"":""img/3to1/8.png"",""time"":793},{""stimulus"":""img/3to1/9.png"",""time"":892},{""stimulus"":""img/3to1/10.png"",""time"":991},{""stimulus"":""img/3to1/11.png"",""time"":1090},{""stimulus"":""img/3to1/12.png"",""time"":1189}]","[]"
"image-keyboard-response","190","188658","0.0-5.0-1.93","63f3a7e45f338798fd025d99","bdp_cybrbll","Tue Mar 28 2023 08:27:29 GMT-0500 (Central Daylight Time)","434671","3","1","","null","","","","observe","","img/1to3/1.png","null","132","877","0.5","0.1","1","3","",""
