"trial_type","trial_index","time_elapsed","internal_node_id","subject_id","task","startTime","totalTime","fairPartner","unfairPartner","view_history","rt","event","trial","time","trialtype","success","stimulus","key_press","throwsLeft","rtDur","pFair","pUnfair","holder","receiver","animation_sequence","responses"
"pavlovia","0","9","0.0-0.0","6092dea4efd6d61350f0fdbf","bdp_cybrbll","Sun Mar 26 2023 08:51:07 GMT-0500 (Central Daylight Time)","705769","3","1","","","","","","","","","","","","","","","","",""
"instructions","1","3419","0.0-1.0","6092dea4efd6d61350f0fdbf","bdp_cybrbll","Sun Mar 26 2023 08:51:07 GMT-0500 (Central Daylight Time)","705769","3","1","[{""page_index"":0,""viewing_time"":3408}]","3409","","","","","","","","","","","","","","",""
"","","","","6092dea4efd6d61350f0fdbf","bdp_cybrbll","Sun Mar 26 2023 08:51:07 GMT-0500 (Central Daylight Time)","705769","3","1","","","fullscreenexit","2","6194","fullscreenexit","","","","","","","","","","",""
"fullscreen","2","6945","0.0-2.0","6092dea4efd6d61350f0fdbf","bdp_cybrbll","Sun Mar 26 2023 08:51:07 GMT-0500 (Central Daylight Time)","705769","3","1","","","","","","","true","","","","","","","","","",""
"image-keyboard-response","3","10338","0.0-3.0-0.0","6092dea4efd6d61350f0fdbf","bdp_cybrbll","Sun Mar 26 2023 08:51:07 GMT-0500 (Central Daylight Time)","705769","3","1","","3391","","","","fullscreenfail","","","32","","","","","","","",""
"instructions","4","266050","0.0-4.0","6092dea4efd6d61350f0fdbf","bdp_cybrbll","Sun Mar 26 2023 08:51:07 GMT-0500 (Central Daylight Time)","705769","3","1","[{""page_index"":0,""viewing_time"":255453}]","255454","","","","","","","","","","","","","","",""
"image-keyboard-response","5","268567","0.0-5.0-1.0","6092dea4efd6d61350f0fdbf","bdp_cybrbll","Sun Mar 26 2023 08:51:07 GMT-0500 (Central Daylight Time)","705769","3","1","","2513","","","","choice","","img/2to1/1.png","1","225","555","0.5","0.5","2","1","",""
"animation","6","270003","0.0-5.0-2.0","6092dea4efd6d61350f0fdbf","bdp_cybrbll","Sun Mar 26 2023 08:51:07 GMT-0500 (Central Daylight Time)","705769","3","1","","","","","","","","","","225","","","","2","1","[{""stimulus"":""img/2to1/1.png"",""time"":108},{""stimulus"":""img/2to1/2.png"",""time"":217},{""stimulus"":""img/2to1/3.png"",""time"":327},{""stimulus"":""img/2to1/4.png"",""time"":438},{""stimulus"":""img/2to1/5.png"",""time"":550},{""stimulus"":""img/2to1/6.png"",""time"":659},{""stimulus"":""img/2to1/7.png"",""time"":771},{""stimulus"":""img/2to1/8.png"",""time"":880},{""stimulus"":""img/2to1/9.png"",""time"":990},{""stimulus"":""img/2to1/10.png"",""time"":1101},{""stimulus"":""img/2to1/11.png"",""time"":1212},{""stimulus"":""img/2to1/12.png"",""time"":1323}]","[]"
"image-keyboard-response","7","270565","0.0-5.0-1.1","6092dea4efd6d61350f0fdbf","bdp_cybrbll","Sun Mar 26 2023 08:51:07 GMT-0500 (Central Daylight Time)","705769","3","1","","null","","","","observe","","img/1to3/1.png","null","224","552","0.5","0.5","1","2","",""
"animation","8","272001","0.0-5.0-2.1","6092dea4efd6d61350f0fdbf","bdp_cybrbll","Sun Mar 26 2023 08:51:07 GMT-0500 (Central Daylight Time)","705769","3","1","","","","","","","","","","224","","","","1","2","[{""stimulus"":""img/1to2/1.png"",""time"":110},{""stimulus"":""img/1to2/2.png"",""time"":221},{""stimulus"":""img/1to2/3.png"",""time"":331},{""stimulus"":""img/1to2/4.png"",""time"":443},{""stimulus"":""img/1to2/5.png"",""time"":553},{""stimulus"":""img/1to2/6.png"",""time"":663},{""stimulus"":""img/1to2/7.png"",""time"":772},{""stimulus"":""img/1to2/8.png"",""time"":883},{""stimulus"":""img/1to2/9.png"",""time"":993},{""stimulus"":""img/1to2/10.png"",""time"":1103},{""stimulus"":""img/1to2/11.png"",""time"":1214},{""stimulus"":""img/1to2/12.png"",""time"":1325}]","[]"
"image-keyboard-response","9","272637","0.0-5.0-1.2","6092dea4efd6d61350f0fdbf","bdp_cybrbll","Sun Mar 26 2023 08:51:07 GMT-0500 (Central Daylight Time)","705769","3","1","","634","","","","choice","","img/2to1/1.png","2","223","819","0.5","0.5","2","3","",""
"animation","10","274067","0.0-5.0-2.2","6092dea4efd6d61350f0fdbf","bdp_cybrbll","Sun Mar 26 2023 08:51:07 GMT-0500 (Central Daylight Time)","705769","3","1","","","","","","","","","","223","","","","2","3","[{""stimulus"":""img/2to3/1.png"",""time"":104},{""stimulus"":""img/2to3/2.png"",""time"":215},{""stimulus"":""img/2to3/3.png"",""time"":326},{""stimulus"":""img/2to3/4.png"",""time"":437},{""stimulus"":""img/2to3/5.png"",""time"":547},{""stimulus"":""img/2to3/6.png"",""time"":657},{""stimulus"":""img/2to3/7.png"",""time"":768},{""stimulus"":""img/2to3/8.png"",""time"":879},{""stimulus"":""img/2to3/9.png"",""time"":989},{""stimulus"":""img/2to3/10.png"",""time"":1101},{""stimulus"":""img/2to3/11.png"",""time"":1210},{""stimulus"":""img/2to3/12.png"",""time"":1320}]","[]"
"image-keyboard-response","11","274272","0.0-5.0-1.3","6092dea4efd6d61350f0fdbf","bdp_cybrbll","Sun Mar 26 2023 08:51:07 GMT-0500 (Central Daylight Time)","705769","3","1","","null","","","","observe","","img/3to2/1.png","null","222","191","0.5","0.5","3","2","",""
"animation","12","275709","0.0-5.0-2.3","6092dea4efd6d61350f0fdbf","bdp_cybrbll","Sun Mar 26 2023 08:51:07 GMT-0500 (Central Daylight Time)","705769","3","1","","","","","","","","","","222","","","","3","2","[{""stimulus"":""img/3to2/1.png"",""time"":111},{""stimulus"":""img/3to2/2.png"",""time"":221},{""stimulus"":""img/3to2/3.png"",""time"":331},{""stimulus"":""img/3to2/4.png"",""time"":443},{""stimulus"":""img/3to2/5.png"",""time"":553},{""stimulus"":""img/3to2/6.png"",""time"":664},{""stimulus"":""img/3to2/7.png"",""time"":774},{""stimulus"":""img/3to2/8.png"",""time"":885},{""stimulus"":""img/3to2/9.png"",""time"":994},{""stimulus"":""img/3to2/10.png"",""time"":1104},{""stimulus"":""img/3to2/11.png"",""time"":1214},{""stimulus"":""img/3to2/12.png"",""time"":1326}]","[]"
"image-keyboard-response","13","276212","0.0-5.0-1.4","6092dea4efd6d61350f0fdbf","bdp_cybrbll","Sun Mar 26 2023 08:51:07 GMT-0500 (Central Daylight Time)","705769","3","1","","500","","","","choice","","img/2to1/1.png","1","221","249","0.5","0.5","2","1","",""
"animation","14","277656","0.0-5.0-2.4","6092dea4efd6d61350f0fdbf","bdp_cybrbll","Sun Mar 26 2023 08:51:07 GMT-0500 (Central Daylight Time)","705769","3","1","","","","","","","","","","221","","","","2","1","[{""stimulus"":""img/2to1/1.png"",""time"":115},{""stimulus"":""img/2to1/2.png"",""time"":226},{""stimulus"":""img/2to1/3.png"",""time"":338},{""stimulus"":""img/2to1/4.png"",""time"":449},{""stimulus"":""img/2to1/5.png"",""time"":558},{""stimulus"":""img/2to1/6.png"",""time"":669},{""stimulus"":""img/2to1/7.png"",""time"":778},{""stimulus"":""img/2to1/8.png"",""time"":892},{""stimulus"":""img/2to1/9.png"",""time"":1002},{""stimulus"":""img/2to1/10.png"",""time"":1112},{""stimulus"":""img/2to1/11.png"",""time"":1223},{""stimulus"":""img/2to1/12.png"",""time"":1333}]","[]"
"image-keyboard-response","15","278308","0.0-5.0-1.5","6092dea4efd6d61350f0fdbf","bdp_cybrbll","Sun Mar 26 2023 08:51:07 GMT-0500 (Central Daylight Time)","705769","3","1","","null","","","","observe","","img/1to3/1.png","null","220","638","0.5","0.5","1","3","",""
"animation","16","279745","0.0-5.0-2.5","6092dea4efd6d61350f0fdbf","bdp_cybrbll","Sun Mar 26 2023 08:51:07 GMT-0500 (Central Daylight Time)","705769","3","1","","","","","","","","","","220","","","","1","3","[{""stimulus"":""img/1to3/1.png"",""time"":110},{""stimulus"":""img/1to3/2.png"",""time"":220},{""stimulus"":""img/1to3/3.png"",""time"":331},{""stimulus"":""img/1to3/4.png"",""time"":441},{""stimulus"":""img/1to3/5.png"",""time"":553},{""stimulus"":""img/1to3/6.png"",""time"":662},{""stimulus"":""img/1to3/7.png"",""time"":774},{""stimulus"":""img/1to3/8.png"",""time"":883},{""stimulus"":""img/1to3/9.png"",""time"":993},{""stimulus"":""img/1to3/10.png"",""time"":1104},{""stimulus"":""img/1to3/11.png"",""time"":1215},{""stimulus"":""img/1to3/12.png"",""time"":1326}]","[]"
"image-keyboard-response","17","280030","0.0-5.0-1.6","6092dea4efd6d61350f0fdbf","bdp_cybrbll","Sun Mar 26 2023 08:51:07 GMT-0500 (Central Daylight Time)","705769","3","1","","null","","","","observe","","img/3to2/1.png","null","219","282","0.5","0.5","3","2","",""
"animation","18","281468","0.0-5.0-2.6","6092dea4efd6d61350f0fdbf","bdp_cybrbll","Sun Mar 26 2023 08:51:07 GMT-0500 (Central Daylight Time)","705769","3","1","","","","","","","","","","219","","","","3","2","[{""stimulus"":""img/3to2/1.png"",""time"":111},{""stimulus"":""img/3to2/2.png"",""time"":221},{""stimulus"":""img/3to2/3.png"",""time"":332},{""stimulus"":""img/3to2/4.png"",""time"":442},{""stimulus"":""img/3to2/5.png"",""time"":554},{""stimulus"":""img/3to2/6.png"",""time"":665},{""stimulus"":""img/3to2/7.png"",""time"":776},{""stimulus"":""img/3to2/8.png"",""time"":886},{""stimulus"":""img/3to2/9.png"",""time"":998},{""stimulus"":""img/3to2/10.png"",""time"":1107},{""stimulus"":""img/3to2/11.png"",""time"":1217},{""stimulus"":""img/3to2/12.png"",""time"":1329}]","[]"
"image-keyboard-response","19","282434","0.0-5.0-1.7","6092dea4efd6d61350f0fdbf","bdp_cybrbll","Sun Mar 26 2023 08:51:07 GMT-0500 (Central Daylight Time)","705769","3","1","","964","","","","choice","","img/2to1/1.png","1","218","300","0.5","0.5","2","1","",""
"animation","20","283872","0.0-5.0-2.7","6092dea4efd6d61350f0fdbf","bdp_cybrbll","Sun Mar 26 2023 08:51:07 GMT-0500 (Central Daylight Time)","705769","3","1","","","","","","","","","","218","","","","2","1","[{""stimulus"":""img/2to1/1.png"",""time"":111},{""stimulus"":""img/2to1/2.png"",""time"":223},{""stimulus"":""img/2to1/3.png"",""time"":334},{""stimulus"":""img/2to1/4.png"",""time"":445},{""stimulus"":""img/2to1/5.png"",""time"":555},{""stimulus"":""img/2to1/6.png"",""time"":666},{""stimulus"":""img/2to1/7.png"",""time"":776},{""stimulus"":""img/2to1/8.png"",""time"":885},{""stimulus"":""img/2to1/9.png"",""time"":996},{""stimulus"":""img/2to1/10.png"",""time"":1107},{""stimulus"":""img/2to1/11.png"",""time"":1218},{""stimulus"":""img/2to1/12.png"",""time"":1327}]","[]"
"image-keyboard-response","21","284188","0.0-5.0-1.8","6092dea4efd6d61350f0fdbf","bdp_cybrbll","Sun Mar 26 2023 08:51:07 GMT-0500 (Central Daylight Time)","705769","3","1","","null","","","","observe","","img/1to3/1.png","null","217","309","0.5","0.5","1","2","",""
"animation","22","285627","0.0-5.0-2.8","6092dea4efd6d61350f0fdbf","bdp_cybrbll","Sun Mar 26 2023 08:51:07 GMT-0500 (Central Daylight Time)","705769","3","1","","","","","","","","","","217","","","","1","2","[{""stimulus"":""img/1to2/1.png"",""time"":111},{""stimulus"":""img/1to2/2.png"",""time"":222},{""stimulus"":""img/1to2/3.png"",""time"":332},{""stimulus"":""img/1to2/4.png"",""time"":443},{""stimulus"":""img/1to2/5.png"",""time"":553},{""stimulus"":""img/1to2/6.png"",""time"":664},{""stimulus"":""img/1to2/7.png"",""time"":774},{""stimulus"":""img/1to2/8.png"",""time"":885},{""stimulus"":""img/1to2/9.png"",""time"":996},{""stimulus"":""img/1to2/10.png"",""time"":1106},{""stimulus"":""img/1to2/11.png"",""time"":1218},{""stimulus"":""img/1to2/12.png"",""time"":1329}]","[]"
"image-keyboard-response","23","285733","0.0-5.0-1.9","6092dea4efd6d61350f0fdbf","bdp_cybrbll","Sun Mar 26 2023 08:51:07 GMT-0500 (Central Daylight Time)","705769","3","1","","104","","","","choice","","img/2to1/1.png","2","216","350","0.5","0.5","2","3","",""
"animation","24","287192","0.0-5.0-2.9","6092dea4efd6d61350f0fdbf","bdp_cybrbll","Sun Mar 26 2023 08:51:07 GMT-0500 (Central Daylight Time)","705769","3","1","","","","","","","","","","216","","","","2","3","[{""stimulus"":""img/2to3/1.png"",""time"":115},{""stimulus"":""img/2to3/2.png"",""time"":226},{""stimulus"":""img/2to3/3.png"",""time"":336},{""stimulus"":""img/2to3/4.png"",""time"":448},{""stimulus"":""img/2to3/5.png"",""time"":559},{""stimulus"":""img/2to3/6.png"",""time"":669},{""stimulus"":""img/2to3/7.png"",""time"":779},{""stimulus"":""img/2to3/8.png"",""time"":889},{""stimulus"":""img/2to3/9.png"",""time"":1001},{""stimulus"":""img/2to3/10.png"",""time"":1111},{""stimulus"":""img/2to3/11.png"",""time"":1240},{""stimulus"":""img/2to3/12.png"",""time"":1348}]","[]"
"image-keyboard-response","25","287667","0.0-5.0-1.10","6092dea4efd6d61350f0fdbf","bdp_cybrbll","Sun Mar 26 2023 08:51:07 GMT-0500 (Central Daylight Time)","705769","3","1","","null","","","","observe","","img/3to2/1.png","null","215","463","0.5","0.5","3","2","",""
"animation","26","289104","0.0-5.0-2.10","6092dea4efd6d61350f0fdbf","bdp_cybrbll","Sun Mar 26 2023 08:51:07 GMT-0500 (Central Daylight Time)","705769","3","1","","","","","","","","","","215","","","","3","2","[{""stimulus"":""img/3to2/1.png"",""time"":111},{""stimulus"":""img/3to2/2.png"",""time"":221},{""stimulus"":""img/3to2/3.png"",""time"":332},{""stimulus"":""img/3to2/4.png"",""time"":443},{""stimulus"":""img/3to2/5.png"",""time"":552},{""stimulus"":""img/3to2/6.png"",""time"":663},{""stimulus"":""img/3to2/7.png"",""time"":774},{""stimulus"":""img/3to2/8.png"",""time"":885},{""stimulus"":""img/3to2/9.png"",""time"":995},{""stimulus"":""img/3to2/10.png"",""time"":1106},{""stimulus"":""img/3to2/11.png"",""time"":1216},{""stimulus"":""img/3to2/12.png"",""time"":1326}]","[]"
"image-keyboard-response","27","289432","0.0-5.0-1.11","6092dea4efd6d61350f0fdbf","bdp_cybrbll","Sun Mar 26 2023 08:51:07 GMT-0500 (Central Daylight Time)","705769","3","1","","328","","","","choice","","img/2to1/1.png","1","214","266","0.5","0.5","2","1","",""
"animation","28","290875","0.0-5.0-2.11","6092dea4efd6d61350f0fdbf","bdp_cybrbll","Sun Mar 26 2023 08:51:07 GMT-0500 (Central Daylight Time)","705769","3","1","","","","","","","","","","214","","","","2","1","[{""stimulus"":""img/2to1/1.png"",""time"":115},{""stimulus"":""img/2to1/2.png"",""time"":225},{""stimulus"":""img/2to1/3.png"",""time"":337},{""stimulus"":""img/2to1/4.png"",""time"":448},{""stimulus"":""img/2to1/5.png"",""time"":559},{""stimulus"":""img/2to1/6.png"",""time"":669},{""stimulus"":""img/2to1/7.png"",""time"":780},{""stimulus"":""img/2to1/8.png"",""time"":891},{""stimulus"":""img/2to1/9.png"",""time"":1002},{""stimulus"":""img/2to1/10.png"",""time"":1112},{""stimulus"":""img/2to1/11.png"",""time"":1222},{""stimulus"":""img/2to1/12.png"",""time"":1332}]","[]"
"image-keyboard-response","29","291128","0.0-5.0-1.12","6092dea4efd6d61350f0fdbf","bdp_cybrbll","Sun Mar 26 2023 08:51:07 GMT-0500 (Central Daylight Time)","705769","3","1","","null","","","","observe","","img/1to3/1.png","null","213","239","0.5","0.5","1","2","",""
"animation","30","292563","0.0-5.0-2.12","6092dea4efd6d61350f0fdbf","bdp_cybrbll","Sun Mar 26 2023 08:51:07 GMT-0500 (Central Daylight Time)","705769","3","1","","","","","","","","","","213","","","","1","2","[{""stimulus"":""img/1to2/1.png"",""time"":111},{""stimulus"":""img/1to2/2.png"",""time"":225},{""stimulus"":""img/1to2/3.png"",""time"":331},{""stimulus"":""img/1to2/4.png"",""time"":442},{""stimulus"":""img/1to2/5.png"",""time"":553},{""stimulus"":""img/1to2/6.png"",""time"":663},{""stimulus"":""img/1to2/7.png"",""time"":773},{""stimulus"":""img/1to2/8.png"",""time"":884},{""stimulus"":""img/1to2/9.png"",""time"":994},{""stimulus"":""img/1to2/10.png"",""time"":1103},{""stimulus"":""img/1to2/11.png"",""time"":1213},{""stimulus"":""img/1to2/12.png"",""time"":1326}]","[]"
"image-keyboard-response","31","293000","0.0-5.0-1.13","6092dea4efd6d61350f0fdbf","bdp_cybrbll","Sun Mar 26 2023 08:51:07 GMT-0500 (Central Daylight Time)","705769","3","1","","436","","","","choice","","img/2to1/1.png","2","212","704","0.5","0.5","2","3","",""
"animation","32","294447","0.0-5.0-2.13","6092dea4efd6d61350f0fdbf","bdp_cybrbll","Sun Mar 26 2023 08:51:07 GMT-0500 (Central Daylight Time)","705769","3","1","","","","","","","","","","212","","","","2","3","[{""stimulus"":""img/2to3/1.png"",""time"":115},{""stimulus"":""img/2to3/2.png"",""time"":226},{""stimulus"":""img/2to3/3.png"",""time"":336},{""stimulus"":""img/2to3/4.png"",""time"":448},{""stimulus"":""img/2to3/5.png"",""time"":559},{""stimulus"":""img/2to3/6.png"",""time"":669},{""stimulus"":""img/2to3/7.png"",""time"":781},{""stimulus"":""img/2to3/8.png"",""time"":893},{""stimulus"":""img/2to3/9.png"",""time"":1003},{""stimulus"":""img/2to3/10.png"",""time"":1114},{""stimulus"":""img/2to3/11.png"",""time"":1225},{""stimulus"":""img/2to3/12.png"",""time"":1336}]","[]"
"image-keyboard-response","33","295143","0.0-5.0-1.14","6092dea4efd6d61350f0fdbf","bdp_cybrbll","Sun Mar 26 2023 08:51:07 GMT-0500 (Central Daylight Time)","705769","3","1","","null","","","","observe","","img/3to2/1.png","null","211","679","0.5","0.5","3","2","",""
"animation","34","296583","0.0-5.0-2.14","6092dea4efd6d61350f0fdbf","bdp_cybrbll","Sun Mar 26 2023 08:51:07 GMT-0500 (Central Daylight Time)","705769","3","1","","","","","","","","","","211","","","","3","2","[{""stimulus"":""img/3to2/1.png"",""time"":110},{""stimulus"":""img/3to2/2.png"",""time"":220},{""stimulus"":""img/3to2/3.png"",""time"":332},{""stimulus"":""img/3to2/4.png"",""time"":442},{""stimulus"":""img/3to2/5.png"",""time"":552},{""stimulus"":""img/3to2/6.png"",""time"":663},{""stimulus"":""img/3to2/7.png"",""time"":775},{""stimulus"":""img/3to2/8.png"",""time"":887},{""stimulus"":""img/3to2/9.png"",""time"":999},{""stimulus"":""img/3to2/10.png"",""time"":1108},{""stimulus"":""img/3to2/11.png"",""time"":1218},{""stimulus"":""img/3to2/12.png"",""time"":1330}]","[]"
"image-keyboard-response","35","296808","0.0-5.0-1.15","6092dea4efd6d61350f0fdbf","bdp_cybrbll","Sun Mar 26 2023 08:51:07 GMT-0500 (Central Daylight Time)","705769","3","1","","224","","","","choice","","img/2to1/1.png","1","210","416","0.5","0.5","2","1","",""
"animation","36","298246","0.0-5.0-2.15","6092dea4efd6d61350f0fdbf","bdp_cybrbll","Sun Mar 26 2023 08:51:07 GMT-0500 (Central Daylight Time)","705769","3","1","","","","","","","","","","210","","","","2","1","[{""stimulus"":""img/2to1/1.png"",""time"":109},{""stimulus"":""img/2to1/2.png"",""time"":220},{""stimulus"":""img/2to1/3.png"",""time"":341},{""stimulus"":""img/2to1/4.png"",""time"":441},{""stimulus"":""img/2to1/5.png"",""time"":552},{""stimulus"":""img/2to1/6.png"",""time"":663},{""stimulus"":""img/2to1/7.png"",""time"":774},{""stimulus"":""img/2to1/8.png"",""time"":886},{""stimulus"":""img/2to1/9.png"",""time"":996},{""stimulus"":""img/2to1/10.png"",""time"":1106},{""stimulus"":""img/2to1/11.png"",""time"":1217},{""stimulus"":""img/2to1/12.png"",""time"":1327}]","[]"
"image-keyboard-response","37","298595","0.0-5.0-1.16","6092dea4efd6d61350f0fdbf","bdp_cybrbll","Sun Mar 26 2023 08:51:07 GMT-0500 (Central Daylight Time)","705769","3","1","","null","","","","observe","","img/1to3/1.png","null","209","346","0.5","0.5","1","2","",""
"animation","38","300033","0.0-5.0-2.16","6092dea4efd6d61350f0fdbf","bdp_cybrbll","Sun Mar 26 2023 08:51:07 GMT-0500 (Central Daylight Time)","705769","3","1","","","","","","","","","","209","","","","1","2","[{""stimulus"":""img/1to2/1.png"",""time"":112},{""stimulus"":""img/1to2/2.png"",""time"":221},{""stimulus"":""img/1to2/3.png"",""time"":333},{""stimulus"":""img/1to2/4.png"",""time"":443},{""stimulus"":""img/1to2/5.png"",""time"":553},{""stimulus"":""img/1to2/6.png"",""time"":663},{""stimulus"":""img/1to2/7.png"",""time"":774},{""stimulus"":""img/1to2/8.png"",""time"":884},{""stimulus"":""img/1to2/9.png"",""time"":995},{""stimulus"":""img/1to2/10.png"",""time"":1106},{""stimulus"":""img/1to2/11.png"",""time"":1217},{""stimulus"":""img/1to2/12.png"",""time"":1328}]","[]"
"image-keyboard-response","39","300227","0.0-5.0-1.17","6092dea4efd6d61350f0fdbf","bdp_cybrbll","Sun Mar 26 2023 08:51:07 GMT-0500 (Central Daylight Time)","705769","3","1","","193","","","","choice","","img/2to1/1.png","2","208","293","0.5","0.5","2","3","",""
"animation","40","301658","0.0-5.0-2.17","6092dea4efd6d61350f0fdbf","bdp_cybrbll","Sun Mar 26 2023 08:51:07 GMT-0500 (Central Daylight Time)","705769","3","1","","","","","","","","","","208","","","","2","3","[{""stimulus"":""img/2to3/1.png"",""time"":108},{""stimulus"":""img/2to3/2.png"",""time"":216},{""stimulus"":""img/2to3/3.png"",""time"":327},{""stimulus"":""img/2to3/4.png"",""time"":438},{""stimulus"":""img/2to3/5.png"",""time"":549},{""stimulus"":""img/2to3/6.png"",""time"":658},{""stimulus"":""img/2to3/7.png"",""time"":769},{""stimulus"":""img/2to3/8.png"",""time"":888},{""stimulus"":""img/2to3/9.png"",""time"":990},{""stimulus"":""img/2to3/10.png"",""time"":1101},{""stimulus"":""img/2to3/11.png"",""time"":1212},{""stimulus"":""img/2to3/12.png"",""time"":1321}]","[]"
"image-keyboard-response","41","301959","0.0-5.0-1.18","6092dea4efd6d61350f0fdbf","bdp_cybrbll","Sun Mar 26 2023 08:51:07 GMT-0500 (Central Daylight Time)","705769","3","1","","null","","","","observe","","img/3to2/1.png","null","207","292","0.5","0.5","3","2","",""
"animation","42","303399","0.0-5.0-2.18","6092dea4efd6d61350f0fdbf","bdp_cybrbll","Sun Mar 26 2023 08:51:07 GMT-0500 (Central Daylight Time)","705769","3","1","","","","","","","","","","207","","","","3","2","[{""stimulus"":""img/3to2/1.png"",""time"":112},{""stimulus"":""img/3to2/2.png"",""time"":224},{""stimulus"":""img/3to2/3.png"",""time"":333},{""stimulus"":""img/3to2/4.png"",""time"":445},{""stimulus"":""img/3to2/5.png"",""time"":556},{""stimulus"":""img/3to2/6.png"",""time"":669},{""stimulus"":""img/3to2/7.png"",""time"":778},{""stimulus"":""img/3to2/8.png"",""time"":888},{""stimulus"":""img/3to2/9.png"",""time"":998},{""stimulus"":""img/3to2/10.png"",""time"":1108},{""stimulus"":""img/3to2/11.png"",""time"":1219},{""stimulus"":""img/3to2/12.png"",""time"":1329}]","[]"
"image-keyboard-response","43","303515","0.0-5.0-1.19","6092dea4efd6d61350f0fdbf","bdp_cybrbll","Sun Mar 26 2023 08:51:07 GMT-0500 (Central Daylight Time)","705769","3","1","","116","","","","choice","","img/2to1/1.png","1","206","312","0.5","0.5","2","1","",""
"animation","44","304953","0.0-5.0-2.19","6092dea4efd6d61350f0fdbf","bdp_cybrbll","Sun Mar 26 2023 08:51:07 GMT-0500 (Central Daylight Time)","705769","3","1","","","","","","","","","","206","","","","2","1","[{""stimulus"":""img/2to1/1.png"",""time"":107},{""stimulus"":""img/2to1/2.png"",""time"":219},{""stimulus"":""img/2to1/3.png"",""time"":331},{""stimulus"":""img/2to1/4.png"",""time"":442},{""stimulus"":""img/2to1/5.png"",""time"":551},{""stimulus"":""img/2to1/6.png"",""time"":664},{""stimulus"":""img/2to1/7.png"",""time"":774},{""stimulus"":""img/2to1/8.png"",""time"":884},{""stimulus"":""img/2to1/9.png"",""time"":996},{""stimulus"":""img/2to1/10.png"",""time"":1106},{""stimulus"":""img/2to1/11.png"",""time"":1217},{""stimulus"":""img/2to1/12.png"",""time"":1328}]","[]"
"image-keyboard-response","45","305523","0.0-5.0-1.20","6092dea4efd6d61350f0fdbf","bdp_cybrbll","Sun Mar 26 2023 08:51:07 GMT-0500 (Central Daylight Time)","705769","3","1","","null","","","","observe","","img/1to3/1.png","null","205","556","0.5","0.5","1","2","",""
"animation","46","306960","0.0-5.0-2.20","6092dea4efd6d61350f0fdbf","bdp_cybrbll","Sun Mar 26 2023 08:51:07 GMT-0500 (Central Daylight Time)","705769","3","1","","","","","","","","","","205","","","","1","2","[{""stimulus"":""img/1to2/1.png"",""time"":112},{""stimulus"":""img/1to2/2.png"",""time"":221},{""stimulus"":""img/1to2/3.png"",""time"":331},{""stimulus"":""img/1to2/4.png"",""time"":442},{""stimulus"":""img/1to2/5.png"",""time"":553},{""stimulus"":""img/1to2/6.png"",""time"":664},{""stimulus"":""img/1to2/7.png"",""time"":773},{""stimulus"":""img/1to2/8.png"",""time"":884},{""stimulus"":""img/1to2/9.png"",""time"":995},{""stimulus"":""img/1to2/10.png"",""time"":1106},{""stimulus"":""img/1to2/11.png"",""time"":1217},{""stimulus"":""img/1to2/12.png"",""time"":1328}]","[]"
"image-keyboard-response","47","307210","0.0-5.0-1.21","6092dea4efd6d61350f0fdbf","bdp_cybrbll","Sun Mar 26 2023 08:51:07 GMT-0500 (Central Daylight Time)","705769","3","1","","249","","","","choice","","img/2to1/1.png","2","204","612","0.5","0.5","2","3","",""
"animation","48","308654","0.0-5.0-2.21","6092dea4efd6d61350f0fdbf","bdp_cybrbll","Sun Mar 26 2023 08:51:07 GMT-0500 (Central Daylight Time)","705769","3","1","","","","","","","","","","204","","","","2","3","[{""stimulus"":""img/2to3/1.png"",""time"":115},{""stimulus"":""img/2to3/2.png"",""time"":225},{""stimulus"":""img/2to3/3.png"",""time"":337},{""stimulus"":""img/2to3/4.png"",""time"":447},{""stimulus"":""img/2to3/5.png"",""time"":558},{""stimulus"":""img/2to3/6.png"",""time"":669},{""stimulus"":""img/2to3/7.png"",""time"":780},{""stimulus"":""img/2to3/8.png"",""time"":890},{""stimulus"":""img/2to3/9.png"",""time"":1001},{""stimulus"":""img/2to3/10.png"",""time"":1113},{""stimulus"":""img/2to3/11.png"",""time"":1224},{""stimulus"":""img/2to3/12.png"",""time"":1335}]","[]"
"image-keyboard-response","49","309206","0.0-5.0-1.22","6092dea4efd6d61350f0fdbf","bdp_cybrbll","Sun Mar 26 2023 08:51:07 GMT-0500 (Central Daylight Time)","705769","3","1","","null","","","","observe","","img/3to2/1.png","null","203","550","0.5","0.5","3","2","",""
"animation","50","310642","0.0-5.0-2.22","6092dea4efd6d61350f0fdbf","bdp_cybrbll","Sun Mar 26 2023 08:51:07 GMT-0500 (Central Daylight Time)","705769","3","1","","","","","","","","","","203","","","","3","2","[{""stimulus"":""img/3to2/1.png"",""time"":112},{""stimulus"":""img/3to2/2.png"",""time"":222},{""stimulus"":""img/3to2/3.png"",""time"":332},{""stimulus"":""img/3to2/4.png"",""time"":442},{""stimulus"":""img/3to2/5.png"",""time"":552},{""stimulus"":""img/3to2/6.png"",""time"":661},{""stimulus"":""img/3to2/7.png"",""time"":772},{""stimulus"":""img/3to2/8.png"",""time"":884},{""stimulus"":""img/3to2/9.png"",""time"":995},{""stimulus"":""img/3to2/10.png"",""time"":1105},{""stimulus"":""img/3to2/11.png"",""time"":1216},{""stimulus"":""img/3to2/12.png"",""time"":1326}]","[]"
"image-keyboard-response","51","310700","0.0-5.0-1.23","6092dea4efd6d61350f0fdbf","bdp_cybrbll","Sun Mar 26 2023 08:51:07 GMT-0500 (Central Daylight Time)","705769","3","1","","57","","","","choice","","img/2to1/1.png","1","202","403","0.5","0.5","2","1","",""
"animation","52","312132","0.0-5.0-2.23","6092dea4efd6d61350f0fdbf","bdp_cybrbll","Sun Mar 26 2023 08:51:07 GMT-0500 (Central Daylight Time)","705769","3","1","","","","","","","","","","202","","","","2","1","[{""stimulus"":""img/2to1/1.png"",""time"":100},{""stimulus"":""img/2to1/2.png"",""time"":210},{""stimulus"":""img/2to1/3.png"",""time"":321},{""stimulus"":""img/2to1/4.png"",""time"":433},{""stimulus"":""img/2to1/5.png"",""time"":543},{""stimulus"":""img/2to1/6.png"",""time"":654},{""stimulus"":""img/2to1/7.png"",""time"":766},{""stimulus"":""img/2to1/8.png"",""time"":876},{""stimulus"":""img/2to1/9.png"",""time"":986},{""stimulus"":""img/2to1/10.png"",""time"":1097},{""stimulus"":""img/2to1/11.png"",""time"":1209},{""stimulus"":""img/2to1/12.png"",""time"":1320}]","[]"
"image-keyboard-response","53","312672","0.0-5.0-1.24","6092dea4efd6d61350f0fdbf","bdp_cybrbll","Sun Mar 26 2023 08:51:07 GMT-0500 (Central Daylight Time)","705769","3","1","","null","","","","observe","","img/1to3/1.png","null","201","526","0.5","0.5","1","3","",""
"animation","54","314128","0.0-5.0-2.24","6092dea4efd6d61350f0fdbf","bdp_cybrbll","Sun Mar 26 2023 08:51:07 GMT-0500 (Central Daylight Time)","705769","3","1","","","","","","","","","","201","","","","1","3","[{""stimulus"":""img/1to3/1.png"",""time"":111},{""stimulus"":""img/1to3/2.png"",""time"":222},{""stimulus"":""img/1to3/3.png"",""time"":347},{""stimulus"":""img/1to3/4.png"",""time"":458},{""stimulus"":""img/1to3/5.png"",""time"":568},{""stimulus"":""img/1to3/6.png"",""time"":680},{""stimulus"":""img/1to3/7.png"",""time"":790},{""stimulus"":""img/1to3/8.png"",""time"":901},{""stimulus"":""img/1to3/9.png"",""time"":1011},{""stimulus"":""img/1to3/10.png"",""time"":1121},{""stimulus"":""img/1to3/11.png"",""time"":1232},{""stimulus"":""img/1to3/12.png"",""time"":1343}]","[]"
"image-keyboard-response","55","315168","0.0-5.0-1.25","6092dea4efd6d61350f0fdbf","bdp_cybrbll","Sun Mar 26 2023 08:51:07 GMT-0500 (Central Daylight Time)","705769","3","1","","null","","","","observe","","img/3to2/1.png","null","200","1036","0.5","0.5","3","1","",""
"animation","56","316606","0.0-5.0-2.25","6092dea4efd6d61350f0fdbf","bdp_cybrbll","Sun Mar 26 2023 08:51:07 GMT-0500 (Central Daylight Time)","705769","3","1","","","","","","","","","","200","","","","3","1","[{""stimulus"":""img/3to1/1.png"",""time"":111},{""stimulus"":""img/3to1/2.png"",""time"":221},{""stimulus"":""img/3to1/3.png"",""time"":332},{""stimulus"":""img/3to1/4.png"",""time"":443},{""stimulus"":""img/3to1/5.png"",""time"":554},{""stimulus"":""img/3to1/6.png"",""time"":664},{""stimulus"":""img/3to1/7.png"",""time"":776},{""stimulus"":""img/3to1/8.png"",""time"":886},{""stimulus"":""img/3to1/9.png"",""time"":997},{""stimulus"":""img/3to1/10.png"",""time"":1108},{""stimulus"":""img/3to1/11.png"",""time"":1219},{""stimulus"":""img/3to1/12.png"",""time"":1329}]","[]"
"image-keyboard-response","57","316796","0.0-5.0-1.26","6092dea4efd6d61350f0fdbf","bdp_cybrbll","Sun Mar 26 2023 08:51:07 GMT-0500 (Central Daylight Time)","705769","3","1","","null","","","","observe","","img/1to3/1.png","null","199","188","0.5","0.5","1","3","",""
"animation","58","318236","0.0-5.0-2.26","6092dea4efd6d61350f0fdbf","bdp_cybrbll","Sun Mar 26 2023 08:51:07 GMT-0500 (Central Daylight Time)","705769","3","1","","","","","","","","","","199","","","","1","3","[{""stimulus"":""img/1to3/1.png"",""time"":112},{""stimulus"":""img/1to3/2.png"",""time"":222},{""stimulus"":""img/1to3/3.png"",""time"":332},{""stimulus"":""img/1to3/4.png"",""time"":444},{""stimulus"":""img/1to3/5.png"",""time"":554},{""stimulus"":""img/1to3/6.png"",""time"":665},{""stimulus"":""img/1to3/7.png"",""time"":777},{""stimulus"":""img/1to3/8.png"",""time"":887},{""stimulus"":""img/1to3/9.png"",""time"":997},{""stimulus"":""img/1to3/10.png"",""time"":1107},{""stimulus"":""img/1to3/11.png"",""time"":1219},{""stimulus"":""img/1to3/12.png"",""time"":1329}]","[]"
"image-keyboard-response","59","318647","0.0-5.0-1.27","6092dea4efd6d61350f0fdbf","bdp_cybrbll","Sun Mar 26 2023 08:51:07 GMT-0500 (Central Daylight Time)","705769","3","1","","null","","","","observe","","img/3to2/1.png","null","198","400","0.5","0.5","3","2","",""
"animation","60","320087","0.0-5.0-2.27","6092dea4efd6d61350f0fdbf","bdp_cybrbll","Sun Mar 26 2023 08:51:07 GMT-0500 (Central Daylight Time)","705769","3","1","","","","","","","","","","198","","","","3","2","[{""stimulus"":""img/3to2/1.png"",""time"":112},{""stimulus"":""img/3to2/2.png"",""time"":223},{""stimulus"":""img/3to2/3.png"",""time"":333},{""stimulus"":""img/3to2/4.png"",""time"":442},{""stimulus"":""img/3to2/5.png"",""time"":553},{""stimulus"":""img/3to2/6.png"",""time"":662},{""stimulus"":""img/3to2/7.png"",""time"":773},{""stimulus"":""img/3to2/8.png"",""time"":884},{""stimulus"":""img/3to2/9.png"",""time"":995},{""stimulus"":""img/3to2/10.png"",""time"":1107},{""stimulus"":""img/3to2/11.png"",""time"":1219},{""stimulus"":""img/3to2/12.png"",""time"":1329}]","[]"
"image-keyboard-response","61","320611","0.0-5.0-1.28","6092dea4efd6d61350f0fdbf","bdp_cybrbll","Sun Mar 26 2023 08:51:07 GMT-0500 (Central Daylight Time)","705769","3","1","","522","","","","choice","","img/2to1/1.png","1","197","319","0.5","0.5","2","1","",""
"animation","62","322060","0.0-5.0-2.28","6092dea4efd6d61350f0fdbf","bdp_cybrbll","Sun Mar 26 2023 08:51:07 GMT-0500 (Central Daylight Time)","705769","3","1","","","","","","","","","","197","","","","2","1","[{""stimulus"":""img/2to1/1.png"",""time"":108},{""stimulus"":""img/2to1/2.png"",""time"":218},{""stimulus"":""img/2to1/3.png"",""time"":328},{""stimulus"":""img/2to1/4.png"",""time"":438},{""stimulus"":""img/2to1/5.png"",""time"":549},{""stimulus"":""img/2to1/6.png"",""time"":660},{""stimulus"":""img/2to1/7.png"",""time"":770},{""stimulus"":""img/2to1/8.png"",""time"":904},{""stimulus"":""img/2to1/9.png"",""time"":1007},{""stimulus"":""img/2to1/10.png"",""time"":1117},{""stimulus"":""img/2to1/11.png"",""time"":1228},{""stimulus"":""img/2to1/12.png"",""time"":1338}]","[]"
"image-keyboard-response","63","322739","0.0-5.0-1.29","6092dea4efd6d61350f0fdbf","bdp_cybrbll","Sun Mar 26 2023 08:51:07 GMT-0500 (Central Daylight Time)","705769","3","1","","null","","","","observe","","img/1to3/1.png","null","196","674","0.5","0.5","1","2","",""
"animation","64","324178","0.0-5.0-2.29","6092dea4efd6d61350f0fdbf","bdp_cybrbll","Sun Mar 26 2023 08:51:07 GMT-0500 (Central Daylight Time)","705769","3","1","","","","","","","","","","196","","","","1","2","[{""stimulus"":""img/1to2/1.png"",""time"":110},{""stimulus"":""img/1to2/2.png"",""time"":221},{""stimulus"":""img/1to2/3.png"",""time"":331},{""stimulus"":""img/1to2/4.png"",""time"":442},{""stimulus"":""img/1to2/5.png"",""time"":552},{""stimulus"":""img/1to2/6.png"",""time"":664},{""stimulus"":""img/1to2/7.png"",""time"":775},{""stimulus"":""img/1to2/8.png"",""time"":886},{""stimulus"":""img/1to2/9.png"",""time"":997},{""stimulus"":""img/1to2/10.png"",""time"":1108},{""stimulus"":""img/1to2/11.png"",""time"":1219},{""stimulus"":""img/1to2/12.png"",""time"":1329}]","[]"
"image-keyboard-response","65","325635","0.0-5.0-1.30","6092dea4efd6d61350f0fdbf","bdp_cybrbll","Sun Mar 26 2023 08:51:07 GMT-0500 (Central Daylight Time)","705769","3","1","","1456","","","","choice","","img/2to1/1.png","2","195","488","0.5","0.5","2","3","",""
"animation","66","327075","0.0-5.0-2.30","6092dea4efd6d61350f0fdbf","bdp_cybrbll","Sun Mar 26 2023 08:51:07 GMT-0500 (Central Daylight Time)","705769","3","1","","","","","","","","","","195","","","","2","3","[{""stimulus"":""img/2to3/1.png"",""time"":110},{""stimulus"":""img/2to3/2.png"",""time"":221},{""stimulus"":""img/2to3/3.png"",""time"":331},{""stimulus"":""img/2to3/4.png"",""time"":442},{""stimulus"":""img/2to3/5.png"",""time"":553},{""stimulus"":""img/2to3/6.png"",""time"":665},{""stimulus"":""img/2to3/7.png"",""time"":775},{""stimulus"":""img/2to3/8.png"",""time"":886},{""stimulus"":""img/2to3/9.png"",""time"":996},{""stimulus"":""img/2to3/10.png"",""time"":1107},{""stimulus"":""img/2to3/11.png"",""time"":1217},{""stimulus"":""img/2to3/12.png"",""time"":1329}]","[]"
"image-keyboard-response","67","327947","0.0-5.0-1.31","6092dea4efd6d61350f0fdbf","bdp_cybrbll","Sun Mar 26 2023 08:51:07 GMT-0500 (Central Daylight Time)","705769","3","1","","null","","","","observe","","img/3to2/1.png","null","194","862","0.5","0.5","3","1","",""
"animation","68","329386","0.0-5.0-2.31","6092dea4efd6d61350f0fdbf","bdp_cybrbll","Sun Mar 26 2023 08:51:07 GMT-0500 (Central Daylight Time)","705769","3","1","","","","","","","","","","194","","","","3","1","[{""stimulus"":""img/3to1/1.png"",""time"":112},{""stimulus"":""img/3to1/2.png"",""time"":224},{""stimulus"":""img/3to1/3.png"",""time"":333},{""stimulus"":""img/3to1/4.png"",""time"":444},{""stimulus"":""img/3to1/5.png"",""time"":555},{""stimulus"":""img/3to1/6.png"",""time"":665},{""stimulus"":""img/3to1/7.png"",""time"":777},{""stimulus"":""img/3to1/8.png"",""time"":888},{""stimulus"":""img/3to1/9.png"",""time"":998},{""stimulus"":""img/3to1/10.png"",""time"":1110},{""stimulus"":""img/3to1/11.png"",""time"":1219},{""stimulus"":""img/3to1/12.png"",""time"":1330}]","[]"
"image-keyboard-response","69","330274","0.0-5.0-1.32","6092dea4efd6d61350f0fdbf","bdp_cybrbll","Sun Mar 26 2023 08:51:07 GMT-0500 (Central Daylight Time)","705769","3","1","","null","","","","observe","","img/1to3/1.png","null","193","872","0.5","0.5","1","3","",""
"animation","70","331713","0.0-5.0-2.32","6092dea4efd6d61350f0fdbf","bdp_cybrbll","Sun Mar 26 2023 08:51:07 GMT-0500 (Central Daylight Time)","705769","3","1","","","","","","","","","","193","","","","1","3","[{""stimulus"":""img/1to3/1.png"",""time"":113},{""stimulus"":""img/1to3/2.png"",""time"":223},{""stimulus"":""img/1to3/3.png"",""time"":333},{""stimulus"":""img/1to3/4.png"",""time"":443},{""stimulus"":""img/1to3/5.png"",""time"":555},{""stimulus"":""img/1to3/6.png"",""time"":666},{""stimulus"":""img/1to3/7.png"",""time"":777},{""stimulus"":""img/1to3/8.png"",""time"":887},{""stimulus"":""img/1to3/9.png"",""time"":997},{""stimulus"":""img/1to3/10.png"",""time"":1107},{""stimulus"":""img/1to3/11.png"",""time"":1218},{""stimulus"":""img/1to3/12.png"",""time"":1328}]","[]"
"image-keyboard-response","71","331982","0.0-5.0-1.33","6092dea4efd6d61350f0fdbf","bdp_cybrbll","Sun Mar 26 2023 08:51:07 GMT-0500 (Central Daylight Time)","705769","3","1","","null","","","","observe","","img/3to2/1.png","null","192","262","0.5","0.5","3","1","",""
"animation","72","333439","0.0-5.0-2.33","6092dea4efd6d61350f0fdbf","bdp_cybrbll","Sun Mar 26 2023 08:51:07 GMT-0500 (Central Daylight Time)","705769","3","1","","","","","","","","","","192","","","","3","1","[{""stimulus"":""img/3to1/1.png"",""time"":112},{""stimulus"":""img/3to1/2.png"",""time"":222},{""stimulus"":""img/3to1/3.png"",""time"":333},{""stimulus"":""img/3to1/4.png"",""time"":444},{""stimulus"":""img/3to1/5.png"",""time"":555},{""stimulus"":""img/3to1/6.png"",""time"":666},{""stimulus"":""img/3to1/7.png"",""time"":777},{""stimulus"":""img/3to1/8.png"",""time"":890},{""stimulus"":""img/3to1/9.png"",""time"":1011},{""stimulus"":""img/3to1/10.png"",""time"":1126},{""stimulus"":""img/3to1/11.png"",""time"":1236},{""stimulus"":""img/3to1/12.png"",""time"":1346}]","[]"
"image-keyboard-response","73","333865","0.0-5.0-1.34","6092dea4efd6d61350f0fdbf","bdp_cybrbll","Sun Mar 26 2023 08:51:07 GMT-0500 (Central Daylight Time)","705769","3","1","","null","","","","observe","","img/1to3/1.png","null","191","416","0.5","0.5","1","2","",""
"animation","74","335303","0.0-5.0-2.34","6092dea4efd6d61350f0fdbf","bdp_cybrbll","Sun Mar 26 2023 08:51:07 GMT-0500 (Central Daylight Time)","705769","3","1","","","","","","","","","","191","","","","1","2","[{""stimulus"":""img/1to2/1.png"",""time"":111},{""stimulus"":""img/1to2/2.png"",""time"":223},{""stimulus"":""img/1to2/3.png"",""time"":334},{""stimulus"":""img/1to2/4.png"",""time"":443},{""stimulus"":""img/1to2/5.png"",""time"":553},{""stimulus"":""img/1to2/6.png"",""time"":664},{""stimulus"":""img/1to2/7.png"",""time"":776},{""stimulus"":""img/1to2/8.png"",""time"":886},{""stimulus"":""img/1to2/9.png"",""time"":998},{""stimulus"":""img/1to2/10.png"",""time"":1107},{""stimulus"":""img/1to2/11.png"",""time"":1217},{""stimulus"":""img/1to2/12.png"",""time"":1327}]","[]"
"image-keyboard-response","75","335543","0.0-5.0-1.35","6092dea4efd6d61350f0fdbf","bdp_cybrbll","Sun Mar 26 2023 08:51:07 GMT-0500 (Central Daylight Time)","705769","3","1","","239","","","","choice","","img/2to1/1.png","2","190","506","0.5","0.5","2","3","",""
"animation","76","336999","0.0-5.0-2.35","6092dea4efd6d61350f0fdbf","bdp_cybrbll","Sun Mar 26 2023 08:51:07 GMT-0500 (Central Daylight Time)","705769","3","1","","","","","","","","","","190","","","","2","3","[{""stimulus"":""img/2to3/1.png"",""time"":108},{""stimulus"":""img/2to3/2.png"",""time"":218},{""stimulus"":""img/2to3/3.png"",""time"":328},{""stimulus"":""img/2to3/4.png"",""time"":439},{""stimulus"":""img/2to3/5.png"",""time"":550},{""stimulus"":""img/2to3/6.png"",""time"":660},{""stimulus"":""img/2to3/7.png"",""time"":772},{""stimulus"":""img/2to3/8.png"",""time"":884},{""stimulus"":""img/2to3/9.png"",""time"":995},{""stimulus"":""img/2to3/10.png"",""time"":1104},{""stimulus"":""img/2to3/11.png"",""time"":1215},{""stimulus"":""img/2to3/12.png"",""time"":1325}]","[]"
"image-keyboard-response","77","337389","0.0-5.0-1.36","6092dea4efd6d61350f0fdbf","bdp_cybrbll","Sun Mar 26 2023 08:51:07 GMT-0500 (Central Daylight Time)","705769","3","1","","null","","","","observe","","img/3to2/1.png","null","189","380","0.5","0.5","3","1","",""
"animation","78","338831","0.0-5.0-2.36","6092dea4efd6d61350f0fdbf","bdp_cybrbll","Sun Mar 26 2023 08:51:07 GMT-0500 (Central Daylight Time)","705769","3","1","","","","","","","","","","189","","","","3","1","[{""stimulus"":""img/3to1/1.png"",""time"":112},{""stimulus"":""img/3to1/2.png"",""time"":221},{""stimulus"":""img/3to1/3.png"",""time"":332},{""stimulus"":""img/3to1/4.png"",""time"":443},{""stimulus"":""img/3to1/5.png"",""time"":553},{""stimulus"":""img/3to1/6.png"",""time"":665},{""stimulus"":""img/3to1/7.png"",""time"":775},{""stimulus"":""img/3to1/8.png"",""time"":887},{""stimulus"":""img/3to1/9.png"",""time"":998},{""stimulus"":""img/3to1/10.png"",""time"":1109},{""stimulus"":""img/3to1/11.png"",""time"":1220},{""stimulus"":""img/3to1/12.png"",""time"":1330}]","[]"
"image-keyboard-response","79","339099","0.0-5.0-1.37","6092dea4efd6d61350f0fdbf","bdp_cybrbll","Sun Mar 26 2023 08:51:07 GMT-0500 (Central Daylight Time)","705769","3","1","","null","","","","observe","","img/1to3/1.png","null","188","267","0.5","0.5","1","2","",""
"animation","80","340538","0.0-5.0-2.37","6092dea4efd6d61350f0fdbf","bdp_cybrbll","Sun Mar 26 2023 08:51:07 GMT-0500 (Central Daylight Time)","705769","3","1","","","","","","","","","","188","","","","1","2","[{""stimulus"":""img/1to2/1.png"",""time"":111},{""stimulus"":""img/1to2/2.png"",""time"":221},{""stimulus"":""img/1to2/3.png"",""time"":332},{""stimulus"":""img/1to2/4.png"",""time"":441},{""stimulus"":""img/1to2/5.png"",""time"":552},{""stimulus"":""img/1to2/6.png"",""time"":663},{""stimulus"":""img/1to2/7.png"",""time"":775},{""stimulus"":""img/1to2/8.png"",""time"":886},{""stimulus"":""img/1to2/9.png"",""time"":996},{""stimulus"":""img/1to2/10.png"",""time"":1106},{""stimulus"":""img/1to2/11.png"",""time"":1217},{""stimulus"":""img/1to2/12.png"",""time"":1329}]","[]"
"image-keyboard-response","81","340919","0.0-5.0-1.38","6092dea4efd6d61350f0fdbf","bdp_cybrbll","Sun Mar 26 2023 08:51:07 GMT-0500 (Central Daylight Time)","705769","3","1","","381","","","","choice","","img/2to1/1.png","2","187","463","0.5","0.5","2","3","",""
"animation","82","342354","0.0-5.0-2.38","6092dea4efd6d61350f0fdbf","bdp_cybrbll","Sun Mar 26 2023 08:51:07 GMT-0500 (Central Daylight Time)","705769","3","1","","","","","","","","","","187","","","","2","3","[{""stimulus"":""img/2to3/1.png"",""time"":108},{""stimulus"":""img/2to3/2.png"",""time"":218},{""stimulus"":""img/2to3/3.png"",""time"":331},{""stimulus"":""img/2to3/4.png"",""time"":442},{""stimulus"":""img/2to3/5.png"",""time"":552},{""stimulus"":""img/2to3/6.png"",""time"":663},{""stimulus"":""img/2to3/7.png"",""time"":774},{""stimulus"":""img/2to3/8.png"",""time"":885},{""stimulus"":""img/2to3/9.png"",""time"":996},{""stimulus"":""img/2to3/10.png"",""time"":1105},{""stimulus"":""img/2to3/11.png"",""time"":1216},{""stimulus"":""img/2to3/12.png"",""time"":1326}]","[]"
"image-keyboard-response","83","342812","0.0-5.0-1.39","6092dea4efd6d61350f0fdbf","bdp_cybrbll","Sun Mar 26 2023 08:51:07 GMT-0500 (Central Daylight Time)","705769","3","1","","null","","","","observe","","img/3to2/1.png","null","186","450","0.5","0.5","3","2","",""
"animation","84","344250","0.0-5.0-2.39","6092dea4efd6d61350f0fdbf","bdp_cybrbll","Sun Mar 26 2023 08:51:07 GMT-0500 (Central Daylight Time)","705769","3","1","","","","","","","","","","186","","","","3","2","[{""stimulus"":""img/3to2/1.png"",""time"":111},{""stimulus"":""img/3to2/2.png"",""time"":221},{""stimulus"":""img/3to2/3.png"",""time"":332},{""stimulus"":""img/3to2/4.png"",""time"":443},{""stimulus"":""img/3to2/5.png"",""time"":553},{""stimulus"":""img/3to2/6.png"",""time"":664},{""stimulus"":""img/3to2/7.png"",""time"":775},{""stimulus"":""img/3to2/8.png"",""time"":886},{""stimulus"":""img/3to2/9.png"",""time"":996},{""stimulus"":""img/3to2/10.png"",""time"":1107},{""stimulus"":""img/3to2/11.png"",""time"":1217},{""stimulus"":""img/3to2/12.png"",""time"":1328}]","[]"
"image-keyboard-response","85","344445","0.0-5.0-1.40","6092dea4efd6d61350f0fdbf","bdp_cybrbll","Sun Mar 26 2023 08:51:07 GMT-0500 (Central Daylight Time)","705769","3","1","","194","","","","choice","","img/2to1/1.png","1","185","419","0.5","0.5","2","1","",""
"animation","86","345875","0.0-5.0-2.40","6092dea4efd6d61350f0fdbf","bdp_cybrbll","Sun Mar 26 2023 08:51:07 GMT-0500 (Central Daylight Time)","705769","3","1","","","","","","","","","","185","","","","2","1","[{""stimulus"":""img/2to1/1.png"",""time"":106},{""stimulus"":""img/2to1/2.png"",""time"":216},{""stimulus"":""img/2to1/3.png"",""time"":328},{""stimulus"":""img/2to1/4.png"",""time"":437},{""stimulus"":""img/2to1/5.png"",""time"":547},{""stimulus"":""img/2to1/6.png"",""time"":659},{""stimulus"":""img/2to1/7.png"",""time"":768},{""stimulus"":""img/2to1/8.png"",""time"":879},{""stimulus"":""img/2to1/9.png"",""time"":989},{""stimulus"":""img/2to1/10.png"",""time"":1100},{""stimulus"":""img/2to1/11.png"",""time"":1210},{""stimulus"":""img/2to1/12.png"",""time"":1320}]","[]"
"image-keyboard-response","87","346175","0.0-5.0-1.41","6092dea4efd6d61350f0fdbf","bdp_cybrbll","Sun Mar 26 2023 08:51:07 GMT-0500 (Central Daylight Time)","705769","3","1","","null","","","","observe","","img/1to3/1.png","null","184","289","0.5","0.5","1","2","",""
"animation","88","347613","0.0-5.0-2.41","6092dea4efd6d61350f0fdbf","bdp_cybrbll","Sun Mar 26 2023 08:51:07 GMT-0500 (Central Daylight Time)","705769","3","1","","","","","","","","","","184","","","","1","2","[{""stimulus"":""img/1to2/1.png"",""time"":111},{""stimulus"":""img/1to2/2.png"",""time"":221},{""stimulus"":""img/1to2/3.png"",""time"":333},{""stimulus"":""img/1to2/4.png"",""time"":442},{""stimulus"":""img/1to2/5.png"",""time"":553},{""stimulus"":""img/1to2/6.png"",""time"":664},{""stimulus"":""img/1to2/7.png"",""time"":774},{""stimulus"":""img/1to2/8.png"",""time"":883},{""stimulus"":""img/1to2/9.png"",""time"":995},{""stimulus"":""img/1to2/10.png"",""time"":1106},{""stimulus"":""img/1to2/11.png"",""time"":1218},{""stimulus"":""img/1to2/12.png"",""time"":1328}]","[]"
"image-keyboard-response","89","348192","0.0-5.0-1.42","6092dea4efd6d61350f0fdbf","bdp_cybrbll","Sun Mar 26 2023 08:51:07 GMT-0500 (Central Daylight Time)","705769","3","1","","577","","","","choice","","img/2to1/1.png","2","183","594","0.5","0.5","2","3","",""
"animation","90","349620","0.0-5.0-2.42","6092dea4efd6d61350f0fdbf","bdp_cybrbll","Sun Mar 26 2023 08:51:07 GMT-0500 (Central Daylight Time)","705769","3","1","","","","","","","","","","183","","","","2","3","[{""stimulus"":""img/2to3/1.png"",""time"":102},{""stimulus"":""img/2to3/2.png"",""time"":212},{""stimulus"":""img/2to3/3.png"",""time"":322},{""stimulus"":""img/2to3/4.png"",""time"":434},{""stimulus"":""img/2to3/5.png"",""time"":544},{""stimulus"":""img/2to3/6.png"",""time"":654},{""stimulus"":""img/2to3/7.png"",""time"":767},{""stimulus"":""img/2to3/8.png"",""time"":874},{""stimulus"":""img/2to3/9.png"",""time"":985},{""stimulus"":""img/2to3/10.png"",""time"":1096},{""stimulus"":""img/2to3/11.png"",""time"":1207},{""stimulus"":""img/2to3/12.png"",""time"":1317}]","[]"
"image-keyboard-response","91","349809","0.0-5.0-1.43","6092dea4efd6d61350f0fdbf","bdp_cybrbll","Sun Mar 26 2023 08:51:07 GMT-0500 (Central Daylight Time)","705769","3","1","","null","","","","observe","","img/3to2/1.png","null","182","178","0.5","0.5","3","1","",""
"animation","92","351263","0.0-5.0-2.43","6092dea4efd6d61350f0fdbf","bdp_cybrbll","Sun Mar 26 2023 08:51:07 GMT-0500 (Central Daylight Time)","705769","3","1","","","","","","","","","","182","","","","3","1","[{""stimulus"":""img/3to1/1.png"",""time"":111},{""stimulus"":""img/3to1/2.png"",""time"":221},{""stimulus"":""img/3to1/3.png"",""time"":331},{""stimulus"":""img/3to1/4.png"",""time"":441},{""stimulus"":""img/3to1/5.png"",""time"":552},{""stimulus"":""img/3to1/6.png"",""time"":663},{""stimulus"":""img/3to1/7.png"",""time"":774},{""stimulus"":""img/3to1/8.png"",""time"":885},{""stimulus"":""img/3to1/9.png"",""time"":995},{""stimulus"":""img/3to1/10.png"",""time"":1106},{""stimulus"":""img/3to1/11.png"",""time"":1217},{""stimulus"":""img/3to1/12.png"",""time"":1341}]","[]"
"image-keyboard-response","93","351737","0.0-5.0-1.44","6092dea4efd6d61350f0fdbf","bdp_cybrbll","Sun Mar 26 2023 08:51:07 GMT-0500 (Central Daylight Time)","705769","3","1","","null","","","","observe","","img/1to3/1.png","null","181","471","0.5","0.5","1","3","",""
"animation","94","353177","0.0-5.0-2.44","6092dea4efd6d61350f0fdbf","bdp_cybrbll","Sun Mar 26 2023 08:51:07 GMT-0500 (Central Daylight Time)","705769","3","1","","","","","","","","","","181","","","","1","3","[{""stimulus"":""img/1to3/1.png"",""time"":110},{""stimulus"":""img/1to3/2.png"",""time"":221},{""stimulus"":""img/1to3/3.png"",""time"":331},{""stimulus"":""img/1to3/4.png"",""time"":443},{""stimulus"":""img/1to3/5.png"",""time"":554},{""stimulus"":""img/1to3/6.png"",""time"":664},{""stimulus"":""img/1to3/7.png"",""time"":775},{""stimulus"":""img/1to3/8.png"",""time"":886},{""stimulus"":""img/1to3/9.png"",""time"":997},{""stimulus"":""img/1to3/10.png"",""time"":1107},{""stimulus"":""img/1to3/11.png"",""time"":1217},{""stimulus"":""img/1to3/12.png"",""time"":1327}]","[]"
"image-keyboard-response","95","353776","0.0-5.0-1.45","6092dea4efd6d61350f0fdbf","bdp_cybrbll","Sun Mar 26 2023 08:51:07 GMT-0500 (Central Daylight Time)","705769","3","1","","null","","","","observe","","img/3to2/1.png","null","180","597","0.5","0.5","3","2","",""
"animation","96","355214","0.0-5.0-2.45","6092dea4efd6d61350f0fdbf","bdp_cybrbll","Sun Mar 26 2023 08:51:07 GMT-0500 (Central Daylight Time)","705769","3","1","","","","","","","","","","180","","","","3","2","[{""stimulus"":""img/3to2/1.png"",""time"":112},{""stimulus"":""img/3to2/2.png"",""time"":223},{""stimulus"":""img/3to2/3.png"",""time"":333},{""stimulus"":""img/3to2/4.png"",""time"":443},{""stimulus"":""img/3to2/5.png"",""time"":554},{""stimulus"":""img/3to2/6.png"",""time"":664},{""stimulus"":""img/3to2/7.png"",""time"":773},{""stimulus"":""img/3to2/8.png"",""time"":884},{""stimulus"":""img/3to2/9.png"",""time"":994},{""stimulus"":""img/3to2/10.png"",""time"":1106},{""stimulus"":""img/3to2/11.png"",""time"":1217},{""stimulus"":""img/3to2/12.png"",""time"":1326}]","[]"
"image-keyboard-response","97","355314","0.0-5.0-1.46","6092dea4efd6d61350f0fdbf","bdp_cybrbll","Sun Mar 26 2023 08:51:07 GMT-0500 (Central Daylight Time)","705769","3","1","","100","","","","choice","","img/2to1/1.png","1","179","759","0.5","0.5","2","1","",""
"animation","98","356748","0.0-5.0-2.46","6092dea4efd6d61350f0fdbf","bdp_cybrbll","Sun Mar 26 2023 08:51:07 GMT-0500 (Central Daylight Time)","705769","3","1","","","","","","","","","","179","","","","2","1","[{""stimulus"":""img/2to1/1.png"",""time"":105},{""stimulus"":""img/2to1/2.png"",""time"":215},{""stimulus"":""img/2to1/3.png"",""time"":327},{""stimulus"":""img/2to1/4.png"",""time"":439},{""stimulus"":""img/2to1/5.png"",""time"":548},{""stimulus"":""img/2to1/6.png"",""time"":659},{""stimulus"":""img/2to1/7.png"",""time"":769},{""stimulus"":""img/2to1/8.png"",""time"":879},{""stimulus"":""img/2to1/9.png"",""time"":989},{""stimulus"":""img/2to1/10.png"",""time"":1101},{""stimulus"":""img/2to1/11.png"",""time"":1212},{""stimulus"":""img/2to1/12.png"",""time"":1322}]","[]"
"image-keyboard-response","99","357284","0.0-5.0-1.47","6092dea4efd6d61350f0fdbf","bdp_cybrbll","Sun Mar 26 2023 08:51:07 GMT-0500 (Central Daylight Time)","705769","3","1","","null","","","","observe","","img/1to3/1.png","null","178","523","0.5","0.5","1","2","",""
"animation","100","358722","0.0-5.0-2.47","6092dea4efd6d61350f0fdbf","bdp_cybrbll","Sun Mar 26 2023 08:51:07 GMT-0500 (Central Daylight Time)","705769","3","1","","","","","","","","","","178","","","","1","2","[{""stimulus"":""img/1to2/1.png"",""time"":109},{""stimulus"":""img/1to2/2.png"",""time"":221},{""stimulus"":""img/1to2/3.png"",""time"":331},{""stimulus"":""img/1to2/4.png"",""time"":441},{""stimulus"":""img/1to2/5.png"",""time"":553},{""stimulus"":""img/1to2/6.png"",""time"":664},{""stimulus"":""img/1to2/7.png"",""time"":775},{""stimulus"":""img/1to2/8.png"",""time"":885},{""stimulus"":""img/1to2/9.png"",""time"":994},{""stimulus"":""img/1to2/10.png"",""time"":1106},{""stimulus"":""img/1to2/11.png"",""time"":1217},{""stimulus"":""img/1to2/12.png"",""time"":1327}]","[]"
"image-keyboard-response","101","358899","0.0-5.0-1.48","6092dea4efd6d61350f0fdbf","bdp_cybrbll","Sun Mar 26 2023 08:51:07 GMT-0500 (Central Daylight Time)","705769","3","1","","176","","","","choice","","img/2to1/1.png","2","177","432","0.5","0.5","2","3","",""
"animation","102","360335","0.0-5.0-2.48","6092dea4efd6d61350f0fdbf","bdp_cybrbll","Sun Mar 26 2023 08:51:07 GMT-0500 (Central Daylight Time)","705769","3","1","","","","","","","","","","177","","","","2","3","[{""stimulus"":""img/2to3/1.png"",""time"":107},{""stimulus"":""img/2to3/2.png"",""time"":218},{""stimulus"":""img/2to3/3.png"",""time"":328},{""stimulus"":""img/2to3/4.png"",""time"":444},{""stimulus"":""img/2to3/5.png"",""time"":550},{""stimulus"":""img/2to3/6.png"",""time"":661},{""stimulus"":""img/2to3/7.png"",""time"":772},{""stimulus"":""img/2to3/8.png"",""time"":882},{""stimulus"":""img/2to3/9.png"",""time"":993},{""stimulus"":""img/2to3/10.png"",""time"":1104},{""stimulus"":""img/2to3/11.png"",""time"":1214},{""stimulus"":""img/2to3/12.png"",""time"":1325}]","[]"
"image-keyboard-response","103","360651","0.0-5.0-1.49","6092dea4efd6d61350f0fdbf","bdp_cybrbll","Sun Mar 26 2023 08:51:07 GMT-0500 (Central Daylight Time)","705769","3","1","","null","","","","observe","","img/3to2/1.png","null","176","309","0.5","0.5","3","1","",""
"animation","104","362088","0.0-5.0-2.49","6092dea4efd6d61350f0fdbf","bdp_cybrbll","Sun Mar 26 2023 08:51:07 GMT-0500 (Central Daylight Time)","705769","3","1","","","","","","","","","","176","","","","3","1","[{""stimulus"":""img/3to1/1.png"",""time"":111},{""stimulus"":""img/3to1/2.png"",""time"":220},{""stimulus"":""img/3to1/3.png"",""time"":331},{""stimulus"":""img/3to1/4.png"",""time"":442},{""stimulus"":""img/3to1/5.png"",""time"":552},{""stimulus"":""img/3to1/6.png"",""time"":661},{""stimulus"":""img/3to1/7.png"",""time"":773},{""stimulus"":""img/3to1/8.png"",""time"":885},{""stimulus"":""img/3to1/9.png"",""time"":994},{""stimulus"":""img/3to1/10.png"",""time"":1105},{""stimulus"":""img/3to1/11.png"",""time"":1215},{""stimulus"":""img/3to1/12.png"",""time"":1326}]","[]"
"image-keyboard-response","105","362307","0.0-5.0-1.50","6092dea4efd6d61350f0fdbf","bdp_cybrbll","Sun Mar 26 2023 08:51:07 GMT-0500 (Central Daylight Time)","705769","3","1","","null","","","","observe","","img/1to3/1.png","null","175","218","0.5","0.5","1","2","",""
"animation","106","363744","0.0-5.0-2.50","6092dea4efd6d61350f0fdbf","bdp_cybrbll","Sun Mar 26 2023 08:51:07 GMT-0500 (Central Daylight Time)","705769","3","1","","","","","","","","","","175","","","","1","2","[{""stimulus"":""img/1to2/1.png"",""time"":112},{""stimulus"":""img/1to2/2.png"",""time"":222},{""stimulus"":""img/1to2/3.png"",""time"":332},{""stimulus"":""img/1to2/4.png"",""time"":446},{""stimulus"":""img/1to2/5.png"",""time"":555},{""stimulus"":""img/1to2/6.png"",""time"":665},{""stimulus"":""img/1to2/7.png"",""time"":775},{""stimulus"":""img/1to2/8.png"",""time"":886},{""stimulus"":""img/1to2/9.png"",""time"":996},{""stimulus"":""img/1to2/10.png"",""time"":1106},{""stimulus"":""img/1to2/11.png"",""time"":1216},{""stimulus"":""img/1to2/12.png"",""time"":1327}]","[]"
"image-keyboard-response","107","364248","0.0-5.0-1.51","6092dea4efd6d61350f0fdbf","bdp_cybrbll","Sun Mar 26 2023 08:51:07 GMT-0500 (Central Daylight Time)","705769","3","1","","503","","","","choice","","img/2to1/1.png","2","174","459","0.5","0.5","2","3","",""
"animation","108","365684","0.0-5.0-2.51","6092dea4efd6d61350f0fdbf","bdp_cybrbll","Sun Mar 26 2023 08:51:07 GMT-0500 (Central Daylight Time)","705769","3","1","","","","","","","","","","174","","","","2","3","[{""stimulus"":""img/2to3/1.png"",""time"":111},{""stimulus"":""img/2to3/2.png"",""time"":221},{""stimulus"":""img/2to3/3.png"",""time"":331},{""stimulus"":""img/2to3/4.png"",""time"":441},{""stimulus"":""img/2to3/5.png"",""time"":552},{""stimulus"":""img/2to3/6.png"",""time"":664},{""stimulus"":""img/2to3/7.png"",""time"":774},{""stimulus"":""img/2to3/8.png"",""time"":885},{""stimulus"":""img/2to3/9.png"",""time"":996},{""stimulus"":""img/2to3/10.png"",""time"":1105},{""stimulus"":""img/2to3/11.png"",""time"":1216},{""stimulus"":""img/2to3/12.png"",""time"":1326}]","[]"
"image-keyboard-response","109","365969","0.0-5.0-1.52","6092dea4efd6d61350f0fdbf","bdp_cybrbll","Sun Mar 26 2023 08:51:07 GMT-0500 (Central Daylight Time)","705769","3","1","","null","","","","observe","","img/3to2/1.png","null","173","279","0.5","0.5","3","2","",""
"animation","110","367402","0.0-5.0-2.52","6092dea4efd6d61350f0fdbf","bdp_cybrbll","Sun Mar 26 2023 08:51:07 GMT-0500 (Central Daylight Time)","705769","3","1","","","","","","","","","","173","","","","3","2","[{""stimulus"":""img/3to2/1.png"",""time"":109},{""stimulus"":""img/3to2/2.png"",""time"":221},{""stimulus"":""img/3to2/3.png"",""time"":330},{""stimulus"":""img/3to2/4.png"",""time"":441},{""stimulus"":""img/3to2/5.png"",""time"":551},{""stimulus"":""img/3to2/6.png"",""time"":663},{""stimulus"":""img/3to2/7.png"",""time"":772},{""stimulus"":""img/3to2/8.png"",""time"":882},{""stimulus"":""img/3to2/9.png"",""time"":993},{""stimulus"":""img/3to2/10.png"",""time"":1104},{""stimulus"":""img/3to2/11.png"",""time"":1214},{""stimulus"":""img/3to2/12.png"",""time"":1324}]","[]"
"image-keyboard-response","111","367874","0.0-5.0-1.53","6092dea4efd6d61350f0fdbf","bdp_cybrbll","Sun Mar 26 2023 08:51:07 GMT-0500 (Central Daylight Time)","705769","3","1","","470","","","","choice","","img/2to1/1.png","1","172","510","0.5","0.5","2","1","",""
"animation","112","369312","0.0-5.0-2.53","6092dea4efd6d61350f0fdbf","bdp_cybrbll","Sun Mar 26 2023 08:51:07 GMT-0500 (Central Daylight Time)","705769","3","1","","","","","","","","","","172","","","","2","1","[{""stimulus"":""img/2to1/1.png"",""time"":112},{""stimulus"":""img/2to1/2.png"",""time"":223},{""stimulus"":""img/2to1/3.png"",""time"":333},{""stimulus"":""img/2to1/4.png"",""time"":444},{""stimulus"":""img/2to1/5.png"",""time"":554},{""stimulus"":""img/2to1/6.png"",""time"":665},{""stimulus"":""img/2to1/7.png"",""time"":776},{""stimulus"":""img/2to1/8.png"",""time"":886},{""stimulus"":""img/2to1/9.png"",""time"":996},{""stimulus"":""img/2to1/10.png"",""time"":1106},{""stimulus"":""img/2to1/11.png"",""time"":1217},{""stimulus"":""img/2to1/12.png"",""time"":1327}]","[]"
"image-keyboard-response","113","369914","0.0-5.0-1.54","6092dea4efd6d61350f0fdbf","bdp_cybrbll","Sun Mar 26 2023 08:51:07 GMT-0500 (Central Daylight Time)","705769","3","1","","null","","","","observe","","img/1to3/1.png","null","171","591","0.5","0.5","1","3","",""
"animation","114","371348","0.0-5.0-2.54","6092dea4efd6d61350f0fdbf","bdp_cybrbll","Sun Mar 26 2023 08:51:07 GMT-0500 (Central Daylight Time)","705769","3","1","","","","","","","","","","171","","","","1","3","[{""stimulus"":""img/1to3/1.png"",""time"":110},{""stimulus"":""img/1to3/2.png"",""time"":221},{""stimulus"":""img/1to3/3.png"",""time"":331},{""stimulus"":""img/1to3/4.png"",""time"":442},{""stimulus"":""img/1to3/5.png"",""time"":553},{""stimulus"":""img/1to3/6.png"",""time"":662},{""stimulus"":""img/1to3/7.png"",""time"":772},{""stimulus"":""img/1to3/8.png"",""time"":882},{""stimulus"":""img/1to3/9.png"",""time"":992},{""stimulus"":""img/1to3/10.png"",""time"":1102},{""stimulus"":""img/1to3/11.png"",""time"":1212},{""stimulus"":""img/1to3/12.png"",""time"":1323}]","[]"
"image-keyboard-response","115","371806","0.0-5.0-1.55","6092dea4efd6d61350f0fdbf","bdp_cybrbll","Sun Mar 26 2023 08:51:07 GMT-0500 (Central Daylight Time)","705769","3","1","","null","","","","observe","","img/3to2/1.png","null","170","457","0.5","0.5","3","1","",""
"animation","116","373246","0.0-5.0-2.55","6092dea4efd6d61350f0fdbf","bdp_cybrbll","Sun Mar 26 2023 08:51:07 GMT-0500 (Central Daylight Time)","705769","3","1","","","","","","","","","","170","","","","3","1","[{""stimulus"":""img/3to1/1.png"",""time"":111},{""stimulus"":""img/3to1/2.png"",""time"":223},{""stimulus"":""img/3to1/3.png"",""time"":334},{""stimulus"":""img/3to1/4.png"",""time"":442},{""stimulus"":""img/3to1/5.png"",""time"":552},{""stimulus"":""img/3to1/6.png"",""time"":663},{""stimulus"":""img/3to1/7.png"",""time"":775},{""stimulus"":""img/3to1/8.png"",""time"":886},{""stimulus"":""img/3to1/9.png"",""time"":997},{""stimulus"":""img/3to1/10.png"",""time"":1108},{""stimulus"":""img/3to1/11.png"",""time"":1219},{""stimulus"":""img/3to1/12.png"",""time"":1330}]","[]"
"image-keyboard-response","117","373498","0.0-5.0-1.56","6092dea4efd6d61350f0fdbf","bdp_cybrbll","Sun Mar 26 2023 08:51:07 GMT-0500 (Central Daylight Time)","705769","3","1","","null","","","","observe","","img/1to3/1.png","null","169","242","0.5","0.5","1","2","",""
"animation","118","374935","0.0-5.0-2.56","6092dea4efd6d61350f0fdbf","bdp_cybrbll","Sun Mar 26 2023 08:51:07 GMT-0500 (Central Daylight Time)","705769","3","1","","","","","","","","","","169","","","","1","2","[{""stimulus"":""img/1to2/1.png"",""time"":110},{""stimulus"":""img/1to2/2.png"",""time"":222},{""stimulus"":""img/1to2/3.png"",""time"":332},{""stimulus"":""img/1to2/4.png"",""time"":443},{""stimulus"":""img/1to2/5.png"",""time"":554},{""stimulus"":""img/1to2/6.png"",""time"":663},{""stimulus"":""img/1to2/7.png"",""time"":774},{""stimulus"":""img/1to2/8.png"",""time"":885},{""stimulus"":""img/1to2/9.png"",""time"":995},{""stimulus"":""img/1to2/10.png"",""time"":1106},{""stimulus"":""img/1to2/11.png"",""time"":1216},{""stimulus"":""img/1to2/12.png"",""time"":1327}]","[]"
"image-keyboard-response","119","375088","0.0-5.0-1.57","6092dea4efd6d61350f0fdbf","bdp_cybrbll","Sun Mar 26 2023 08:51:07 GMT-0500 (Central Daylight Time)","705769","3","1","","152","","","","choice","","img/2to1/1.png","2","168","554","0.5","0.5","2","3","",""
"animation","120","376515","0.0-5.0-2.57","6092dea4efd6d61350f0fdbf","bdp_cybrbll","Sun Mar 26 2023 08:51:07 GMT-0500 (Central Daylight Time)","705769","3","1","","","","","","","","","","168","","","","2","3","[{""stimulus"":""img/2to3/1.png"",""time"":100},{""stimulus"":""img/2to3/2.png"",""time"":210},{""stimulus"":""img/2to3/3.png"",""time"":320},{""stimulus"":""img/2to3/4.png"",""time"":433},{""stimulus"":""img/2to3/5.png"",""time"":543},{""stimulus"":""img/2to3/6.png"",""time"":653},{""stimulus"":""img/2to3/7.png"",""time"":765},{""stimulus"":""img/2to3/8.png"",""time"":875},{""stimulus"":""img/2to3/9.png"",""time"":985},{""stimulus"":""img/2to3/10.png"",""time"":1096},{""stimulus"":""img/2to3/11.png"",""time"":1205},{""stimulus"":""img/2to3/12.png"",""time"":1316}]","[]"
"image-keyboard-response","121","376672","0.0-5.0-1.58","6092dea4efd6d61350f0fdbf","bdp_cybrbll","Sun Mar 26 2023 08:51:07 GMT-0500 (Central Daylight Time)","705769","3","1","","null","","","","observe","","img/3to2/1.png","null","167","144","0.5","0.5","3","1","",""
"animation","122","378114","0.0-5.0-2.58","6092dea4efd6d61350f0fdbf","bdp_cybrbll","Sun Mar 26 2023 08:51:07 GMT-0500 (Central Daylight Time)","705769","3","1","","","","","","","","","","167","","","","3","1","[{""stimulus"":""img/3to1/1.png"",""time"":112},{""stimulus"":""img/3to1/2.png"",""time"":223},{""stimulus"":""img/3to1/3.png"",""time"":334},{""stimulus"":""img/3to1/4.png"",""time"":443},{""stimulus"":""img/3to1/5.png"",""time"":554},{""stimulus"":""img/3to1/6.png"",""time"":666},{""stimulus"":""img/3to1/7.png"",""time"":776},{""stimulus"":""img/3to1/8.png"",""time"":888},{""stimulus"":""img/3to1/9.png"",""time"":999},{""stimulus"":""img/3to1/10.png"",""time"":1110},{""stimulus"":""img/3to1/11.png"",""time"":1220},{""stimulus"":""img/3to1/12.png"",""time"":1331}]","[]"
"image-keyboard-response","123","378366","0.0-5.0-1.59","6092dea4efd6d61350f0fdbf","bdp_cybrbll","Sun Mar 26 2023 08:51:07 GMT-0500 (Central Daylight Time)","705769","3","1","","null","","","","observe","","img/1to3/1.png","null","166","250","0.5","0.5","1","2","",""
"animation","124","379807","0.0-5.0-2.59","6092dea4efd6d61350f0fdbf","bdp_cybrbll","Sun Mar 26 2023 08:51:07 GMT-0500 (Central Daylight Time)","705769","3","1","","","","","","","","","","166","","","","1","2","[{""stimulus"":""img/1to2/1.png"",""time"":111},{""stimulus"":""img/1to2/2.png"",""time"":221},{""stimulus"":""img/1to2/3.png"",""time"":331},{""stimulus"":""img/1to2/4.png"",""time"":441},{""stimulus"":""img/1to2/5.png"",""time"":553},{""stimulus"":""img/1to2/6.png"",""time"":663},{""stimulus"":""img/1to2/7.png"",""time"":774},{""stimulus"":""img/1to2/8.png"",""time"":886},{""stimulus"":""img/1to2/9.png"",""time"":997},{""stimulus"":""img/1to2/10.png"",""time"":1107},{""stimulus"":""img/1to2/11.png"",""time"":1218},{""stimulus"":""img/1to2/12.png"",""time"":1328}]","[]"
"image-keyboard-response","125","380096","0.0-5.0-1.60","6092dea4efd6d61350f0fdbf","bdp_cybrbll","Sun Mar 26 2023 08:51:07 GMT-0500 (Central Daylight Time)","705769","3","1","","289","","","","choice","","img/2to1/1.png","2","165","236","0.5","0.5","2","3","",""
"animation","126","381530","0.0-5.0-2.60","6092dea4efd6d61350f0fdbf","bdp_cybrbll","Sun Mar 26 2023 08:51:07 GMT-0500 (Central Daylight Time)","705769","3","1","","","","","","","","","","165","","","","2","3","[{""stimulus"":""img/2to3/1.png"",""time"":107},{""stimulus"":""img/2to3/2.png"",""time"":217},{""stimulus"":""img/2to3/3.png"",""time"":327},{""stimulus"":""img/2to3/4.png"",""time"":437},{""stimulus"":""img/2to3/5.png"",""time"":547},{""stimulus"":""img/2to3/6.png"",""time"":658},{""stimulus"":""img/2to3/7.png"",""time"":769},{""stimulus"":""img/2to3/8.png"",""time"":881},{""stimulus"":""img/2to3/9.png"",""time"":991},{""stimulus"":""img/2to3/10.png"",""time"":1101},{""stimulus"":""img/2to3/11.png"",""time"":1213},{""stimulus"":""img/2to3/12.png"",""time"":1324}]","[]"
"image-keyboard-response","127","382211","0.0-5.0-1.61","6092dea4efd6d61350f0fdbf","bdp_cybrbll","Sun Mar 26 2023 08:51:07 GMT-0500 (Central Daylight Time)","705769","3","1","","null","","","","observe","","img/3to2/1.png","null","164","673","0.5","0.5","3","2","",""
"animation","128","383652","0.0-5.0-2.61","6092dea4efd6d61350f0fdbf","bdp_cybrbll","Sun Mar 26 2023 08:51:07 GMT-0500 (Central Daylight Time)","705769","3","1","","","","","","","","","","164","","","","3","2","[{""stimulus"":""img/3to2/1.png"",""time"":111},{""stimulus"":""img/3to2/2.png"",""time"":223},{""stimulus"":""img/3to2/3.png"",""time"":332},{""stimulus"":""img/3to2/4.png"",""time"":443},{""stimulus"":""img/3to2/5.png"",""time"":554},{""stimulus"":""img/3to2/6.png"",""time"":666},{""stimulus"":""img/3to2/7.png"",""time"":776},{""stimulus"":""img/3to2/8.png"",""time"":888},{""stimulus"":""img/3to2/9.png"",""time"":998},{""stimulus"":""img/3to2/10.png"",""time"":1109},{""stimulus"":""img/3to2/11.png"",""time"":1218},{""stimulus"":""img/3to2/12.png"",""time"":1329}]","[]"
"image-keyboard-response","129","383737","0.0-5.0-1.62","6092dea4efd6d61350f0fdbf","bdp_cybrbll","Sun Mar 26 2023 08:51:07 GMT-0500 (Central Daylight Time)","705769","3","1","","85","","","","choice","","img/2to1/1.png","1","163","987","0.5","0.5","2","1","",""
"animation","130","385171","0.0-5.0-2.62","6092dea4efd6d61350f0fdbf","bdp_cybrbll","Sun Mar 26 2023 08:51:07 GMT-0500 (Central Daylight Time)","705769","3","1","","","","","","","","","","163","","","","2","1","[{""stimulus"":""img/2to1/1.png"",""time"":103},{""stimulus"":""img/2to1/2.png"",""time"":215},{""stimulus"":""img/2to1/3.png"",""time"":326},{""stimulus"":""img/2to1/4.png"",""time"":435},{""stimulus"":""img/2to1/5.png"",""time"":547},{""stimulus"":""img/2to1/6.png"",""time"":658},{""stimulus"":""img/2to1/7.png"",""time"":770},{""stimulus"":""img/2to1/8.png"",""time"":880},{""stimulus"":""img/2to1/9.png"",""time"":990},{""stimulus"":""img/2to1/10.png"",""time"":1101},{""stimulus"":""img/2to1/11.png"",""time"":1212},{""stimulus"":""img/2to1/12.png"",""time"":1322}]","[]"
"image-keyboard-response","131","385630","0.0-5.0-1.63","6092dea4efd6d61350f0fdbf","bdp_cybrbll","Sun Mar 26 2023 08:51:07 GMT-0500 (Central Daylight Time)","705769","3","1","","null","","","","observe","","img/1to3/1.png","null","162","457","0.5","0.5","1","3","",""
"animation","132","387069","0.0-5.0-2.63","6092dea4efd6d61350f0fdbf","bdp_cybrbll","Sun Mar 26 2023 08:51:07 GMT-0500 (Central Daylight Time)","705769","3","1","","","","","","","","","","162","","","","1","3","[{""stimulus"":""img/1to3/1.png"",""time"":111},{""stimulus"":""img/1to3/2.png"",""time"":221},{""stimulus"":""img/1to3/3.png"",""time"":332},{""stimulus"":""img/1to3/4.png"",""time"":443},{""stimulus"":""img/1to3/5.png"",""time"":554},{""stimulus"":""img/1to3/6.png"",""time"":665},{""stimulus"":""img/1to3/7.png"",""time"":775},{""stimulus"":""img/1to3/8.png"",""time"":886},{""stimulus"":""img/1to3/9.png"",""time"":996},{""stimulus"":""img/1to3/10.png"",""time"":1107},{""stimulus"":""img/1to3/11.png"",""time"":1218},{""stimulus"":""img/1to3/12.png"",""time"":1329}]","[]"
"image-keyboard-response","133","388132","0.0-5.0-1.64","6092dea4efd6d61350f0fdbf","bdp_cybrbll","Sun Mar 26 2023 08:51:07 GMT-0500 (Central Daylight Time)","705769","3","1","","null","","","","observe","","img/3to2/1.png","null","161","1062","0.5","0.5","3","2","",""
"animation","134","389565","0.0-5.0-2.64","6092dea4efd6d61350f0fdbf","bdp_cybrbll","Sun Mar 26 2023 08:51:07 GMT-0500 (Central Daylight Time)","705769","3","1","","","","","","","","","","161","","","","3","2","[{""stimulus"":""img/3to2/1.png"",""time"":109},{""stimulus"":""img/3to2/2.png"",""time"":220},{""stimulus"":""img/3to2/3.png"",""time"":331},{""stimulus"":""img/3to2/4.png"",""time"":441},{""stimulus"":""img/3to2/5.png"",""time"":552},{""stimulus"":""img/3to2/6.png"",""time"":661},{""stimulus"":""img/3to2/7.png"",""time"":772},{""stimulus"":""img/3to2/8.png"",""time"":881},{""stimulus"":""img/3to2/9.png"",""time"":992},{""stimulus"":""img/3to2/10.png"",""time"":1103},{""stimulus"":""img/3to2/11.png"",""time"":1212},{""stimulus"":""img/3to2/12.png"",""time"":1322}]","[]"
"image-keyboard-response","135","389589","0.0-5.0-1.65","6092dea4efd6d61350f0fdbf","bdp_cybrbll","Sun Mar 26 2023 08:51:07 GMT-0500 (Central Daylight Time)","705769","3","1","","22","","","","choice","","img/2to1/1.png","1","160","541","0.5","0.5","2","1","",""
"animation","136","391013","0.0-5.0-2.65","6092dea4efd6d61350f0fdbf","bdp_cybrbll","Sun Mar 26 2023 08:51:07 GMT-0500 (Central Daylight Time)","705769","3","1","","","","","","","","","","160","","","","2","1","[{""stimulus"":""img/2to1/1.png"",""time"":101},{""stimulus"":""img/2to1/2.png"",""time"":210},{""stimulus"":""img/2to1/3.png"",""time"":320},{""stimulus"":""img/2to1/4.png"",""time"":431},{""stimulus"":""img/2to1/5.png"",""time"":541},{""stimulus"":""img/2to1/6.png"",""time"":651},{""stimulus"":""img/2to1/7.png"",""time"":762},{""stimulus"":""img/2to1/8.png"",""time"":873},{""stimulus"":""img/2to1/9.png"",""time"":983},{""stimulus"":""img/2to1/10.png"",""time"":1093},{""stimulus"":""img/2to1/11.png"",""time"":1203},{""stimulus"":""img/2to1/12.png"",""time"":1314}]","[]"
"image-keyboard-response","137","391775","0.0-5.0-1.66","6092dea4efd6d61350f0fdbf","bdp_cybrbll","Sun Mar 26 2023 08:51:07 GMT-0500 (Central Daylight Time)","705769","3","1","","null","","","","observe","","img/1to3/1.png","null","159","748","0.5","0.5","1","3","",""
"animation","138","393214","0.0-5.0-2.66","6092dea4efd6d61350f0fdbf","bdp_cybrbll","Sun Mar 26 2023 08:51:07 GMT-0500 (Central Daylight Time)","705769","3","1","","","","","","","","","","159","","","","1","3","[{""stimulus"":""img/1to3/1.png"",""time"":111},{""stimulus"":""img/1to3/2.png"",""time"":222},{""stimulus"":""img/1to3/3.png"",""time"":332},{""stimulus"":""img/1to3/4.png"",""time"":444},{""stimulus"":""img/1to3/5.png"",""time"":555},{""stimulus"":""img/1to3/6.png"",""time"":666},{""stimulus"":""img/1to3/7.png"",""time"":777},{""stimulus"":""img/1to3/8.png"",""time"":886},{""stimulus"":""img/1to3/9.png"",""time"":997},{""stimulus"":""img/1to3/10.png"",""time"":1107},{""stimulus"":""img/1to3/11.png"",""time"":1218},{""stimulus"":""img/1to3/12.png"",""time"":1328}]","[]"
"image-keyboard-response","139","393516","0.0-5.0-1.67","6092dea4efd6d61350f0fdbf","bdp_cybrbll","Sun Mar 26 2023 08:51:07 GMT-0500 (Central Daylight Time)","705769","3","1","","null","","","","observe","","img/3to2/1.png","null","158","286","0.5","0.5","3","1","",""
"animation","140","394959","0.0-5.0-2.67","6092dea4efd6d61350f0fdbf","bdp_cybrbll","Sun Mar 26 2023 08:51:07 GMT-0500 (Central Daylight Time)","705769","3","1","","","","","","","","","","158","","","","3","1","[{""stimulus"":""img/3to1/1.png"",""time"":112},{""stimulus"":""img/3to1/2.png"",""time"":223},{""stimulus"":""img/3to1/3.png"",""time"":335},{""stimulus"":""img/3to1/4.png"",""time"":445},{""stimulus"":""img/3to1/5.png"",""time"":556},{""stimulus"":""img/3to1/6.png"",""time"":667},{""stimulus"":""img/3to1/7.png"",""time"":778},{""stimulus"":""img/3to1/8.png"",""time"":888},{""stimulus"":""img/3to1/9.png"",""time"":999},{""stimulus"":""img/3to1/10.png"",""time"":1110},{""stimulus"":""img/3to1/11.png"",""time"":1221},{""stimulus"":""img/3to1/12.png"",""time"":1333}]","[]"
"image-keyboard-response","141","395832","0.0-5.0-1.68","6092dea4efd6d61350f0fdbf","bdp_cybrbll","Sun Mar 26 2023 08:51:07 GMT-0500 (Central Daylight Time)","705769","3","1","","null","","","","observe","","img/1to3/1.png","null","157","859","0.5","0.5","1","2","",""
"animation","142","397269","0.0-5.0-2.68","6092dea4efd6d61350f0fdbf","bdp_cybrbll","Sun Mar 26 2023 08:51:07 GMT-0500 (Central Daylight Time)","705769","3","1","","","","","","","","","","157","","","","1","2","[{""stimulus"":""img/1to2/1.png"",""time"":110},{""stimulus"":""img/1to2/2.png"",""time"":221},{""stimulus"":""img/1to2/3.png"",""time"":331},{""stimulus"":""img/1to2/4.png"",""time"":440},{""stimulus"":""img/1to2/5.png"",""time"":551},{""stimulus"":""img/1to2/6.png"",""time"":662},{""stimulus"":""img/1to2/7.png"",""time"":772},{""stimulus"":""img/1to2/8.png"",""time"":883},{""stimulus"":""img/1to2/9.png"",""time"":995},{""stimulus"":""img/1to2/10.png"",""time"":1106},{""stimulus"":""img/1to2/11.png"",""time"":1216},{""stimulus"":""img/1to2/12.png"",""time"":1327}]","[]"
"image-keyboard-response","143","397277","0.0-5.0-1.69","6092dea4efd6d61350f0fdbf","bdp_cybrbll","Sun Mar 26 2023 08:51:07 GMT-0500 (Central Daylight Time)","705769","3","1","","7","","","","choice","","img/2to1/1.png","2","156","819","0.5","0.5","2","3","",""
"animation","144","398709","0.0-5.0-2.69","6092dea4efd6d61350f0fdbf","bdp_cybrbll","Sun Mar 26 2023 08:51:07 GMT-0500 (Central Daylight Time)","705769","3","1","","","","","","","","","","156","","","","2","3","[{""stimulus"":""img/2to3/1.png"",""time"":102},{""stimulus"":""img/2to3/2.png"",""time"":213},{""stimulus"":""img/2to3/3.png"",""time"":324},{""stimulus"":""img/2to3/4.png"",""time"":435},{""stimulus"":""img/2to3/5.png"",""time"":546},{""stimulus"":""img/2to3/6.png"",""time"":657},{""stimulus"":""img/2to3/7.png"",""time"":767},{""stimulus"":""img/2to3/8.png"",""time"":878},{""stimulus"":""img/2to3/9.png"",""time"":988},{""stimulus"":""img/2to3/10.png"",""time"":1098},{""stimulus"":""img/2to3/11.png"",""time"":1209},{""stimulus"":""img/2to3/12.png"",""time"":1320}]","[]"
"image-keyboard-response","145","399216","0.0-5.0-1.70","6092dea4efd6d61350f0fdbf","bdp_cybrbll","Sun Mar 26 2023 08:51:07 GMT-0500 (Central Daylight Time)","705769","3","1","","null","","","","observe","","img/3to2/1.png","null","155","500","0.5","0.5","3","1","",""
"animation","146","400656","0.0-5.0-2.70","6092dea4efd6d61350f0fdbf","bdp_cybrbll","Sun Mar 26 2023 08:51:07 GMT-0500 (Central Daylight Time)","705769","3","1","","","","","","","","","","155","","","","3","1","[{""stimulus"":""img/3to1/1.png"",""time"":112},{""stimulus"":""img/3to1/2.png"",""time"":222},{""stimulus"":""img/3to1/3.png"",""time"":333},{""stimulus"":""img/3to1/4.png"",""time"":444},{""stimulus"":""img/3to1/5.png"",""time"":554},{""stimulus"":""img/3to1/6.png"",""time"":666},{""stimulus"":""img/3to1/7.png"",""time"":777},{""stimulus"":""img/3to1/8.png"",""time"":889},{""stimulus"":""img/3to1/9.png"",""time"":999},{""stimulus"":""img/3to1/10.png"",""time"":1110},{""stimulus"":""img/3to1/11.png"",""time"":1220},{""stimulus"":""img/3to1/12.png"",""time"":1330}]","[]"
"image-keyboard-response","147","401562","0.0-5.0-1.71","6092dea4efd6d61350f0fdbf","bdp_cybrbll","Sun Mar 26 2023 08:51:07 GMT-0500 (Central Daylight Time)","705769","3","1","","null","","","","observe","","img/1to3/1.png","null","154","895","0.5","0.5","1","3","",""
"animation","148","403002","0.0-5.0-2.71","6092dea4efd6d61350f0fdbf","bdp_cybrbll","Sun Mar 26 2023 08:51:07 GMT-0500 (Central Daylight Time)","705769","3","1","","","","","","","","","","154","","","","1","3","[{""stimulus"":""img/1to3/1.png"",""time"":112},{""stimulus"":""img/1to3/2.png"",""time"":222},{""stimulus"":""img/1to3/3.png"",""time"":333},{""stimulus"":""img/1to3/4.png"",""time"":444},{""stimulus"":""img/1to3/5.png"",""time"":554},{""stimulus"":""img/1to3/6.png"",""time"":665},{""stimulus"":""img/1to3/7.png"",""time"":777},{""stimulus"":""img/1to3/8.png"",""time"":887},{""stimulus"":""img/1to3/9.png"",""time"":998},{""stimulus"":""img/1to3/10.png"",""time"":1109},{""stimulus"":""img/1to3/11.png"",""time"":1218},{""stimulus"":""img/1to3/12.png"",""time"":1329}]","[]"
"image-keyboard-response","149","403271","0.0-5.0-1.72","6092dea4efd6d61350f0fdbf","bdp_cybrbll","Sun Mar 26 2023 08:51:07 GMT-0500 (Central Daylight Time)","705769","3","1","","null","","","","observe","","img/3to2/1.png","null","153","262","0.5","0.5","3","2","",""
"animation","150","404744","0.0-5.0-2.72","6092dea4efd6d61350f0fdbf","bdp_cybrbll","Sun Mar 26 2023 08:51:07 GMT-0500 (Central Daylight Time)","705769","3","1","","","","","","","","","","153","","","","3","2","[{""stimulus"":""img/3to2/1.png"",""time"":112},{""stimulus"":""img/3to2/2.png"",""time"":222},{""stimulus"":""img/3to2/3.png"",""time"":332},{""stimulus"":""img/3to2/4.png"",""time"":444},{""stimulus"":""img/3to2/5.png"",""time"":554},{""stimulus"":""img/3to2/6.png"",""time"":664},{""stimulus"":""img/3to2/7.png"",""time"":807},{""stimulus"":""img/3to2/8.png"",""time"":917},{""stimulus"":""img/3to2/9.png"",""time"":1027},{""stimulus"":""img/3to2/10.png"",""time"":1138},{""stimulus"":""img/3to2/11.png"",""time"":1251},{""stimulus"":""img/3to2/12.png"",""time"":1362}]","[]"
"image-keyboard-response","151","405314","0.0-5.0-1.73","6092dea4efd6d61350f0fdbf","bdp_cybrbll","Sun Mar 26 2023 08:51:07 GMT-0500 (Central Daylight Time)","705769","3","1","","570","","","","choice","","img/2to1/1.png","1","152","144","0.5","0.5","2","1","",""
"animation","152","406753","0.0-5.0-2.73","6092dea4efd6d61350f0fdbf","bdp_cybrbll","Sun Mar 26 2023 08:51:07 GMT-0500 (Central Daylight Time)","705769","3","1","","","","","","","","","","152","","","","2","1","[{""stimulus"":""img/2to1/1.png"",""time"":109},{""stimulus"":""img/2to1/2.png"",""time"":220},{""stimulus"":""img/2to1/3.png"",""time"":331},{""stimulus"":""img/2to1/4.png"",""time"":441},{""stimulus"":""img/2to1/5.png"",""time"":552},{""stimulus"":""img/2to1/6.png"",""time"":663},{""stimulus"":""img/2to1/7.png"",""time"":772},{""stimulus"":""img/2to1/8.png"",""time"":884},{""stimulus"":""img/2to1/9.png"",""time"":995},{""stimulus"":""img/2to1/10.png"",""time"":1106},{""stimulus"":""img/2to1/11.png"",""time"":1217},{""stimulus"":""img/2to1/12.png"",""time"":1328}]","[]"
"image-keyboard-response","153","407500","0.0-5.0-1.74","6092dea4efd6d61350f0fdbf","bdp_cybrbll","Sun Mar 26 2023 08:51:07 GMT-0500 (Central Daylight Time)","705769","3","1","","null","","","","observe","","img/1to3/1.png","null","151","743","0.5","0.5","1","2","",""
"animation","154","408938","0.0-5.0-2.74","6092dea4efd6d61350f0fdbf","bdp_cybrbll","Sun Mar 26 2023 08:51:07 GMT-0500 (Central Daylight Time)","705769","3","1","","","","","","","","","","151","","","","1","2","[{""stimulus"":""img/1to2/1.png"",""time"":112},{""stimulus"":""img/1to2/2.png"",""time"":221},{""stimulus"":""img/1to2/3.png"",""time"":331},{""stimulus"":""img/1to2/4.png"",""time"":441},{""stimulus"":""img/1to2/5.png"",""time"":552},{""stimulus"":""img/1to2/6.png"",""time"":662},{""stimulus"":""img/1to2/7.png"",""time"":781},{""stimulus"":""img/1to2/8.png"",""time"":883},{""stimulus"":""img/1to2/9.png"",""time"":994},{""stimulus"":""img/1to2/10.png"",""time"":1105},{""stimulus"":""img/1to2/11.png"",""time"":1217},{""stimulus"":""img/1to2/12.png"",""time"":1327}]","[]"
"image-keyboard-response","155","409206","0.0-5.0-1.75","6092dea4efd6d61350f0fdbf","bdp_cybrbll","Sun Mar 26 2023 08:51:07 GMT-0500 (Central Daylight Time)","705769","3","1","","266","","","","choice","","img/2to1/1.png","2","150","272","0.5","0.5","2","3","",""
"animation","156","410649","0.0-5.0-2.75","6092dea4efd6d61350f0fdbf","bdp_cybrbll","Sun Mar 26 2023 08:51:07 GMT-0500 (Central Daylight Time)","705769","3","1","","","","","","","","","","150","","","","2","3","[{""stimulus"":""img/2to3/1.png"",""time"":113},{""stimulus"":""img/2to3/2.png"",""time"":223},{""stimulus"":""img/2to3/3.png"",""time"":335},{""stimulus"":""img/2to3/4.png"",""time"":446},{""stimulus"":""img/2to3/5.png"",""time"":557},{""stimulus"":""img/2to3/6.png"",""time"":667},{""stimulus"":""img/2to3/7.png"",""time"":778},{""stimulus"":""img/2to3/8.png"",""time"":889},{""stimulus"":""img/2to3/9.png"",""time"":1000},{""stimulus"":""img/2to3/10.png"",""time"":1111},{""stimulus"":""img/2to3/11.png"",""time"":1221},{""stimulus"":""img/2to3/12.png"",""time"":1333}]","[]"
"image-keyboard-response","157","411251","0.0-5.0-1.76","6092dea4efd6d61350f0fdbf","bdp_cybrbll","Sun Mar 26 2023 08:51:07 GMT-0500 (Central Daylight Time)","705769","3","1","","null","","","","observe","","img/3to2/1.png","null","149","598","0.5","0.1","3","1","",""
"animation","158","412706","0.0-5.0-2.76","6092dea4efd6d61350f0fdbf","bdp_cybrbll","Sun Mar 26 2023 08:51:07 GMT-0500 (Central Daylight Time)","705769","3","1","","","","","","","","","","149","","","","3","1","[{""stimulus"":""img/3to1/1.png"",""time"":112},{""stimulus"":""img/3to1/2.png"",""time"":222},{""stimulus"":""img/3to1/3.png"",""time"":333},{""stimulus"":""img/3to1/4.png"",""time"":443},{""stimulus"":""img/3to1/5.png"",""time"":552},{""stimulus"":""img/3to1/6.png"",""time"":663},{""stimulus"":""img/3to1/7.png"",""time"":793},{""stimulus"":""img/3to1/8.png"",""time"":902},{""stimulus"":""img/3to1/9.png"",""time"":1013},{""stimulus"":""img/3to1/10.png"",""time"":1124},{""stimulus"":""img/3to1/11.png"",""time"":1235},{""stimulus"":""img/3to1/12.png"",""time"":1345}]","[]"
"image-keyboard-response","159","413541","0.0-5.0-1.77","6092dea4efd6d61350f0fdbf","bdp_cybrbll","Sun Mar 26 2023 08:51:07 GMT-0500 (Central Daylight Time)","705769","3","1","","null","","","","observe","","img/1to3/1.png","null","148","819","0.5","0.1","1","3","",""
"animation","160","414976","0.0-5.0-2.77","6092dea4efd6d61350f0fdbf","bdp_cybrbll","Sun Mar 26 2023 08:51:07 GMT-0500 (Central Daylight Time)","705769","3","1","","","","","","","","","","148","","","","1","3","[{""stimulus"":""img/1to3/1.png"",""time"":111},{""stimulus"":""img/1to3/2.png"",""time"":222},{""stimulus"":""img/1to3/3.png"",""time"":333},{""stimulus"":""img/1to3/4.png"",""time"":443},{""stimulus"":""img/1to3/5.png"",""time"":552},{""stimulus"":""img/1to3/6.png"",""time"":663},{""stimulus"":""img/1to3/7.png"",""time"":774},{""stimulus"":""img/1to3/8.png"",""time"":884},{""stimulus"":""img/1to3/9.png"",""time"":995},{""stimulus"":""img/1to3/10.png"",""time"":1105},{""stimulus"":""img/1to3/11.png"",""time"":1214},{""stimulus"":""img/1to3/12.png"",""time"":1324}]","[]"
"image-keyboard-response","161","415305","0.0-5.0-1.78","6092dea4efd6d61350f0fdbf","bdp_cybrbll","Sun Mar 26 2023 08:51:07 GMT-0500 (Central Daylight Time)","705769","3","1","","null","","","","observe","","img/3to2/1.png","null","147","317","0.5","0.1","3","1","",""
"animation","162","416743","0.0-5.0-2.78","6092dea4efd6d61350f0fdbf","bdp_cybrbll","Sun Mar 26 2023 08:51:07 GMT-0500 (Central Daylight Time)","705769","3","1","","","","","","","","","","147","","","","3","1","[{""stimulus"":""img/3to1/1.png"",""time"":110},{""stimulus"":""img/3to1/2.png"",""time"":221},{""stimulus"":""img/3to1/3.png"",""time"":332},{""stimulus"":""img/3to1/4.png"",""time"":442},{""stimulus"":""img/3to1/5.png"",""time"":561},{""stimulus"":""img/3to1/6.png"",""time"":663},{""stimulus"":""img/3to1/7.png"",""time"":773},{""stimulus"":""img/3to1/8.png"",""time"":883},{""stimulus"":""img/3to1/9.png"",""time"":995},{""stimulus"":""img/3to1/10.png"",""time"":1105},{""stimulus"":""img/3to1/11.png"",""time"":1216},{""stimulus"":""img/3to1/12.png"",""time"":1326}]","[]"
"image-keyboard-response","163","417490","0.0-5.0-1.79","6092dea4efd6d61350f0fdbf","bdp_cybrbll","Sun Mar 26 2023 08:51:07 GMT-0500 (Central Daylight Time)","705769","3","1","","null","","","","observe","","img/1to3/1.png","null","146","732","0.5","0.1","1","3","",""
"animation","164","418931","0.0-5.0-2.79","6092dea4efd6d61350f0fdbf","bdp_cybrbll","Sun Mar 26 2023 08:51:07 GMT-0500 (Central Daylight Time)","705769","3","1","","","","","","","","","","146","","","","1","3","[{""stimulus"":""img/1to3/1.png"",""time"":111},{""stimulus"":""img/1to3/2.png"",""time"":223},{""stimulus"":""img/1to3/3.png"",""time"":333},{""stimulus"":""img/1to3/4.png"",""time"":443},{""stimulus"":""img/1to3/5.png"",""time"":555},{""stimulus"":""img/1to3/6.png"",""time"":666},{""stimulus"":""img/1to3/7.png"",""time"":777},{""stimulus"":""img/1to3/8.png"",""time"":887},{""stimulus"":""img/1to3/9.png"",""time"":997},{""stimulus"":""img/1to3/10.png"",""time"":1108},{""stimulus"":""img/1to3/11.png"",""time"":1219},{""stimulus"":""img/1to3/12.png"",""time"":1329}]","[]"
"image-keyboard-response","165","419248","0.0-5.0-1.80","6092dea4efd6d61350f0fdbf","bdp_cybrbll","Sun Mar 26 2023 08:51:07 GMT-0500 (Central Daylight Time)","705769","3","1","","null","","","","observe","","img/3to2/1.png","null","145","312","0.5","0.1","3","1","",""
"animation","166","420687","0.0-5.0-2.80","6092dea4efd6d61350f0fdbf","bdp_cybrbll","Sun Mar 26 2023 08:51:07 GMT-0500 (Central Daylight Time)","705769","3","1","","","","","","","","","","145","","","","3","1","[{""stimulus"":""img/3to1/1.png"",""time"":112},{""stimulus"":""img/3to1/2.png"",""time"":223},{""stimulus"":""img/3to1/3.png"",""time"":333},{""stimulus"":""img/3to1/4.png"",""time"":448},{""stimulus"":""img/3to1/5.png"",""time"":554},{""stimulus"":""img/3to1/6.png"",""time"":664},{""stimulus"":""img/3to1/7.png"",""time"":775},{""stimulus"":""img/3to1/8.png"",""time"":886},{""stimulus"":""img/3to1/9.png"",""time"":995},{""stimulus"":""img/3to1/10.png"",""time"":1106},{""stimulus"":""img/3to1/11.png"",""time"":1217},{""stimulus"":""img/3to1/12.png"",""time"":1331}]","[]"
"image-keyboard-response","167","421162","0.0-5.0-1.81","6092dea4efd6d61350f0fdbf","bdp_cybrbll","Sun Mar 26 2023 08:51:07 GMT-0500 (Central Daylight Time)","705769","3","1","","null","","","","observe","","img/1to3/1.png","null","144","460","0.5","0.1","1","3","",""
"animation","168","422603","0.0-5.0-2.81","6092dea4efd6d61350f0fdbf","bdp_cybrbll","Sun Mar 26 2023 08:51:07 GMT-0500 (Central Daylight Time)","705769","3","1","","","","","","","","","","144","","","","1","3","[{""stimulus"":""img/1to3/1.png"",""time"":113},{""stimulus"":""img/1to3/2.png"",""time"":223},{""stimulus"":""img/1to3/3.png"",""time"":334},{""stimulus"":""img/1to3/4.png"",""time"":446},{""stimulus"":""img/1to3/5.png"",""time"":556},{""stimulus"":""img/1to3/6.png"",""time"":666},{""stimulus"":""img/1to3/7.png"",""time"":777},{""stimulus"":""img/1to3/8.png"",""time"":887},{""stimulus"":""img/1to3/9.png"",""time"":997},{""stimulus"":""img/1to3/10.png"",""time"":1108},{""stimulus"":""img/1to3/11.png"",""time"":1219},{""stimulus"":""img/1to3/12.png"",""time"":1330}]","[]"
"image-keyboard-response","169","424437","0.0-5.0-1.82","6092dea4efd6d61350f0fdbf","bdp_cybrbll","Sun Mar 26 2023 08:51:07 GMT-0500 (Central Daylight Time)","705769","3","1","","null","","","","observe","","img/3to2/1.png","null","143","1832","0.5","0.1","3","1","",""
"animation","170","425877","0.0-5.0-2.82","6092dea4efd6d61350f0fdbf","bdp_cybrbll","Sun Mar 26 2023 08:51:07 GMT-0500 (Central Daylight Time)","705769","3","1","","","","","","","","","","143","","","","3","1","[{""stimulus"":""img/3to1/1.png"",""time"":114},{""stimulus"":""img/3to1/2.png"",""time"":223},{""stimulus"":""img/3to1/3.png"",""time"":333},{""stimulus"":""img/3to1/4.png"",""time"":443},{""stimulus"":""img/3to1/5.png"",""time"":553},{""stimulus"":""img/3to1/6.png"",""time"":663},{""stimulus"":""img/3to1/7.png"",""time"":775},{""stimulus"":""img/3to1/8.png"",""time"":885},{""stimulus"":""img/3to1/9.png"",""time"":997},{""stimulus"":""img/3to1/10.png"",""time"":1108},{""stimulus"":""img/3to1/11.png"",""time"":1220},{""stimulus"":""img/3to1/12.png"",""time"":1329}]","[]"
"image-keyboard-response","171","426571","0.0-5.0-1.83","6092dea4efd6d61350f0fdbf","bdp_cybrbll","Sun Mar 26 2023 08:51:07 GMT-0500 (Central Daylight Time)","705769","3","1","","null","","","","observe","","img/1to3/1.png","null","142","685","0.5","0.1","1","3","",""
"animation","172","428008","0.0-5.0-2.83","6092dea4efd6d61350f0fdbf","bdp_cybrbll","Sun Mar 26 2023 08:51:07 GMT-0500 (Central Daylight Time)","705769","3","1","","","","","","","","","","142","","","","1","3","[{""stimulus"":""img/1to3/1.png"",""time"":112},{""stimulus"":""img/1to3/2.png"",""time"":222},{""stimulus"":""img/1to3/3.png"",""time"":333},{""stimulus"":""img/1to3/4.png"",""time"":443},{""stimulus"":""img/1to3/5.png"",""time"":552},{""stimulus"":""img/1to3/6.png"",""time"":662},{""stimulus"":""img/1to3/7.png"",""time"":773},{""stimulus"":""img/1to3/8.png"",""time"":885},{""stimulus"":""img/1to3/9.png"",""time"":995},{""stimulus"":""img/1to3/10.png"",""time"":1106},{""stimulus"":""img/1to3/11.png"",""time"":1216},{""stimulus"":""img/1to3/12.png"",""time"":1327}]","[]"
"image-keyboard-response","173","428530","0.0-5.0-1.84","6092dea4efd6d61350f0fdbf","bdp_cybrbll","Sun Mar 26 2023 08:51:07 GMT-0500 (Central Daylight Time)","705769","3","1","","null","","","","observe","","img/3to2/1.png","null","141","506","0.5","0.1","3","1","",""
"animation","174","429961","0.0-5.0-2.84","6092dea4efd6d61350f0fdbf","bdp_cybrbll","Sun Mar 26 2023 08:51:07 GMT-0500 (Central Daylight Time)","705769","3","1","","","","","","","","","","141","","","","3","1","[{""stimulus"":""img/3to1/1.png"",""time"":110},{""stimulus"":""img/3to1/2.png"",""time"":221},{""stimulus"":""img/3to1/3.png"",""time"":330},{""stimulus"":""img/3to1/4.png"",""time"":440},{""stimulus"":""img/3to1/5.png"",""time"":551},{""stimulus"":""img/3to1/6.png"",""time"":661},{""stimulus"":""img/3to1/7.png"",""time"":770},{""stimulus"":""img/3to1/8.png"",""time"":880},{""stimulus"":""img/3to1/9.png"",""time"":992},{""stimulus"":""img/3to1/10.png"",""time"":1102},{""stimulus"":""img/3to1/11.png"",""time"":1211},{""stimulus"":""img/3to1/12.png"",""time"":1321}]","[]"
"image-keyboard-response","175","430734","0.0-5.0-1.85","6092dea4efd6d61350f0fdbf","bdp_cybrbll","Sun Mar 26 2023 08:51:07 GMT-0500 (Central Daylight Time)","705769","3","1","","null","","","","observe","","img/1to3/1.png","null","140","761","0.5","0.1","1","3","",""
"animation","176","432173","0.0-5.0-2.85","6092dea4efd6d61350f0fdbf","bdp_cybrbll","Sun Mar 26 2023 08:51:07 GMT-0500 (Central Daylight Time)","705769","3","1","","","","","","","","","","140","","","","1","3","[{""stimulus"":""img/1to3/1.png"",""time"":112},{""stimulus"":""img/1to3/2.png"",""time"":221},{""stimulus"":""img/1to3/3.png"",""time"":331},{""stimulus"":""img/1to3/4.png"",""time"":443},{""stimulus"":""img/1to3/5.png"",""time"":554},{""stimulus"":""img/1to3/6.png"",""time"":664},{""stimulus"":""img/1to3/7.png"",""time"":775},{""stimulus"":""img/1to3/8.png"",""time"":886},{""stimulus"":""img/1to3/9.png"",""time"":997},{""stimulus"":""img/1to3/10.png"",""time"":1107},{""stimulus"":""img/1to3/11.png"",""time"":1217},{""stimulus"":""img/1to3/12.png"",""time"":1328}]","[]"
"image-keyboard-response","177","432820","0.0-5.0-1.86","6092dea4efd6d61350f0fdbf","bdp_cybrbll","Sun Mar 26 2023 08:51:07 GMT-0500 (Central Daylight Time)","705769","3","1","","null","","","","observe","","img/3to2/1.png","null","139","639","0.5","0.1","3","2","",""
"animation","178","434289","0.0-5.0-2.86","6092dea4efd6d61350f0fdbf","bdp_cybrbll","Sun Mar 26 2023 08:51:07 GMT-0500 (Central Daylight Time)","705769","3","1","","","","","","","","","","139","","","","3","2","[{""stimulus"":""img/3to2/1.png"",""time"":111},{""stimulus"":""img/3to2/2.png"",""time"":222},{""stimulus"":""img/3to2/3.png"",""time"":332},{""stimulus"":""img/3to2/4.png"",""time"":444},{""stimulus"":""img/3to2/5.png"",""time"":555},{""stimulus"":""img/3to2/6.png"",""time"":665},{""stimulus"":""img/3to2/7.png"",""time"":776},{""stimulus"":""img/3to2/8.png"",""time"":886},{""stimulus"":""img/3to2/9.png"",""time"":1028},{""stimulus"":""img/3to2/10.png"",""time"":1137},{""stimulus"":""img/3to2/11.png"",""time"":1248},{""stimulus"":""img/3to2/12.png"",""time"":1358}]","[]"
"image-keyboard-response","179","434482","0.0-5.0-1.87","6092dea4efd6d61350f0fdbf","bdp_cybrbll","Sun Mar 26 2023 08:51:07 GMT-0500 (Central Daylight Time)","705769","3","1","","192","","","","choice","","img/2to1/1.png","1","138","266","0.5","0.1","2","1","",""
"animation","180","435920","0.0-5.0-2.87","6092dea4efd6d61350f0fdbf","bdp_cybrbll","Sun Mar 26 2023 08:51:07 GMT-0500 (Central Daylight Time)","705769","3","1","","","","","","","","","","138","","","","2","1","[{""stimulus"":""img/2to1/1.png"",""time"":107},{""stimulus"":""img/2to1/2.png"",""time"":219},{""stimulus"":""img/2to1/3.png"",""time"":329},{""stimulus"":""img/2to1/4.png"",""time"":440},{""stimulus"":""img/2to1/5.png"",""time"":552},{""stimulus"":""img/2to1/6.png"",""time"":664},{""stimulus"":""img/2to1/7.png"",""time"":775},{""stimulus"":""img/2to1/8.png"",""time"":886},{""stimulus"":""img/2to1/9.png"",""time"":995},{""stimulus"":""img/2to1/10.png"",""time"":1107},{""stimulus"":""img/2to1/11.png"",""time"":1218},{""stimulus"":""img/2to1/12.png"",""time"":1327}]","[]"
"image-keyboard-response","181","436157","0.0-5.0-1.88","6092dea4efd6d61350f0fdbf","bdp_cybrbll","Sun Mar 26 2023 08:51:07 GMT-0500 (Central Daylight Time)","705769","3","1","","null","","","","observe","","img/1to3/1.png","null","137","226","0.5","0.1","1","3","",""
"animation","182","437600","0.0-5.0-2.88","6092dea4efd6d61350f0fdbf","bdp_cybrbll","Sun Mar 26 2023 08:51:07 GMT-0500 (Central Daylight Time)","705769","3","1","","","","","","","","","","137","","","","1","3","[{""stimulus"":""img/1to3/1.png"",""time"":111},{""stimulus"":""img/1to3/2.png"",""time"":222},{""stimulus"":""img/1to3/3.png"",""time"":334},{""stimulus"":""img/1to3/4.png"",""time"":445},{""stimulus"":""img/1to3/5.png"",""time"":556},{""stimulus"":""img/1to3/6.png"",""time"":667},{""stimulus"":""img/1to3/7.png"",""time"":777},{""stimulus"":""img/1to3/8.png"",""time"":890},{""stimulus"":""img/1to3/9.png"",""time"":1000},{""stimulus"":""img/1to3/10.png"",""time"":1110},{""stimulus"":""img/1to3/11.png"",""time"":1222},{""stimulus"":""img/1to3/12.png"",""time"":1333}]","[]"
"image-keyboard-response","183","437964","0.0-5.0-1.89","6092dea4efd6d61350f0fdbf","bdp_cybrbll","Sun Mar 26 2023 08:51:07 GMT-0500 (Central Daylight Time)","705769","3","1","","null","","","","observe","","img/3to2/1.png","null","136","351","0.5","0.1","3","1","",""
"animation","184","439400","0.0-5.0-2.89","6092dea4efd6d61350f0fdbf","bdp_cybrbll","Sun Mar 26 2023 08:51:07 GMT-0500 (Central Daylight Time)","705769","3","1","","","","","","","","","","136","","","","3","1","[{""stimulus"":""img/3to1/1.png"",""time"":110},{""stimulus"":""img/3to1/2.png"",""time"":221},{""stimulus"":""img/3to1/3.png"",""time"":331},{""stimulus"":""img/3to1/4.png"",""time"":444},{""stimulus"":""img/3to1/5.png"",""time"":552},{""stimulus"":""img/3to1/6.png"",""time"":662},{""stimulus"":""img/3to1/7.png"",""time"":772},{""stimulus"":""img/3to1/8.png"",""time"":883},{""stimulus"":""img/3to1/9.png"",""time"":993},{""stimulus"":""img/3to1/10.png"",""time"":1104},{""stimulus"":""img/3to1/11.png"",""time"":1214},{""stimulus"":""img/3to1/12.png"",""time"":1326}]","[]"
"image-keyboard-response","185","439796","0.0-5.0-1.90","6092dea4efd6d61350f0fdbf","bdp_cybrbll","Sun Mar 26 2023 08:51:07 GMT-0500 (Central Daylight Time)","705769","3","1","","null","","","","observe","","img/1to3/1.png","null","135","392","0.5","0.1","1","3","",""
"animation","186","441233","0.0-5.0-2.90","6092dea4efd6d61350f0fdbf","bdp_cybrbll","Sun Mar 26 2023 08:51:07 GMT-0500 (Central Daylight Time)","705769","3","1","","","","","","","","","","135","","","","1","3","[{""stimulus"":""img/1to3/1.png"",""time"":111},{""stimulus"":""img/1to3/2.png"",""time"":222},{""stimulus"":""img/1to3/3.png"",""time"":332},{""stimulus"":""img/1to3/4.png"",""time"":442},{""stimulus"":""img/1to3/5.png"",""time"":553},{""stimulus"":""img/1to3/6.png"",""time"":664},{""stimulus"":""img/1to3/7.png"",""time"":773},{""stimulus"":""img/1to3/8.png"",""time"":884},{""stimulus"":""img/1to3/9.png"",""time"":995},{""stimulus"":""img/1to3/10.png"",""time"":1107},{""stimulus"":""img/1to3/11.png"",""time"":1216},{""stimulus"":""img/1to3/12.png"",""time"":1327}]","[]"
"image-keyboard-response","187","441629","0.0-5.0-1.91","6092dea4efd6d61350f0fdbf","bdp_cybrbll","Sun Mar 26 2023 08:51:07 GMT-0500 (Central Daylight Time)","705769","3","1","","null","","","","observe","","img/3to2/1.png","null","134","394","0.5","0.1","3","1","",""
"animation","188","443060","0.0-5.0-2.91","6092dea4efd6d61350f0fdbf","bdp_cybrbll","Sun Mar 26 2023 08:51:07 GMT-0500 (Central Daylight Time)","705769","3","1","","","","","","","","","","134","","","","3","1","[{""stimulus"":""img/3to1/1.png"",""time"":112},{""stimulus"":""img/3to1/2.png"",""time"":221},{""stimulus"":""img/3to1/3.png"",""time"":331},{""stimulus"":""img/3to1/4.png"",""time"":442},{""stimulus"":""img/3to1/5.png"",""time"":551},{""stimulus"":""img/3to1/6.png"",""time"":662},{""stimulus"":""img/3to1/7.png"",""time"":774},{""stimulus"":""img/3to1/8.png"",""time"":884},{""stimulus"":""img/3to1/9.png"",""time"":993},{""stimulus"":""img/3to1/10.png"",""time"":1105},{""stimulus"":""img/3to1/11.png"",""time"":1212},{""stimulus"":""img/3to1/12.png"",""time"":1321}]","[]"
"image-keyboard-response","189","443376","0.0-5.0-1.92","6092dea4efd6d61350f0fdbf","bdp_cybrbll","Sun Mar 26 2023 08:51:07 GMT-0500 (Central Daylight Time)","705769","3","1","","null","","","","observe","","img/1to3/1.png","null","133","310","0.5","0.1","1","3","",""
"animation","190","444818","0.0-5.0-2.92","6092dea4efd6d61350f0fdbf","bdp_cybrbll","Sun Mar 26 2023 08:51:07 GMT-0500 (Central Daylight Time)","705769","3","1","","","","","","","","","","133","","","","1","3","[{""stimulus"":""img/1to3/1.png"",""time"":112},{""stimulus"":""img/1to3/2.png"",""time"":223},{""stimulus"":""img/1to3/3.png"",""time"":335},{""stimulus"":""img/1to3/4.png"",""time"":445},{""stimulus"":""img/1to3/5.png"",""time"":556},{""stimulus"":""img/1to3/6.png"",""time"":667},{""stimulus"":""img/1to3/7.png"",""time"":778},{""stimulus"":""img/1to3/8.png"",""time"":889},{""stimulus"":""img/1to3/9.png"",""time"":1000},{""stimulus"":""img/1to3/10.png"",""time"":1110},{""stimulus"":""img/1to3/11.png"",""time"":1220},{""stimulus"":""img/1to3/12.png"",""time"":1330}]","[]"
"image-keyboard-response","191","445304","0.0-5.0-1.93","6092dea4efd6d61350f0fdbf","bdp_cybrbll","Sun Mar 26 2023 08:51:07 GMT-0500 (Central Daylight Time)","705769","3","1","","null","","","","observe","","img/3to2/1.png","null","132","474","0.5","0.1","3","2","",""
