"trial_type","trial_index","time_elapsed","internal_node_id","subject_id","task","startTime","totalTime","fairPartner","unfairPartner","view_history","rt","event","trial","time","trialtype","success","stimulus","key_press","throwsLeft","rtDur","pFair","pUnfair","holder","receiver","animation_sequence","responses"
"pavlovia","0","4","0.0-0.0","63ee59dc6e5fbabca14d3d16","bdp_cybrbll","Tue Mar 28 2023 21:30:57 GMT-0400 (Eastern Daylight Time)","455696","3","1","","","","","","","","","","","","","","","","",""
"instructions","1","2191","0.0-1.0","63ee59dc6e5fbabca14d3d16","bdp_cybrbll","Tue Mar 28 2023 21:30:57 GMT-0400 (Eastern Daylight Time)","455696","3","1","[{""page_index"":0,""viewing_time"":2186}]","2186","","","","","","","","","","","","","","",""
"","","","","63ee59dc6e5fbabca14d3d16","bdp_cybrbll","Tue Mar 28 2023 21:30:57 GMT-0400 (Eastern Daylight Time)","455696","3","1","","","fullscreenenter","2","5504","fullscreenenter","","","","","","","","","","",""
"fullscreen","2","6506","0.0-2.0","63ee59dc6e5fbabca14d3d16","bdp_cybrbll","Tue Mar 28 2023 21:30:57 GMT-0400 (Eastern Daylight Time)","455696","3","1","","","","","","","true","","","","","","","","","",""
"instructions","3","39140","0.0-4.0","63ee59dc6e5fbabca14d3d16","bdp_cybrbll","Tue Mar 28 2023 21:30:57 GMT-0400 (Eastern Daylight Time)","455696","3","1","[{""page_index"":0,""viewing_time"":32633}]","32633","","","","","","","","","","","","","","",""
"image-keyboard-response","4","41992","0.0-5.0-1.0","63ee59dc6e5fbabca14d3d16","bdp_cybrbll","Tue Mar 28 2023 21:30:57 GMT-0400 (Eastern Daylight Time)","455696","3","1","","2850","","","","choice","","img/2to1/1.png","1","225","1042","0.5","0.5","2","1","",""
"animation","5","43280","0.0-5.0-2.0","63ee59dc6e5fbabca14d3d16","bdp_cybrbll","Tue Mar 28 2023 21:30:57 GMT-0400 (Eastern Daylight Time)","455696","3","1","","","","","","","","","","225","","","","2","1","[{""stimulus"":""img/2to1/1.png"",""time"":100},{""stimulus"":""img/2to1/2.png"",""time"":199},{""stimulus"":""img/2to1/3.png"",""time"":298},{""stimulus"":""img/2to1/4.png"",""time"":397},{""stimulus"":""img/2to1/5.png"",""time"":496},{""stimulus"":""img/2to1/6.png"",""time"":595},{""stimulus"":""img/2to1/7.png"",""time"":694},{""stimulus"":""img/2to1/8.png"",""time"":793},{""stimulus"":""img/2to1/9.png"",""time"":892},{""stimulus"":""img/2to1/10.png"",""time"":991},{""stimulus"":""img/2to1/11.png"",""time"":1090},{""stimulus"":""img/2to1/12.png"",""time"":1189}]","[]"
"image-keyboard-response","6","43547","0.0-5.0-1.1","63ee59dc6e5fbabca14d3d16","bdp_cybrbll","Tue Mar 28 2023 21:30:57 GMT-0400 (Eastern Daylight Time)","455696","3","1","","null","","","","observe","","img/1to3/1.png","null","224","265","0.5","0.5","1","2","",""
"animation","7","44834","0.0-5.0-2.1","63ee59dc6e5fbabca14d3d16","bdp_cybrbll","Tue Mar 28 2023 21:30:57 GMT-0400 (Eastern Daylight Time)","455696","3","1","","","","","","","","","","224","","","","1","2","[{""stimulus"":""img/1to2/1.png"",""time"":100},{""stimulus"":""img/1to2/2.png"",""time"":199},{""stimulus"":""img/1to2/3.png"",""time"":298},{""stimulus"":""img/1to2/4.png"",""time"":397},{""stimulus"":""img/1to2/5.png"",""time"":496},{""stimulus"":""img/1to2/6.png"",""time"":595},{""stimulus"":""img/1to2/7.png"",""time"":694},{""stimulus"":""img/1to2/8.png"",""time"":792},{""stimulus"":""img/1to2/9.png"",""time"":892},{""stimulus"":""img/1to2/10.png"",""time"":991},{""stimulus"":""img/1to2/11.png"",""time"":1090},{""stimulus"":""img/1to2/12.png"",""time"":1189}]","[]"
"image-keyboard-response","8","45458","0.0-5.0-1.2","63ee59dc6e5fbabca14d3d16","bdp_cybrbll","Tue Mar 28 2023 21:30:57 GMT-0400 (Eastern Daylight Time)","455696","3","1","","622","","","","choice","","img/2to1/1.png","1","223","210","0.5","0.5","2","1","",""
"animation","9","46746","0.0-5.0-2.2","63ee59dc6e5fbabca14d3d16","bdp_cybrbll","Tue Mar 28 2023 21:30:57 GMT-0400 (Eastern Daylight Time)","455696","3","1","","","","","","","","","","223","","","","2","1","[{""stimulus"":""img/2to1/1.png"",""time"":100},{""stimulus"":""img/2to1/2.png"",""time"":199},{""stimulus"":""img/2to1/3.png"",""time"":298},{""stimulus"":""img/2to1/4.png"",""time"":397},{""stimulus"":""img/2to1/5.png"",""time"":497},{""stimulus"":""img/2to1/6.png"",""time"":594},{""stimulus"":""img/2to1/7.png"",""time"":694},{""stimulus"":""img/2to1/8.png"",""time"":793},{""stimulus"":""img/2to1/9.png"",""time"":892},{""stimulus"":""img/2to1/10.png"",""time"":991},{""stimulus"":""img/2to1/11.png"",""time"":1090},{""stimulus"":""img/2to1/12.png"",""time"":1189}]","[]"
"image-keyboard-response","10","47030","0.0-5.0-1.3","63ee59dc6e5fbabca14d3d16","bdp_cybrbll","Tue Mar 28 2023 21:30:57 GMT-0400 (Eastern Daylight Time)","455696","3","1","","null","","","","observe","","img/1to3/1.png","null","222","283","0.5","0.5","1","3","",""
"animation","11","48324","0.0-5.0-2.3","63ee59dc6e5fbabca14d3d16","bdp_cybrbll","Tue Mar 28 2023 21:30:57 GMT-0400 (Eastern Daylight Time)","455696","3","1","","","","","","","","","","222","","","","1","3","[{""stimulus"":""img/1to3/1.png"",""time"":100},{""stimulus"":""img/1to3/2.png"",""time"":198},{""stimulus"":""img/1to3/3.png"",""time"":298},{""stimulus"":""img/1to3/4.png"",""time"":397},{""stimulus"":""img/1to3/5.png"",""time"":496},{""stimulus"":""img/1to3/6.png"",""time"":594},{""stimulus"":""img/1to3/7.png"",""time"":694},{""stimulus"":""img/1to3/8.png"",""time"":792},{""stimulus"":""img/1to3/9.png"",""time"":892},{""stimulus"":""img/1to3/10.png"",""time"":1001},{""stimulus"":""img/1to3/11.png"",""time"":1104},{""stimulus"":""img/1to3/12.png"",""time"":1198}]","[]"
"image-keyboard-response","12","48684","0.0-5.0-1.4","63ee59dc6e5fbabca14d3d16","bdp_cybrbll","Tue Mar 28 2023 21:30:57 GMT-0400 (Eastern Daylight Time)","455696","3","1","","null","","","","observe","","img/3to2/1.png","null","221","359","0.5","0.5","3","2","",""
"animation","13","49972","0.0-5.0-2.4","63ee59dc6e5fbabca14d3d16","bdp_cybrbll","Tue Mar 28 2023 21:30:57 GMT-0400 (Eastern Daylight Time)","455696","3","1","","","","","","","","","","221","","","","3","2","[{""stimulus"":""img/3to2/1.png"",""time"":101},{""stimulus"":""img/3to2/2.png"",""time"":199},{""stimulus"":""img/3to2/3.png"",""time"":298},{""stimulus"":""img/3to2/4.png"",""time"":397},{""stimulus"":""img/3to2/5.png"",""time"":496},{""stimulus"":""img/3to2/6.png"",""time"":595},{""stimulus"":""img/3to2/7.png"",""time"":694},{""stimulus"":""img/3to2/8.png"",""time"":793},{""stimulus"":""img/3to2/9.png"",""time"":892},{""stimulus"":""img/3to2/10.png"",""time"":991},{""stimulus"":""img/3to2/11.png"",""time"":1090},{""stimulus"":""img/3to2/12.png"",""time"":1189}]","[]"
"image-keyboard-response","14","50414","0.0-5.0-1.5","63ee59dc6e5fbabca14d3d16","bdp_cybrbll","Tue Mar 28 2023 21:30:57 GMT-0400 (Eastern Daylight Time)","455696","3","1","","441","","","","choice","","img/2to1/1.png","1","220","423","0.5","0.5","2","1","",""
"animation","15","51702","0.0-5.0-2.5","63ee59dc6e5fbabca14d3d16","bdp_cybrbll","Tue Mar 28 2023 21:30:57 GMT-0400 (Eastern Daylight Time)","455696","3","1","","","","","","","","","","220","","","","2","1","[{""stimulus"":""img/2to1/1.png"",""time"":100},{""stimulus"":""img/2to1/2.png"",""time"":199},{""stimulus"":""img/2to1/3.png"",""time"":298},{""stimulus"":""img/2to1/4.png"",""time"":397},{""stimulus"":""img/2to1/5.png"",""time"":496},{""stimulus"":""img/2to1/6.png"",""time"":595},{""stimulus"":""img/2to1/7.png"",""time"":694},{""stimulus"":""img/2to1/8.png"",""time"":794},{""stimulus"":""img/2to1/9.png"",""time"":892},{""stimulus"":""img/2to1/10.png"",""time"":991},{""stimulus"":""img/2to1/11.png"",""time"":1090},{""stimulus"":""img/2to1/12.png"",""time"":1189}]","[]"
"image-keyboard-response","16","52245","0.0-5.0-1.6","63ee59dc6e5fbabca14d3d16","bdp_cybrbll","Tue Mar 28 2023 21:30:57 GMT-0400 (Eastern Daylight Time)","455696","3","1","","null","","","","observe","","img/1to3/1.png","null","219","542","0.5","0.5","1","3","",""
"animation","17","53532","0.0-5.0-2.6","63ee59dc6e5fbabca14d3d16","bdp_cybrbll","Tue Mar 28 2023 21:30:57 GMT-0400 (Eastern Daylight Time)","455696","3","1","","","","","","","","","","219","","","","1","3","[{""stimulus"":""img/1to3/1.png"",""time"":99},{""stimulus"":""img/1to3/2.png"",""time"":199},{""stimulus"":""img/1to3/3.png"",""time"":298},{""stimulus"":""img/1to3/4.png"",""time"":397},{""stimulus"":""img/1to3/5.png"",""time"":496},{""stimulus"":""img/1to3/6.png"",""time"":595},{""stimulus"":""img/1to3/7.png"",""time"":694},{""stimulus"":""img/1to3/8.png"",""time"":793},{""stimulus"":""img/1to3/9.png"",""time"":893},{""stimulus"":""img/1to3/10.png"",""time"":992},{""stimulus"":""img/1to3/11.png"",""time"":1090},{""stimulus"":""img/1to3/12.png"",""time"":1189}]","[]"
"image-keyboard-response","18","53896","0.0-5.0-1.7","63ee59dc6e5fbabca14d3d16","bdp_cybrbll","Tue Mar 28 2023 21:30:57 GMT-0400 (Eastern Daylight Time)","455696","3","1","","null","","","","observe","","img/3to2/1.png","null","218","362","0.5","0.5","3","1","",""
"animation","19","55184","0.0-5.0-2.7","63ee59dc6e5fbabca14d3d16","bdp_cybrbll","Tue Mar 28 2023 21:30:57 GMT-0400 (Eastern Daylight Time)","455696","3","1","","","","","","","","","","218","","","","3","1","[{""stimulus"":""img/3to1/1.png"",""time"":100},{""stimulus"":""img/3to1/2.png"",""time"":199},{""stimulus"":""img/3to1/3.png"",""time"":297},{""stimulus"":""img/3to1/4.png"",""time"":397},{""stimulus"":""img/3to1/5.png"",""time"":496},{""stimulus"":""img/3to1/6.png"",""time"":595},{""stimulus"":""img/3to1/7.png"",""time"":694},{""stimulus"":""img/3to1/8.png"",""time"":793},{""stimulus"":""img/3to1/9.png"",""time"":893},{""stimulus"":""img/3to1/10.png"",""time"":991},{""stimulus"":""img/3to1/11.png"",""time"":1090},{""stimulus"":""img/3to1/12.png"",""time"":1188}]","[]"
"image-keyboard-response","20","55696","0.0-5.0-1.8","63ee59dc6e5fbabca14d3d16","bdp_cybrbll","Tue Mar 28 2023 21:30:57 GMT-0400 (Eastern Daylight Time)","455696","3","1","","null","","","","observe","","img/1to3/1.png","null","217","511","0.5","0.5","1","3","",""
"animation","21","56984","0.0-5.0-2.8","63ee59dc6e5fbabca14d3d16","bdp_cybrbll","Tue Mar 28 2023 21:30:57 GMT-0400 (Eastern Daylight Time)","455696","3","1","","","","","","","","","","217","","","","1","3","[{""stimulus"":""img/1to3/1.png"",""time"":101},{""stimulus"":""img/1to3/2.png"",""time"":200},{""stimulus"":""img/1to3/3.png"",""time"":298},{""stimulus"":""img/1to3/4.png"",""time"":398},{""stimulus"":""img/1to3/5.png"",""time"":497},{""stimulus"":""img/1to3/6.png"",""time"":596},{""stimulus"":""img/1to3/7.png"",""time"":694},{""stimulus"":""img/1to3/8.png"",""time"":793},{""stimulus"":""img/1to3/9.png"",""time"":893},{""stimulus"":""img/1to3/10.png"",""time"":992},{""stimulus"":""img/1to3/11.png"",""time"":1090},{""stimulus"":""img/1to3/12.png"",""time"":1189}]","[]"
"image-keyboard-response","22","57570","0.0-5.0-1.9","63ee59dc6e5fbabca14d3d16","bdp_cybrbll","Tue Mar 28 2023 21:30:57 GMT-0400 (Eastern Daylight Time)","455696","3","1","","null","","","","observe","","img/3to2/1.png","null","216","585","0.5","0.5","3","1","",""
"animation","23","58858","0.0-5.0-2.9","63ee59dc6e5fbabca14d3d16","bdp_cybrbll","Tue Mar 28 2023 21:30:57 GMT-0400 (Eastern Daylight Time)","455696","3","1","","","","","","","","","","216","","","","3","1","[{""stimulus"":""img/3to1/1.png"",""time"":101},{""stimulus"":""img/3to1/2.png"",""time"":202},{""stimulus"":""img/3to1/3.png"",""time"":299},{""stimulus"":""img/3to1/4.png"",""time"":397},{""stimulus"":""img/3to1/5.png"",""time"":496},{""stimulus"":""img/3to1/6.png"",""time"":595},{""stimulus"":""img/3to1/7.png"",""time"":694},{""stimulus"":""img/3to1/8.png"",""time"":793},{""stimulus"":""img/3to1/9.png"",""time"":893},{""stimulus"":""img/3to1/10.png"",""time"":991},{""stimulus"":""img/3to1/11.png"",""time"":1090},{""stimulus"":""img/3to1/12.png"",""time"":1189}]","[]"
"image-keyboard-response","24","59361","0.0-5.0-1.10","63ee59dc6e5fbabca14d3d16","bdp_cybrbll","Tue Mar 28 2023 21:30:57 GMT-0400 (Eastern Daylight Time)","455696","3","1","","null","","","","observe","","img/1to3/1.png","null","215","502","0.5","0.5","1","2","",""
"animation","25","60649","0.0-5.0-2.10","63ee59dc6e5fbabca14d3d16","bdp_cybrbll","Tue Mar 28 2023 21:30:57 GMT-0400 (Eastern Daylight Time)","455696","3","1","","","","","","","","","","215","","","","1","2","[{""stimulus"":""img/1to2/1.png"",""time"":100},{""stimulus"":""img/1to2/2.png"",""time"":199},{""stimulus"":""img/1to2/3.png"",""time"":298},{""stimulus"":""img/1to2/4.png"",""time"":396},{""stimulus"":""img/1to2/5.png"",""time"":496},{""stimulus"":""img/1to2/6.png"",""time"":595},{""stimulus"":""img/1to2/7.png"",""time"":694},{""stimulus"":""img/1to2/8.png"",""time"":793},{""stimulus"":""img/1to2/9.png"",""time"":893},{""stimulus"":""img/1to2/10.png"",""time"":991},{""stimulus"":""img/1to2/11.png"",""time"":1090},{""stimulus"":""img/1to2/12.png"",""time"":1189}]","[]"
"image-keyboard-response","26","60954","0.0-5.0-1.11","63ee59dc6e5fbabca14d3d16","bdp_cybrbll","Tue Mar 28 2023 21:30:57 GMT-0400 (Eastern Daylight Time)","455696","3","1","","305","","","","choice","","img/2to1/1.png","2","214","394","0.5","0.5","2","3","",""
"animation","27","62242","0.0-5.0-2.11","63ee59dc6e5fbabca14d3d16","bdp_cybrbll","Tue Mar 28 2023 21:30:57 GMT-0400 (Eastern Daylight Time)","455696","3","1","","","","","","","","","","214","","","","2","3","[{""stimulus"":""img/2to3/1.png"",""time"":100},{""stimulus"":""img/2to3/2.png"",""time"":199},{""stimulus"":""img/2to3/3.png"",""time"":298},{""stimulus"":""img/2to3/4.png"",""time"":397},{""stimulus"":""img/2to3/5.png"",""time"":495},{""stimulus"":""img/2to3/6.png"",""time"":594},{""stimulus"":""img/2to3/7.png"",""time"":694},{""stimulus"":""img/2to3/8.png"",""time"":793},{""stimulus"":""img/2to3/9.png"",""time"":891},{""stimulus"":""img/2to3/10.png"",""time"":991},{""stimulus"":""img/2to3/11.png"",""time"":1089},{""stimulus"":""img/2to3/12.png"",""time"":1189}]","[]"
"image-keyboard-response","28","62509","0.0-5.0-1.12","63ee59dc6e5fbabca14d3d16","bdp_cybrbll","Tue Mar 28 2023 21:30:57 GMT-0400 (Eastern Daylight Time)","455696","3","1","","null","","","","observe","","img/3to2/1.png","null","213","266","0.5","0.5","3","1","",""
"animation","29","63797","0.0-5.0-2.12","63ee59dc6e5fbabca14d3d16","bdp_cybrbll","Tue Mar 28 2023 21:30:57 GMT-0400 (Eastern Daylight Time)","455696","3","1","","","","","","","","","","213","","","","3","1","[{""stimulus"":""img/3to1/1.png"",""time"":100},{""stimulus"":""img/3to1/2.png"",""time"":198},{""stimulus"":""img/3to1/3.png"",""time"":298},{""stimulus"":""img/3to1/4.png"",""time"":398},{""stimulus"":""img/3to1/5.png"",""time"":496},{""stimulus"":""img/3to1/6.png"",""time"":595},{""stimulus"":""img/3to1/7.png"",""time"":695},{""stimulus"":""img/3to1/8.png"",""time"":793},{""stimulus"":""img/3to1/9.png"",""time"":892},{""stimulus"":""img/3to1/10.png"",""time"":991},{""stimulus"":""img/3to1/11.png"",""time"":1090},{""stimulus"":""img/3to1/12.png"",""time"":1189}]","[]"
"image-keyboard-response","30","64084","0.0-5.0-1.13","63ee59dc6e5fbabca14d3d16","bdp_cybrbll","Tue Mar 28 2023 21:30:57 GMT-0400 (Eastern Daylight Time)","455696","3","1","","null","","","","observe","","img/1to3/1.png","null","212","286","0.5","0.5","1","3","",""
"animation","31","65371","0.0-5.0-2.13","63ee59dc6e5fbabca14d3d16","bdp_cybrbll","Tue Mar 28 2023 21:30:57 GMT-0400 (Eastern Daylight Time)","455696","3","1","","","","","","","","","","212","","","","1","3","[{""stimulus"":""img/1to3/1.png"",""time"":100},{""stimulus"":""img/1to3/2.png"",""time"":199},{""stimulus"":""img/1to3/3.png"",""time"":304},{""stimulus"":""img/1to3/4.png"",""time"":405},{""stimulus"":""img/1to3/5.png"",""time"":501},{""stimulus"":""img/1to3/6.png"",""time"":594},{""stimulus"":""img/1to3/7.png"",""time"":694},{""stimulus"":""img/1to3/8.png"",""time"":800},{""stimulus"":""img/1to3/9.png"",""time"":892},{""stimulus"":""img/1to3/10.png"",""time"":990},{""stimulus"":""img/1to3/11.png"",""time"":1090},{""stimulus"":""img/1to3/12.png"",""time"":1189}]","[]"
"image-keyboard-response","32","66086","0.0-5.0-1.14","63ee59dc6e5fbabca14d3d16","bdp_cybrbll","Tue Mar 28 2023 21:30:57 GMT-0400 (Eastern Daylight Time)","455696","3","1","","null","","","","observe","","img/3to2/1.png","null","211","701","0.5","0.5","3","2","",""
"animation","33","67374","0.0-5.0-2.14","63ee59dc6e5fbabca14d3d16","bdp_cybrbll","Tue Mar 28 2023 21:30:57 GMT-0400 (Eastern Daylight Time)","455696","3","1","","","","","","","","","","211","","","","3","2","[{""stimulus"":""img/3to2/1.png"",""time"":101},{""stimulus"":""img/3to2/2.png"",""time"":199},{""stimulus"":""img/3to2/3.png"",""time"":298},{""stimulus"":""img/3to2/4.png"",""time"":397},{""stimulus"":""img/3to2/5.png"",""time"":496},{""stimulus"":""img/3to2/6.png"",""time"":594},{""stimulus"":""img/3to2/7.png"",""time"":693},{""stimulus"":""img/3to2/8.png"",""time"":793},{""stimulus"":""img/3to2/9.png"",""time"":891},{""stimulus"":""img/3to2/10.png"",""time"":991},{""stimulus"":""img/3to2/11.png"",""time"":1089},{""stimulus"":""img/3to2/12.png"",""time"":1203}]","[]"
"image-keyboard-response","34","68240","0.0-5.0-1.15","63ee59dc6e5fbabca14d3d16","bdp_cybrbll","Tue Mar 28 2023 21:30:57 GMT-0400 (Eastern Daylight Time)","455696","3","1","","865","","","","choice","","img/2to1/1.png","2","210","311","0.5","0.5","2","3","",""
"animation","35","69527","0.0-5.0-2.15","63ee59dc6e5fbabca14d3d16","bdp_cybrbll","Tue Mar 28 2023 21:30:57 GMT-0400 (Eastern Daylight Time)","455696","3","1","","","","","","","","","","210","","","","2","3","[{""stimulus"":""img/2to3/1.png"",""time"":101},{""stimulus"":""img/2to3/2.png"",""time"":199},{""stimulus"":""img/2to3/3.png"",""time"":298},{""stimulus"":""img/2to3/4.png"",""time"":397},{""stimulus"":""img/2to3/5.png"",""time"":496},{""stimulus"":""img/2to3/6.png"",""time"":595},{""stimulus"":""img/2to3/7.png"",""time"":693},{""stimulus"":""img/2to3/8.png"",""time"":793},{""stimulus"":""img/2to3/9.png"",""time"":892},{""stimulus"":""img/2to3/10.png"",""time"":992},{""stimulus"":""img/2to3/11.png"",""time"":1100},{""stimulus"":""img/2to3/12.png"",""time"":1189}]","[]"
"image-keyboard-response","36","70202","0.0-5.0-1.16","63ee59dc6e5fbabca14d3d16","bdp_cybrbll","Tue Mar 28 2023 21:30:57 GMT-0400 (Eastern Daylight Time)","455696","3","1","","null","","","","observe","","img/3to2/1.png","null","209","674","0.5","0.5","3","1","",""
"animation","37","71490","0.0-5.0-2.16","63ee59dc6e5fbabca14d3d16","bdp_cybrbll","Tue Mar 28 2023 21:30:57 GMT-0400 (Eastern Daylight Time)","455696","3","1","","","","","","","","","","209","","","","3","1","[{""stimulus"":""img/3to1/1.png"",""time"":100},{""stimulus"":""img/3to1/2.png"",""time"":198},{""stimulus"":""img/3to1/3.png"",""time"":298},{""stimulus"":""img/3to1/4.png"",""time"":397},{""stimulus"":""img/3to1/5.png"",""time"":496},{""stimulus"":""img/3to1/6.png"",""time"":595},{""stimulus"":""img/3to1/7.png"",""time"":694},{""stimulus"":""img/3to1/8.png"",""time"":793},{""stimulus"":""img/3to1/9.png"",""time"":892},{""stimulus"":""img/3to1/10.png"",""time"":991},{""stimulus"":""img/3to1/11.png"",""time"":1090},{""stimulus"":""img/3to1/12.png"",""time"":1189}]","[]"
"image-keyboard-response","38","71682","0.0-5.0-1.17","63ee59dc6e5fbabca14d3d16","bdp_cybrbll","Tue Mar 28 2023 21:30:57 GMT-0400 (Eastern Daylight Time)","455696","3","1","","null","","","","observe","","img/1to3/1.png","null","208","191","0.5","0.5","1","3","",""
"animation","39","72971","0.0-5.0-2.17","63ee59dc6e5fbabca14d3d16","bdp_cybrbll","Tue Mar 28 2023 21:30:57 GMT-0400 (Eastern Daylight Time)","455696","3","1","","","","","","","","","","208","","","","1","3","[{""stimulus"":""img/1to3/1.png"",""time"":100},{""stimulus"":""img/1to3/2.png"",""time"":199},{""stimulus"":""img/1to3/3.png"",""time"":299},{""stimulus"":""img/1to3/4.png"",""time"":397},{""stimulus"":""img/1to3/5.png"",""time"":497},{""stimulus"":""img/1to3/6.png"",""time"":596},{""stimulus"":""img/1to3/7.png"",""time"":695},{""stimulus"":""img/1to3/8.png"",""time"":794},{""stimulus"":""img/1to3/9.png"",""time"":892},{""stimulus"":""img/1to3/10.png"",""time"":991},{""stimulus"":""img/1to3/11.png"",""time"":1091},{""stimulus"":""img/1to3/12.png"",""time"":1195}]","[]"
"image-keyboard-response","40","73404","0.0-5.0-1.18","63ee59dc6e5fbabca14d3d16","bdp_cybrbll","Tue Mar 28 2023 21:30:57 GMT-0400 (Eastern Daylight Time)","455696","3","1","","null","","","","observe","","img/3to2/1.png","null","207","432","0.5","0.5","3","2","",""
"animation","41","74691","0.0-5.0-2.18","63ee59dc6e5fbabca14d3d16","bdp_cybrbll","Tue Mar 28 2023 21:30:57 GMT-0400 (Eastern Daylight Time)","455696","3","1","","","","","","","","","","207","","","","3","2","[{""stimulus"":""img/3to2/1.png"",""time"":100},{""stimulus"":""img/3to2/2.png"",""time"":200},{""stimulus"":""img/3to2/3.png"",""time"":298},{""stimulus"":""img/3to2/4.png"",""time"":397},{""stimulus"":""img/3to2/5.png"",""time"":495},{""stimulus"":""img/3to2/6.png"",""time"":595},{""stimulus"":""img/3to2/7.png"",""time"":694},{""stimulus"":""img/3to2/8.png"",""time"":793},{""stimulus"":""img/3to2/9.png"",""time"":892},{""stimulus"":""img/3to2/10.png"",""time"":990},{""stimulus"":""img/3to2/11.png"",""time"":1094},{""stimulus"":""img/3to2/12.png"",""time"":1188}]","[]"
"image-keyboard-response","42","76849","0.0-5.0-1.19","63ee59dc6e5fbabca14d3d16","bdp_cybrbll","Tue Mar 28 2023 21:30:57 GMT-0400 (Eastern Daylight Time)","455696","3","1","","2157","","","","choice","","img/2to1/1.png","1","206","1203","0.5","0.5","2","1","",""
"animation","43","78138","0.0-5.0-2.19","63ee59dc6e5fbabca14d3d16","bdp_cybrbll","Tue Mar 28 2023 21:30:57 GMT-0400 (Eastern Daylight Time)","455696","3","1","","","","","","","","","","206","","","","2","1","[{""stimulus"":""img/2to1/1.png"",""time"":100},{""stimulus"":""img/2to1/2.png"",""time"":199},{""stimulus"":""img/2to1/3.png"",""time"":299},{""stimulus"":""img/2to1/4.png"",""time"":397},{""stimulus"":""img/2to1/5.png"",""time"":496},{""stimulus"":""img/2to1/6.png"",""time"":595},{""stimulus"":""img/2to1/7.png"",""time"":694},{""stimulus"":""img/2to1/8.png"",""time"":793},{""stimulus"":""img/2to1/9.png"",""time"":892},{""stimulus"":""img/2to1/10.png"",""time"":991},{""stimulus"":""img/2to1/11.png"",""time"":1090},{""stimulus"":""img/2to1/12.png"",""time"":1189}]","[]"
"image-keyboard-response","44","79396","0.0-5.0-1.20","63ee59dc6e5fbabca14d3d16","bdp_cybrbll","Tue Mar 28 2023 21:30:57 GMT-0400 (Eastern Daylight Time)","455696","3","1","","null","","","","observe","","img/1to3/1.png","null","205","1257","0.5","0.5","1","3","",""
"animation","45","80683","0.0-5.0-2.20","63ee59dc6e5fbabca14d3d16","bdp_cybrbll","Tue Mar 28 2023 21:30:57 GMT-0400 (Eastern Daylight Time)","455696","3","1","","","","","","","","","","205","","","","1","3","[{""stimulus"":""img/1to3/1.png"",""time"":99},{""stimulus"":""img/1to3/2.png"",""time"":198},{""stimulus"":""img/1to3/3.png"",""time"":298},{""stimulus"":""img/1to3/4.png"",""time"":397},{""stimulus"":""img/1to3/5.png"",""time"":495},{""stimulus"":""img/1to3/6.png"",""time"":595},{""stimulus"":""img/1to3/7.png"",""time"":694},{""stimulus"":""img/1to3/8.png"",""time"":793},{""stimulus"":""img/1to3/9.png"",""time"":891},{""stimulus"":""img/1to3/10.png"",""time"":993},{""stimulus"":""img/1to3/11.png"",""time"":1090},{""stimulus"":""img/1to3/12.png"",""time"":1188}]","[]"
"image-keyboard-response","46","81158","0.0-5.0-1.21","63ee59dc6e5fbabca14d3d16","bdp_cybrbll","Tue Mar 28 2023 21:30:57 GMT-0400 (Eastern Daylight Time)","455696","3","1","","null","","","","observe","","img/3to2/1.png","null","204","473","0.5","0.5","3","2","",""
"animation","47","82446","0.0-5.0-2.21","63ee59dc6e5fbabca14d3d16","bdp_cybrbll","Tue Mar 28 2023 21:30:57 GMT-0400 (Eastern Daylight Time)","455696","3","1","","","","","","","","","","204","","","","3","2","[{""stimulus"":""img/3to2/1.png"",""time"":100},{""stimulus"":""img/3to2/2.png"",""time"":199},{""stimulus"":""img/3to2/3.png"",""time"":298},{""stimulus"":""img/3to2/4.png"",""time"":397},{""stimulus"":""img/3to2/5.png"",""time"":497},{""stimulus"":""img/3to2/6.png"",""time"":595},{""stimulus"":""img/3to2/7.png"",""time"":694},{""stimulus"":""img/3to2/8.png"",""time"":793},{""stimulus"":""img/3to2/9.png"",""time"":892},{""stimulus"":""img/3to2/10.png"",""time"":991},{""stimulus"":""img/3to2/11.png"",""time"":1090},{""stimulus"":""img/3to2/12.png"",""time"":1188}]","[]"
"image-keyboard-response","48","84025","0.0-5.0-1.22","63ee59dc6e5fbabca14d3d16","bdp_cybrbll","Tue Mar 28 2023 21:30:57 GMT-0400 (Eastern Daylight Time)","455696","3","1","","1579","","","","choice","","img/2to1/1.png","2","203","355","0.5","0.5","2","3","",""
"animation","49","85313","0.0-5.0-2.22","63ee59dc6e5fbabca14d3d16","bdp_cybrbll","Tue Mar 28 2023 21:30:57 GMT-0400 (Eastern Daylight Time)","455696","3","1","","","","","","","","","","203","","","","2","3","[{""stimulus"":""img/2to3/1.png"",""time"":100},{""stimulus"":""img/2to3/2.png"",""time"":199},{""stimulus"":""img/2to3/3.png"",""time"":298},{""stimulus"":""img/2to3/4.png"",""time"":398},{""stimulus"":""img/2to3/5.png"",""time"":497},{""stimulus"":""img/2to3/6.png"",""time"":596},{""stimulus"":""img/2to3/7.png"",""time"":694},{""stimulus"":""img/2to3/8.png"",""time"":800},{""stimulus"":""img/2to3/9.png"",""time"":892},{""stimulus"":""img/2to3/10.png"",""time"":991},{""stimulus"":""img/2to3/11.png"",""time"":1090},{""stimulus"":""img/2to3/12.png"",""time"":1190}]","[]"
"image-keyboard-response","50","85693","0.0-5.0-1.23","63ee59dc6e5fbabca14d3d16","bdp_cybrbll","Tue Mar 28 2023 21:30:57 GMT-0400 (Eastern Daylight Time)","455696","3","1","","null","","","","observe","","img/3to2/1.png","null","202","377","0.5","0.5","3","1","",""
"animation","51","86991","0.0-5.0-2.23","63ee59dc6e5fbabca14d3d16","bdp_cybrbll","Tue Mar 28 2023 21:30:57 GMT-0400 (Eastern Daylight Time)","455696","3","1","","","","","","","","","","202","","","","3","1","[{""stimulus"":""img/3to1/1.png"",""time"":100},{""stimulus"":""img/3to1/2.png"",""time"":199},{""stimulus"":""img/3to1/3.png"",""time"":299},{""stimulus"":""img/3to1/4.png"",""time"":397},{""stimulus"":""img/3to1/5.png"",""time"":496},{""stimulus"":""img/3to1/6.png"",""time"":595},{""stimulus"":""img/3to1/7.png"",""time"":694},{""stimulus"":""img/3to1/8.png"",""time"":792},{""stimulus"":""img/3to1/9.png"",""time"":891},{""stimulus"":""img/3to1/10.png"",""time"":1004},{""stimulus"":""img/3to1/11.png"",""time"":1089},{""stimulus"":""img/3to1/12.png"",""time"":1189}]","[]"
"image-keyboard-response","52","87149","0.0-5.0-1.24","63ee59dc6e5fbabca14d3d16","bdp_cybrbll","Tue Mar 28 2023 21:30:57 GMT-0400 (Eastern Daylight Time)","455696","3","1","","null","","","","observe","","img/1to3/1.png","null","201","157","0.5","0.5","1","3","",""
"animation","53","88437","0.0-5.0-2.24","63ee59dc6e5fbabca14d3d16","bdp_cybrbll","Tue Mar 28 2023 21:30:57 GMT-0400 (Eastern Daylight Time)","455696","3","1","","","","","","","","","","201","","","","1","3","[{""stimulus"":""img/1to3/1.png"",""time"":101},{""stimulus"":""img/1to3/2.png"",""time"":199},{""stimulus"":""img/1to3/3.png"",""time"":298},{""stimulus"":""img/1to3/4.png"",""time"":397},{""stimulus"":""img/1to3/5.png"",""time"":496},{""stimulus"":""img/1to3/6.png"",""time"":595},{""stimulus"":""img/1to3/7.png"",""time"":694},{""stimulus"":""img/1to3/8.png"",""time"":793},{""stimulus"":""img/1to3/9.png"",""time"":893},{""stimulus"":""img/1to3/10.png"",""time"":992},{""stimulus"":""img/1to3/11.png"",""time"":1090},{""stimulus"":""img/1to3/12.png"",""time"":1190}]","[]"
"image-keyboard-response","54","88989","0.0-5.0-1.25","63ee59dc6e5fbabca14d3d16","bdp_cybrbll","Tue Mar 28 2023 21:30:57 GMT-0400 (Eastern Daylight Time)","455696","3","1","","null","","","","observe","","img/3to2/1.png","null","200","539","0.5","0.5","3","2","",""
"animation","55","90276","0.0-5.0-2.25","63ee59dc6e5fbabca14d3d16","bdp_cybrbll","Tue Mar 28 2023 21:30:57 GMT-0400 (Eastern Daylight Time)","455696","3","1","","","","","","","","","","200","","","","3","2","[{""stimulus"":""img/3to2/1.png"",""time"":113},{""stimulus"":""img/3to2/2.png"",""time"":203},{""stimulus"":""img/3to2/3.png"",""time"":298},{""stimulus"":""img/3to2/4.png"",""time"":397},{""stimulus"":""img/3to2/5.png"",""time"":496},{""stimulus"":""img/3to2/6.png"",""time"":595},{""stimulus"":""img/3to2/7.png"",""time"":697},{""stimulus"":""img/3to2/8.png"",""time"":792},{""stimulus"":""img/3to2/9.png"",""time"":897},{""stimulus"":""img/3to2/10.png"",""time"":991},{""stimulus"":""img/3to2/11.png"",""time"":1090},{""stimulus"":""img/3to2/12.png"",""time"":1189}]","[]"
"image-keyboard-response","56","90839","0.0-5.0-1.26","63ee59dc6e5fbabca14d3d16","bdp_cybrbll","Tue Mar 28 2023 21:30:57 GMT-0400 (Eastern Daylight Time)","455696","3","1","","562","","","","choice","","img/2to1/1.png","1","199","149","0.5","0.5","2","1","",""
"animation","57","92127","0.0-5.0-2.26","63ee59dc6e5fbabca14d3d16","bdp_cybrbll","Tue Mar 28 2023 21:30:57 GMT-0400 (Eastern Daylight Time)","455696","3","1","","","","","","","","","","199","","","","2","1","[{""stimulus"":""img/2to1/1.png"",""time"":99},{""stimulus"":""img/2to1/2.png"",""time"":198},{""stimulus"":""img/2to1/3.png"",""time"":297},{""stimulus"":""img/2to1/4.png"",""time"":397},{""stimulus"":""img/2to1/5.png"",""time"":495},{""stimulus"":""img/2to1/6.png"",""time"":594},{""stimulus"":""img/2to1/7.png"",""time"":693},{""stimulus"":""img/2to1/8.png"",""time"":792},{""stimulus"":""img/2to1/9.png"",""time"":892},{""stimulus"":""img/2to1/10.png"",""time"":996},{""stimulus"":""img/2to1/11.png"",""time"":1089},{""stimulus"":""img/2to1/12.png"",""time"":1197}]","[]"
"image-keyboard-response","58","92486","0.0-5.0-1.27","63ee59dc6e5fbabca14d3d16","bdp_cybrbll","Tue Mar 28 2023 21:30:57 GMT-0400 (Eastern Daylight Time)","455696","3","1","","null","","","","observe","","img/1to3/1.png","null","198","358","0.5","0.5","1","3","",""
"animation","59","93774","0.0-5.0-2.27","63ee59dc6e5fbabca14d3d16","bdp_cybrbll","Tue Mar 28 2023 21:30:57 GMT-0400 (Eastern Daylight Time)","455696","3","1","","","","","","","","","","198","","","","1","3","[{""stimulus"":""img/1to3/1.png"",""time"":100},{""stimulus"":""img/1to3/2.png"",""time"":199},{""stimulus"":""img/1to3/3.png"",""time"":298},{""stimulus"":""img/1to3/4.png"",""time"":397},{""stimulus"":""img/1to3/5.png"",""time"":496},{""stimulus"":""img/1to3/6.png"",""time"":603},{""stimulus"":""img/1to3/7.png"",""time"":694},{""stimulus"":""img/1to3/8.png"",""time"":793},{""stimulus"":""img/1to3/9.png"",""time"":892},{""stimulus"":""img/1to3/10.png"",""time"":992},{""stimulus"":""img/1to3/11.png"",""time"":1097},{""stimulus"":""img/1to3/12.png"",""time"":1189}]","[]"
"image-keyboard-response","60","94047","0.0-5.0-1.28","63ee59dc6e5fbabca14d3d16","bdp_cybrbll","Tue Mar 28 2023 21:30:57 GMT-0400 (Eastern Daylight Time)","455696","3","1","","null","","","","observe","","img/3to2/1.png","null","197","266","0.5","0.5","3","1","",""
"animation","61","95335","0.0-5.0-2.28","63ee59dc6e5fbabca14d3d16","bdp_cybrbll","Tue Mar 28 2023 21:30:57 GMT-0400 (Eastern Daylight Time)","455696","3","1","","","","","","","","","","197","","","","3","1","[{""stimulus"":""img/3to1/1.png"",""time"":100},{""stimulus"":""img/3to1/2.png"",""time"":198},{""stimulus"":""img/3to1/3.png"",""time"":297},{""stimulus"":""img/3to1/4.png"",""time"":397},{""stimulus"":""img/3to1/5.png"",""time"":496},{""stimulus"":""img/3to1/6.png"",""time"":595},{""stimulus"":""img/3to1/7.png"",""time"":693},{""stimulus"":""img/3to1/8.png"",""time"":793},{""stimulus"":""img/3to1/9.png"",""time"":892},{""stimulus"":""img/3to1/10.png"",""time"":991},{""stimulus"":""img/3to1/11.png"",""time"":1090},{""stimulus"":""img/3to1/12.png"",""time"":1189}]","[]"
"image-keyboard-response","62","95722","0.0-5.0-1.29","63ee59dc6e5fbabca14d3d16","bdp_cybrbll","Tue Mar 28 2023 21:30:57 GMT-0400 (Eastern Daylight Time)","455696","3","1","","null","","","","observe","","img/1to3/1.png","null","196","386","0.5","0.5","1","2","",""
"animation","63","97010","0.0-5.0-2.29","63ee59dc6e5fbabca14d3d16","bdp_cybrbll","Tue Mar 28 2023 21:30:57 GMT-0400 (Eastern Daylight Time)","455696","3","1","","","","","","","","","","196","","","","1","2","[{""stimulus"":""img/1to2/1.png"",""time"":101},{""stimulus"":""img/1to2/2.png"",""time"":199},{""stimulus"":""img/1to2/3.png"",""time"":298},{""stimulus"":""img/1to2/4.png"",""time"":399},{""stimulus"":""img/1to2/5.png"",""time"":496},{""stimulus"":""img/1to2/6.png"",""time"":595},{""stimulus"":""img/1to2/7.png"",""time"":694},{""stimulus"":""img/1to2/8.png"",""time"":793},{""stimulus"":""img/1to2/9.png"",""time"":892},{""stimulus"":""img/1to2/10.png"",""time"":991},{""stimulus"":""img/1to2/11.png"",""time"":1090},{""stimulus"":""img/1to2/12.png"",""time"":1189}]","[]"
"image-keyboard-response","64","97371","0.0-5.0-1.30","63ee59dc6e5fbabca14d3d16","bdp_cybrbll","Tue Mar 28 2023 21:30:57 GMT-0400 (Eastern Daylight Time)","455696","3","1","","361","","","","choice","","img/2to1/1.png","2","195","385","0.5","0.5","2","3","",""
"animation","65","98659","0.0-5.0-2.30","63ee59dc6e5fbabca14d3d16","bdp_cybrbll","Tue Mar 28 2023 21:30:57 GMT-0400 (Eastern Daylight Time)","455696","3","1","","","","","","","","","","195","","","","2","3","[{""stimulus"":""img/2to3/1.png"",""time"":100},{""stimulus"":""img/2to3/2.png"",""time"":204},{""stimulus"":""img/2to3/3.png"",""time"":298},{""stimulus"":""img/2to3/4.png"",""time"":397},{""stimulus"":""img/2to3/5.png"",""time"":498},{""stimulus"":""img/2to3/6.png"",""time"":595},{""stimulus"":""img/2to3/7.png"",""time"":694},{""stimulus"":""img/2to3/8.png"",""time"":794},{""stimulus"":""img/2to3/9.png"",""time"":892},{""stimulus"":""img/2to3/10.png"",""time"":991},{""stimulus"":""img/2to3/11.png"",""time"":1090},{""stimulus"":""img/2to3/12.png"",""time"":1189}]","[]"
"image-keyboard-response","66","99118","0.0-5.0-1.31","63ee59dc6e5fbabca14d3d16","bdp_cybrbll","Tue Mar 28 2023 21:30:57 GMT-0400 (Eastern Daylight Time)","455696","3","1","","null","","","","observe","","img/3to2/1.png","null","194","457","0.5","0.5","3","1","",""
"animation","67","100405","0.0-5.0-2.31","63ee59dc6e5fbabca14d3d16","bdp_cybrbll","Tue Mar 28 2023 21:30:57 GMT-0400 (Eastern Daylight Time)","455696","3","1","","","","","","","","","","194","","","","3","1","[{""stimulus"":""img/3to1/1.png"",""time"":99},{""stimulus"":""img/3to1/2.png"",""time"":198},{""stimulus"":""img/3to1/3.png"",""time"":297},{""stimulus"":""img/3to1/4.png"",""time"":396},{""stimulus"":""img/3to1/5.png"",""time"":496},{""stimulus"":""img/3to1/6.png"",""time"":594},{""stimulus"":""img/3to1/7.png"",""time"":693},{""stimulus"":""img/3to1/8.png"",""time"":792},{""stimulus"":""img/3to1/9.png"",""time"":891},{""stimulus"":""img/3to1/10.png"",""time"":990},{""stimulus"":""img/3to1/11.png"",""time"":1090},{""stimulus"":""img/3to1/12.png"",""time"":1188}]","[]"
"image-keyboard-response","68","100860","0.0-5.0-1.32","63ee59dc6e5fbabca14d3d16","bdp_cybrbll","Tue Mar 28 2023 21:30:57 GMT-0400 (Eastern Daylight Time)","455696","3","1","","null","","","","observe","","img/1to3/1.png","null","193","454","0.5","0.5","1","3","",""
"animation","69","102147","0.0-5.0-2.32","63ee59dc6e5fbabca14d3d16","bdp_cybrbll","Tue Mar 28 2023 21:30:57 GMT-0400 (Eastern Daylight Time)","455696","3","1","","","","","","","","","","193","","","","1","3","[{""stimulus"":""img/1to3/1.png"",""time"":100},{""stimulus"":""img/1to3/2.png"",""time"":199},{""stimulus"":""img/1to3/3.png"",""time"":299},{""stimulus"":""img/1to3/4.png"",""time"":397},{""stimulus"":""img/1to3/5.png"",""time"":496},{""stimulus"":""img/1to3/6.png"",""time"":595},{""stimulus"":""img/1to3/7.png"",""time"":694},{""stimulus"":""img/1to3/8.png"",""time"":794},{""stimulus"":""img/1to3/9.png"",""time"":892},{""stimulus"":""img/1to3/10.png"",""time"":991},{""stimulus"":""img/1to3/11.png"",""time"":1090},{""stimulus"":""img/1to3/12.png"",""time"":1190}]","[]"
"image-keyboard-response","70","103070","0.0-5.0-1.33","63ee59dc6e5fbabca14d3d16","bdp_cybrbll","Tue Mar 28 2023 21:30:57 GMT-0400 (Eastern Daylight Time)","455696","3","1","","null","","","","observe","","img/3to2/1.png","null","192","921","0.5","0.5","3","2","",""
"animation","71","104358","0.0-5.0-2.33","63ee59dc6e5fbabca14d3d16","bdp_cybrbll","Tue Mar 28 2023 21:30:57 GMT-0400 (Eastern Daylight Time)","455696","3","1","","","","","","","","","","192","","","","3","2","[{""stimulus"":""img/3to2/1.png"",""time"":100},{""stimulus"":""img/3to2/2.png"",""time"":200},{""stimulus"":""img/3to2/3.png"",""time"":298},{""stimulus"":""img/3to2/4.png"",""time"":398},{""stimulus"":""img/3to2/5.png"",""time"":496},{""stimulus"":""img/3to2/6.png"",""time"":595},{""stimulus"":""img/3to2/7.png"",""time"":695},{""stimulus"":""img/3to2/8.png"",""time"":793},{""stimulus"":""img/3to2/9.png"",""time"":893},{""stimulus"":""img/3to2/10.png"",""time"":991},{""stimulus"":""img/3to2/11.png"",""time"":1090},{""stimulus"":""img/3to2/12.png"",""time"":1190}]","[]"
"image-keyboard-response","72","106751","0.0-5.0-1.34","63ee59dc6e5fbabca14d3d16","bdp_cybrbll","Tue Mar 28 2023 21:30:57 GMT-0400 (Eastern Daylight Time)","455696","3","1","","2393","","","","choice","","img/2to1/1.png","2","191","394","0.5","0.5","2","3","",""
"animation","73","108039","0.0-5.0-2.34","63ee59dc6e5fbabca14d3d16","bdp_cybrbll","Tue Mar 28 2023 21:30:57 GMT-0400 (Eastern Daylight Time)","455696","3","1","","","","","","","","","","191","","","","2","3","[{""stimulus"":""img/2to3/1.png"",""time"":100},{""stimulus"":""img/2to3/2.png"",""time"":199},{""stimulus"":""img/2to3/3.png"",""time"":299},{""stimulus"":""img/2to3/4.png"",""time"":397},{""stimulus"":""img/2to3/5.png"",""time"":496},{""stimulus"":""img/2to3/6.png"",""time"":595},{""stimulus"":""img/2to3/7.png"",""time"":695},{""stimulus"":""img/2to3/8.png"",""time"":793},{""stimulus"":""img/2to3/9.png"",""time"":892},{""stimulus"":""img/2to3/10.png"",""time"":991},{""stimulus"":""img/2to3/11.png"",""time"":1090},{""stimulus"":""img/2to3/12.png"",""time"":1189}]","[]"
"image-keyboard-response","74","108410","0.0-5.0-1.35","63ee59dc6e5fbabca14d3d16","bdp_cybrbll","Tue Mar 28 2023 21:30:57 GMT-0400 (Eastern Daylight Time)","455696","3","1","","null","","","","observe","","img/3to2/1.png","null","190","369","0.5","0.5","3","1","",""
"animation","75","109697","0.0-5.0-2.35","63ee59dc6e5fbabca14d3d16","bdp_cybrbll","Tue Mar 28 2023 21:30:57 GMT-0400 (Eastern Daylight Time)","455696","3","1","","","","","","","","","","190","","","","3","1","[{""stimulus"":""img/3to1/1.png"",""time"":99},{""stimulus"":""img/3to1/2.png"",""time"":199},{""stimulus"":""img/3to1/3.png"",""time"":298},{""stimulus"":""img/3to1/4.png"",""time"":397},{""stimulus"":""img/3to1/5.png"",""time"":496},{""stimulus"":""img/3to1/6.png"",""time"":595},{""stimulus"":""img/3to1/7.png"",""time"":694},{""stimulus"":""img/3to1/8.png"",""time"":792},{""stimulus"":""img/3to1/9.png"",""time"":892},{""stimulus"":""img/3to1/10.png"",""time"":991},{""stimulus"":""img/3to1/11.png"",""time"":1089},{""stimulus"":""img/3to1/12.png"",""time"":1188}]","[]"
"image-keyboard-response","76","110030","0.0-5.0-1.36","63ee59dc6e5fbabca14d3d16","bdp_cybrbll","Tue Mar 28 2023 21:30:57 GMT-0400 (Eastern Daylight Time)","455696","3","1","","null","","","","observe","","img/1to3/1.png","null","189","332","0.5","0.5","1","2","",""
"animation","77","111317","0.0-5.0-2.36","63ee59dc6e5fbabca14d3d16","bdp_cybrbll","Tue Mar 28 2023 21:30:57 GMT-0400 (Eastern Daylight Time)","455696","3","1","","","","","","","","","","189","","","","1","2","[{""stimulus"":""img/1to2/1.png"",""time"":100},{""stimulus"":""img/1to2/2.png"",""time"":199},{""stimulus"":""img/1to2/3.png"",""time"":297},{""stimulus"":""img/1to2/4.png"",""time"":397},{""stimulus"":""img/1to2/5.png"",""time"":504},{""stimulus"":""img/1to2/6.png"",""time"":595},{""stimulus"":""img/1to2/7.png"",""time"":694},{""stimulus"":""img/1to2/8.png"",""time"":797},{""stimulus"":""img/1to2/9.png"",""time"":891},{""stimulus"":""img/1to2/10.png"",""time"":991},{""stimulus"":""img/1to2/11.png"",""time"":1090},{""stimulus"":""img/1to2/12.png"",""time"":1189}]","[]"
"image-keyboard-response","78","113261","0.0-5.0-1.37","63ee59dc6e5fbabca14d3d16","bdp_cybrbll","Tue Mar 28 2023 21:30:57 GMT-0400 (Eastern Daylight Time)","455696","3","1","","1943","","","","choice","","img/2to1/1.png","2","188","203","0.5","0.5","2","3","",""
"animation","79","114549","0.0-5.0-2.37","63ee59dc6e5fbabca14d3d16","bdp_cybrbll","Tue Mar 28 2023 21:30:57 GMT-0400 (Eastern Daylight Time)","455696","3","1","","","","","","","","","","188","","","","2","3","[{""stimulus"":""img/2to3/1.png"",""time"":100},{""stimulus"":""img/2to3/2.png"",""time"":199},{""stimulus"":""img/2to3/3.png"",""time"":302},{""stimulus"":""img/2to3/4.png"",""time"":405},{""stimulus"":""img/2to3/5.png"",""time"":496},{""stimulus"":""img/2to3/6.png"",""time"":598},{""stimulus"":""img/2to3/7.png"",""time"":694},{""stimulus"":""img/2to3/8.png"",""time"":793},{""stimulus"":""img/2to3/9.png"",""time"":892},{""stimulus"":""img/2to3/10.png"",""time"":991},{""stimulus"":""img/2to3/11.png"",""time"":1090},{""stimulus"":""img/2to3/12.png"",""time"":1189}]","[]"
"image-keyboard-response","80","115456","0.0-5.0-1.38","63ee59dc6e5fbabca14d3d16","bdp_cybrbll","Tue Mar 28 2023 21:30:57 GMT-0400 (Eastern Daylight Time)","455696","3","1","","null","","","","observe","","img/3to2/1.png","null","187","906","0.5","0.5","3","1","",""
"animation","81","116744","0.0-5.0-2.38","63ee59dc6e5fbabca14d3d16","bdp_cybrbll","Tue Mar 28 2023 21:30:57 GMT-0400 (Eastern Daylight Time)","455696","3","1","","","","","","","","","","187","","","","3","1","[{""stimulus"":""img/3to1/1.png"",""time"":100},{""stimulus"":""img/3to1/2.png"",""time"":198},{""stimulus"":""img/3to1/3.png"",""time"":299},{""stimulus"":""img/3to1/4.png"",""time"":397},{""stimulus"":""img/3to1/5.png"",""time"":496},{""stimulus"":""img/3to1/6.png"",""time"":595},{""stimulus"":""img/3to1/7.png"",""time"":694},{""stimulus"":""img/3to1/8.png"",""time"":792},{""stimulus"":""img/3to1/9.png"",""time"":898},{""stimulus"":""img/3to1/10.png"",""time"":990},{""stimulus"":""img/3to1/11.png"",""time"":1090},{""stimulus"":""img/3to1/12.png"",""time"":1188}]","[]"
"image-keyboard-response","82","117171","0.0-5.0-1.39","63ee59dc6e5fbabca14d3d16","bdp_cybrbll","Tue Mar 28 2023 21:30:57 GMT-0400 (Eastern Daylight Time)","455696","3","1","","null","","","","observe","","img/1to3/1.png","null","186","425","0.5","0.5","1","2","",""
"animation","83","118459","0.0-5.0-2.39","63ee59dc6e5fbabca14d3d16","bdp_cybrbll","Tue Mar 28 2023 21:30:57 GMT-0400 (Eastern Daylight Time)","455696","3","1","","","","","","","","","","186","","","","1","2","[{""stimulus"":""img/1to2/1.png"",""time"":100},{""stimulus"":""img/1to2/2.png"",""time"":199},{""stimulus"":""img/1to2/3.png"",""time"":305},{""stimulus"":""img/1to2/4.png"",""time"":397},{""stimulus"":""img/1to2/5.png"",""time"":496},{""stimulus"":""img/1to2/6.png"",""time"":595},{""stimulus"":""img/1to2/7.png"",""time"":694},{""stimulus"":""img/1to2/8.png"",""time"":793},{""stimulus"":""img/1to2/9.png"",""time"":891},{""stimulus"":""img/1to2/10.png"",""time"":990},{""stimulus"":""img/1to2/11.png"",""time"":1090},{""stimulus"":""img/1to2/12.png"",""time"":1189}]","[]"
"image-keyboard-response","84","118811","0.0-5.0-1.40","63ee59dc6e5fbabca14d3d16","bdp_cybrbll","Tue Mar 28 2023 21:30:57 GMT-0400 (Eastern Daylight Time)","455696","3","1","","352","","","","choice","","img/2to1/1.png","1","185","911","0.5","0.5","2","1","",""
"animation","85","120098","0.0-5.0-2.40","63ee59dc6e5fbabca14d3d16","bdp_cybrbll","Tue Mar 28 2023 21:30:57 GMT-0400 (Eastern Daylight Time)","455696","3","1","","","","","","","","","","185","","","","2","1","[{""stimulus"":""img/2to1/1.png"",""time"":100},{""stimulus"":""img/2to1/2.png"",""time"":199},{""stimulus"":""img/2to1/3.png"",""time"":298},{""stimulus"":""img/2to1/4.png"",""time"":397},{""stimulus"":""img/2to1/5.png"",""time"":496},{""stimulus"":""img/2to1/6.png"",""time"":594},{""stimulus"":""img/2to1/7.png"",""time"":694},{""stimulus"":""img/2to1/8.png"",""time"":793},{""stimulus"":""img/2to1/9.png"",""time"":892},{""stimulus"":""img/2to1/10.png"",""time"":991},{""stimulus"":""img/2to1/11.png"",""time"":1090},{""stimulus"":""img/2to1/12.png"",""time"":1188}]","[]"
"image-keyboard-response","86","120463","0.0-5.0-1.41","63ee59dc6e5fbabca14d3d16","bdp_cybrbll","Tue Mar 28 2023 21:30:57 GMT-0400 (Eastern Daylight Time)","455696","3","1","","null","","","","observe","","img/1to3/1.png","null","184","365","0.5","0.5","1","3","",""
"animation","87","121751","0.0-5.0-2.41","63ee59dc6e5fbabca14d3d16","bdp_cybrbll","Tue Mar 28 2023 21:30:57 GMT-0400 (Eastern Daylight Time)","455696","3","1","","","","","","","","","","184","","","","1","3","[{""stimulus"":""img/1to3/1.png"",""time"":99},{""stimulus"":""img/1to3/2.png"",""time"":198},{""stimulus"":""img/1to3/3.png"",""time"":297},{""stimulus"":""img/1to3/4.png"",""time"":396},{""stimulus"":""img/1to3/5.png"",""time"":496},{""stimulus"":""img/1to3/6.png"",""time"":594},{""stimulus"":""img/1to3/7.png"",""time"":694},{""stimulus"":""img/1to3/8.png"",""time"":792},{""stimulus"":""img/1to3/9.png"",""time"":892},{""stimulus"":""img/1to3/10.png"",""time"":990},{""stimulus"":""img/1to3/11.png"",""time"":1090},{""stimulus"":""img/1to3/12.png"",""time"":1189}]","[]"
"image-keyboard-response","88","122118","0.0-5.0-1.42","63ee59dc6e5fbabca14d3d16","bdp_cybrbll","Tue Mar 28 2023 21:30:57 GMT-0400 (Eastern Daylight Time)","455696","3","1","","null","","","","observe","","img/3to2/1.png","null","183","366","0.5","0.5","3","2","",""
"animation","89","123407","0.0-5.0-2.42","63ee59dc6e5fbabca14d3d16","bdp_cybrbll","Tue Mar 28 2023 21:30:57 GMT-0400 (Eastern Daylight Time)","455696","3","1","","","","","","","","","","183","","","","3","2","[{""stimulus"":""img/3to2/1.png"",""time"":100},{""stimulus"":""img/3to2/2.png"",""time"":199},{""stimulus"":""img/3to2/3.png"",""time"":298},{""stimulus"":""img/3to2/4.png"",""time"":397},{""stimulus"":""img/3to2/5.png"",""time"":495},{""stimulus"":""img/3to2/6.png"",""time"":595},{""stimulus"":""img/3to2/7.png"",""time"":694},{""stimulus"":""img/3to2/8.png"",""time"":792},{""stimulus"":""img/3to2/9.png"",""time"":891},{""stimulus"":""img/3to2/10.png"",""time"":991},{""stimulus"":""img/3to2/11.png"",""time"":1090},{""stimulus"":""img/3to2/12.png"",""time"":1188}]","[]"
"image-keyboard-response","90","123973","0.0-5.0-1.43","63ee59dc6e5fbabca14d3d16","bdp_cybrbll","Tue Mar 28 2023 21:30:57 GMT-0400 (Eastern Daylight Time)","455696","3","1","","566","","","","choice","","img/2to1/1.png","1","182","1293","0.5","0.5","2","1","",""
"animation","91","125261","0.0-5.0-2.43","63ee59dc6e5fbabca14d3d16","bdp_cybrbll","Tue Mar 28 2023 21:30:57 GMT-0400 (Eastern Daylight Time)","455696","3","1","","","","","","","","","","182","","","","2","1","[{""stimulus"":""img/2to1/1.png"",""time"":100},{""stimulus"":""img/2to1/2.png"",""time"":199},{""stimulus"":""img/2to1/3.png"",""time"":298},{""stimulus"":""img/2to1/4.png"",""time"":397},{""stimulus"":""img/2to1/5.png"",""time"":496},{""stimulus"":""img/2to1/6.png"",""time"":595},{""stimulus"":""img/2to1/7.png"",""time"":694},{""stimulus"":""img/2to1/8.png"",""time"":793},{""stimulus"":""img/2to1/9.png"",""time"":892},{""stimulus"":""img/2to1/10.png"",""time"":991},{""stimulus"":""img/2to1/11.png"",""time"":1090},{""stimulus"":""img/2to1/12.png"",""time"":1189}]","[]"
"image-keyboard-response","92","125569","0.0-5.0-1.44","63ee59dc6e5fbabca14d3d16","bdp_cybrbll","Tue Mar 28 2023 21:30:57 GMT-0400 (Eastern Daylight Time)","455696","3","1","","null","","","","observe","","img/1to3/1.png","null","181","307","0.5","0.5","1","2","",""
"animation","93","126857","0.0-5.0-2.44","63ee59dc6e5fbabca14d3d16","bdp_cybrbll","Tue Mar 28 2023 21:30:57 GMT-0400 (Eastern Daylight Time)","455696","3","1","","","","","","","","","","181","","","","1","2","[{""stimulus"":""img/1to2/1.png"",""time"":100},{""stimulus"":""img/1to2/2.png"",""time"":198},{""stimulus"":""img/1to2/3.png"",""time"":298},{""stimulus"":""img/1to2/4.png"",""time"":396},{""stimulus"":""img/1to2/5.png"",""time"":496},{""stimulus"":""img/1to2/6.png"",""time"":594},{""stimulus"":""img/1to2/7.png"",""time"":694},{""stimulus"":""img/1to2/8.png"",""time"":793},{""stimulus"":""img/1to2/9.png"",""time"":892},{""stimulus"":""img/1to2/10.png"",""time"":991},{""stimulus"":""img/1to2/11.png"",""time"":1090},{""stimulus"":""img/1to2/12.png"",""time"":1188}]","[]"
"image-keyboard-response","94","127607","0.0-5.0-1.45","63ee59dc6e5fbabca14d3d16","bdp_cybrbll","Tue Mar 28 2023 21:30:57 GMT-0400 (Eastern Daylight Time)","455696","3","1","","750","","","","choice","","img/2to1/1.png","1","180","463","0.5","0.5","2","1","",""
"animation","95","128895","0.0-5.0-2.45","63ee59dc6e5fbabca14d3d16","bdp_cybrbll","Tue Mar 28 2023 21:30:57 GMT-0400 (Eastern Daylight Time)","455696","3","1","","","","","","","","","","180","","","","2","1","[{""stimulus"":""img/2to1/1.png"",""time"":100},{""stimulus"":""img/2to1/2.png"",""time"":199},{""stimulus"":""img/2to1/3.png"",""time"":298},{""stimulus"":""img/2to1/4.png"",""time"":397},{""stimulus"":""img/2to1/5.png"",""time"":497},{""stimulus"":""img/2to1/6.png"",""time"":595},{""stimulus"":""img/2to1/7.png"",""time"":694},{""stimulus"":""img/2to1/8.png"",""time"":794},{""stimulus"":""img/2to1/9.png"",""time"":892},{""stimulus"":""img/2to1/10.png"",""time"":991},{""stimulus"":""img/2to1/11.png"",""time"":1090},{""stimulus"":""img/2to1/12.png"",""time"":1190}]","[]"
"image-keyboard-response","96","129938","0.0-5.0-1.46","63ee59dc6e5fbabca14d3d16","bdp_cybrbll","Tue Mar 28 2023 21:30:57 GMT-0400 (Eastern Daylight Time)","455696","3","1","","null","","","","observe","","img/1to3/1.png","null","179","1042","0.5","0.5","1","2","",""
"animation","97","131227","0.0-5.0-2.46","63ee59dc6e5fbabca14d3d16","bdp_cybrbll","Tue Mar 28 2023 21:30:57 GMT-0400 (Eastern Daylight Time)","455696","3","1","","","","","","","","","","179","","","","1","2","[{""stimulus"":""img/1to2/1.png"",""time"":100},{""stimulus"":""img/1to2/2.png"",""time"":199},{""stimulus"":""img/1to2/3.png"",""time"":297},{""stimulus"":""img/1to2/4.png"",""time"":396},{""stimulus"":""img/1to2/5.png"",""time"":495},{""stimulus"":""img/1to2/6.png"",""time"":594},{""stimulus"":""img/1to2/7.png"",""time"":694},{""stimulus"":""img/1to2/8.png"",""time"":793},{""stimulus"":""img/1to2/9.png"",""time"":892},{""stimulus"":""img/1to2/10.png"",""time"":991},{""stimulus"":""img/1to2/11.png"",""time"":1090},{""stimulus"":""img/1to2/12.png"",""time"":1189}]","[]"
"image-keyboard-response","98","131501","0.0-5.0-1.47","63ee59dc6e5fbabca14d3d16","bdp_cybrbll","Tue Mar 28 2023 21:30:57 GMT-0400 (Eastern Daylight Time)","455696","3","1","","274","","","","choice","","img/2to1/1.png","2","178","474","0.5","0.5","2","3","",""
"animation","99","132789","0.0-5.0-2.47","63ee59dc6e5fbabca14d3d16","bdp_cybrbll","Tue Mar 28 2023 21:30:57 GMT-0400 (Eastern Daylight Time)","455696","3","1","","","","","","","","","","178","","","","2","3","[{""stimulus"":""img/2to3/1.png"",""time"":100},{""stimulus"":""img/2to3/2.png"",""time"":199},{""stimulus"":""img/2to3/3.png"",""time"":298},{""stimulus"":""img/2to3/4.png"",""time"":398},{""stimulus"":""img/2to3/5.png"",""time"":497},{""stimulus"":""img/2to3/6.png"",""time"":596},{""stimulus"":""img/2to3/7.png"",""time"":694},{""stimulus"":""img/2to3/8.png"",""time"":793},{""stimulus"":""img/2to3/9.png"",""time"":893},{""stimulus"":""img/2to3/10.png"",""time"":991},{""stimulus"":""img/2to3/11.png"",""time"":1091},{""stimulus"":""img/2to3/12.png"",""time"":1190}]","[]"
"image-keyboard-response","100","133702","0.0-5.0-1.48","63ee59dc6e5fbabca14d3d16","bdp_cybrbll","Tue Mar 28 2023 21:30:57 GMT-0400 (Eastern Daylight Time)","455696","3","1","","null","","","","observe","","img/3to2/1.png","null","177","911","0.5","0.5","3","2","",""
"animation","101","134990","0.0-5.0-2.48","63ee59dc6e5fbabca14d3d16","bdp_cybrbll","Tue Mar 28 2023 21:30:57 GMT-0400 (Eastern Daylight Time)","455696","3","1","","","","","","","","","","177","","","","3","2","[{""stimulus"":""img/3to2/1.png"",""time"":99},{""stimulus"":""img/3to2/2.png"",""time"":198},{""stimulus"":""img/3to2/3.png"",""time"":298},{""stimulus"":""img/3to2/4.png"",""time"":397},{""stimulus"":""img/3to2/5.png"",""time"":495},{""stimulus"":""img/3to2/6.png"",""time"":594},{""stimulus"":""img/3to2/7.png"",""time"":694},{""stimulus"":""img/3to2/8.png"",""time"":793},{""stimulus"":""img/3to2/9.png"",""time"":891},{""stimulus"":""img/3to2/10.png"",""time"":991},{""stimulus"":""img/3to2/11.png"",""time"":1089},{""stimulus"":""img/3to2/12.png"",""time"":1189}]","[]"
"image-keyboard-response","102","135877","0.0-5.0-1.49","63ee59dc6e5fbabca14d3d16","bdp_cybrbll","Tue Mar 28 2023 21:30:57 GMT-0400 (Eastern Daylight Time)","455696","3","1","","886","","","","choice","","img/2to1/1.png","2","176","518","0.5","0.5","2","3","",""
"animation","103","137165","0.0-5.0-2.49","63ee59dc6e5fbabca14d3d16","bdp_cybrbll","Tue Mar 28 2023 21:30:57 GMT-0400 (Eastern Daylight Time)","455696","3","1","","","","","","","","","","176","","","","2","3","[{""stimulus"":""img/2to3/1.png"",""time"":100},{""stimulus"":""img/2to3/2.png"",""time"":199},{""stimulus"":""img/2to3/3.png"",""time"":299},{""stimulus"":""img/2to3/4.png"",""time"":397},{""stimulus"":""img/2to3/5.png"",""time"":496},{""stimulus"":""img/2to3/6.png"",""time"":595},{""stimulus"":""img/2to3/7.png"",""time"":694},{""stimulus"":""img/2to3/8.png"",""time"":793},{""stimulus"":""img/2to3/9.png"",""time"":892},{""stimulus"":""img/2to3/10.png"",""time"":991},{""stimulus"":""img/2to3/11.png"",""time"":1090},{""stimulus"":""img/2to3/12.png"",""time"":1189}]","[]"
"image-keyboard-response","104","138112","0.0-5.0-1.50","63ee59dc6e5fbabca14d3d16","bdp_cybrbll","Tue Mar 28 2023 21:30:57 GMT-0400 (Eastern Daylight Time)","455696","3","1","","null","","","","observe","","img/3to2/1.png","null","175","946","0.5","0.5","3","1","",""
"animation","105","139401","0.0-5.0-2.50","63ee59dc6e5fbabca14d3d16","bdp_cybrbll","Tue Mar 28 2023 21:30:57 GMT-0400 (Eastern Daylight Time)","455696","3","1","","","","","","","","","","175","","","","3","1","[{""stimulus"":""img/3to1/1.png"",""time"":99},{""stimulus"":""img/3to1/2.png"",""time"":199},{""stimulus"":""img/3to1/3.png"",""time"":297},{""stimulus"":""img/3to1/4.png"",""time"":396},{""stimulus"":""img/3to1/5.png"",""time"":495},{""stimulus"":""img/3to1/6.png"",""time"":595},{""stimulus"":""img/3to1/7.png"",""time"":694},{""stimulus"":""img/3to1/8.png"",""time"":793},{""stimulus"":""img/3to1/9.png"",""time"":892},{""stimulus"":""img/3to1/10.png"",""time"":991},{""stimulus"":""img/3to1/11.png"",""time"":1089},{""stimulus"":""img/3to1/12.png"",""time"":1188}]","[]"
"image-keyboard-response","106","140503","0.0-5.0-1.51","63ee59dc6e5fbabca14d3d16","bdp_cybrbll","Tue Mar 28 2023 21:30:57 GMT-0400 (Eastern Daylight Time)","455696","3","1","","null","","","","observe","","img/1to3/1.png","null","174","1101","0.5","0.5","1","3","",""
"animation","107","141791","0.0-5.0-2.51","63ee59dc6e5fbabca14d3d16","bdp_cybrbll","Tue Mar 28 2023 21:30:57 GMT-0400 (Eastern Daylight Time)","455696","3","1","","","","","","","","","","174","","","","1","3","[{""stimulus"":""img/1to3/1.png"",""time"":100},{""stimulus"":""img/1to3/2.png"",""time"":199},{""stimulus"":""img/1to3/3.png"",""time"":298},{""stimulus"":""img/1to3/4.png"",""time"":397},{""stimulus"":""img/1to3/5.png"",""time"":496},{""stimulus"":""img/1to3/6.png"",""time"":595},{""stimulus"":""img/1to3/7.png"",""time"":694},{""stimulus"":""img/1to3/8.png"",""time"":793},{""stimulus"":""img/1to3/9.png"",""time"":892},{""stimulus"":""img/1to3/10.png"",""time"":991},{""stimulus"":""img/1to3/11.png"",""time"":1090},{""stimulus"":""img/1to3/12.png"",""time"":1189}]","[]"
"image-keyboard-response","108","142158","0.0-5.0-1.52","63ee59dc6e5fbabca14d3d16","bdp_cybrbll","Tue Mar 28 2023 21:30:57 GMT-0400 (Eastern Daylight Time)","455696","3","1","","null","","","","observe","","img/3to2/1.png","null","173","366","0.5","0.5","3","1","",""
"animation","109","143447","0.0-5.0-2.52","63ee59dc6e5fbabca14d3d16","bdp_cybrbll","Tue Mar 28 2023 21:30:57 GMT-0400 (Eastern Daylight Time)","455696","3","1","","","","","","","","","","173","","","","3","1","[{""stimulus"":""img/3to1/1.png"",""time"":100},{""stimulus"":""img/3to1/2.png"",""time"":199},{""stimulus"":""img/3to1/3.png"",""time"":297},{""stimulus"":""img/3to1/4.png"",""time"":396},{""stimulus"":""img/3to1/5.png"",""time"":496},{""stimulus"":""img/3to1/6.png"",""time"":595},{""stimulus"":""img/3to1/7.png"",""time"":693},{""stimulus"":""img/3to1/8.png"",""time"":792},{""stimulus"":""img/3to1/9.png"",""time"":892},{""stimulus"":""img/3to1/10.png"",""time"":990},{""stimulus"":""img/3to1/11.png"",""time"":1090},{""stimulus"":""img/3to1/12.png"",""time"":1188}]","[]"
"image-keyboard-response","110","143709","0.0-5.0-1.53","63ee59dc6e5fbabca14d3d16","bdp_cybrbll","Tue Mar 28 2023 21:30:57 GMT-0400 (Eastern Daylight Time)","455696","3","1","","null","","","","observe","","img/1to3/1.png","null","172","261","0.5","0.5","1","3","",""
"animation","111","144997","0.0-5.0-2.53","63ee59dc6e5fbabca14d3d16","bdp_cybrbll","Tue Mar 28 2023 21:30:57 GMT-0400 (Eastern Daylight Time)","455696","3","1","","","","","","","","","","172","","","","1","3","[{""stimulus"":""img/1to3/1.png"",""time"":100},{""stimulus"":""img/1to3/2.png"",""time"":199},{""stimulus"":""img/1to3/3.png"",""time"":298},{""stimulus"":""img/1to3/4.png"",""time"":397},{""stimulus"":""img/1to3/5.png"",""time"":496},{""stimulus"":""img/1to3/6.png"",""time"":595},{""stimulus"":""img/1to3/7.png"",""time"":702},{""stimulus"":""img/1to3/8.png"",""time"":793},{""stimulus"":""img/1to3/9.png"",""time"":892},{""stimulus"":""img/1to3/10.png"",""time"":991},{""stimulus"":""img/1to3/11.png"",""time"":1091},{""stimulus"":""img/1to3/12.png"",""time"":1189}]","[]"
"image-keyboard-response","112","145635","0.0-5.0-1.54","63ee59dc6e5fbabca14d3d16","bdp_cybrbll","Tue Mar 28 2023 21:30:57 GMT-0400 (Eastern Daylight Time)","455696","3","1","","null","","","","observe","","img/3to2/1.png","null","171","637","0.5","0.5","3","2","",""
"animation","113","146923","0.0-5.0-2.54","63ee59dc6e5fbabca14d3d16","bdp_cybrbll","Tue Mar 28 2023 21:30:57 GMT-0400 (Eastern Daylight Time)","455696","3","1","","","","","","","","","","171","","","","3","2","[{""stimulus"":""img/3to2/1.png"",""time"":100},{""stimulus"":""img/3to2/2.png"",""time"":199},{""stimulus"":""img/3to2/3.png"",""time"":298},{""stimulus"":""img/3to2/4.png"",""time"":397},{""stimulus"":""img/3to2/5.png"",""time"":496},{""stimulus"":""img/3to2/6.png"",""time"":595},{""stimulus"":""img/3to2/7.png"",""time"":694},{""stimulus"":""img/3to2/8.png"",""time"":793},{""stimulus"":""img/3to2/9.png"",""time"":892},{""stimulus"":""img/3to2/10.png"",""time"":991},{""stimulus"":""img/3to2/11.png"",""time"":1090},{""stimulus"":""img/3to2/12.png"",""time"":1189}]","[]"
"image-keyboard-response","114","148399","0.0-5.0-1.55","63ee59dc6e5fbabca14d3d16","bdp_cybrbll","Tue Mar 28 2023 21:30:57 GMT-0400 (Eastern Daylight Time)","455696","3","1","","1476","","","","choice","","img/2to1/1.png","1","170","795","0.5","0.5","2","1","",""
"animation","115","149686","0.0-5.0-2.55","63ee59dc6e5fbabca14d3d16","bdp_cybrbll","Tue Mar 28 2023 21:30:57 GMT-0400 (Eastern Daylight Time)","455696","3","1","","","","","","","","","","170","","","","2","1","[{""stimulus"":""img/2to1/1.png"",""time"":100},{""stimulus"":""img/2to1/2.png"",""time"":199},{""stimulus"":""img/2to1/3.png"",""time"":299},{""stimulus"":""img/2to1/4.png"",""time"":397},{""stimulus"":""img/2to1/5.png"",""time"":497},{""stimulus"":""img/2to1/6.png"",""time"":596},{""stimulus"":""img/2to1/7.png"",""time"":694},{""stimulus"":""img/2to1/8.png"",""time"":793},{""stimulus"":""img/2to1/9.png"",""time"":892},{""stimulus"":""img/2to1/10.png"",""time"":992},{""stimulus"":""img/2to1/11.png"",""time"":1092},{""stimulus"":""img/2to1/12.png"",""time"":1190}]","[]"
"image-keyboard-response","116","150282","0.0-5.0-1.56","63ee59dc6e5fbabca14d3d16","bdp_cybrbll","Tue Mar 28 2023 21:30:57 GMT-0400 (Eastern Daylight Time)","455696","3","1","","null","","","","observe","","img/1to3/1.png","null","169","594","0.5","0.5","1","2","",""
"animation","117","151571","0.0-5.0-2.56","63ee59dc6e5fbabca14d3d16","bdp_cybrbll","Tue Mar 28 2023 21:30:57 GMT-0400 (Eastern Daylight Time)","455696","3","1","","","","","","","","","","169","","","","1","2","[{""stimulus"":""img/1to2/1.png"",""time"":100},{""stimulus"":""img/1to2/2.png"",""time"":199},{""stimulus"":""img/1to2/3.png"",""time"":298},{""stimulus"":""img/1to2/4.png"",""time"":397},{""stimulus"":""img/1to2/5.png"",""time"":496},{""stimulus"":""img/1to2/6.png"",""time"":595},{""stimulus"":""img/1to2/7.png"",""time"":694},{""stimulus"":""img/1to2/8.png"",""time"":792},{""stimulus"":""img/1to2/9.png"",""time"":892},{""stimulus"":""img/1to2/10.png"",""time"":991},{""stimulus"":""img/1to2/11.png"",""time"":1090},{""stimulus"":""img/1to2/12.png"",""time"":1189}]","[]"
"image-keyboard-response","118","154123","0.0-5.0-1.57","63ee59dc6e5fbabca14d3d16","bdp_cybrbll","Tue Mar 28 2023 21:30:57 GMT-0400 (Eastern Daylight Time)","455696","3","1","","2552","","","","choice","","img/2to1/1.png","2","168","220","0.5","0.5","2","3","",""
"animation","119","155411","0.0-5.0-2.57","63ee59dc6e5fbabca14d3d16","bdp_cybrbll","Tue Mar 28 2023 21:30:57 GMT-0400 (Eastern Daylight Time)","455696","3","1","","","","","","","","","","168","","","","2","3","[{""stimulus"":""img/2to3/1.png"",""time"":101},{""stimulus"":""img/2to3/2.png"",""time"":199},{""stimulus"":""img/2to3/3.png"",""time"":298},{""stimulus"":""img/2to3/4.png"",""time"":398},{""stimulus"":""img/2to3/5.png"",""time"":496},{""stimulus"":""img/2to3/6.png"",""time"":595},{""stimulus"":""img/2to3/7.png"",""time"":694},{""stimulus"":""img/2to3/8.png"",""time"":793},{""stimulus"":""img/2to3/9.png"",""time"":892},{""stimulus"":""img/2to3/10.png"",""time"":992},{""stimulus"":""img/2to3/11.png"",""time"":1090},{""stimulus"":""img/2to3/12.png"",""time"":1189}]","[]"
"image-keyboard-response","120","155650","0.0-5.0-1.58","63ee59dc6e5fbabca14d3d16","bdp_cybrbll","Tue Mar 28 2023 21:30:57 GMT-0400 (Eastern Daylight Time)","455696","3","1","","null","","","","observe","","img/3to2/1.png","null","167","238","0.5","0.5","3","2","",""
"animation","121","156938","0.0-5.0-2.58","63ee59dc6e5fbabca14d3d16","bdp_cybrbll","Tue Mar 28 2023 21:30:57 GMT-0400 (Eastern Daylight Time)","455696","3","1","","","","","","","","","","167","","","","3","2","[{""stimulus"":""img/3to2/1.png"",""time"":100},{""stimulus"":""img/3to2/2.png"",""time"":198},{""stimulus"":""img/3to2/3.png"",""time"":297},{""stimulus"":""img/3to2/4.png"",""time"":396},{""stimulus"":""img/3to2/5.png"",""time"":495},{""stimulus"":""img/3to2/6.png"",""time"":595},{""stimulus"":""img/3to2/7.png"",""time"":693},{""stimulus"":""img/3to2/8.png"",""time"":792},{""stimulus"":""img/3to2/9.png"",""time"":891},{""stimulus"":""img/3to2/10.png"",""time"":991},{""stimulus"":""img/3to2/11.png"",""time"":1089},{""stimulus"":""img/3to2/12.png"",""time"":1189}]","[]"
"image-keyboard-response","122","157455","0.0-5.0-1.59","63ee59dc6e5fbabca14d3d16","bdp_cybrbll","Tue Mar 28 2023 21:30:57 GMT-0400 (Eastern Daylight Time)","455696","3","1","","516","","","","choice","","img/2to1/1.png","1","166","420","0.5","0.5","2","1","",""
"animation","123","158743","0.0-5.0-2.59","63ee59dc6e5fbabca14d3d16","bdp_cybrbll","Tue Mar 28 2023 21:30:57 GMT-0400 (Eastern Daylight Time)","455696","3","1","","","","","","","","","","166","","","","2","1","[{""stimulus"":""img/2to1/1.png"",""time"":100},{""stimulus"":""img/2to1/2.png"",""time"":198},{""stimulus"":""img/2to1/3.png"",""time"":297},{""stimulus"":""img/2to1/4.png"",""time"":396},{""stimulus"":""img/2to1/5.png"",""time"":495},{""stimulus"":""img/2to1/6.png"",""time"":595},{""stimulus"":""img/2to1/7.png"",""time"":693},{""stimulus"":""img/2to1/8.png"",""time"":793},{""stimulus"":""img/2to1/9.png"",""time"":892},{""stimulus"":""img/2to1/10.png"",""time"":990},{""stimulus"":""img/2to1/11.png"",""time"":1090},{""stimulus"":""img/2to1/12.png"",""time"":1189}]","[]"
"image-keyboard-response","124","159534","0.0-5.0-1.60","63ee59dc6e5fbabca14d3d16","bdp_cybrbll","Tue Mar 28 2023 21:30:57 GMT-0400 (Eastern Daylight Time)","455696","3","1","","null","","","","observe","","img/1to3/1.png","null","165","789","0.5","0.5","1","3","",""
"animation","125","160822","0.0-5.0-2.60","63ee59dc6e5fbabca14d3d16","bdp_cybrbll","Tue Mar 28 2023 21:30:57 GMT-0400 (Eastern Daylight Time)","455696","3","1","","","","","","","","","","165","","","","1","3","[{""stimulus"":""img/1to3/1.png"",""time"":100},{""stimulus"":""img/1to3/2.png"",""time"":199},{""stimulus"":""img/1to3/3.png"",""time"":298},{""stimulus"":""img/1to3/4.png"",""time"":397},{""stimulus"":""img/1to3/5.png"",""time"":496},{""stimulus"":""img/1to3/6.png"",""time"":595},{""stimulus"":""img/1to3/7.png"",""time"":694},{""stimulus"":""img/1to3/8.png"",""time"":793},{""stimulus"":""img/1to3/9.png"",""time"":892},{""stimulus"":""img/1to3/10.png"",""time"":991},{""stimulus"":""img/1to3/11.png"",""time"":1090},{""stimulus"":""img/1to3/12.png"",""time"":1189}]","[]"
"image-keyboard-response","126","161780","0.0-5.0-1.61","63ee59dc6e5fbabca14d3d16","bdp_cybrbll","Tue Mar 28 2023 21:30:57 GMT-0400 (Eastern Daylight Time)","455696","3","1","","null","","","","observe","","img/3to2/1.png","null","164","957","0.5","0.5","3","1","",""
"animation","127","163068","0.0-5.0-2.61","63ee59dc6e5fbabca14d3d16","bdp_cybrbll","Tue Mar 28 2023 21:30:57 GMT-0400 (Eastern Daylight Time)","455696","3","1","","","","","","","","","","164","","","","3","1","[{""stimulus"":""img/3to1/1.png"",""time"":100},{""stimulus"":""img/3to1/2.png"",""time"":199},{""stimulus"":""img/3to1/3.png"",""time"":298},{""stimulus"":""img/3to1/4.png"",""time"":397},{""stimulus"":""img/3to1/5.png"",""time"":497},{""stimulus"":""img/3to1/6.png"",""time"":595},{""stimulus"":""img/3to1/7.png"",""time"":694},{""stimulus"":""img/3to1/8.png"",""time"":794},{""stimulus"":""img/3to1/9.png"",""time"":892},{""stimulus"":""img/3to1/10.png"",""time"":991},{""stimulus"":""img/3to1/11.png"",""time"":1090},{""stimulus"":""img/3to1/12.png"",""time"":1189}]","[]"
"image-keyboard-response","128","164131","0.0-5.0-1.62","63ee59dc6e5fbabca14d3d16","bdp_cybrbll","Tue Mar 28 2023 21:30:57 GMT-0400 (Eastern Daylight Time)","455696","3","1","","null","","","","observe","","img/1to3/1.png","null","163","1062","0.5","0.5","1","2","",""
"animation","129","165419","0.0-5.0-2.62","63ee59dc6e5fbabca14d3d16","bdp_cybrbll","Tue Mar 28 2023 21:30:57 GMT-0400 (Eastern Daylight Time)","455696","3","1","","","","","","","","","","163","","","","1","2","[{""stimulus"":""img/1to2/1.png"",""time"":99},{""stimulus"":""img/1to2/2.png"",""time"":198},{""stimulus"":""img/1to2/3.png"",""time"":297},{""stimulus"":""img/1to2/4.png"",""time"":396},{""stimulus"":""img/1to2/5.png"",""time"":495},{""stimulus"":""img/1to2/6.png"",""time"":594},{""stimulus"":""img/1to2/7.png"",""time"":693},{""stimulus"":""img/1to2/8.png"",""time"":792},{""stimulus"":""img/1to2/9.png"",""time"":891},{""stimulus"":""img/1to2/10.png"",""time"":990},{""stimulus"":""img/1to2/11.png"",""time"":1090},{""stimulus"":""img/1to2/12.png"",""time"":1189}]","[]"
"image-keyboard-response","130","165612","0.0-5.0-1.63","63ee59dc6e5fbabca14d3d16","bdp_cybrbll","Tue Mar 28 2023 21:30:57 GMT-0400 (Eastern Daylight Time)","455696","3","1","","192","","","","choice","","img/2to1/1.png","2","162","501","0.5","0.5","2","3","",""
"animation","131","166899","0.0-5.0-2.63","63ee59dc6e5fbabca14d3d16","bdp_cybrbll","Tue Mar 28 2023 21:30:57 GMT-0400 (Eastern Daylight Time)","455696","3","1","","","","","","","","","","162","","","","2","3","[{""stimulus"":""img/2to3/1.png"",""time"":100},{""stimulus"":""img/2to3/2.png"",""time"":198},{""stimulus"":""img/2to3/3.png"",""time"":298},{""stimulus"":""img/2to3/4.png"",""time"":397},{""stimulus"":""img/2to3/5.png"",""time"":496},{""stimulus"":""img/2to3/6.png"",""time"":594},{""stimulus"":""img/2to3/7.png"",""time"":694},{""stimulus"":""img/2to3/8.png"",""time"":793},{""stimulus"":""img/2to3/9.png"",""time"":893},{""stimulus"":""img/2to3/10.png"",""time"":990},{""stimulus"":""img/2to3/11.png"",""time"":1090},{""stimulus"":""img/2to3/12.png"",""time"":1189}]","[]"
"image-keyboard-response","132","167181","0.0-5.0-1.64","63ee59dc6e5fbabca14d3d16","bdp_cybrbll","Tue Mar 28 2023 21:30:57 GMT-0400 (Eastern Daylight Time)","455696","3","1","","null","","","","observe","","img/3to2/1.png","null","161","281","0.5","0.5","3","1","",""
"animation","133","168469","0.0-5.0-2.64","63ee59dc6e5fbabca14d3d16","bdp_cybrbll","Tue Mar 28 2023 21:30:57 GMT-0400 (Eastern Daylight Time)","455696","3","1","","","","","","","","","","161","","","","3","1","[{""stimulus"":""img/3to1/1.png"",""time"":100},{""stimulus"":""img/3to1/2.png"",""time"":199},{""stimulus"":""img/3to1/3.png"",""time"":298},{""stimulus"":""img/3to1/4.png"",""time"":397},{""stimulus"":""img/3to1/5.png"",""time"":496},{""stimulus"":""img/3to1/6.png"",""time"":595},{""stimulus"":""img/3to1/7.png"",""time"":708},{""stimulus"":""img/3to1/8.png"",""time"":793},{""stimulus"":""img/3to1/9.png"",""time"":892},{""stimulus"":""img/3to1/10.png"",""time"":992},{""stimulus"":""img/3to1/11.png"",""time"":1091},{""stimulus"":""img/3to1/12.png"",""time"":1189}]","[]"
"image-keyboard-response","134","168648","0.0-5.0-1.65","63ee59dc6e5fbabca14d3d16","bdp_cybrbll","Tue Mar 28 2023 21:30:57 GMT-0400 (Eastern Daylight Time)","455696","3","1","","null","","","","observe","","img/1to3/1.png","null","160","178","0.5","0.5","1","3","",""
"animation","135","169936","0.0-5.0-2.65","63ee59dc6e5fbabca14d3d16","bdp_cybrbll","Tue Mar 28 2023 21:30:57 GMT-0400 (Eastern Daylight Time)","455696","3","1","","","","","","","","","","160","","","","1","3","[{""stimulus"":""img/1to3/1.png"",""time"":100},{""stimulus"":""img/1to3/2.png"",""time"":199},{""stimulus"":""img/1to3/3.png"",""time"":298},{""stimulus"":""img/1to3/4.png"",""time"":396},{""stimulus"":""img/1to3/5.png"",""time"":496},{""stimulus"":""img/1to3/6.png"",""time"":595},{""stimulus"":""img/1to3/7.png"",""time"":694},{""stimulus"":""img/1to3/8.png"",""time"":793},{""stimulus"":""img/1to3/9.png"",""time"":891},{""stimulus"":""img/1to3/10.png"",""time"":991},{""stimulus"":""img/1to3/11.png"",""time"":1090},{""stimulus"":""img/1to3/12.png"",""time"":1190}]","[]"
"image-keyboard-response","136","170237","0.0-5.0-1.66","63ee59dc6e5fbabca14d3d16","bdp_cybrbll","Tue Mar 28 2023 21:30:57 GMT-0400 (Eastern Daylight Time)","455696","3","1","","null","","","","observe","","img/3to2/1.png","null","159","300","0.5","0.5","3","2","",""
"animation","137","171525","0.0-5.0-2.66","63ee59dc6e5fbabca14d3d16","bdp_cybrbll","Tue Mar 28 2023 21:30:57 GMT-0400 (Eastern Daylight Time)","455696","3","1","","","","","","","","","","159","","","","3","2","[{""stimulus"":""img/3to2/1.png"",""time"":100},{""stimulus"":""img/3to2/2.png"",""time"":199},{""stimulus"":""img/3to2/3.png"",""time"":297},{""stimulus"":""img/3to2/4.png"",""time"":396},{""stimulus"":""img/3to2/5.png"",""time"":495},{""stimulus"":""img/3to2/6.png"",""time"":594},{""stimulus"":""img/3to2/7.png"",""time"":693},{""stimulus"":""img/3to2/8.png"",""time"":792},{""stimulus"":""img/3to2/9.png"",""time"":891},{""stimulus"":""img/3to2/10.png"",""time"":990},{""stimulus"":""img/3to2/11.png"",""time"":1089},{""stimulus"":""img/3to2/12.png"",""time"":1188}]","[]"
"image-keyboard-response","138","171745","0.0-5.0-1.67","63ee59dc6e5fbabca14d3d16","bdp_cybrbll","Tue Mar 28 2023 21:30:57 GMT-0400 (Eastern Daylight Time)","455696","3","1","","220","","","","choice","","img/2to1/1.png","1","158","255","0.5","0.5","2","1","",""
"animation","139","173033","0.0-5.0-2.67","63ee59dc6e5fbabca14d3d16","bdp_cybrbll","Tue Mar 28 2023 21:30:57 GMT-0400 (Eastern Daylight Time)","455696","3","1","","","","","","","","","","158","","","","2","1","[{""stimulus"":""img/2to1/1.png"",""time"":100},{""stimulus"":""img/2to1/2.png"",""time"":199},{""stimulus"":""img/2to1/3.png"",""time"":298},{""stimulus"":""img/2to1/4.png"",""time"":397},{""stimulus"":""img/2to1/5.png"",""time"":495},{""stimulus"":""img/2to1/6.png"",""time"":594},{""stimulus"":""img/2to1/7.png"",""time"":694},{""stimulus"":""img/2to1/8.png"",""time"":792},{""stimulus"":""img/2to1/9.png"",""time"":892},{""stimulus"":""img/2to1/10.png"",""time"":990},{""stimulus"":""img/2to1/11.png"",""time"":1090},{""stimulus"":""img/2to1/12.png"",""time"":1188}]","[]"
"image-keyboard-response","140","174009","0.0-5.0-1.68","63ee59dc6e5fbabca14d3d16","bdp_cybrbll","Tue Mar 28 2023 21:30:57 GMT-0400 (Eastern Daylight Time)","455696","3","1","","null","","","","observe","","img/1to3/1.png","null","157","974","0.5","0.5","1","3","",""
"animation","141","175296","0.0-5.0-2.68","63ee59dc6e5fbabca14d3d16","bdp_cybrbll","Tue Mar 28 2023 21:30:57 GMT-0400 (Eastern Daylight Time)","455696","3","1","","","","","","","","","","157","","","","1","3","[{""stimulus"":""img/1to3/1.png"",""time"":99},{""stimulus"":""img/1to3/2.png"",""time"":199},{""stimulus"":""img/1to3/3.png"",""time"":298},{""stimulus"":""img/1to3/4.png"",""time"":397},{""stimulus"":""img/1to3/5.png"",""time"":496},{""stimulus"":""img/1to3/6.png"",""time"":595},{""stimulus"":""img/1to3/7.png"",""time"":693},{""stimulus"":""img/1to3/8.png"",""time"":793},{""stimulus"":""img/1to3/9.png"",""time"":892},{""stimulus"":""img/1to3/10.png"",""time"":991},{""stimulus"":""img/1to3/11.png"",""time"":1090},{""stimulus"":""img/1to3/12.png"",""time"":1189}]","[]"
"image-keyboard-response","142","175702","0.0-5.0-1.69","63ee59dc6e5fbabca14d3d16","bdp_cybrbll","Tue Mar 28 2023 21:30:57 GMT-0400 (Eastern Daylight Time)","455696","3","1","","null","","","","observe","","img/3to2/1.png","null","156","404","0.5","0.5","3","1","",""
"animation","143","176990","0.0-5.0-2.69","63ee59dc6e5fbabca14d3d16","bdp_cybrbll","Tue Mar 28 2023 21:30:57 GMT-0400 (Eastern Daylight Time)","455696","3","1","","","","","","","","","","156","","","","3","1","[{""stimulus"":""img/3to1/1.png"",""time"":100},{""stimulus"":""img/3to1/2.png"",""time"":199},{""stimulus"":""img/3to1/3.png"",""time"":298},{""stimulus"":""img/3to1/4.png"",""time"":400},{""stimulus"":""img/3to1/5.png"",""time"":495},{""stimulus"":""img/3to1/6.png"",""time"":594},{""stimulus"":""img/3to1/7.png"",""time"":694},{""stimulus"":""img/3to1/8.png"",""time"":792},{""stimulus"":""img/3to1/9.png"",""time"":892},{""stimulus"":""img/3to1/10.png"",""time"":991},{""stimulus"":""img/3to1/11.png"",""time"":1090},{""stimulus"":""img/3to1/12.png"",""time"":1189}]","[]"
"image-keyboard-response","144","178160","0.0-5.0-1.70","63ee59dc6e5fbabca14d3d16","bdp_cybrbll","Tue Mar 28 2023 21:30:57 GMT-0400 (Eastern Daylight Time)","455696","3","1","","null","","","","observe","","img/1to3/1.png","null","155","1158","0.5","0.5","1","2","",""
"animation","145","179448","0.0-5.0-2.70","63ee59dc6e5fbabca14d3d16","bdp_cybrbll","Tue Mar 28 2023 21:30:57 GMT-0400 (Eastern Daylight Time)","455696","3","1","","","","","","","","","","155","","","","1","2","[{""stimulus"":""img/1to2/1.png"",""time"":100},{""stimulus"":""img/1to2/2.png"",""time"":199},{""stimulus"":""img/1to2/3.png"",""time"":299},{""stimulus"":""img/1to2/4.png"",""time"":397},{""stimulus"":""img/1to2/5.png"",""time"":496},{""stimulus"":""img/1to2/6.png"",""time"":595},{""stimulus"":""img/1to2/7.png"",""time"":695},{""stimulus"":""img/1to2/8.png"",""time"":794},{""stimulus"":""img/1to2/9.png"",""time"":892},{""stimulus"":""img/1to2/10.png"",""time"":992},{""stimulus"":""img/1to2/11.png"",""time"":1090},{""stimulus"":""img/1to2/12.png"",""time"":1189}]","[]"
"image-keyboard-response","146","179612","0.0-5.0-1.71","63ee59dc6e5fbabca14d3d16","bdp_cybrbll","Tue Mar 28 2023 21:30:57 GMT-0400 (Eastern Daylight Time)","455696","3","1","","164","","","","choice","","img/2to1/1.png","2","154","581","0.5","0.5","2","3","",""
"animation","147","180902","0.0-5.0-2.71","63ee59dc6e5fbabca14d3d16","bdp_cybrbll","Tue Mar 28 2023 21:30:57 GMT-0400 (Eastern Daylight Time)","455696","3","1","","","","","","","","","","154","","","","2","3","[{""stimulus"":""img/2to3/1.png"",""time"":99},{""stimulus"":""img/2to3/2.png"",""time"":199},{""stimulus"":""img/2to3/3.png"",""time"":298},{""stimulus"":""img/2to3/4.png"",""time"":397},{""stimulus"":""img/2to3/5.png"",""time"":496},{""stimulus"":""img/2to3/6.png"",""time"":595},{""stimulus"":""img/2to3/7.png"",""time"":694},{""stimulus"":""img/2to3/8.png"",""time"":793},{""stimulus"":""img/2to3/9.png"",""time"":892},{""stimulus"":""img/2to3/10.png"",""time"":991},{""stimulus"":""img/2to3/11.png"",""time"":1089},{""stimulus"":""img/2to3/12.png"",""time"":1189}]","[]"
"image-keyboard-response","148","181237","0.0-5.0-1.72","63ee59dc6e5fbabca14d3d16","bdp_cybrbll","Tue Mar 28 2023 21:30:57 GMT-0400 (Eastern Daylight Time)","455696","3","1","","null","","","","observe","","img/3to2/1.png","null","153","334","0.5","0.5","3","1","",""
"animation","149","182525","0.0-5.0-2.72","63ee59dc6e5fbabca14d3d16","bdp_cybrbll","Tue Mar 28 2023 21:30:57 GMT-0400 (Eastern Daylight Time)","455696","3","1","","","","","","","","","","153","","","","3","1","[{""stimulus"":""img/3to1/1.png"",""time"":112},{""stimulus"":""img/3to1/2.png"",""time"":200},{""stimulus"":""img/3to1/3.png"",""time"":299},{""stimulus"":""img/3to1/4.png"",""time"":398},{""stimulus"":""img/3to1/5.png"",""time"":496},{""stimulus"":""img/3to1/6.png"",""time"":595},{""stimulus"":""img/3to1/7.png"",""time"":695},{""stimulus"":""img/3to1/8.png"",""time"":793},{""stimulus"":""img/3to1/9.png"",""time"":892},{""stimulus"":""img/3to1/10.png"",""time"":991},{""stimulus"":""img/3to1/11.png"",""time"":1101},{""stimulus"":""img/3to1/12.png"",""time"":1189}]","[]"
"image-keyboard-response","150","183207","0.0-5.0-1.73","63ee59dc6e5fbabca14d3d16","bdp_cybrbll","Tue Mar 28 2023 21:30:57 GMT-0400 (Eastern Daylight Time)","455696","3","1","","null","","","","observe","","img/1to3/1.png","null","152","681","0.5","0.5","1","2","",""
"animation","151","184495","0.0-5.0-2.73","63ee59dc6e5fbabca14d3d16","bdp_cybrbll","Tue Mar 28 2023 21:30:57 GMT-0400 (Eastern Daylight Time)","455696","3","1","","","","","","","","","","152","","","","1","2","[{""stimulus"":""img/1to2/1.png"",""time"":103},{""stimulus"":""img/1to2/2.png"",""time"":199},{""stimulus"":""img/1to2/3.png"",""time"":299},{""stimulus"":""img/1to2/4.png"",""time"":398},{""stimulus"":""img/1to2/5.png"",""time"":497},{""stimulus"":""img/1to2/6.png"",""time"":596},{""stimulus"":""img/1to2/7.png"",""time"":695},{""stimulus"":""img/1to2/8.png"",""time"":793},{""stimulus"":""img/1to2/9.png"",""time"":892},{""stimulus"":""img/1to2/10.png"",""time"":992},{""stimulus"":""img/1to2/11.png"",""time"":1090},{""stimulus"":""img/1to2/12.png"",""time"":1190}]","[]"
"image-keyboard-response","152","185525","0.0-5.0-1.74","63ee59dc6e5fbabca14d3d16","bdp_cybrbll","Tue Mar 28 2023 21:30:57 GMT-0400 (Eastern Daylight Time)","455696","3","1","","1030","","","","choice","","img/2to1/1.png","1","151","1188","0.5","0.5","2","1","",""
"animation","153","186813","0.0-5.0-2.74","63ee59dc6e5fbabca14d3d16","bdp_cybrbll","Tue Mar 28 2023 21:30:57 GMT-0400 (Eastern Daylight Time)","455696","3","1","","","","","","","","","","151","","","","2","1","[{""stimulus"":""img/2to1/1.png"",""time"":100},{""stimulus"":""img/2to1/2.png"",""time"":199},{""stimulus"":""img/2to1/3.png"",""time"":298},{""stimulus"":""img/2to1/4.png"",""time"":396},{""stimulus"":""img/2to1/5.png"",""time"":496},{""stimulus"":""img/2to1/6.png"",""time"":594},{""stimulus"":""img/2to1/7.png"",""time"":694},{""stimulus"":""img/2to1/8.png"",""time"":792},{""stimulus"":""img/2to1/9.png"",""time"":892},{""stimulus"":""img/2to1/10.png"",""time"":991},{""stimulus"":""img/2to1/11.png"",""time"":1090},{""stimulus"":""img/2to1/12.png"",""time"":1189}]","[]"
"image-keyboard-response","154","187315","0.0-5.0-1.75","63ee59dc6e5fbabca14d3d16","bdp_cybrbll","Tue Mar 28 2023 21:30:57 GMT-0400 (Eastern Daylight Time)","455696","3","1","","null","","","","observe","","img/1to3/1.png","null","150","500","0.5","0.5","1","3","",""
"animation","155","188603","0.0-5.0-2.75","63ee59dc6e5fbabca14d3d16","bdp_cybrbll","Tue Mar 28 2023 21:30:57 GMT-0400 (Eastern Daylight Time)","455696","3","1","","","","","","","","","","150","","","","1","3","[{""stimulus"":""img/1to3/1.png"",""time"":99},{""stimulus"":""img/1to3/2.png"",""time"":199},{""stimulus"":""img/1to3/3.png"",""time"":297},{""stimulus"":""img/1to3/4.png"",""time"":397},{""stimulus"":""img/1to3/5.png"",""time"":495},{""stimulus"":""img/1to3/6.png"",""time"":595},{""stimulus"":""img/1to3/7.png"",""time"":694},{""stimulus"":""img/1to3/8.png"",""time"":793},{""stimulus"":""img/1to3/9.png"",""time"":892},{""stimulus"":""img/1to3/10.png"",""time"":991},{""stimulus"":""img/1to3/11.png"",""time"":1090},{""stimulus"":""img/1to3/12.png"",""time"":1189}]","[]"
"image-keyboard-response","156","189217","0.0-5.0-1.76","63ee59dc6e5fbabca14d3d16","bdp_cybrbll","Tue Mar 28 2023 21:30:57 GMT-0400 (Eastern Daylight Time)","455696","3","1","","null","","","","observe","","img/3to2/1.png","null","149","614","0.5","0.1","3","2","",""
"animation","157","190506","0.0-5.0-2.76","63ee59dc6e5fbabca14d3d16","bdp_cybrbll","Tue Mar 28 2023 21:30:57 GMT-0400 (Eastern Daylight Time)","455696","3","1","","","","","","","","","","149","","","","3","2","[{""stimulus"":""img/3to2/1.png"",""time"":100},{""stimulus"":""img/3to2/2.png"",""time"":199},{""stimulus"":""img/3to2/3.png"",""time"":298},{""stimulus"":""img/3to2/4.png"",""time"":397},{""stimulus"":""img/3to2/5.png"",""time"":496},{""stimulus"":""img/3to2/6.png"",""time"":595},{""stimulus"":""img/3to2/7.png"",""time"":694},{""stimulus"":""img/3to2/8.png"",""time"":793},{""stimulus"":""img/3to2/9.png"",""time"":893},{""stimulus"":""img/3to2/10.png"",""time"":991},{""stimulus"":""img/3to2/11.png"",""time"":1090},{""stimulus"":""img/3to2/12.png"",""time"":1190}]","[]"
"image-keyboard-response","158","190910","0.0-5.0-1.77","63ee59dc6e5fbabca14d3d16","bdp_cybrbll","Tue Mar 28 2023 21:30:57 GMT-0400 (Eastern Daylight Time)","455696","3","1","","404","","","","choice","","img/2to1/1.png","1","148","472","0.5","0.1","2","1","",""
"animation","159","192198","0.0-5.0-2.77","63ee59dc6e5fbabca14d3d16","bdp_cybrbll","Tue Mar 28 2023 21:30:57 GMT-0400 (Eastern Daylight Time)","455696","3","1","","","","","","","","","","148","","","","2","1","[{""stimulus"":""img/2to1/1.png"",""time"":99},{""stimulus"":""img/2to1/2.png"",""time"":199},{""stimulus"":""img/2to1/3.png"",""time"":298},{""stimulus"":""img/2to1/4.png"",""time"":397},{""stimulus"":""img/2to1/5.png"",""time"":496},{""stimulus"":""img/2to1/6.png"",""time"":596},{""stimulus"":""img/2to1/7.png"",""time"":694},{""stimulus"":""img/2to1/8.png"",""time"":793},{""stimulus"":""img/2to1/9.png"",""time"":892},{""stimulus"":""img/2to1/10.png"",""time"":991},{""stimulus"":""img/2to1/11.png"",""time"":1090},{""stimulus"":""img/2to1/12.png"",""time"":1189}]","[]"
"image-keyboard-response","160","192656","0.0-5.0-1.78","63ee59dc6e5fbabca14d3d16","bdp_cybrbll","Tue Mar 28 2023 21:30:57 GMT-0400 (Eastern Daylight Time)","455696","3","1","","null","","","","observe","","img/1to3/1.png","null","147","456","0.5","0.1","1","3","",""
"animation","161","193943","0.0-5.0-2.78","63ee59dc6e5fbabca14d3d16","bdp_cybrbll","Tue Mar 28 2023 21:30:57 GMT-0400 (Eastern Daylight Time)","455696","3","1","","","","","","","","","","147","","","","1","3","[{""stimulus"":""img/1to3/1.png"",""time"":100},{""stimulus"":""img/1to3/2.png"",""time"":199},{""stimulus"":""img/1to3/3.png"",""time"":298},{""stimulus"":""img/1to3/4.png"",""time"":396},{""stimulus"":""img/1to3/5.png"",""time"":496},{""stimulus"":""img/1to3/6.png"",""time"":595},{""stimulus"":""img/1to3/7.png"",""time"":694},{""stimulus"":""img/1to3/8.png"",""time"":793},{""stimulus"":""img/1to3/9.png"",""time"":893},{""stimulus"":""img/1to3/10.png"",""time"":991},{""stimulus"":""img/1to3/11.png"",""time"":1090},{""stimulus"":""img/1to3/12.png"",""time"":1189}]","[]"
"image-keyboard-response","162","194134","0.0-5.0-1.79","63ee59dc6e5fbabca14d3d16","bdp_cybrbll","Tue Mar 28 2023 21:30:57 GMT-0400 (Eastern Daylight Time)","455696","3","1","","null","","","","observe","","img/3to2/1.png","null","146","189","0.5","0.1","3","1","",""
"animation","163","195422","0.0-5.0-2.79","63ee59dc6e5fbabca14d3d16","bdp_cybrbll","Tue Mar 28 2023 21:30:57 GMT-0400 (Eastern Daylight Time)","455696","3","1","","","","","","","","","","146","","","","3","1","[{""stimulus"":""img/3to1/1.png"",""time"":99},{""stimulus"":""img/3to1/2.png"",""time"":199},{""stimulus"":""img/3to1/3.png"",""time"":298},{""stimulus"":""img/3to1/4.png"",""time"":397},{""stimulus"":""img/3to1/5.png"",""time"":497},{""stimulus"":""img/3to1/6.png"",""time"":596},{""stimulus"":""img/3to1/7.png"",""time"":694},{""stimulus"":""img/3to1/8.png"",""time"":793},{""stimulus"":""img/3to1/9.png"",""time"":892},{""stimulus"":""img/3to1/10.png"",""time"":991},{""stimulus"":""img/3to1/11.png"",""time"":1091},{""stimulus"":""img/3to1/12.png"",""time"":1200}]","[]"
"image-keyboard-response","164","195836","0.0-5.0-1.80","63ee59dc6e5fbabca14d3d16","bdp_cybrbll","Tue Mar 28 2023 21:30:57 GMT-0400 (Eastern Daylight Time)","455696","3","1","","null","","","","observe","","img/1to3/1.png","null","145","412","0.5","0.1","1","3","",""
"animation","165","197124","0.0-5.0-2.80","63ee59dc6e5fbabca14d3d16","bdp_cybrbll","Tue Mar 28 2023 21:30:57 GMT-0400 (Eastern Daylight Time)","455696","3","1","","","","","","","","","","145","","","","1","3","[{""stimulus"":""img/1to3/1.png"",""time"":100},{""stimulus"":""img/1to3/2.png"",""time"":199},{""stimulus"":""img/1to3/3.png"",""time"":298},{""stimulus"":""img/1to3/4.png"",""time"":397},{""stimulus"":""img/1to3/5.png"",""time"":496},{""stimulus"":""img/1to3/6.png"",""time"":595},{""stimulus"":""img/1to3/7.png"",""time"":693},{""stimulus"":""img/1to3/8.png"",""time"":793},{""stimulus"":""img/1to3/9.png"",""time"":891},{""stimulus"":""img/1to3/10.png"",""time"":990},{""stimulus"":""img/1to3/11.png"",""time"":1090},{""stimulus"":""img/1to3/12.png"",""time"":1189}]","[]"
"image-keyboard-response","166","197405","0.0-5.0-1.81","63ee59dc6e5fbabca14d3d16","bdp_cybrbll","Tue Mar 28 2023 21:30:57 GMT-0400 (Eastern Daylight Time)","455696","3","1","","null","","","","observe","","img/3to2/1.png","null","144","279","0.5","0.1","3","1","",""
"animation","167","198693","0.0-5.0-2.81","63ee59dc6e5fbabca14d3d16","bdp_cybrbll","Tue Mar 28 2023 21:30:57 GMT-0400 (Eastern Daylight Time)","455696","3","1","","","","","","","","","","144","","","","3","1","[{""stimulus"":""img/3to1/1.png"",""time"":102},{""stimulus"":""img/3to1/2.png"",""time"":200},{""stimulus"":""img/3to1/3.png"",""time"":299},{""stimulus"":""img/3to1/4.png"",""time"":397},{""stimulus"":""img/3to1/5.png"",""time"":498},{""stimulus"":""img/3to1/6.png"",""time"":595},{""stimulus"":""img/3to1/7.png"",""time"":694},{""stimulus"":""img/3to1/8.png"",""time"":793},{""stimulus"":""img/3to1/9.png"",""time"":893},{""stimulus"":""img/3to1/10.png"",""time"":991},{""stimulus"":""img/3to1/11.png"",""time"":1090},{""stimulus"":""img/3to1/12.png"",""time"":1189}]","[]"
"image-keyboard-response","168","199827","0.0-5.0-1.82","63ee59dc6e5fbabca14d3d16","bdp_cybrbll","Tue Mar 28 2023 21:30:57 GMT-0400 (Eastern Daylight Time)","455696","3","1","","null","","","","observe","","img/1to3/1.png","null","143","1132","0.5","0.1","1","3","",""
"animation","169","201115","0.0-5.0-2.82","63ee59dc6e5fbabca14d3d16","bdp_cybrbll","Tue Mar 28 2023 21:30:57 GMT-0400 (Eastern Daylight Time)","455696","3","1","","","","","","","","","","143","","","","1","3","[{""stimulus"":""img/1to3/1.png"",""time"":99},{""stimulus"":""img/1to3/2.png"",""time"":198},{""stimulus"":""img/1to3/3.png"",""time"":298},{""stimulus"":""img/1to3/4.png"",""time"":397},{""stimulus"":""img/1to3/5.png"",""time"":496},{""stimulus"":""img/1to3/6.png"",""time"":595},{""stimulus"":""img/1to3/7.png"",""time"":693},{""stimulus"":""img/1to3/8.png"",""time"":792},{""stimulus"":""img/1to3/9.png"",""time"":892},{""stimulus"":""img/1to3/10.png"",""time"":991},{""stimulus"":""img/1to3/11.png"",""time"":1090},{""stimulus"":""img/1to3/12.png"",""time"":1189}]","[]"
"image-keyboard-response","170","201402","0.0-5.0-1.83","63ee59dc6e5fbabca14d3d16","bdp_cybrbll","Tue Mar 28 2023 21:30:57 GMT-0400 (Eastern Daylight Time)","455696","3","1","","null","","","","observe","","img/3to2/1.png","null","142","286","0.5","0.1","3","1","",""
"animation","171","202690","0.0-5.0-2.83","63ee59dc6e5fbabca14d3d16","bdp_cybrbll","Tue Mar 28 2023 21:30:57 GMT-0400 (Eastern Daylight Time)","455696","3","1","","","","","","","","","","142","","","","3","1","[{""stimulus"":""img/3to1/1.png"",""time"":100},{""stimulus"":""img/3to1/2.png"",""time"":198},{""stimulus"":""img/3to1/3.png"",""time"":298},{""stimulus"":""img/3to1/4.png"",""time"":397},{""stimulus"":""img/3to1/5.png"",""time"":496},{""stimulus"":""img/3to1/6.png"",""time"":595},{""stimulus"":""img/3to1/7.png"",""time"":694},{""stimulus"":""img/3to1/8.png"",""time"":793},{""stimulus"":""img/3to1/9.png"",""time"":892},{""stimulus"":""img/3to1/10.png"",""time"":990},{""stimulus"":""img/3to1/11.png"",""time"":1090},{""stimulus"":""img/3to1/12.png"",""time"":1189}]","[]"
"image-keyboard-response","172","202953","0.0-5.0-1.84","63ee59dc6e5fbabca14d3d16","bdp_cybrbll","Tue Mar 28 2023 21:30:57 GMT-0400 (Eastern Daylight Time)","455696","3","1","","null","","","","observe","","img/1to3/1.png","null","141","262","0.5","0.1","1","3","",""
"animation","173","204241","0.0-5.0-2.84","63ee59dc6e5fbabca14d3d16","bdp_cybrbll","Tue Mar 28 2023 21:30:57 GMT-0400 (Eastern Daylight Time)","455696","3","1","","","","","","","","","","141","","","","1","3","[{""stimulus"":""img/1to3/1.png"",""time"":99},{""stimulus"":""img/1to3/2.png"",""time"":199},{""stimulus"":""img/1to3/3.png"",""time"":298},{""stimulus"":""img/1to3/4.png"",""time"":397},{""stimulus"":""img/1to3/5.png"",""time"":496},{""stimulus"":""img/1to3/6.png"",""time"":595},{""stimulus"":""img/1to3/7.png"",""time"":694},{""stimulus"":""img/1to3/8.png"",""time"":793},{""stimulus"":""img/1to3/9.png"",""time"":891},{""stimulus"":""img/1to3/10.png"",""time"":992},{""stimulus"":""img/1to3/11.png"",""time"":1090},{""stimulus"":""img/1to3/12.png"",""time"":1189}]","[]"
"image-keyboard-response","174","204540","0.0-5.0-1.85","63ee59dc6e5fbabca14d3d16","bdp_cybrbll","Tue Mar 28 2023 21:30:57 GMT-0400 (Eastern Daylight Time)","455696","3","1","","null","","","","observe","","img/3to2/1.png","null","140","298","0.5","0.1","3","1","",""
"animation","175","205828","0.0-5.0-2.85","63ee59dc6e5fbabca14d3d16","bdp_cybrbll","Tue Mar 28 2023 21:30:57 GMT-0400 (Eastern Daylight Time)","455696","3","1","","","","","","","","","","140","","","","3","1","[{""stimulus"":""img/3to1/1.png"",""time"":101},{""stimulus"":""img/3to1/2.png"",""time"":200},{""stimulus"":""img/3to1/3.png"",""time"":299},{""stimulus"":""img/3to1/4.png"",""time"":397},{""stimulus"":""img/3to1/5.png"",""time"":496},{""stimulus"":""img/3to1/6.png"",""time"":595},{""stimulus"":""img/3to1/7.png"",""time"":694},{""stimulus"":""img/3to1/8.png"",""time"":794},{""stimulus"":""img/3to1/9.png"",""time"":892},{""stimulus"":""img/3to1/10.png"",""time"":991},{""stimulus"":""img/3to1/11.png"",""time"":1090},{""stimulus"":""img/3to1/12.png"",""time"":1189}]","[]"
"image-keyboard-response","176","206058","0.0-5.0-1.86","63ee59dc6e5fbabca14d3d16","bdp_cybrbll","Tue Mar 28 2023 21:30:57 GMT-0400 (Eastern Daylight Time)","455696","3","1","","null","","","","observe","","img/1to3/1.png","null","139","229","0.5","0.1","1","2","",""
"animation","177","207346","0.0-5.0-2.86","63ee59dc6e5fbabca14d3d16","bdp_cybrbll","Tue Mar 28 2023 21:30:57 GMT-0400 (Eastern Daylight Time)","455696","3","1","","","","","","","","","","139","","","","1","2","[{""stimulus"":""img/1to2/1.png"",""time"":100},{""stimulus"":""img/1to2/2.png"",""time"":199},{""stimulus"":""img/1to2/3.png"",""time"":298},{""stimulus"":""img/1to2/4.png"",""time"":398},{""stimulus"":""img/1to2/5.png"",""time"":498},{""stimulus"":""img/1to2/6.png"",""time"":595},{""stimulus"":""img/1to2/7.png"",""time"":695},{""stimulus"":""img/1to2/8.png"",""time"":793},{""stimulus"":""img/1to2/9.png"",""time"":892},{""stimulus"":""img/1to2/10.png"",""time"":991},{""stimulus"":""img/1to2/11.png"",""time"":1090},{""stimulus"":""img/1to2/12.png"",""time"":1189}]","[]"
"image-keyboard-response","178","208676","0.0-5.0-1.87","63ee59dc6e5fbabca14d3d16","bdp_cybrbll","Tue Mar 28 2023 21:30:57 GMT-0400 (Eastern Daylight Time)","455696","3","1","","1330","","","","choice","","img/2to1/1.png","1","138","356","0.5","0.1","2","1","",""
"animation","179","209964","0.0-5.0-2.87","63ee59dc6e5fbabca14d3d16","bdp_cybrbll","Tue Mar 28 2023 21:30:57 GMT-0400 (Eastern Daylight Time)","455696","3","1","","","","","","","","","","138","","","","2","1","[{""stimulus"":""img/2to1/1.png"",""time"":101},{""stimulus"":""img/2to1/2.png"",""time"":200},{""stimulus"":""img/2to1/3.png"",""time"":299},{""stimulus"":""img/2to1/4.png"",""time"":397},{""stimulus"":""img/2to1/5.png"",""time"":497},{""stimulus"":""img/2to1/6.png"",""time"":596},{""stimulus"":""img/2to1/7.png"",""time"":694},{""stimulus"":""img/2to1/8.png"",""time"":793},{""stimulus"":""img/2to1/9.png"",""time"":892},{""stimulus"":""img/2to1/10.png"",""time"":992},{""stimulus"":""img/2to1/11.png"",""time"":1090},{""stimulus"":""img/2to1/12.png"",""time"":1190}]","[]"
"image-keyboard-response","180","210353","0.0-5.0-1.88","63ee59dc6e5fbabca14d3d16","bdp_cybrbll","Tue Mar 28 2023 21:30:57 GMT-0400 (Eastern Daylight Time)","455696","3","1","","null","","","","observe","","img/1to3/1.png","null","137","388","0.5","0.1","1","3","",""
"animation","181","211641","0.0-5.0-2.88","63ee59dc6e5fbabca14d3d16","bdp_cybrbll","Tue Mar 28 2023 21:30:57 GMT-0400 (Eastern Daylight Time)","455696","3","1","","","","","","","","","","137","","","","1","3","[{""stimulus"":""img/1to3/1.png"",""time"":100},{""stimulus"":""img/1to3/2.png"",""time"":199},{""stimulus"":""img/1to3/3.png"",""time"":299},{""stimulus"":""img/1to3/4.png"",""time"":397},{""stimulus"":""img/1to3/5.png"",""time"":496},{""stimulus"":""img/1to3/6.png"",""time"":595},{""stimulus"":""img/1to3/7.png"",""time"":694},{""stimulus"":""img/1to3/8.png"",""time"":793},{""stimulus"":""img/1to3/9.png"",""time"":892},{""stimulus"":""img/1to3/10.png"",""time"":991},{""stimulus"":""img/1to3/11.png"",""time"":1090},{""stimulus"":""img/1to3/12.png"",""time"":1189}]","[]"
"image-keyboard-response","182","212357","0.0-5.0-1.89","63ee59dc6e5fbabca14d3d16","bdp_cybrbll","Tue Mar 28 2023 21:30:57 GMT-0400 (Eastern Daylight Time)","455696","3","1","","null","","","","observe","","img/3to2/1.png","null","136","714","0.5","0.1","3","1","",""
"animation","183","213645","0.0-5.0-2.89","63ee59dc6e5fbabca14d3d16","bdp_cybrbll","Tue Mar 28 2023 21:30:57 GMT-0400 (Eastern Daylight Time)","455696","3","1","","","","","","","","","","136","","","","3","1","[{""stimulus"":""img/3to1/1.png"",""time"":100},{""stimulus"":""img/3to1/2.png"",""time"":199},{""stimulus"":""img/3to1/3.png"",""time"":298},{""stimulus"":""img/3to1/4.png"",""time"":397},{""stimulus"":""img/3to1/5.png"",""time"":495},{""stimulus"":""img/3to1/6.png"",""time"":595},{""stimulus"":""img/3to1/7.png"",""time"":694},{""stimulus"":""img/3to1/8.png"",""time"":792},{""stimulus"":""img/3to1/9.png"",""time"":891},{""stimulus"":""img/3to1/10.png"",""time"":990},{""stimulus"":""img/3to1/11.png"",""time"":1090},{""stimulus"":""img/3to1/12.png"",""time"":1189}]","[]"
"image-keyboard-response","184","214913","0.0-5.0-1.90","63ee59dc6e5fbabca14d3d16","bdp_cybrbll","Tue Mar 28 2023 21:30:57 GMT-0400 (Eastern Daylight Time)","455696","3","1","","null","","","","observe","","img/1to3/1.png","null","135","1267","0.5","0.1","1","3","",""
"animation","185","216201","0.0-5.0-2.90","63ee59dc6e5fbabca14d3d16","bdp_cybrbll","Tue Mar 28 2023 21:30:57 GMT-0400 (Eastern Daylight Time)","455696","3","1","","","","","","","","","","135","","","","1","3","[{""stimulus"":""img/1to3/1.png"",""time"":100},{""stimulus"":""img/1to3/2.png"",""time"":199},{""stimulus"":""img/1to3/3.png"",""time"":298},{""stimulus"":""img/1to3/4.png"",""time"":398},{""stimulus"":""img/1to3/5.png"",""time"":497},{""stimulus"":""img/1to3/6.png"",""time"":595},{""stimulus"":""img/1to3/7.png"",""time"":694},{""stimulus"":""img/1to3/8.png"",""time"":793},{""stimulus"":""img/1to3/9.png"",""time"":892},{""stimulus"":""img/1to3/10.png"",""time"":992},{""stimulus"":""img/1to3/11.png"",""time"":1090},{""stimulus"":""img/1to3/12.png"",""time"":1189}]","[]"
"image-keyboard-response","186","216604","0.0-5.0-1.91","63ee59dc6e5fbabca14d3d16","bdp_cybrbll","Tue Mar 28 2023 21:30:57 GMT-0400 (Eastern Daylight Time)","455696","3","1","","null","","","","observe","","img/3to2/1.png","null","134","402","0.5","0.1","3","2","",""
"animation","187","217892","0.0-5.0-2.91","63ee59dc6e5fbabca14d3d16","bdp_cybrbll","Tue Mar 28 2023 21:30:57 GMT-0400 (Eastern Daylight Time)","455696","3","1","","","","","","","","","","134","","","","3","2","[{""stimulus"":""img/3to2/1.png"",""time"":100},{""stimulus"":""img/3to2/2.png"",""time"":199},{""stimulus"":""img/3to2/3.png"",""time"":299},{""stimulus"":""img/3to2/4.png"",""time"":398},{""stimulus"":""img/3to2/5.png"",""time"":496},{""stimulus"":""img/3to2/6.png"",""time"":595},{""stimulus"":""img/3to2/7.png"",""time"":695},{""stimulus"":""img/3to2/8.png"",""time"":793},{""stimulus"":""img/3to2/9.png"",""time"":892},{""stimulus"":""img/3to2/10.png"",""time"":991},{""stimulus"":""img/3to2/11.png"",""time"":1090},{""stimulus"":""img/3to2/12.png"",""time"":1189}]","[]"
"image-keyboard-response","188","218046","0.0-5.0-1.92","63ee59dc6e5fbabca14d3d16","bdp_cybrbll","Tue Mar 28 2023 21:30:57 GMT-0400 (Eastern Daylight Time)","455696","3","1","","153","","","","choice","","img/2to1/1.png","1","133","279","0.5","0.1","2","1","",""
"animation","189","219334","0.0-5.0-2.92","63ee59dc6e5fbabca14d3d16","bdp_cybrbll","Tue Mar 28 2023 21:30:57 GMT-0400 (Eastern Daylight Time)","455696","3","1","","","","","","","","","","133","","","","2","1","[{""stimulus"":""img/2to1/1.png"",""time"":99},{""stimulus"":""img/2to1/2.png"",""time"":199},{""stimulus"":""img/2to1/3.png"",""time"":298},{""stimulus"":""img/2to1/4.png"",""time"":397},{""stimulus"":""img/2to1/5.png"",""time"":496},{""stimulus"":""img/2to1/6.png"",""time"":595},{""stimulus"":""img/2to1/7.png"",""time"":694},{""stimulus"":""img/2to1/8.png"",""time"":793},{""stimulus"":""img/2to1/9.png"",""time"":893},{""stimulus"":""img/2to1/10.png"",""time"":991},{""stimulus"":""img/2to1/11.png"",""time"":1090},{""stimulus"":""img/2to1/12.png"",""time"":1188}]","[]"
"image-keyboard-response","190","220220","0.0-5.0-1.93","63ee59dc6e5fbabca14d3d16","bdp_cybrbll","Tue Mar 28 2023 21:30:57 GMT-0400 (Eastern Daylight Time)","455696","3","1","","null","","","","observe","","img/1to3/1.png","null","132","885","0.5","0.1","1","3","",""
