"event","trial","time","trialtype","numBlurs","subject_id","task","startTime","totalTime","fairPartner","unfairPartner","trial_type","trial_index","time_elapsed","internal_node_id","view_history","rt","success","stimulus","key_press","throwsLeft","rtDur","pFair","pUnfair","holder","receiver","animation_sequence","responses"
"blur","0","0","blurevent","1","58016c9f551314000145af58","bdp_cybrbll","Fri Mar 24 2023 19:20:52 GMT-0400 (Eastern Daylight Time)","656532","3","1","","","","","","","","","","","","","","","","",""
"","","","","","58016c9f551314000145af58","bdp_cybrbll","Fri Mar 24 2023 19:20:52 GMT-0400 (Eastern Daylight Time)","656532","3","1","pavlovia","0","5","0.0-0.0","","","","","","","","","","","","",""
"focus","1","677","focusevent","","58016c9f551314000145af58","bdp_cybrbll","Fri Mar 24 2023 19:20:52 GMT-0400 (Eastern Daylight Time)","656532","3","1","","","","","","","","","","","","","","","","",""
"","","","","","58016c9f551314000145af58","bdp_cybrbll","Fri Mar 24 2023 19:20:52 GMT-0400 (Eastern Daylight Time)","656532","3","1","instructions","1","4062","0.0-1.0","[{""page_index"":0,""viewing_time"":4056}]","4056","","","","","","","","","","",""
"fullscreenenter","2","7300","fullscreenenter","","58016c9f551314000145af58","bdp_cybrbll","Fri Mar 24 2023 19:20:52 GMT-0400 (Eastern Daylight Time)","656532","3","1","","","","","","","","","","","","","","","","",""
"","","","","","58016c9f551314000145af58","bdp_cybrbll","Fri Mar 24 2023 19:20:52 GMT-0400 (Eastern Daylight Time)","656532","3","1","fullscreen","2","8233","0.0-2.0","","","true","","","","","","","","","",""
"","","","","","58016c9f551314000145af58","bdp_cybrbll","Fri Mar 24 2023 19:20:52 GMT-0400 (Eastern Daylight Time)","656532","3","1","instructions","3","188302","0.0-4.0","[{""page_index"":0,""viewing_time"":180067}]","180067","","","","","","","","","","",""
"","","","blurwarn","1","58016c9f551314000145af58","bdp_cybrbll","Fri Mar 24 2023 19:20:52 GMT-0400 (Eastern Daylight Time)","656532","3","1","image-keyboard-response","4","226316","0.0-5.0-0.0-0.0","","38011","","","49","","","","","","","",""
"","","","choice","","58016c9f551314000145af58","bdp_cybrbll","Fri Mar 24 2023 19:20:52 GMT-0400 (Eastern Daylight Time)","656532","3","1","image-keyboard-response","5","229984","0.0-5.0-1.0","","3403","","img/2to1/1.png","2","225","862","0.5","0.5","2","3","",""
"","","","","","58016c9f551314000145af58","bdp_cybrbll","Fri Mar 24 2023 19:20:52 GMT-0400 (Eastern Daylight Time)","656532","3","1","animation","6","231290","0.0-5.0-2.0","","","","","","225","","","","2","3","[{""stimulus"":""img/2to3/1.png"",""time"":101},{""stimulus"":""img/2to3/2.png"",""time"":205},{""stimulus"":""img/2to3/3.png"",""time"":306},{""stimulus"":""img/2to3/4.png"",""time"":406},{""stimulus"":""img/2to3/5.png"",""time"":513},{""stimulus"":""img/2to3/6.png"",""time"":607},{""stimulus"":""img/2to3/7.png"",""time"":705},{""stimulus"":""img/2to3/8.png"",""time"":806},{""stimulus"":""img/2to3/9.png"",""time"":893},{""stimulus"":""img/2to3/10.png"",""time"":1003},{""stimulus"":""img/2to3/11.png"",""time"":1106},{""stimulus"":""img/2to3/12.png"",""time"":1188}]","[]"
"","","","observe","","58016c9f551314000145af58","bdp_cybrbll","Fri Mar 24 2023 19:20:52 GMT-0400 (Eastern Daylight Time)","656532","3","1","image-keyboard-response","7","231581","0.0-5.0-1.1","","null","","img/3to2/1.png","null","224","285","0.5","0.5","3","2","",""
"","","","","","58016c9f551314000145af58","bdp_cybrbll","Fri Mar 24 2023 19:20:52 GMT-0400 (Eastern Daylight Time)","656532","3","1","animation","8","232873","0.0-5.0-2.1","","","","","","224","","","","3","2","[{""stimulus"":""img/3to2/1.png"",""time"":106},{""stimulus"":""img/3to2/2.png"",""time"":215},{""stimulus"":""img/3to2/3.png"",""time"":310},{""stimulus"":""img/3to2/4.png"",""time"":402},{""stimulus"":""img/3to2/5.png"",""time"":511},{""stimulus"":""img/3to2/6.png"",""time"":600},{""stimulus"":""img/3to2/7.png"",""time"":699},{""stimulus"":""img/3to2/8.png"",""time"":809},{""stimulus"":""img/3to2/9.png"",""time"":896},{""stimulus"":""img/3to2/10.png"",""time"":994},{""stimulus"":""img/3to2/11.png"",""time"":1109},{""stimulus"":""img/3to2/12.png"",""time"":1194}]","[]"
"","","","choice","","58016c9f551314000145af58","bdp_cybrbll","Fri Mar 24 2023 19:20:52 GMT-0400 (Eastern Daylight Time)","656532","3","1","image-keyboard-response","9","233960","0.0-5.0-1.2","","1086","","img/2to1/1.png","2","223","914","0.5","0.5","2","3","",""
"","","","","","58016c9f551314000145af58","bdp_cybrbll","Fri Mar 24 2023 19:20:52 GMT-0400 (Eastern Daylight Time)","656532","3","1","animation","10","235256","0.0-5.0-2.2","","","","","","223","","","","2","3","[{""stimulus"":""img/2to3/1.png"",""time"":102},{""stimulus"":""img/2to3/2.png"",""time"":210},{""stimulus"":""img/2to3/3.png"",""time"":304},{""stimulus"":""img/2to3/4.png"",""time"":397},{""stimulus"":""img/2to3/5.png"",""time"":512},{""stimulus"":""img/2to3/6.png"",""time"":597},{""stimulus"":""img/2to3/7.png"",""time"":711},{""stimulus"":""img/2to3/8.png"",""time"":813},{""stimulus"":""img/2to3/9.png"",""time"":898},{""stimulus"":""img/2to3/10.png"",""time"":1007},{""stimulus"":""img/2to3/11.png"",""time"":1096},{""stimulus"":""img/2to3/12.png"",""time"":1195}]","[]"
"","","","observe","","58016c9f551314000145af58","bdp_cybrbll","Fri Mar 24 2023 19:20:52 GMT-0400 (Eastern Daylight Time)","656532","3","1","image-keyboard-response","11","236454","0.0-5.0-1.3","","null","","img/3to2/1.png","null","222","1194","0.5","0.5","3","1","",""
"","","","","","58016c9f551314000145af58","bdp_cybrbll","Fri Mar 24 2023 19:20:52 GMT-0400 (Eastern Daylight Time)","656532","3","1","animation","12","237756","0.0-5.0-2.3","","","","","","222","","","","3","1","[{""stimulus"":""img/3to1/1.png"",""time"":112},{""stimulus"":""img/3to1/2.png"",""time"":200},{""stimulus"":""img/3to1/3.png"",""time"":318},{""stimulus"":""img/3to1/4.png"",""time"":404},{""stimulus"":""img/3to1/5.png"",""time"":513},{""stimulus"":""img/3to1/6.png"",""time"":603},{""stimulus"":""img/3to1/7.png"",""time"":700},{""stimulus"":""img/3to1/8.png"",""time"":802},{""stimulus"":""img/3to1/9.png"",""time"":904},{""stimulus"":""img/3to1/10.png"",""time"":1003},{""stimulus"":""img/3to1/11.png"",""time"":1107},{""stimulus"":""img/3to1/12.png"",""time"":1200}]","[]"
"","","","observe","","58016c9f551314000145af58","bdp_cybrbll","Fri Mar 24 2023 19:20:52 GMT-0400 (Eastern Daylight Time)","656532","3","1","image-keyboard-response","13","238420","0.0-5.0-1.4","","null","","img/1to3/1.png","null","221","640","0.5","0.5","1","3","",""
"","","","","","58016c9f551314000145af58","bdp_cybrbll","Fri Mar 24 2023 19:20:52 GMT-0400 (Eastern Daylight Time)","656532","3","1","animation","14","239724","0.0-5.0-2.4","","","","","","221","","","","1","3","[{""stimulus"":""img/1to3/1.png"",""time"":113},{""stimulus"":""img/1to3/2.png"",""time"":204},{""stimulus"":""img/1to3/3.png"",""time"":319},{""stimulus"":""img/1to3/4.png"",""time"":405},{""stimulus"":""img/1to3/5.png"",""time"":500},{""stimulus"":""img/1to3/6.png"",""time"":603},{""stimulus"":""img/1to3/7.png"",""time"":704},{""stimulus"":""img/1to3/8.png"",""time"":804},{""stimulus"":""img/1to3/9.png"",""time"":904},{""stimulus"":""img/1to3/10.png"",""time"":1004},{""stimulus"":""img/1to3/11.png"",""time"":1104},{""stimulus"":""img/1to3/12.png"",""time"":1204}]","[]"
"","","","observe","","58016c9f551314000145af58","bdp_cybrbll","Fri Mar 24 2023 19:20:52 GMT-0400 (Eastern Daylight Time)","656532","3","1","image-keyboard-response","15","240016","0.0-5.0-1.5","","null","","img/3to2/1.png","null","220","281","0.5","0.5","3","2","",""
"","","","","","58016c9f551314000145af58","bdp_cybrbll","Fri Mar 24 2023 19:20:52 GMT-0400 (Eastern Daylight Time)","656532","3","1","animation","16","241322","0.0-5.0-2.5","","","","","","220","","","","3","2","[{""stimulus"":""img/3to2/1.png"",""time"":111},{""stimulus"":""img/3to2/2.png"",""time"":207},{""stimulus"":""img/3to2/3.png"",""time"":307},{""stimulus"":""img/3to2/4.png"",""time"":407},{""stimulus"":""img/3to2/5.png"",""time"":507},{""stimulus"":""img/3to2/6.png"",""time"":607},{""stimulus"":""img/3to2/7.png"",""time"":707},{""stimulus"":""img/3to2/8.png"",""time"":798},{""stimulus"":""img/3to2/9.png"",""time"":907},{""stimulus"":""img/3to2/10.png"",""time"":998},{""stimulus"":""img/3to2/11.png"",""time"":1106},{""stimulus"":""img/3to2/12.png"",""time"":1189}]","[]"
"","","","choice","","58016c9f551314000145af58","bdp_cybrbll","Fri Mar 24 2023 19:20:52 GMT-0400 (Eastern Daylight Time)","656532","3","1","image-keyboard-response","17","242003","0.0-5.0-1.6","","681","","img/2to1/1.png","1","219","196","0.5","0.5","2","1","",""
"","","","","","58016c9f551314000145af58","bdp_cybrbll","Fri Mar 24 2023 19:20:52 GMT-0400 (Eastern Daylight Time)","656532","3","1","animation","18","243306","0.0-5.0-2.6","","","","","","219","","","","2","1","[{""stimulus"":""img/2to1/1.png"",""time"":111},{""stimulus"":""img/2to1/2.png"",""time"":214},{""stimulus"":""img/2to1/3.png"",""time"":305},{""stimulus"":""img/2to1/4.png"",""time"":417},{""stimulus"":""img/2to1/5.png"",""time"":505},{""stimulus"":""img/2to1/6.png"",""time"":604},{""stimulus"":""img/2to1/7.png"",""time"":698},{""stimulus"":""img/2to1/8.png"",""time"":803},{""stimulus"":""img/2to1/9.png"",""time"":904},{""stimulus"":""img/2to1/10.png"",""time"":1004},{""stimulus"":""img/2to1/11.png"",""time"":1105},{""stimulus"":""img/2to1/12.png"",""time"":1198}]","[]"
"","","","observe","","58016c9f551314000145af58","bdp_cybrbll","Fri Mar 24 2023 19:20:52 GMT-0400 (Eastern Daylight Time)","656532","3","1","image-keyboard-response","19","243597","0.0-5.0-1.7","","null","","img/1to3/1.png","null","218","279","0.5","0.5","1","2","",""
"","","","","","58016c9f551314000145af58","bdp_cybrbll","Fri Mar 24 2023 19:20:52 GMT-0400 (Eastern Daylight Time)","656532","3","1","animation","20","244885","0.0-5.0-2.7","","","","","","218","","","","1","2","[{""stimulus"":""img/1to2/1.png"",""time"":105},{""stimulus"":""img/1to2/2.png"",""time"":209},{""stimulus"":""img/1to2/3.png"",""time"":310},{""stimulus"":""img/1to2/4.png"",""time"":410},{""stimulus"":""img/1to2/5.png"",""time"":510},{""stimulus"":""img/1to2/6.png"",""time"":610},{""stimulus"":""img/1to2/7.png"",""time"":710},{""stimulus"":""img/1to2/8.png"",""time"":810},{""stimulus"":""img/1to2/9.png"",""time"":910},{""stimulus"":""img/1to2/10.png"",""time"":995},{""stimulus"":""img/1to2/11.png"",""time"":1096},{""stimulus"":""img/1to2/12.png"",""time"":1193}]","[]"
"","","","choice","","58016c9f551314000145af58","bdp_cybrbll","Fri Mar 24 2023 19:20:52 GMT-0400 (Eastern Daylight Time)","656532","3","1","image-keyboard-response","21","245696","0.0-5.0-1.8","","810","","img/2to1/1.png","2","217","559","0.5","0.5","2","3","",""
"","","","","","58016c9f551314000145af58","bdp_cybrbll","Fri Mar 24 2023 19:20:52 GMT-0400 (Eastern Daylight Time)","656532","3","1","animation","22","246998","0.0-5.0-2.8","","","","","","217","","","","2","3","[{""stimulus"":""img/2to3/1.png"",""time"":115},{""stimulus"":""img/2to3/2.png"",""time"":210},{""stimulus"":""img/2to3/3.png"",""time"":302},{""stimulus"":""img/2to3/4.png"",""time"":409},{""stimulus"":""img/2to3/5.png"",""time"":510},{""stimulus"":""img/2to3/6.png"",""time"":610},{""stimulus"":""img/2to3/7.png"",""time"":701},{""stimulus"":""img/2to3/8.png"",""time"":809},{""stimulus"":""img/2to3/9.png"",""time"":894},{""stimulus"":""img/2to3/10.png"",""time"":1009},{""stimulus"":""img/2to3/11.png"",""time"":1094},{""stimulus"":""img/2to3/12.png"",""time"":1193}]","[]"
"","","","observe","","58016c9f551314000145af58","bdp_cybrbll","Fri Mar 24 2023 19:20:52 GMT-0400 (Eastern Daylight Time)","656532","3","1","image-keyboard-response","23","247206","0.0-5.0-1.9","","null","","img/3to2/1.png","null","216","206","0.5","0.5","3","2","",""
"","","","","","58016c9f551314000145af58","bdp_cybrbll","Fri Mar 24 2023 19:20:52 GMT-0400 (Eastern Daylight Time)","656532","3","1","animation","24","248518","0.0-5.0-2.9","","","","","","216","","","","3","2","[{""stimulus"":""img/3to2/1.png"",""time"":104},{""stimulus"":""img/3to2/2.png"",""time"":214},{""stimulus"":""img/3to2/3.png"",""time"":308},{""stimulus"":""img/3to2/4.png"",""time"":401},{""stimulus"":""img/3to2/5.png"",""time"":518},{""stimulus"":""img/3to2/6.png"",""time"":601},{""stimulus"":""img/3to2/7.png"",""time"":695},{""stimulus"":""img/3to2/8.png"",""time"":801},{""stimulus"":""img/3to2/9.png"",""time"":902},{""stimulus"":""img/3to2/10.png"",""time"":995},{""stimulus"":""img/3to2/11.png"",""time"":1111},{""stimulus"":""img/3to2/12.png"",""time"":1204}]","[]"
"","","","choice","","58016c9f551314000145af58","bdp_cybrbll","Fri Mar 24 2023 19:20:52 GMT-0400 (Eastern Daylight Time)","656532","3","1","image-keyboard-response","25","251348","0.0-5.0-1.10","","2829","","img/2to1/1.png","1","215","244","0.5","0.5","2","1","",""
"","","","","","58016c9f551314000145af58","bdp_cybrbll","Fri Mar 24 2023 19:20:52 GMT-0400 (Eastern Daylight Time)","656532","3","1","animation","26","252643","0.0-5.0-2.10","","","","","","215","","","","2","1","[{""stimulus"":""img/2to1/1.png"",""time"":102},{""stimulus"":""img/2to1/2.png"",""time"":210},{""stimulus"":""img/2to1/3.png"",""time"":310},{""stimulus"":""img/2to1/4.png"",""time"":412},{""stimulus"":""img/2to1/5.png"",""time"":514},{""stimulus"":""img/2to1/6.png"",""time"":598},{""stimulus"":""img/2to1/7.png"",""time"":695},{""stimulus"":""img/2to1/8.png"",""time"":795},{""stimulus"":""img/2to1/9.png"",""time"":904},{""stimulus"":""img/2to1/10.png"",""time"":997},{""stimulus"":""img/2to1/11.png"",""time"":1095},{""stimulus"":""img/2to1/12.png"",""time"":1195}]","[]"
"","","","observe","","58016c9f551314000145af58","bdp_cybrbll","Fri Mar 24 2023 19:20:52 GMT-0400 (Eastern Daylight Time)","656532","3","1","image-keyboard-response","27","252847","0.0-5.0-1.11","","null","","img/1to3/1.png","null","214","189","0.5","0.5","1","2","",""
"","","","","","58016c9f551314000145af58","bdp_cybrbll","Fri Mar 24 2023 19:20:52 GMT-0400 (Eastern Daylight Time)","656532","3","1","animation","28","254143","0.0-5.0-2.11","","","","","","214","","","","1","2","[{""stimulus"":""img/1to2/1.png"",""time"":109},{""stimulus"":""img/1to2/2.png"",""time"":214},{""stimulus"":""img/1to2/3.png"",""time"":298},{""stimulus"":""img/1to2/4.png"",""time"":413},{""stimulus"":""img/1to2/5.png"",""time"":500},{""stimulus"":""img/1to2/6.png"",""time"":609},{""stimulus"":""img/1to2/7.png"",""time"":703},{""stimulus"":""img/1to2/8.png"",""time"":797},{""stimulus"":""img/1to2/9.png"",""time"":900},{""stimulus"":""img/1to2/10.png"",""time"":997},{""stimulus"":""img/1to2/11.png"",""time"":1097},{""stimulus"":""img/1to2/12.png"",""time"":1197}]","[]"
"","","","choice","","58016c9f551314000145af58","bdp_cybrbll","Fri Mar 24 2023 19:20:52 GMT-0400 (Eastern Daylight Time)","656532","3","1","image-keyboard-response","29","254928","0.0-5.0-1.12","","784","","img/2to1/1.png","2","213","987","0.5","0.5","2","3","",""
"","","","","","58016c9f551314000145af58","bdp_cybrbll","Fri Mar 24 2023 19:20:52 GMT-0400 (Eastern Daylight Time)","656532","3","1","animation","30","256227","0.0-5.0-2.12","","","","","","213","","","","2","3","[{""stimulus"":""img/2to3/1.png"",""time"":107},{""stimulus"":""img/2to3/2.png"",""time"":215},{""stimulus"":""img/2to3/3.png"",""time"":301},{""stimulus"":""img/2to3/4.png"",""time"":415},{""stimulus"":""img/2to3/5.png"",""time"":501},{""stimulus"":""img/2to3/6.png"",""time"":606},{""stimulus"":""img/2to3/7.png"",""time"":702},{""stimulus"":""img/2to3/8.png"",""time"":794},{""stimulus"":""img/2to3/9.png"",""time"":914},{""stimulus"":""img/2to3/10.png"",""time"":1001},{""stimulus"":""img/2to3/11.png"",""time"":1091},{""stimulus"":""img/2to3/12.png"",""time"":1199}]","[]"
"","","","observe","","58016c9f551314000145af58","bdp_cybrbll","Fri Mar 24 2023 19:20:52 GMT-0400 (Eastern Daylight Time)","656532","3","1","image-keyboard-response","31","256979","0.0-5.0-1.13","","null","","img/3to2/1.png","null","212","750","0.5","0.5","3","2","",""
"","","","","","58016c9f551314000145af58","bdp_cybrbll","Fri Mar 24 2023 19:20:52 GMT-0400 (Eastern Daylight Time)","656532","3","1","animation","32","258277","0.0-5.0-2.13","","","","","","212","","","","3","2","[{""stimulus"":""img/3to2/1.png"",""time"":112},{""stimulus"":""img/3to2/2.png"",""time"":199},{""stimulus"":""img/3to2/3.png"",""time"":314},{""stimulus"":""img/3to2/4.png"",""time"":399},{""stimulus"":""img/3to2/5.png"",""time"":509},{""stimulus"":""img/3to2/6.png"",""time"":602},{""stimulus"":""img/3to2/7.png"",""time"":698},{""stimulus"":""img/3to2/8.png"",""time"":814},{""stimulus"":""img/3to2/9.png"",""time"":895},{""stimulus"":""img/3to2/10.png"",""time"":998},{""stimulus"":""img/3to2/11.png"",""time"":1099},{""stimulus"":""img/3to2/12.png"",""time"":1199}]","[]"
"","","","choice","","58016c9f551314000145af58","bdp_cybrbll","Fri Mar 24 2023 19:20:52 GMT-0400 (Eastern Daylight Time)","656532","3","1","image-keyboard-response","33","259340","0.0-5.0-1.14","","1062","","img/2to1/1.png","1","211","424","0.5","0.5","2","1","",""
"","","","","","58016c9f551314000145af58","bdp_cybrbll","Fri Mar 24 2023 19:20:52 GMT-0400 (Eastern Daylight Time)","656532","3","1","animation","34","260644","0.0-5.0-2.14","","","","","","211","","","","2","1","[{""stimulus"":""img/2to1/1.png"",""time"":105},{""stimulus"":""img/2to1/2.png"",""time"":211},{""stimulus"":""img/2to1/3.png"",""time"":304},{""stimulus"":""img/2to1/4.png"",""time"":404},{""stimulus"":""img/2to1/5.png"",""time"":504},{""stimulus"":""img/2to1/6.png"",""time"":599},{""stimulus"":""img/2to1/7.png"",""time"":703},{""stimulus"":""img/2to1/8.png"",""time"":803},{""stimulus"":""img/2to1/9.png"",""time"":904},{""stimulus"":""img/2to1/10.png"",""time"":1004},{""stimulus"":""img/2to1/11.png"",""time"":1101},{""stimulus"":""img/2to1/12.png"",""time"":1204}]","[]"
"","","","observe","","58016c9f551314000145af58","bdp_cybrbll","Fri Mar 24 2023 19:20:52 GMT-0400 (Eastern Daylight Time)","656532","3","1","image-keyboard-response","35","261240","0.0-5.0-1.15","","null","","img/1to3/1.png","null","210","585","0.5","0.5","1","3","",""
"","","","","","58016c9f551314000145af58","bdp_cybrbll","Fri Mar 24 2023 19:20:52 GMT-0400 (Eastern Daylight Time)","656532","3","1","animation","36","262535","0.0-5.0-2.15","","","","","","210","","","","1","3","[{""stimulus"":""img/1to3/1.png"",""time"":112},{""stimulus"":""img/1to3/2.png"",""time"":204},{""stimulus"":""img/1to3/3.png"",""time"":304},{""stimulus"":""img/1to3/4.png"",""time"":404},{""stimulus"":""img/1to3/5.png"",""time"":504},{""stimulus"":""img/1to3/6.png"",""time"":607},{""stimulus"":""img/1to3/7.png"",""time"":701},{""stimulus"":""img/1to3/8.png"",""time"":795},{""stimulus"":""img/1to3/9.png"",""time"":903},{""stimulus"":""img/1to3/10.png"",""time"":1004},{""stimulus"":""img/1to3/11.png"",""time"":1091},{""stimulus"":""img/1to3/12.png"",""time"":1204}]","[]"
"","","","observe","","58016c9f551314000145af58","bdp_cybrbll","Fri Mar 24 2023 19:20:52 GMT-0400 (Eastern Daylight Time)","656532","3","1","image-keyboard-response","37","262874","0.0-5.0-1.16","","null","","img/3to2/1.png","null","209","337","0.5","0.5","3","1","",""
"","","","","","58016c9f551314000145af58","bdp_cybrbll","Fri Mar 24 2023 19:20:52 GMT-0400 (Eastern Daylight Time)","656532","3","1","animation","38","264175","0.0-5.0-2.16","","","","","","209","","","","3","1","[{""stimulus"":""img/3to1/1.png"",""time"":104},{""stimulus"":""img/3to1/2.png"",""time"":203},{""stimulus"":""img/3to1/3.png"",""time"":304},{""stimulus"":""img/3to1/4.png"",""time"":402},{""stimulus"":""img/3to1/5.png"",""time"":518},{""stimulus"":""img/3to1/6.png"",""time"":613},{""stimulus"":""img/3to1/7.png"",""time"":707},{""stimulus"":""img/3to1/8.png"",""time"":800},{""stimulus"":""img/3to1/9.png"",""time"":902},{""stimulus"":""img/3to1/10.png"",""time"":1003},{""stimulus"":""img/3to1/11.png"",""time"":1096},{""stimulus"":""img/3to1/12.png"",""time"":1191}]","[]"
"","","","observe","","58016c9f551314000145af58","bdp_cybrbll","Fri Mar 24 2023 19:20:52 GMT-0400 (Eastern Daylight Time)","656532","3","1","image-keyboard-response","39","264610","0.0-5.0-1.17","","null","","img/1to3/1.png","null","208","432","0.5","0.5","1","2","",""
"","","","","","58016c9f551314000145af58","bdp_cybrbll","Fri Mar 24 2023 19:20:52 GMT-0400 (Eastern Daylight Time)","656532","3","1","animation","40","265910","0.0-5.0-2.17","","","","","","208","","","","1","2","[{""stimulus"":""img/1to2/1.png"",""time"":114},{""stimulus"":""img/1to2/2.png"",""time"":201},{""stimulus"":""img/1to2/3.png"",""time"":316},{""stimulus"":""img/1to2/4.png"",""time"":402},{""stimulus"":""img/1to2/5.png"",""time"":503},{""stimulus"":""img/1to2/6.png"",""time"":612},{""stimulus"":""img/1to2/7.png"",""time"":706},{""stimulus"":""img/1to2/8.png"",""time"":815},{""stimulus"":""img/1to2/9.png"",""time"":909},{""stimulus"":""img/1to2/10.png"",""time"":1000},{""stimulus"":""img/1to2/11.png"",""time"":1096},{""stimulus"":""img/1to2/12.png"",""time"":1200}]","[]"
"","","","choice","","58016c9f551314000145af58","bdp_cybrbll","Fri Mar 24 2023 19:20:52 GMT-0400 (Eastern Daylight Time)","656532","3","1","image-keyboard-response","41","267719","0.0-5.0-1.18","","1809","","img/2to1/1.png","2","207","314","0.5","0.5","2","3","",""
"","","","","","58016c9f551314000145af58","bdp_cybrbll","Fri Mar 24 2023 19:20:52 GMT-0400 (Eastern Daylight Time)","656532","3","1","animation","42","269010","0.0-5.0-2.18","","","","","","207","","","","2","3","[{""stimulus"":""img/2to3/1.png"",""time"":119},{""stimulus"":""img/2to3/2.png"",""time"":206},{""stimulus"":""img/2to3/3.png"",""time"":300},{""stimulus"":""img/2to3/4.png"",""time"":407},{""stimulus"":""img/2to3/5.png"",""time"":500},{""stimulus"":""img/2to3/6.png"",""time"":607},{""stimulus"":""img/2to3/7.png"",""time"":708},{""stimulus"":""img/2to3/8.png"",""time"":793},{""stimulus"":""img/2to3/9.png"",""time"":907},{""stimulus"":""img/2to3/10.png"",""time"":1008},{""stimulus"":""img/2to3/11.png"",""time"":1092},{""stimulus"":""img/2to3/12.png"",""time"":1206}]","[]"
"","","","observe","","58016c9f551314000145af58","bdp_cybrbll","Fri Mar 24 2023 19:20:52 GMT-0400 (Eastern Daylight Time)","656532","3","1","image-keyboard-response","43","269649","0.0-5.0-1.19","","null","","img/3to2/1.png","null","206","618","0.5","0.5","3","2","",""
"","","","","","58016c9f551314000145af58","bdp_cybrbll","Fri Mar 24 2023 19:20:52 GMT-0400 (Eastern Daylight Time)","656532","3","1","animation","44","270943","0.0-5.0-2.19","","","","","","206","","","","3","2","[{""stimulus"":""img/3to2/1.png"",""time"":112},{""stimulus"":""img/3to2/2.png"",""time"":211},{""stimulus"":""img/3to2/3.png"",""time"":311},{""stimulus"":""img/3to2/4.png"",""time"":417},{""stimulus"":""img/3to2/5.png"",""time"":496},{""stimulus"":""img/3to2/6.png"",""time"":604},{""stimulus"":""img/3to2/7.png"",""time"":710},{""stimulus"":""img/3to2/8.png"",""time"":808},{""stimulus"":""img/3to2/9.png"",""time"":911},{""stimulus"":""img/3to2/10.png"",""time"":996},{""stimulus"":""img/3to2/11.png"",""time"":1111},{""stimulus"":""img/3to2/12.png"",""time"":1195}]","[]"
"","","","choice","","58016c9f551314000145af58","bdp_cybrbll","Fri Mar 24 2023 19:20:52 GMT-0400 (Eastern Daylight Time)","656532","3","1","image-keyboard-response","45","272876","0.0-5.0-1.20","","1932","","img/2to1/1.png","1","205","450","0.5","0.5","2","1","",""
"","","","","","58016c9f551314000145af58","bdp_cybrbll","Fri Mar 24 2023 19:20:52 GMT-0400 (Eastern Daylight Time)","656532","3","1","animation","46","274175","0.0-5.0-2.20","","","","","","205","","","","2","1","[{""stimulus"":""img/2to1/1.png"",""time"":116},{""stimulus"":""img/2to1/2.png"",""time"":221},{""stimulus"":""img/2to1/3.png"",""time"":315},{""stimulus"":""img/2to1/4.png"",""time"":408},{""stimulus"":""img/2to1/5.png"",""time"":502},{""stimulus"":""img/2to1/6.png"",""time"":601},{""stimulus"":""img/2to1/7.png"",""time"":701},{""stimulus"":""img/2to1/8.png"",""time"":801},{""stimulus"":""img/2to1/9.png"",""time"":909},{""stimulus"":""img/2to1/10.png"",""time"":1000},{""stimulus"":""img/2to1/11.png"",""time"":1100},{""stimulus"":""img/2to1/12.png"",""time"":1206}]","[]"
"","","","observe","","58016c9f551314000145af58","bdp_cybrbll","Fri Mar 24 2023 19:20:52 GMT-0400 (Eastern Daylight Time)","656532","3","1","image-keyboard-response","47","274540","0.0-5.0-1.21","","null","","img/1to3/1.png","null","204","347","0.5","0.5","1","3","",""
"","","","","","58016c9f551314000145af58","bdp_cybrbll","Fri Mar 24 2023 19:20:52 GMT-0400 (Eastern Daylight Time)","656532","3","1","animation","48","275843","0.0-5.0-2.21","","","","","","204","","","","1","3","[{""stimulus"":""img/1to3/1.png"",""time"":103},{""stimulus"":""img/1to3/2.png"",""time"":218},{""stimulus"":""img/1to3/3.png"",""time"":304},{""stimulus"":""img/1to3/4.png"",""time"":403},{""stimulus"":""img/1to3/5.png"",""time"":509},{""stimulus"":""img/1to3/6.png"",""time"":604},{""stimulus"":""img/1to3/7.png"",""time"":696},{""stimulus"":""img/1to3/8.png"",""time"":806},{""stimulus"":""img/1to3/9.png"",""time"":903},{""stimulus"":""img/1to3/10.png"",""time"":1002},{""stimulus"":""img/1to3/11.png"",""time"":1094},{""stimulus"":""img/1to3/12.png"",""time"":1201}]","[]"
"","","","observe","","58016c9f551314000145af58","bdp_cybrbll","Fri Mar 24 2023 19:20:52 GMT-0400 (Eastern Daylight Time)","656532","3","1","image-keyboard-response","49","276363","0.0-5.0-1.22","","null","","img/3to2/1.png","null","203","513","0.5","0.5","3","2","",""
"","","","","","58016c9f551314000145af58","bdp_cybrbll","Fri Mar 24 2023 19:20:52 GMT-0400 (Eastern Daylight Time)","656532","3","1","animation","50","277660","0.0-5.0-2.22","","","","","","203","","","","3","2","[{""stimulus"":""img/3to2/1.png"",""time"":109},{""stimulus"":""img/3to2/2.png"",""time"":203},{""stimulus"":""img/3to2/3.png"",""time"":312},{""stimulus"":""img/3to2/4.png"",""time"":400},{""stimulus"":""img/3to2/5.png"",""time"":515},{""stimulus"":""img/3to2/6.png"",""time"":613},{""stimulus"":""img/3to2/7.png"",""time"":698},{""stimulus"":""img/3to2/8.png"",""time"":812},{""stimulus"":""img/3to2/9.png"",""time"":898},{""stimulus"":""img/3to2/10.png"",""time"":997},{""stimulus"":""img/3to2/11.png"",""time"":1097},{""stimulus"":""img/3to2/12.png"",""time"":1197}]","[]"
"","","","choice","","58016c9f551314000145af58","bdp_cybrbll","Fri Mar 24 2023 19:20:52 GMT-0400 (Eastern Daylight Time)","656532","3","1","image-keyboard-response","51","279039","0.0-5.0-1.23","","1379","","img/2to1/1.png","2","202","243","0.5","0.5","2","3","",""
"","","","","","58016c9f551314000145af58","bdp_cybrbll","Fri Mar 24 2023 19:20:52 GMT-0400 (Eastern Daylight Time)","656532","3","1","animation","52","280343","0.0-5.0-2.23","","","","","","202","","","","2","3","[{""stimulus"":""img/2to3/1.png"",""time"":121},{""stimulus"":""img/2to3/2.png"",""time"":205},{""stimulus"":""img/2to3/3.png"",""time"":300},{""stimulus"":""img/2to3/4.png"",""time"":405},{""stimulus"":""img/2to3/5.png"",""time"":505},{""stimulus"":""img/2to3/6.png"",""time"":605},{""stimulus"":""img/2to3/7.png"",""time"":705},{""stimulus"":""img/2to3/8.png"",""time"":808},{""stimulus"":""img/2to3/9.png"",""time"":901},{""stimulus"":""img/2to3/10.png"",""time"":1004},{""stimulus"":""img/2to3/11.png"",""time"":1092},{""stimulus"":""img/2to3/12.png"",""time"":1204}]","[]"
"","","","observe","","58016c9f551314000145af58","bdp_cybrbll","Fri Mar 24 2023 19:20:52 GMT-0400 (Eastern Daylight Time)","656532","3","1","image-keyboard-response","53","280891","0.0-5.0-1.24","","null","","img/3to2/1.png","null","201","539","0.5","0.5","3","2","",""
"","","","","","58016c9f551314000145af58","bdp_cybrbll","Fri Mar 24 2023 19:20:52 GMT-0400 (Eastern Daylight Time)","656532","3","1","animation","54","282187","0.0-5.0-2.24","","","","","","201","","","","3","2","[{""stimulus"":""img/3to2/1.png"",""time"":104},{""stimulus"":""img/3to2/2.png"",""time"":202},{""stimulus"":""img/3to2/3.png"",""time"":303},{""stimulus"":""img/3to2/4.png"",""time"":403},{""stimulus"":""img/3to2/5.png"",""time"":519},{""stimulus"":""img/3to2/6.png"",""time"":603},{""stimulus"":""img/3to2/7.png"",""time"":702},{""stimulus"":""img/3to2/8.png"",""time"":800},{""stimulus"":""img/3to2/9.png"",""time"":902},{""stimulus"":""img/3to2/10.png"",""time"":1003},{""stimulus"":""img/3to2/11.png"",""time"":1096},{""stimulus"":""img/3to2/12.png"",""time"":1201}]","[]"
"","","","choice","","58016c9f551314000145af58","bdp_cybrbll","Fri Mar 24 2023 19:20:52 GMT-0400 (Eastern Daylight Time)","656532","3","1","image-keyboard-response","55","283412","0.0-5.0-1.25","","1225","","img/2to1/1.png","1","200","682","0.5","0.5","2","1","",""
"","","","","","58016c9f551314000145af58","bdp_cybrbll","Fri Mar 24 2023 19:20:52 GMT-0400 (Eastern Daylight Time)","656532","3","1","animation","56","284706","0.0-5.0-2.25","","","","","","200","","","","2","1","[{""stimulus"":""img/2to1/1.png"",""time"":109},{""stimulus"":""img/2to1/2.png"",""time"":214},{""stimulus"":""img/2to1/3.png"",""time"":302},{""stimulus"":""img/2to1/4.png"",""time"":414},{""stimulus"":""img/2to1/5.png"",""time"":503},{""stimulus"":""img/2to1/6.png"",""time"":613},{""stimulus"":""img/2to1/7.png"",""time"":699},{""stimulus"":""img/2to1/8.png"",""time"":810},{""stimulus"":""img/2to1/9.png"",""time"":899},{""stimulus"":""img/2to1/10.png"",""time"":1013},{""stimulus"":""img/2to1/11.png"",""time"":1107},{""stimulus"":""img/2to1/12.png"",""time"":1201}]","[]"
"","","","observe","","58016c9f551314000145af58","bdp_cybrbll","Fri Mar 24 2023 19:20:52 GMT-0400 (Eastern Daylight Time)","656532","3","1","image-keyboard-response","57","285303","0.0-5.0-1.26","","null","","img/1to3/1.png","null","199","584","0.5","0.5","1","3","",""
"","","","","","58016c9f551314000145af58","bdp_cybrbll","Fri Mar 24 2023 19:20:52 GMT-0400 (Eastern Daylight Time)","656532","3","1","animation","58","286594","0.0-5.0-2.26","","","","","","199","","","","1","3","[{""stimulus"":""img/1to3/1.png"",""time"":122},{""stimulus"":""img/1to3/2.png"",""time"":207},{""stimulus"":""img/1to3/3.png"",""time"":306},{""stimulus"":""img/1to3/4.png"",""time"":419},{""stimulus"":""img/1to3/5.png"",""time"":508},{""stimulus"":""img/1to3/6.png"",""time"":595},{""stimulus"":""img/1to3/7.png"",""time"":706},{""stimulus"":""img/1to3/8.png"",""time"":807},{""stimulus"":""img/1to3/9.png"",""time"":900},{""stimulus"":""img/1to3/10.png"",""time"":1005},{""stimulus"":""img/1to3/11.png"",""time"":1106},{""stimulus"":""img/1to3/12.png"",""time"":1206}]","[]"
"","","","observe","","58016c9f551314000145af58","bdp_cybrbll","Fri Mar 24 2023 19:20:52 GMT-0400 (Eastern Daylight Time)","656532","3","1","image-keyboard-response","59","286879","0.0-5.0-1.27","","null","","img/3to2/1.png","null","198","277","0.5","0.5","3","2","",""
"","","","","","58016c9f551314000145af58","bdp_cybrbll","Fri Mar 24 2023 19:20:52 GMT-0400 (Eastern Daylight Time)","656532","3","1","animation","60","288170","0.0-5.0-2.27","","","","","","198","","","","3","2","[{""stimulus"":""img/3to2/1.png"",""time"":108},{""stimulus"":""img/3to2/2.png"",""time"":213},{""stimulus"":""img/3to2/3.png"",""time"":300},{""stimulus"":""img/3to2/4.png"",""time"":413},{""stimulus"":""img/3to2/5.png"",""time"":500},{""stimulus"":""img/3to2/6.png"",""time"":597},{""stimulus"":""img/3to2/7.png"",""time"":713},{""stimulus"":""img/3to2/8.png"",""time"":798},{""stimulus"":""img/3to2/9.png"",""time"":913},{""stimulus"":""img/3to2/10.png"",""time"":998},{""stimulus"":""img/3to2/11.png"",""time"":1093},{""stimulus"":""img/3to2/12.png"",""time"":1198}]","[]"
"","","","choice","","58016c9f551314000145af58","bdp_cybrbll","Fri Mar 24 2023 19:20:52 GMT-0400 (Eastern Daylight Time)","656532","3","1","image-keyboard-response","61","288635","0.0-5.0-1.28","","464","","img/2to1/1.png","1","197","530","0.5","0.5","2","1","",""
"","","","","","58016c9f551314000145af58","bdp_cybrbll","Fri Mar 24 2023 19:20:52 GMT-0400 (Eastern Daylight Time)","656532","3","1","animation","62","289931","0.0-5.0-2.28","","","","","","197","","","","2","1","[{""stimulus"":""img/2to1/1.png"",""time"":107},{""stimulus"":""img/2to1/2.png"",""time"":211},{""stimulus"":""img/2to1/3.png"",""time"":305},{""stimulus"":""img/2to1/4.png"",""time"":407},{""stimulus"":""img/2to1/5.png"",""time"":508},{""stimulus"":""img/2to1/6.png"",""time"":599},{""stimulus"":""img/2to1/7.png"",""time"":706},{""stimulus"":""img/2to1/8.png"",""time"":804},{""stimulus"":""img/2to1/9.png"",""time"":907},{""stimulus"":""img/2to1/10.png"",""time"":992},{""stimulus"":""img/2to1/11.png"",""time"":1102},{""stimulus"":""img/2to1/12.png"",""time"":1191}]","[]"
"","","","observe","","58016c9f551314000145af58","bdp_cybrbll","Fri Mar 24 2023 19:20:52 GMT-0400 (Eastern Daylight Time)","656532","3","1","image-keyboard-response","63","290231","0.0-5.0-1.29","","null","","img/1to3/1.png","null","196","283","0.5","0.5","1","2","",""
"","","","","","58016c9f551314000145af58","bdp_cybrbll","Fri Mar 24 2023 19:20:52 GMT-0400 (Eastern Daylight Time)","656532","3","1","animation","64","291527","0.0-5.0-2.29","","","","","","196","","","","1","2","[{""stimulus"":""img/1to2/1.png"",""time"":112},{""stimulus"":""img/1to2/2.png"",""time"":203},{""stimulus"":""img/1to2/3.png"",""time"":311},{""stimulus"":""img/1to2/4.png"",""time"":413},{""stimulus"":""img/1to2/5.png"",""time"":512},{""stimulus"":""img/1to2/6.png"",""time"":596},{""stimulus"":""img/1to2/7.png"",""time"":711},{""stimulus"":""img/1to2/8.png"",""time"":796},{""stimulus"":""img/1to2/9.png"",""time"":913},{""stimulus"":""img/1to2/10.png"",""time"":995},{""stimulus"":""img/1to2/11.png"",""time"":1095},{""stimulus"":""img/1to2/12.png"",""time"":1211}]","[]"
"","","","choice","","58016c9f551314000145af58","bdp_cybrbll","Fri Mar 24 2023 19:20:52 GMT-0400 (Eastern Daylight Time)","656532","3","1","image-keyboard-response","65","292199","0.0-5.0-1.30","","671","","img/2to1/1.png","2","195","191","0.5","0.5","2","3","",""
"","","","","","58016c9f551314000145af58","bdp_cybrbll","Fri Mar 24 2023 19:20:52 GMT-0400 (Eastern Daylight Time)","656532","3","1","animation","66","293494","0.0-5.0-2.30","","","","","","195","","","","2","3","[{""stimulus"":""img/2to3/1.png"",""time"":117},{""stimulus"":""img/2to3/2.png"",""time"":211},{""stimulus"":""img/2to3/3.png"",""time"":310},{""stimulus"":""img/2to3/4.png"",""time"":414},{""stimulus"":""img/2to3/5.png"",""time"":507},{""stimulus"":""img/2to3/6.png"",""time"":603},{""stimulus"":""img/2to3/7.png"",""time"":710},{""stimulus"":""img/2to3/8.png"",""time"":795},{""stimulus"":""img/2to3/9.png"",""time"":910},{""stimulus"":""img/2to3/10.png"",""time"":1007},{""stimulus"":""img/2to3/11.png"",""time"":1102},{""stimulus"":""img/2to3/12.png"",""time"":1209}]","[]"
"","","","observe","","58016c9f551314000145af58","bdp_cybrbll","Fri Mar 24 2023 19:20:52 GMT-0400 (Eastern Daylight Time)","656532","3","1","image-keyboard-response","67","294130","0.0-5.0-1.31","","null","","img/3to2/1.png","null","194","634","0.5","0.5","3","1","",""
"","","","","","58016c9f551314000145af58","bdp_cybrbll","Fri Mar 24 2023 19:20:52 GMT-0400 (Eastern Daylight Time)","656532","3","1","animation","68","295426","0.0-5.0-2.31","","","","","","194","","","","3","1","[{""stimulus"":""img/3to1/1.png"",""time"":113},{""stimulus"":""img/3to1/2.png"",""time"":213},{""stimulus"":""img/3to1/3.png"",""time"":313},{""stimulus"":""img/3to1/4.png"",""time"":413},{""stimulus"":""img/3to1/5.png"",""time"":497},{""stimulus"":""img/3to1/6.png"",""time"":608},{""stimulus"":""img/3to1/7.png"",""time"":702},{""stimulus"":""img/3to1/8.png"",""time"":811},{""stimulus"":""img/3to1/9.png"",""time"":897},{""stimulus"":""img/3to1/10.png"",""time"":993},{""stimulus"":""img/3to1/11.png"",""time"":1097},{""stimulus"":""img/3to1/12.png"",""time"":1196}]","[]"
"","","","observe","","58016c9f551314000145af58","bdp_cybrbll","Fri Mar 24 2023 19:20:52 GMT-0400 (Eastern Daylight Time)","656532","3","1","image-keyboard-response","69","295846","0.0-5.0-1.32","","null","","img/1to3/1.png","null","193","408","0.5","0.5","1","3","",""
"","","","","","58016c9f551314000145af58","bdp_cybrbll","Fri Mar 24 2023 19:20:52 GMT-0400 (Eastern Daylight Time)","656532","3","1","animation","70","297143","0.0-5.0-2.32","","","","","","193","","","","1","3","[{""stimulus"":""img/1to3/1.png"",""time"":111},{""stimulus"":""img/1to3/2.png"",""time"":214},{""stimulus"":""img/1to3/3.png"",""time"":298},{""stimulus"":""img/1to3/4.png"",""time"":408},{""stimulus"":""img/1to3/5.png"",""time"":513},{""stimulus"":""img/1to3/6.png"",""time"":610},{""stimulus"":""img/1to3/7.png"",""time"":713},{""stimulus"":""img/1to3/8.png"",""time"":796},{""stimulus"":""img/1to3/9.png"",""time"":897},{""stimulus"":""img/1to3/10.png"",""time"":997},{""stimulus"":""img/1to3/11.png"",""time"":1096},{""stimulus"":""img/1to3/12.png"",""time"":1212}]","[]"
"","","","observe","","58016c9f551314000145af58","bdp_cybrbll","Fri Mar 24 2023 19:20:52 GMT-0400 (Eastern Daylight Time)","656532","3","1","image-keyboard-response","71","297770","0.0-5.0-1.33","","null","","img/3to2/1.png","null","192","610","0.5","0.5","3","2","",""
"","","","","","58016c9f551314000145af58","bdp_cybrbll","Fri Mar 24 2023 19:20:52 GMT-0400 (Eastern Daylight Time)","656532","3","1","animation","72","299065","0.0-5.0-2.33","","","","","","192","","","","3","2","[{""stimulus"":""img/3to2/1.png"",""time"":109},{""stimulus"":""img/3to2/2.png"",""time"":207},{""stimulus"":""img/3to2/3.png"",""time"":306},{""stimulus"":""img/3to2/4.png"",""time"":406},{""stimulus"":""img/3to2/5.png"",""time"":506},{""stimulus"":""img/3to2/6.png"",""time"":606},{""stimulus"":""img/3to2/7.png"",""time"":706},{""stimulus"":""img/3to2/8.png"",""time"":806},{""stimulus"":""img/3to2/9.png"",""time"":906},{""stimulus"":""img/3to2/10.png"",""time"":1006},{""stimulus"":""img/3to2/11.png"",""time"":1108},{""stimulus"":""img/3to2/12.png"",""time"":1202}]","[]"
"","","","choice","","58016c9f551314000145af58","bdp_cybrbll","Fri Mar 24 2023 19:20:52 GMT-0400 (Eastern Daylight Time)","656532","3","1","image-keyboard-response","73","299627","0.0-5.0-1.34","","561","","img/2to1/1.png","1","191","627","0.5","0.5","2","1","",""
"","","","","","58016c9f551314000145af58","bdp_cybrbll","Fri Mar 24 2023 19:20:52 GMT-0400 (Eastern Daylight Time)","656532","3","1","animation","74","300925","0.0-5.0-2.34","","","","","","191","","","","2","1","[{""stimulus"":""img/2to1/1.png"",""time"":114},{""stimulus"":""img/2to1/2.png"",""time"":200},{""stimulus"":""img/2to1/3.png"",""time"":317},{""stimulus"":""img/2to1/4.png"",""time"":399},{""stimulus"":""img/2to1/5.png"",""time"":515},{""stimulus"":""img/2to1/6.png"",""time"":600},{""stimulus"":""img/2to1/7.png"",""time"":699},{""stimulus"":""img/2to1/8.png"",""time"":814},{""stimulus"":""img/2to1/9.png"",""time"":900},{""stimulus"":""img/2to1/10.png"",""time"":1002},{""stimulus"":""img/2to1/11.png"",""time"":1111},{""stimulus"":""img/2to1/12.png"",""time"":1204}]","[]"
"","","","observe","","58016c9f551314000145af58","bdp_cybrbll","Fri Mar 24 2023 19:20:52 GMT-0400 (Eastern Daylight Time)","656532","3","1","image-keyboard-response","75","301112","0.0-5.0-1.35","","null","","img/1to3/1.png","null","190","177","0.5","0.5","1","3","",""
"","","","","","58016c9f551314000145af58","bdp_cybrbll","Fri Mar 24 2023 19:20:52 GMT-0400 (Eastern Daylight Time)","656532","3","1","animation","76","302409","0.0-5.0-2.35","","","","","","190","","","","1","3","[{""stimulus"":""img/1to3/1.png"",""time"":113},{""stimulus"":""img/1to3/2.png"",""time"":214},{""stimulus"":""img/1to3/3.png"",""time"":298},{""stimulus"":""img/1to3/4.png"",""time"":413},{""stimulus"":""img/1to3/5.png"",""time"":498},{""stimulus"":""img/1to3/6.png"",""time"":613},{""stimulus"":""img/1to3/7.png"",""time"":699},{""stimulus"":""img/1to3/8.png"",""time"":797},{""stimulus"":""img/1to3/9.png"",""time"":907},{""stimulus"":""img/1to3/10.png"",""time"":995},{""stimulus"":""img/1to3/11.png"",""time"":1098},{""stimulus"":""img/1to3/12.png"",""time"":1206}]","[]"
"","","","observe","","58016c9f551314000145af58","bdp_cybrbll","Fri Mar 24 2023 19:20:52 GMT-0400 (Eastern Daylight Time)","656532","3","1","image-keyboard-response","77","302699","0.0-5.0-1.36","","null","","img/3to2/1.png","null","189","284","0.5","0.5","3","2","",""
"","","","","","58016c9f551314000145af58","bdp_cybrbll","Fri Mar 24 2023 19:20:52 GMT-0400 (Eastern Daylight Time)","656532","3","1","animation","78","304008","0.0-5.0-2.36","","","","","","189","","","","3","2","[{""stimulus"":""img/3to2/1.png"",""time"":112},{""stimulus"":""img/3to2/2.png"",""time"":199},{""stimulus"":""img/3to2/3.png"",""time"":310},{""stimulus"":""img/3to2/4.png"",""time"":414},{""stimulus"":""img/3to2/5.png"",""time"":511},{""stimulus"":""img/3to2/6.png"",""time"":611},{""stimulus"":""img/3to2/7.png"",""time"":711},{""stimulus"":""img/3to2/8.png"",""time"":810},{""stimulus"":""img/3to2/9.png"",""time"":900},{""stimulus"":""img/3to2/10.png"",""time"":994},{""stimulus"":""img/3to2/11.png"",""time"":1096},{""stimulus"":""img/3to2/12.png"",""time"":1193}]","[]"
"","","","choice","","58016c9f551314000145af58","bdp_cybrbll","Fri Mar 24 2023 19:20:52 GMT-0400 (Eastern Daylight Time)","656532","3","1","image-keyboard-response","79","304375","0.0-5.0-1.37","","365","","img/2to1/1.png","2","188","727","0.5","0.5","2","3","",""
"","","","","","58016c9f551314000145af58","bdp_cybrbll","Fri Mar 24 2023 19:20:52 GMT-0400 (Eastern Daylight Time)","656532","3","1","animation","80","305676","0.0-5.0-2.37","","","","","","188","","","","2","3","[{""stimulus"":""img/2to3/1.png"",""time"":113},{""stimulus"":""img/2to3/2.png"",""time"":203},{""stimulus"":""img/2to3/3.png"",""time"":301},{""stimulus"":""img/2to3/4.png"",""time"":417},{""stimulus"":""img/2to3/5.png"",""time"":500},{""stimulus"":""img/2to3/6.png"",""time"":601},{""stimulus"":""img/2to3/7.png"",""time"":701},{""stimulus"":""img/2to3/8.png"",""time"":801},{""stimulus"":""img/2to3/9.png"",""time"":901},{""stimulus"":""img/2to3/10.png"",""time"":1001},{""stimulus"":""img/2to3/11.png"",""time"":1101},{""stimulus"":""img/2to3/12.png"",""time"":1201}]","[]"
"","","","observe","","58016c9f551314000145af58","bdp_cybrbll","Fri Mar 24 2023 19:20:52 GMT-0400 (Eastern Daylight Time)","656532","3","1","image-keyboard-response","81","305946","0.0-5.0-1.38","","null","","img/3to2/1.png","null","187","262","0.5","0.5","3","1","",""
"","","","","","58016c9f551314000145af58","bdp_cybrbll","Fri Mar 24 2023 19:20:52 GMT-0400 (Eastern Daylight Time)","656532","3","1","animation","82","307242","0.0-5.0-2.38","","","","","","187","","","","3","1","[{""stimulus"":""img/3to1/1.png"",""time"":103},{""stimulus"":""img/3to1/2.png"",""time"":213},{""stimulus"":""img/3to1/3.png"",""time"":312},{""stimulus"":""img/3to1/4.png"",""time"":412},{""stimulus"":""img/3to1/5.png"",""time"":510},{""stimulus"":""img/3to1/6.png"",""time"":600},{""stimulus"":""img/3to1/7.png"",""time"":697},{""stimulus"":""img/3to1/8.png"",""time"":811},{""stimulus"":""img/3to1/9.png"",""time"":900},{""stimulus"":""img/3to1/10.png"",""time"":996},{""stimulus"":""img/3to1/11.png"",""time"":1096},{""stimulus"":""img/3to1/12.png"",""time"":1192}]","[]"
"","","","observe","","58016c9f551314000145af58","bdp_cybrbll","Fri Mar 24 2023 19:20:52 GMT-0400 (Eastern Daylight Time)","656532","3","1","image-keyboard-response","83","307611","0.0-5.0-1.39","","null","","img/1to3/1.png","null","186","363","0.5","0.5","1","3","",""
"","","","","","58016c9f551314000145af58","bdp_cybrbll","Fri Mar 24 2023 19:20:52 GMT-0400 (Eastern Daylight Time)","656532","3","1","animation","84","308911","0.0-5.0-2.39","","","","","","186","","","","1","3","[{""stimulus"":""img/1to3/1.png"",""time"":111},{""stimulus"":""img/1to3/2.png"",""time"":215},{""stimulus"":""img/1to3/3.png"",""time"":303},{""stimulus"":""img/1to3/4.png"",""time"":413},{""stimulus"":""img/1to3/5.png"",""time"":514},{""stimulus"":""img/1to3/6.png"",""time"":599},{""stimulus"":""img/1to3/7.png"",""time"":698},{""stimulus"":""img/1to3/8.png"",""time"":816},{""stimulus"":""img/1to3/9.png"",""time"":900},{""stimulus"":""img/1to3/10.png"",""time"":1000},{""stimulus"":""img/1to3/11.png"",""time"":1097},{""stimulus"":""img/1to3/12.png"",""time"":1199}]","[]"
"","","","observe","","58016c9f551314000145af58","bdp_cybrbll","Fri Mar 24 2023 19:20:52 GMT-0400 (Eastern Daylight Time)","656532","3","1","image-keyboard-response","85","309304","0.0-5.0-1.40","","null","","img/3to2/1.png","null","185","380","0.5","0.5","3","2","",""
"","","","","","58016c9f551314000145af58","bdp_cybrbll","Fri Mar 24 2023 19:20:52 GMT-0400 (Eastern Daylight Time)","656532","3","1","animation","86","310610","0.0-5.0-2.40","","","","","","185","","","","3","2","[{""stimulus"":""img/3to2/1.png"",""time"":113},{""stimulus"":""img/3to2/2.png"",""time"":217},{""stimulus"":""img/3to2/3.png"",""time"":307},{""stimulus"":""img/3to2/4.png"",""time"":406},{""stimulus"":""img/3to2/5.png"",""time"":513},{""stimulus"":""img/3to2/6.png"",""time"":607},{""stimulus"":""img/3to2/7.png"",""time"":701},{""stimulus"":""img/3to2/8.png"",""time"":805},{""stimulus"":""img/3to2/9.png"",""time"":892},{""stimulus"":""img/3to2/10.png"",""time"":1006},{""stimulus"":""img/3to2/11.png"",""time"":1093},{""stimulus"":""img/3to2/12.png"",""time"":1205}]","[]"
"","","","choice","","58016c9f551314000145af58","bdp_cybrbll","Fri Mar 24 2023 19:20:52 GMT-0400 (Eastern Daylight Time)","656532","3","1","image-keyboard-response","87","310764","0.0-5.0-1.41","","153","","img/2to1/1.png","1","184","472","0.5","0.5","2","1","",""
"","","","","","58016c9f551314000145af58","bdp_cybrbll","Fri Mar 24 2023 19:20:52 GMT-0400 (Eastern Daylight Time)","656532","3","1","animation","88","312067","0.0-5.0-2.41","","","","","","184","","","","2","1","[{""stimulus"":""img/2to1/1.png"",""time"":104},{""stimulus"":""img/2to1/2.png"",""time"":199},{""stimulus"":""img/2to1/3.png"",""time"":311},{""stimulus"":""img/2to1/4.png"",""time"":413},{""stimulus"":""img/2to1/5.png"",""time"":512},{""stimulus"":""img/2to1/6.png"",""time"":612},{""stimulus"":""img/2to1/7.png"",""time"":697},{""stimulus"":""img/2to1/8.png"",""time"":811},{""stimulus"":""img/2to1/9.png"",""time"":895},{""stimulus"":""img/2to1/10.png"",""time"":996},{""stimulus"":""img/2to1/11.png"",""time"":1099},{""stimulus"":""img/2to1/12.png"",""time"":1193}]","[]"
"","","","observe","","58016c9f551314000145af58","bdp_cybrbll","Fri Mar 24 2023 19:20:52 GMT-0400 (Eastern Daylight Time)","656532","3","1","image-keyboard-response","89","312320","0.0-5.0-1.42","","null","","img/1to3/1.png","null","183","236","0.5","0.5","1","3","",""
"","","","","","58016c9f551314000145af58","bdp_cybrbll","Fri Mar 24 2023 19:20:52 GMT-0400 (Eastern Daylight Time)","656532","3","1","animation","90","313626","0.0-5.0-2.42","","","","","","183","","","","1","3","[{""stimulus"":""img/1to3/1.png"",""time"":111},{""stimulus"":""img/1to3/2.png"",""time"":204},{""stimulus"":""img/1to3/3.png"",""time"":309},{""stimulus"":""img/1to3/4.png"",""time"":419},{""stimulus"":""img/1to3/5.png"",""time"":513},{""stimulus"":""img/1to3/6.png"",""time"":607},{""stimulus"":""img/1to3/7.png"",""time"":708},{""stimulus"":""img/1to3/8.png"",""time"":796},{""stimulus"":""img/1to3/9.png"",""time"":893},{""stimulus"":""img/1to3/10.png"",""time"":1006},{""stimulus"":""img/1to3/11.png"",""time"":1092},{""stimulus"":""img/1to3/12.png"",""time"":1201}]","[]"
"","","","observe","","58016c9f551314000145af58","bdp_cybrbll","Fri Mar 24 2023 19:20:52 GMT-0400 (Eastern Daylight Time)","656532","3","1","image-keyboard-response","91","313833","0.0-5.0-1.43","","null","","img/3to2/1.png","null","182","188","0.5","0.5","3","2","",""
"","","","","","58016c9f551314000145af58","bdp_cybrbll","Fri Mar 24 2023 19:20:52 GMT-0400 (Eastern Daylight Time)","656532","3","1","animation","92","315129","0.0-5.0-2.43","","","","","","182","","","","3","2","[{""stimulus"":""img/3to2/1.png"",""time"":111},{""stimulus"":""img/3to2/2.png"",""time"":211},{""stimulus"":""img/3to2/3.png"",""time"":313},{""stimulus"":""img/3to2/4.png"",""time"":411},{""stimulus"":""img/3to2/5.png"",""time"":500},{""stimulus"":""img/3to2/6.png"",""time"":595},{""stimulus"":""img/3to2/7.png"",""time"":710},{""stimulus"":""img/3to2/8.png"",""time"":797},{""stimulus"":""img/3to2/9.png"",""time"":894},{""stimulus"":""img/3to2/10.png"",""time"":1000},{""stimulus"":""img/3to2/11.png"",""time"":1094},{""stimulus"":""img/3to2/12.png"",""time"":1203}]","[]"
"","","","choice","","58016c9f551314000145af58","bdp_cybrbll","Fri Mar 24 2023 19:20:52 GMT-0400 (Eastern Daylight Time)","656532","3","1","image-keyboard-response","93","315504","0.0-5.0-1.44","","374","","img/2to1/1.png","2","181","787","0.5","0.5","2","3","",""
"","","","","","58016c9f551314000145af58","bdp_cybrbll","Fri Mar 24 2023 19:20:52 GMT-0400 (Eastern Daylight Time)","656532","3","1","animation","94","316810","0.0-5.0-2.44","","","","","","181","","","","2","3","[{""stimulus"":""img/2to3/1.png"",""time"":110},{""stimulus"":""img/2to3/2.png"",""time"":206},{""stimulus"":""img/2to3/3.png"",""time"":313},{""stimulus"":""img/2to3/4.png"",""time"":407},{""stimulus"":""img/2to3/5.png"",""time"":507},{""stimulus"":""img/2to3/6.png"",""time"":611},{""stimulus"":""img/2to3/7.png"",""time"":707},{""stimulus"":""img/2to3/8.png"",""time"":807},{""stimulus"":""img/2to3/9.png"",""time"":906},{""stimulus"":""img/2to3/10.png"",""time"":1007},{""stimulus"":""img/2to3/11.png"",""time"":1094},{""stimulus"":""img/2to3/12.png"",""time"":1204}]","[]"
"","","","observe","","58016c9f551314000145af58","bdp_cybrbll","Fri Mar 24 2023 19:20:52 GMT-0400 (Eastern Daylight Time)","656532","3","1","image-keyboard-response","95","317225","0.0-5.0-1.45","","null","","img/3to2/1.png","null","180","400","0.5","0.5","3","2","",""
"","","","","","58016c9f551314000145af58","bdp_cybrbll","Fri Mar 24 2023 19:20:52 GMT-0400 (Eastern Daylight Time)","656532","3","1","animation","96","318527","0.0-5.0-2.45","","","","","","180","","","","3","2","[{""stimulus"":""img/3to2/1.png"",""time"":106},{""stimulus"":""img/3to2/2.png"",""time"":216},{""stimulus"":""img/3to2/3.png"",""time"":302},{""stimulus"":""img/3to2/4.png"",""time"":402},{""stimulus"":""img/3to2/5.png"",""time"":513},{""stimulus"":""img/3to2/6.png"",""time"":603},{""stimulus"":""img/3to2/7.png"",""time"":701},{""stimulus"":""img/3to2/8.png"",""time"":801},{""stimulus"":""img/3to2/9.png"",""time"":904},{""stimulus"":""img/3to2/10.png"",""time"":997},{""stimulus"":""img/3to2/11.png"",""time"":1091},{""stimulus"":""img/3to2/12.png"",""time"":1200}]","[]"
"","","","choice","","58016c9f551314000145af58","bdp_cybrbll","Fri Mar 24 2023 19:20:52 GMT-0400 (Eastern Daylight Time)","656532","3","1","image-keyboard-response","97","318940","0.0-5.0-1.46","","413","","img/2to1/1.png","1","179","783","0.5","0.5","2","1","",""
"","","","","","58016c9f551314000145af58","bdp_cybrbll","Fri Mar 24 2023 19:20:52 GMT-0400 (Eastern Daylight Time)","656532","3","1","animation","98","320244","0.0-5.0-2.46","","","","","","179","","","","2","1","[{""stimulus"":""img/2to1/1.png"",""time"":115},{""stimulus"":""img/2to1/2.png"",""time"":200},{""stimulus"":""img/2to1/3.png"",""time"":314},{""stimulus"":""img/2to1/4.png"",""time"":404},{""stimulus"":""img/2to1/5.png"",""time"":518},{""stimulus"":""img/2to1/6.png"",""time"":605},{""stimulus"":""img/2to1/7.png"",""time"":705},{""stimulus"":""img/2to1/8.png"",""time"":815},{""stimulus"":""img/2to1/9.png"",""time"":904},{""stimulus"":""img/2to1/10.png"",""time"":1002},{""stimulus"":""img/2to1/11.png"",""time"":1103},{""stimulus"":""img/2to1/12.png"",""time"":1203}]","[]"
"","","","observe","","58016c9f551314000145af58","bdp_cybrbll","Fri Mar 24 2023 19:20:52 GMT-0400 (Eastern Daylight Time)","656532","3","1","image-keyboard-response","99","320571","0.0-5.0-1.47","","null","","img/1to3/1.png","null","178","303","0.5","0.5","1","2","",""
"","","","","","58016c9f551314000145af58","bdp_cybrbll","Fri Mar 24 2023 19:20:52 GMT-0400 (Eastern Daylight Time)","656532","3","1","animation","100","321861","0.0-5.0-2.47","","","","","","178","","","","1","2","[{""stimulus"":""img/1to2/1.png"",""time"":105},{""stimulus"":""img/1to2/2.png"",""time"":205},{""stimulus"":""img/1to2/3.png"",""time"":305},{""stimulus"":""img/1to2/4.png"",""time"":405},{""stimulus"":""img/1to2/5.png"",""time"":505},{""stimulus"":""img/1to2/6.png"",""time"":605},{""stimulus"":""img/1to2/7.png"",""time"":706},{""stimulus"":""img/1to2/8.png"",""time"":793},{""stimulus"":""img/1to2/9.png"",""time"":902},{""stimulus"":""img/1to2/10.png"",""time"":1005},{""stimulus"":""img/1to2/11.png"",""time"":1097},{""stimulus"":""img/1to2/12.png"",""time"":1205}]","[]"
"","","","choice","","58016c9f551314000145af58","bdp_cybrbll","Fri Mar 24 2023 19:20:52 GMT-0400 (Eastern Daylight Time)","656532","3","1","image-keyboard-response","101","322164","0.0-5.0-1.48","","302","","img/2to1/1.png","2","177","1262","0.5","0.5","2","3","",""
"","","","","","58016c9f551314000145af58","bdp_cybrbll","Fri Mar 24 2023 19:20:52 GMT-0400 (Eastern Daylight Time)","656532","3","1","animation","102","323473","0.0-5.0-2.48","","","","","","177","","","","2","3","[{""stimulus"":""img/2to3/1.png"",""time"":106},{""stimulus"":""img/2to3/2.png"",""time"":212},{""stimulus"":""img/2to3/3.png"",""time"":309},{""stimulus"":""img/2to3/4.png"",""time"":413},{""stimulus"":""img/2to3/5.png"",""time"":513},{""stimulus"":""img/2to3/6.png"",""time"":606},{""stimulus"":""img/2to3/7.png"",""time"":696},{""stimulus"":""img/2to3/8.png"",""time"":813},{""stimulus"":""img/2to3/9.png"",""time"":897},{""stimulus"":""img/2to3/10.png"",""time"":996},{""stimulus"":""img/2to3/11.png"",""time"":1097},{""stimulus"":""img/2to3/12.png"",""time"":1200}]","[]"
"","","","observe","","58016c9f551314000145af58","bdp_cybrbll","Fri Mar 24 2023 19:20:52 GMT-0400 (Eastern Daylight Time)","656532","3","1","image-keyboard-response","103","323739","0.0-5.0-1.49","","null","","img/3to2/1.png","null","176","247","0.5","0.5","3","1","",""
"","","","","","58016c9f551314000145af58","bdp_cybrbll","Fri Mar 24 2023 19:20:52 GMT-0400 (Eastern Daylight Time)","656532","3","1","animation","104","325028","0.0-5.0-2.49","","","","","","176","","","","3","1","[{""stimulus"":""img/3to1/1.png"",""time"":111},{""stimulus"":""img/3to1/2.png"",""time"":205},{""stimulus"":""img/3to1/3.png"",""time"":306},{""stimulus"":""img/3to1/4.png"",""time"":405},{""stimulus"":""img/3to1/5.png"",""time"":504},{""stimulus"":""img/3to1/6.png"",""time"":610},{""stimulus"":""img/3to1/7.png"",""time"":703},{""stimulus"":""img/3to1/8.png"",""time"":804},{""stimulus"":""img/3to1/9.png"",""time"":904},{""stimulus"":""img/3to1/10.png"",""time"":1004},{""stimulus"":""img/3to1/11.png"",""time"":1111},{""stimulus"":""img/3to1/12.png"",""time"":1203}]","[]"
"","","","observe","","58016c9f551314000145af58","bdp_cybrbll","Fri Mar 24 2023 19:20:52 GMT-0400 (Eastern Daylight Time)","656532","3","1","image-keyboard-response","105","325364","0.0-5.0-1.50","","null","","img/1to3/1.png","null","175","333","0.5","0.5","1","3","",""
"","","","","","58016c9f551314000145af58","bdp_cybrbll","Fri Mar 24 2023 19:20:52 GMT-0400 (Eastern Daylight Time)","656532","3","1","animation","106","326660","0.0-5.0-2.50","","","","","","175","","","","1","3","[{""stimulus"":""img/1to3/1.png"",""time"":110},{""stimulus"":""img/1to3/2.png"",""time"":213},{""stimulus"":""img/1to3/3.png"",""time"":313},{""stimulus"":""img/1to3/4.png"",""time"":413},{""stimulus"":""img/1to3/5.png"",""time"":497},{""stimulus"":""img/1to3/6.png"",""time"":609},{""stimulus"":""img/1to3/7.png"",""time"":697},{""stimulus"":""img/1to3/8.png"",""time"":812},{""stimulus"":""img/1to3/9.png"",""time"":897},{""stimulus"":""img/1to3/10.png"",""time"":1000},{""stimulus"":""img/1to3/11.png"",""time"":1110},{""stimulus"":""img/1to3/12.png"",""time"":1197}]","[]"
"","","","observe","","58016c9f551314000145af58","bdp_cybrbll","Fri Mar 24 2023 19:20:52 GMT-0400 (Eastern Daylight Time)","656532","3","1","image-keyboard-response","107","326886","0.0-5.0-1.51","","null","","img/3to2/1.png","null","174","214","0.5","0.5","3","2","",""
"","","","","","58016c9f551314000145af58","bdp_cybrbll","Fri Mar 24 2023 19:20:52 GMT-0400 (Eastern Daylight Time)","656532","3","1","animation","108","328192","0.0-5.0-2.51","","","","","","174","","","","3","2","[{""stimulus"":""img/3to2/1.png"",""time"":102},{""stimulus"":""img/3to2/2.png"",""time"":206},{""stimulus"":""img/3to2/3.png"",""time"":306},{""stimulus"":""img/3to2/4.png"",""time"":406},{""stimulus"":""img/3to2/5.png"",""time"":506},{""stimulus"":""img/3to2/6.png"",""time"":606},{""stimulus"":""img/3to2/7.png"",""time"":706},{""stimulus"":""img/3to2/8.png"",""time"":806},{""stimulus"":""img/3to2/9.png"",""time"":899},{""stimulus"":""img/3to2/10.png"",""time"":1005},{""stimulus"":""img/3to2/11.png"",""time"":1102},{""stimulus"":""img/3to2/12.png"",""time"":1190}]","[]"
"","","","choice","","58016c9f551314000145af58","bdp_cybrbll","Fri Mar 24 2023 19:20:52 GMT-0400 (Eastern Daylight Time)","656532","3","1","image-keyboard-response","109","328831","0.0-5.0-1.52","","639","","img/2to1/1.png","2","173","666","0.5","0.5","2","3","",""
"","","","","","58016c9f551314000145af58","bdp_cybrbll","Fri Mar 24 2023 19:20:52 GMT-0400 (Eastern Daylight Time)","656532","3","1","animation","110","330128","0.0-5.0-2.52","","","","","","173","","","","2","3","[{""stimulus"":""img/2to3/1.png"",""time"":114},{""stimulus"":""img/2to3/2.png"",""time"":211},{""stimulus"":""img/2to3/3.png"",""time"":311},{""stimulus"":""img/2to3/4.png"",""time"":407},{""stimulus"":""img/2to3/5.png"",""time"":511},{""stimulus"":""img/2to3/6.png"",""time"":596},{""stimulus"":""img/2to3/7.png"",""time"":704},{""stimulus"":""img/2to3/8.png"",""time"":798},{""stimulus"":""img/2to3/9.png"",""time"":892},{""stimulus"":""img/2to3/10.png"",""time"":1010},{""stimulus"":""img/2to3/11.png"",""time"":1092},{""stimulus"":""img/2to3/12.png"",""time"":1210}]","[]"
"","","","observe","","58016c9f551314000145af58","bdp_cybrbll","Fri Mar 24 2023 19:20:52 GMT-0400 (Eastern Daylight Time)","656532","3","1","image-keyboard-response","111","330976","0.0-5.0-1.53","","null","","img/3to2/1.png","null","172","839","0.5","0.5","3","1","",""
"","","","","","58016c9f551314000145af58","bdp_cybrbll","Fri Mar 24 2023 19:20:52 GMT-0400 (Eastern Daylight Time)","656532","3","1","animation","112","332276","0.0-5.0-2.53","","","","","","172","","","","3","1","[{""stimulus"":""img/3to1/1.png"",""time"":106},{""stimulus"":""img/3to1/2.png"",""time"":216},{""stimulus"":""img/3to1/3.png"",""time"":301},{""stimulus"":""img/3to1/4.png"",""time"":419},{""stimulus"":""img/3to1/5.png"",""time"":513},{""stimulus"":""img/3to1/6.png"",""time"":607},{""stimulus"":""img/3to1/7.png"",""time"":700},{""stimulus"":""img/3to1/8.png"",""time"":810},{""stimulus"":""img/3to1/9.png"",""time"":900},{""stimulus"":""img/3to1/10.png"",""time"":1000},{""stimulus"":""img/3to1/11.png"",""time"":1101},{""stimulus"":""img/3to1/12.png"",""time"":1201}]","[]"
"","","","observe","","58016c9f551314000145af58","bdp_cybrbll","Fri Mar 24 2023 19:20:52 GMT-0400 (Eastern Daylight Time)","656532","3","1","image-keyboard-response","113","332487","0.0-5.0-1.54","","null","","img/1to3/1.png","null","171","200","0.5","0.5","1","3","",""
"","","","","","58016c9f551314000145af58","bdp_cybrbll","Fri Mar 24 2023 19:20:52 GMT-0400 (Eastern Daylight Time)","656532","3","1","animation","114","333785","0.0-5.0-2.54","","","","","","171","","","","1","3","[{""stimulus"":""img/1to3/1.png"",""time"":111},{""stimulus"":""img/1to3/2.png"",""time"":206},{""stimulus"":""img/1to3/3.png"",""time"":315},{""stimulus"":""img/1to3/4.png"",""time"":408},{""stimulus"":""img/1to3/5.png"",""time"":501},{""stimulus"":""img/1to3/6.png"",""time"":605},{""stimulus"":""img/1to3/7.png"",""time"":701},{""stimulus"":""img/1to3/8.png"",""time"":797},{""stimulus"":""img/1to3/9.png"",""time"":905},{""stimulus"":""img/1to3/10.png"",""time"":1006},{""stimulus"":""img/1to3/11.png"",""time"":1106},{""stimulus"":""img/1to3/12.png"",""time"":1191}]","[]"
"","","","observe","","58016c9f551314000145af58","bdp_cybrbll","Fri Mar 24 2023 19:20:52 GMT-0400 (Eastern Daylight Time)","656532","3","1","image-keyboard-response","115","334067","0.0-5.0-1.55","","null","","img/3to2/1.png","null","170","266","0.5","0.5","3","1","",""
"","","","","","58016c9f551314000145af58","bdp_cybrbll","Fri Mar 24 2023 19:20:52 GMT-0400 (Eastern Daylight Time)","656532","3","1","animation","116","335364","0.0-5.0-2.55","","","","","","170","","","","3","1","[{""stimulus"":""img/3to1/1.png"",""time"":108},{""stimulus"":""img/3to1/2.png"",""time"":208},{""stimulus"":""img/3to1/3.png"",""time"":308},{""stimulus"":""img/3to1/4.png"",""time"":409},{""stimulus"":""img/3to1/5.png"",""time"":509},{""stimulus"":""img/3to1/6.png"",""time"":609},{""stimulus"":""img/3to1/7.png"",""time"":708},{""stimulus"":""img/3to1/8.png"",""time"":808},{""stimulus"":""img/3to1/9.png"",""time"":908},{""stimulus"":""img/3to1/10.png"",""time"":992},{""stimulus"":""img/3to1/11.png"",""time"":1107},{""stimulus"":""img/3to1/12.png"",""time"":1192}]","[]"
"","","","observe","","58016c9f551314000145af58","bdp_cybrbll","Fri Mar 24 2023 19:20:52 GMT-0400 (Eastern Daylight Time)","656532","3","1","image-keyboard-response","117","335678","0.0-5.0-1.56","","null","","img/1to3/1.png","null","169","301","0.5","0.5","1","3","",""
"","","","","","58016c9f551314000145af58","bdp_cybrbll","Fri Mar 24 2023 19:20:52 GMT-0400 (Eastern Daylight Time)","656532","3","1","animation","118","336973","0.0-5.0-2.56","","","","","","169","","","","1","3","[{""stimulus"":""img/1to3/1.png"",""time"":109},{""stimulus"":""img/1to3/2.png"",""time"":214},{""stimulus"":""img/1to3/3.png"",""time"":314},{""stimulus"":""img/1to3/4.png"",""time"":397},{""stimulus"":""img/1to3/5.png"",""time"":513},{""stimulus"":""img/1to3/6.png"",""time"":599},{""stimulus"":""img/1to3/7.png"",""time"":713},{""stimulus"":""img/1to3/8.png"",""time"":798},{""stimulus"":""img/1to3/9.png"",""time"":904},{""stimulus"":""img/1to3/10.png"",""time"":999},{""stimulus"":""img/1to3/11.png"",""time"":1097},{""stimulus"":""img/1to3/12.png"",""time"":1200}]","[]"
"","","","observe","","58016c9f551314000145af58","bdp_cybrbll","Fri Mar 24 2023 19:20:52 GMT-0400 (Eastern Daylight Time)","656532","3","1","image-keyboard-response","119","337569","0.0-5.0-1.57","","null","","img/3to2/1.png","null","168","584","0.5","0.5","3","1","",""
"","","","","","58016c9f551314000145af58","bdp_cybrbll","Fri Mar 24 2023 19:20:52 GMT-0400 (Eastern Daylight Time)","656532","3","1","animation","120","338861","0.0-5.0-2.57","","","","","","168","","","","3","1","[{""stimulus"":""img/3to1/1.png"",""time"":108},{""stimulus"":""img/3to1/2.png"",""time"":208},{""stimulus"":""img/3to1/3.png"",""time"":308},{""stimulus"":""img/3to1/4.png"",""time"":408},{""stimulus"":""img/3to1/5.png"",""time"":514},{""stimulus"":""img/3to1/6.png"",""time"":608},{""stimulus"":""img/3to1/7.png"",""time"":701},{""stimulus"":""img/3to1/8.png"",""time"":795},{""stimulus"":""img/3to1/9.png"",""time"":906},{""stimulus"":""img/3to1/10.png"",""time"":1008},{""stimulus"":""img/3to1/11.png"",""time"":1092},{""stimulus"":""img/3to1/12.png"",""time"":1206}]","[]"
"","","","observe","","58016c9f551314000145af58","bdp_cybrbll","Fri Mar 24 2023 19:20:52 GMT-0400 (Eastern Daylight Time)","656532","3","1","image-keyboard-response","121","339740","0.0-5.0-1.58","","null","","img/1to3/1.png","null","167","872","0.5","0.5","1","3","",""
"","","","","","58016c9f551314000145af58","bdp_cybrbll","Fri Mar 24 2023 19:20:52 GMT-0400 (Eastern Daylight Time)","656532","3","1","animation","122","341043","0.0-5.0-2.58","","","","","","167","","","","1","3","[{""stimulus"":""img/1to3/1.png"",""time"":104},{""stimulus"":""img/1to3/2.png"",""time"":203},{""stimulus"":""img/1to3/3.png"",""time"":319},{""stimulus"":""img/1to3/4.png"",""time"":404},{""stimulus"":""img/1to3/5.png"",""time"":518},{""stimulus"":""img/1to3/6.png"",""time"":600},{""stimulus"":""img/1to3/7.png"",""time"":702},{""stimulus"":""img/1to3/8.png"",""time"":811},{""stimulus"":""img/1to3/9.png"",""time"":906},{""stimulus"":""img/1to3/10.png"",""time"":1003},{""stimulus"":""img/1to3/11.png"",""time"":1103},{""stimulus"":""img/1to3/12.png"",""time"":1203}]","[]"
"","","","observe","","58016c9f551314000145af58","bdp_cybrbll","Fri Mar 24 2023 19:20:52 GMT-0400 (Eastern Daylight Time)","656532","3","1","image-keyboard-response","123","341381","0.0-5.0-1.59","","null","","img/3to2/1.png","null","166","329","0.5","0.5","3","2","",""
"","","","","","58016c9f551314000145af58","bdp_cybrbll","Fri Mar 24 2023 19:20:52 GMT-0400 (Eastern Daylight Time)","656532","3","1","animation","124","342676","0.0-5.0-2.59","","","","","","166","","","","3","2","[{""stimulus"":""img/3to2/1.png"",""time"":108},{""stimulus"":""img/3to2/2.png"",""time"":212},{""stimulus"":""img/3to2/3.png"",""time"":312},{""stimulus"":""img/3to2/4.png"",""time"":412},{""stimulus"":""img/3to2/5.png"",""time"":515},{""stimulus"":""img/3to2/6.png"",""time"":611},{""stimulus"":""img/3to2/7.png"",""time"":696},{""stimulus"":""img/3to2/8.png"",""time"":811},{""stimulus"":""img/3to2/9.png"",""time"":906},{""stimulus"":""img/3to2/10.png"",""time"":991},{""stimulus"":""img/3to2/11.png"",""time"":1096},{""stimulus"":""img/3to2/12.png"",""time"":1195}]","[]"
"","","","choice","","58016c9f551314000145af58","bdp_cybrbll","Fri Mar 24 2023 19:20:52 GMT-0400 (Eastern Daylight Time)","656532","3","1","image-keyboard-response","125","342927","0.0-5.0-1.60","","251","","img/2to1/1.png","1","165","180","0.5","0.5","2","1","",""
"","","","","","58016c9f551314000145af58","bdp_cybrbll","Fri Mar 24 2023 19:20:52 GMT-0400 (Eastern Daylight Time)","656532","3","1","animation","126","344223","0.0-5.0-2.60","","","","","","165","","","","2","1","[{""stimulus"":""img/2to1/1.png"",""time"":104},{""stimulus"":""img/2to1/2.png"",""time"":217},{""stimulus"":""img/2to1/3.png"",""time"":301},{""stimulus"":""img/2to1/4.png"",""time"":415},{""stimulus"":""img/2to1/5.png"",""time"":501},{""stimulus"":""img/2to1/6.png"",""time"":599},{""stimulus"":""img/2to1/7.png"",""time"":715},{""stimulus"":""img/2to1/8.png"",""time"":800},{""stimulus"":""img/2to1/9.png"",""time"":899},{""stimulus"":""img/2to1/10.png"",""time"":1000},{""stimulus"":""img/2to1/11.png"",""time"":1093},{""stimulus"":""img/2to1/12.png"",""time"":1199}]","[]"
"","","","observe","","58016c9f551314000145af58","bdp_cybrbll","Fri Mar 24 2023 19:20:52 GMT-0400 (Eastern Daylight Time)","656532","3","1","image-keyboard-response","127","344389","0.0-5.0-1.61","","null","","img/1to3/1.png","null","164","158","0.5","0.5","1","2","",""
"","","","","","58016c9f551314000145af58","bdp_cybrbll","Fri Mar 24 2023 19:20:52 GMT-0400 (Eastern Daylight Time)","656532","3","1","animation","128","345692","0.0-5.0-2.61","","","","","","164","","","","1","2","[{""stimulus"":""img/1to2/1.png"",""time"":111},{""stimulus"":""img/1to2/2.png"",""time"":204},{""stimulus"":""img/1to2/3.png"",""time"":304},{""stimulus"":""img/1to2/4.png"",""time"":412},{""stimulus"":""img/1to2/5.png"",""time"":503},{""stimulus"":""img/1to2/6.png"",""time"":603},{""stimulus"":""img/1to2/7.png"",""time"":709},{""stimulus"":""img/1to2/8.png"",""time"":803},{""stimulus"":""img/1to2/9.png"",""time"":904},{""stimulus"":""img/1to2/10.png"",""time"":1004},{""stimulus"":""img/1to2/11.png"",""time"":1104},{""stimulus"":""img/1to2/12.png"",""time"":1204}]","[]"
"","","","choice","","58016c9f551314000145af58","bdp_cybrbll","Fri Mar 24 2023 19:20:52 GMT-0400 (Eastern Daylight Time)","656532","3","1","image-keyboard-response","129","346388","0.0-5.0-1.62","","694","","img/2to1/1.png","2","163","501","0.5","0.5","2","3","",""
"","","","","","58016c9f551314000145af58","bdp_cybrbll","Fri Mar 24 2023 19:20:52 GMT-0400 (Eastern Daylight Time)","656532","3","1","animation","130","347676","0.0-5.0-2.62","","","","","","163","","","","2","3","[{""stimulus"":""img/2to3/1.png"",""time"":119},{""stimulus"":""img/2to3/2.png"",""time"":206},{""stimulus"":""img/2to3/3.png"",""time"":304},{""stimulus"":""img/2to3/4.png"",""time"":405},{""stimulus"":""img/2to3/5.png"",""time"":504},{""stimulus"":""img/2to3/6.png"",""time"":604},{""stimulus"":""img/2to3/7.png"",""time"":704},{""stimulus"":""img/2to3/8.png"",""time"":800},{""stimulus"":""img/2to3/9.png"",""time"":898},{""stimulus"":""img/2to3/10.png"",""time"":992},{""stimulus"":""img/2to3/11.png"",""time"":1101},{""stimulus"":""img/2to3/12.png"",""time"":1205}]","[]"
"","","","observe","","58016c9f551314000145af58","bdp_cybrbll","Fri Mar 24 2023 19:20:52 GMT-0400 (Eastern Daylight Time)","656532","3","1","image-keyboard-response","131","348460","0.0-5.0-1.63","","null","","img/3to2/1.png","null","162","779","0.5","0.5","3","2","",""
"","","","","","58016c9f551314000145af58","bdp_cybrbll","Fri Mar 24 2023 19:20:52 GMT-0400 (Eastern Daylight Time)","656532","3","1","animation","132","349770","0.0-5.0-2.63","","","","","","162","","","","3","2","[{""stimulus"":""img/3to2/1.png"",""time"":112},{""stimulus"":""img/3to2/2.png"",""time"":200},{""stimulus"":""img/3to2/3.png"",""time"":310},{""stimulus"":""img/3to2/4.png"",""time"":415},{""stimulus"":""img/3to2/5.png"",""time"":504},{""stimulus"":""img/3to2/6.png"",""time"":615},{""stimulus"":""img/3to2/7.png"",""time"":700},{""stimulus"":""img/3to2/8.png"",""time"":800},{""stimulus"":""img/3to2/9.png"",""time"":899},{""stimulus"":""img/3to2/10.png"",""time"":999},{""stimulus"":""img/3to2/11.png"",""time"":1107},{""stimulus"":""img/3to2/12.png"",""time"":1201}]","[]"
"","","","choice","","58016c9f551314000145af58","bdp_cybrbll","Fri Mar 24 2023 19:20:52 GMT-0400 (Eastern Daylight Time)","656532","3","1","image-keyboard-response","133","350475","0.0-5.0-1.64","","704","","img/2to1/1.png","1","161","247","0.5","0.5","2","1","",""
"","","","","","58016c9f551314000145af58","bdp_cybrbll","Fri Mar 24 2023 19:20:52 GMT-0400 (Eastern Daylight Time)","656532","3","1","animation","134","351776","0.0-5.0-2.64","","","","","","161","","","","2","1","[{""stimulus"":""img/2to1/1.png"",""time"":106},{""stimulus"":""img/2to1/2.png"",""time"":200},{""stimulus"":""img/2to1/3.png"",""time"":316},{""stimulus"":""img/2to1/4.png"",""time"":401},{""stimulus"":""img/2to1/5.png"",""time"":496},{""stimulus"":""img/2to1/6.png"",""time"":607},{""stimulus"":""img/2to1/7.png"",""time"":702},{""stimulus"":""img/2to1/8.png"",""time"":810},{""stimulus"":""img/2to1/9.png"",""time"":904},{""stimulus"":""img/2to1/10.png"",""time"":1001},{""stimulus"":""img/2to1/11.png"",""time"":1100},{""stimulus"":""img/2to1/12.png"",""time"":1200}]","[]"
"","","","observe","","58016c9f551314000145af58","bdp_cybrbll","Fri Mar 24 2023 19:20:52 GMT-0400 (Eastern Daylight Time)","656532","3","1","image-keyboard-response","135","352035","0.0-5.0-1.65","","null","","img/1to3/1.png","null","160","251","0.5","0.5","1","3","",""
"","","","","","58016c9f551314000145af58","bdp_cybrbll","Fri Mar 24 2023 19:20:52 GMT-0400 (Eastern Daylight Time)","656532","3","1","animation","136","353325","0.0-5.0-2.65","","","","","","160","","","","1","3","[{""stimulus"":""img/1to3/1.png"",""time"":111},{""stimulus"":""img/1to3/2.png"",""time"":207},{""stimulus"":""img/1to3/3.png"",""time"":306},{""stimulus"":""img/1to3/4.png"",""time"":407},{""stimulus"":""img/1to3/5.png"",""time"":507},{""stimulus"":""img/1to3/6.png"",""time"":607},{""stimulus"":""img/1to3/7.png"",""time"":696},{""stimulus"":""img/1to3/8.png"",""time"":813},{""stimulus"":""img/1to3/9.png"",""time"":907},{""stimulus"":""img/1to3/10.png"",""time"":1000},{""stimulus"":""img/1to3/11.png"",""time"":1106},{""stimulus"":""img/1to3/12.png"",""time"":1192}]","[]"
"","","","observe","","58016c9f551314000145af58","bdp_cybrbll","Fri Mar 24 2023 19:20:52 GMT-0400 (Eastern Daylight Time)","656532","3","1","image-keyboard-response","137","354060","0.0-5.0-1.66","","null","","img/3to2/1.png","null","159","731","0.5","0.5","3","1","",""
"","","","","","58016c9f551314000145af58","bdp_cybrbll","Fri Mar 24 2023 19:20:52 GMT-0400 (Eastern Daylight Time)","656532","3","1","animation","138","355359","0.0-5.0-2.66","","","","","","159","","","","3","1","[{""stimulus"":""img/3to1/1.png"",""time"":117},{""stimulus"":""img/3to1/2.png"",""time"":200},{""stimulus"":""img/3to1/3.png"",""time"":315},{""stimulus"":""img/3to1/4.png"",""time"":400},{""stimulus"":""img/3to1/5.png"",""time"":507},{""stimulus"":""img/3to1/6.png"",""time"":601},{""stimulus"":""img/3to1/7.png"",""time"":696},{""stimulus"":""img/3to1/8.png"",""time"":814},{""stimulus"":""img/3to1/9.png"",""time"":896},{""stimulus"":""img/3to1/10.png"",""time"":999},{""stimulus"":""img/3to1/11.png"",""time"":1099},{""stimulus"":""img/3to1/12.png"",""time"":1195}]","[]"
"","","","observe","","58016c9f551314000145af58","bdp_cybrbll","Fri Mar 24 2023 19:20:52 GMT-0400 (Eastern Daylight Time)","656532","3","1","image-keyboard-response","139","355678","0.0-5.0-1.67","","null","","img/1to3/1.png","null","158","306","0.5","0.5","1","3","",""
"","","","","","58016c9f551314000145af58","bdp_cybrbll","Fri Mar 24 2023 19:20:52 GMT-0400 (Eastern Daylight Time)","656532","3","1","animation","140","356973","0.0-5.0-2.67","","","","","","158","","","","1","3","[{""stimulus"":""img/1to3/1.png"",""time"":102},{""stimulus"":""img/1to3/2.png"",""time"":218},{""stimulus"":""img/1to3/3.png"",""time"":311},{""stimulus"":""img/1to3/4.png"",""time"":405},{""stimulus"":""img/1to3/5.png"",""time"":514},{""stimulus"":""img/1to3/6.png"",""time"":599},{""stimulus"":""img/1to3/7.png"",""time"":698},{""stimulus"":""img/1to3/8.png"",""time"":813},{""stimulus"":""img/1to3/9.png"",""time"":905},{""stimulus"":""img/1to3/10.png"",""time"":998},{""stimulus"":""img/1to3/11.png"",""time"":1098},{""stimulus"":""img/1to3/12.png"",""time"":1202}]","[]"
"","","","observe","","58016c9f551314000145af58","bdp_cybrbll","Fri Mar 24 2023 19:20:52 GMT-0400 (Eastern Daylight Time)","656532","3","1","image-keyboard-response","141","357234","0.0-5.0-1.68","","null","","img/3to2/1.png","null","157","250","0.5","0.5","3","1","",""
"","","","","","58016c9f551314000145af58","bdp_cybrbll","Fri Mar 24 2023 19:20:52 GMT-0400 (Eastern Daylight Time)","656532","3","1","animation","142","358527","0.0-5.0-2.68","","","","","","157","","","","3","1","[{""stimulus"":""img/3to1/1.png"",""time"":116},{""stimulus"":""img/3to1/2.png"",""time"":208},{""stimulus"":""img/3to1/3.png"",""time"":308},{""stimulus"":""img/3to1/4.png"",""time"":411},{""stimulus"":""img/3to1/5.png"",""time"":505},{""stimulus"":""img/3to1/6.png"",""time"":602},{""stimulus"":""img/3to1/7.png"",""time"":708},{""stimulus"":""img/3to1/8.png"",""time"":809},{""stimulus"":""img/3to1/9.png"",""time"":908},{""stimulus"":""img/3to1/10.png"",""time"":1009},{""stimulus"":""img/3to1/11.png"",""time"":1108},{""stimulus"":""img/3to1/12.png"",""time"":1208}]","[]"
"","","","observe","","58016c9f551314000145af58","bdp_cybrbll","Fri Mar 24 2023 19:20:52 GMT-0400 (Eastern Daylight Time)","656532","3","1","image-keyboard-response","143","359208","0.0-5.0-1.69","","null","","img/1to3/1.png","null","156","668","0.5","0.5","1","3","",""
"","","","","","58016c9f551314000145af58","bdp_cybrbll","Fri Mar 24 2023 19:20:52 GMT-0400 (Eastern Daylight Time)","656532","3","1","animation","144","360509","0.0-5.0-2.69","","","","","","156","","","","1","3","[{""stimulus"":""img/1to3/1.png"",""time"":111},{""stimulus"":""img/1to3/2.png"",""time"":218},{""stimulus"":""img/1to3/3.png"",""time"":302},{""stimulus"":""img/1to3/4.png"",""time"":406},{""stimulus"":""img/1to3/5.png"",""time"":500},{""stimulus"":""img/1to3/6.png"",""time"":610},{""stimulus"":""img/1to3/7.png"",""time"":703},{""stimulus"":""img/1to3/8.png"",""time"":801},{""stimulus"":""img/1to3/9.png"",""time"":901},{""stimulus"":""img/1to3/10.png"",""time"":1001},{""stimulus"":""img/1to3/11.png"",""time"":1101},{""stimulus"":""img/1to3/12.png"",""time"":1201}]","[]"
"","","","observe","","58016c9f551314000145af58","bdp_cybrbll","Fri Mar 24 2023 19:20:52 GMT-0400 (Eastern Daylight Time)","656532","3","1","image-keyboard-response","145","361492","0.0-5.0-1.70","","null","","img/3to2/1.png","null","155","979","0.5","0.5","3","2","",""
"","","","","","58016c9f551314000145af58","bdp_cybrbll","Fri Mar 24 2023 19:20:52 GMT-0400 (Eastern Daylight Time)","656532","3","1","animation","146","362791","0.0-5.0-2.70","","","","","","155","","","","3","2","[{""stimulus"":""img/3to2/1.png"",""time"":107},{""stimulus"":""img/3to2/2.png"",""time"":200},{""stimulus"":""img/3to2/3.png"",""time"":316},{""stimulus"":""img/3to2/4.png"",""time"":402},{""stimulus"":""img/3to2/5.png"",""time"":516},{""stimulus"":""img/3to2/6.png"",""time"":601},{""stimulus"":""img/3to2/7.png"",""time"":701},{""stimulus"":""img/3to2/8.png"",""time"":801},{""stimulus"":""img/3to2/9.png"",""time"":901},{""stimulus"":""img/3to2/10.png"",""time"":998},{""stimulus"":""img/3to2/11.png"",""time"":1100},{""stimulus"":""img/3to2/12.png"",""time"":1192}]","[]"
"","","","choice","","58016c9f551314000145af58","bdp_cybrbll","Fri Mar 24 2023 19:20:52 GMT-0400 (Eastern Daylight Time)","656532","3","1","image-keyboard-response","147","363103","0.0-5.0-1.71","","312","","img/2to1/1.png","2","154","417","0.5","0.5","2","3","",""
"","","","","","58016c9f551314000145af58","bdp_cybrbll","Fri Mar 24 2023 19:20:52 GMT-0400 (Eastern Daylight Time)","656532","3","1","animation","148","364408","0.0-5.0-2.71","","","","","","154","","","","2","3","[{""stimulus"":""img/2to3/1.png"",""time"":104},{""stimulus"":""img/2to3/2.png"",""time"":207},{""stimulus"":""img/2to3/3.png"",""time"":306},{""stimulus"":""img/2to3/4.png"",""time"":407},{""stimulus"":""img/2to3/5.png"",""time"":506},{""stimulus"":""img/2to3/6.png"",""time"":607},{""stimulus"":""img/2to3/7.png"",""time"":706},{""stimulus"":""img/2to3/8.png"",""time"":808},{""stimulus"":""img/2to3/9.png"",""time"":902},{""stimulus"":""img/2to3/10.png"",""time"":1006},{""stimulus"":""img/2to3/11.png"",""time"":1105},{""stimulus"":""img/2to3/12.png"",""time"":1190}]","[]"
"","","","observe","","58016c9f551314000145af58","bdp_cybrbll","Fri Mar 24 2023 19:20:52 GMT-0400 (Eastern Daylight Time)","656532","3","1","image-keyboard-response","149","364887","0.0-5.0-1.72","","null","","img/3to2/1.png","null","153","474","0.5","0.5","3","2","",""
"","","","","","58016c9f551314000145af58","bdp_cybrbll","Fri Mar 24 2023 19:20:52 GMT-0400 (Eastern Daylight Time)","656532","3","1","animation","150","366192","0.0-5.0-2.72","","","","","","153","","","","3","2","[{""stimulus"":""img/3to2/1.png"",""time"":112},{""stimulus"":""img/3to2/2.png"",""time"":212},{""stimulus"":""img/3to2/3.png"",""time"":306},{""stimulus"":""img/3to2/4.png"",""time"":406},{""stimulus"":""img/3to2/5.png"",""time"":506},{""stimulus"":""img/3to2/6.png"",""time"":597},{""stimulus"":""img/3to2/7.png"",""time"":704},{""stimulus"":""img/3to2/8.png"",""time"":797},{""stimulus"":""img/3to2/9.png"",""time"":904},{""stimulus"":""img/3to2/10.png"",""time"":1006},{""stimulus"":""img/3to2/11.png"",""time"":1102},{""stimulus"":""img/3to2/12.png"",""time"":1190}]","[]"
"","","","choice","","58016c9f551314000145af58","bdp_cybrbll","Fri Mar 24 2023 19:20:52 GMT-0400 (Eastern Daylight Time)","656532","3","1","image-keyboard-response","151","366867","0.0-5.0-1.73","","674","","img/2to1/1.png","1","152","331","0.5","0.5","2","1","",""
"","","","","","58016c9f551314000145af58","bdp_cybrbll","Fri Mar 24 2023 19:20:52 GMT-0400 (Eastern Daylight Time)","656532","3","1","animation","152","368158","0.0-5.0-2.73","","","","","","152","","","","2","1","[{""stimulus"":""img/2to1/1.png"",""time"":109},{""stimulus"":""img/2to1/2.png"",""time"":209},{""stimulus"":""img/2to1/3.png"",""time"":305},{""stimulus"":""img/2to1/4.png"",""time"":403},{""stimulus"":""img/2to1/5.png"",""time"":509},{""stimulus"":""img/2to1/6.png"",""time"":601},{""stimulus"":""img/2to1/7.png"",""time"":707},{""stimulus"":""img/2to1/8.png"",""time"":809},{""stimulus"":""img/2to1/9.png"",""time"":908},{""stimulus"":""img/2to1/10.png"",""time"":993},{""stimulus"":""img/2to1/11.png"",""time"":1108},{""stimulus"":""img/2to1/12.png"",""time"":1193}]","[]"
"","","","observe","","58016c9f551314000145af58","bdp_cybrbll","Fri Mar 24 2023 19:20:52 GMT-0400 (Eastern Daylight Time)","656532","3","1","image-keyboard-response","153","368600","0.0-5.0-1.74","","null","","img/1to3/1.png","null","151","435","0.5","0.5","1","3","",""
"","","","","","58016c9f551314000145af58","bdp_cybrbll","Fri Mar 24 2023 19:20:52 GMT-0400 (Eastern Daylight Time)","656532","3","1","animation","154","369894","0.0-5.0-2.74","","","","","","151","","","","1","3","[{""stimulus"":""img/1to3/1.png"",""time"":111},{""stimulus"":""img/1to3/2.png"",""time"":210},{""stimulus"":""img/1to3/3.png"",""time"":310},{""stimulus"":""img/1to3/4.png"",""time"":406},{""stimulus"":""img/1to3/5.png"",""time"":516},{""stimulus"":""img/1to3/6.png"",""time"":598},{""stimulus"":""img/1to3/7.png"",""time"":711},{""stimulus"":""img/1to3/8.png"",""time"":812},{""stimulus"":""img/1to3/9.png"",""time"":895},{""stimulus"":""img/1to3/10.png"",""time"":1010},{""stimulus"":""img/1to3/11.png"",""time"":1095},{""stimulus"":""img/1to3/12.png"",""time"":1194}]","[]"
"","","","observe","","58016c9f551314000145af58","bdp_cybrbll","Fri Mar 24 2023 19:20:52 GMT-0400 (Eastern Daylight Time)","656532","3","1","image-keyboard-response","155","370679","0.0-5.0-1.75","","null","","img/3to2/1.png","null","150","776","0.5","0.5","3","1","",""
"","","","","","58016c9f551314000145af58","bdp_cybrbll","Fri Mar 24 2023 19:20:52 GMT-0400 (Eastern Daylight Time)","656532","3","1","animation","156","371977","0.0-5.0-2.75","","","","","","150","","","","3","1","[{""stimulus"":""img/3to1/1.png"",""time"":112},{""stimulus"":""img/3to1/2.png"",""time"":213},{""stimulus"":""img/3to1/3.png"",""time"":315},{""stimulus"":""img/3to1/4.png"",""time"":399},{""stimulus"":""img/3to1/5.png"",""time"":514},{""stimulus"":""img/3to1/6.png"",""time"":599},{""stimulus"":""img/3to1/7.png"",""time"":702},{""stimulus"":""img/3to1/8.png"",""time"":812},{""stimulus"":""img/3to1/9.png"",""time"":905},{""stimulus"":""img/3to1/10.png"",""time"":1000},{""stimulus"":""img/3to1/11.png"",""time"":1108},{""stimulus"":""img/3to1/12.png"",""time"":1199}]","[]"
"","","","observe","","58016c9f551314000145af58","bdp_cybrbll","Fri Mar 24 2023 19:20:52 GMT-0400 (Eastern Daylight Time)","656532","3","1","image-keyboard-response","157","372524","0.0-5.0-1.76","","null","","img/1to3/1.png","null","149","536","0.5","0.1","1","3","",""
"","","","","","58016c9f551314000145af58","bdp_cybrbll","Fri Mar 24 2023 19:20:52 GMT-0400 (Eastern Daylight Time)","656532","3","1","animation","158","373813","0.0-5.0-2.76","","","","","","149","","","","1","3","[{""stimulus"":""img/1to3/1.png"",""time"":108},{""stimulus"":""img/1to3/2.png"",""time"":203},{""stimulus"":""img/1to3/3.png"",""time"":318},{""stimulus"":""img/1to3/4.png"",""time"":404},{""stimulus"":""img/1to3/5.png"",""time"":503},{""stimulus"":""img/1to3/6.png"",""time"":608},{""stimulus"":""img/1to3/7.png"",""time"":701},{""stimulus"":""img/1to3/8.png"",""time"":796},{""stimulus"":""img/1to3/9.png"",""time"":904},{""stimulus"":""img/1to3/10.png"",""time"":1003},{""stimulus"":""img/1to3/11.png"",""time"":1108},{""stimulus"":""img/1to3/12.png"",""time"":1203}]","[]"
"","","","observe","","58016c9f551314000145af58","bdp_cybrbll","Fri Mar 24 2023 19:20:52 GMT-0400 (Eastern Daylight Time)","656532","3","1","image-keyboard-response","159","374019","0.0-5.0-1.77","","null","","img/3to2/1.png","null","148","197","0.5","0.1","3","1","",""
"","","","","","58016c9f551314000145af58","bdp_cybrbll","Fri Mar 24 2023 19:20:52 GMT-0400 (Eastern Daylight Time)","656532","3","1","animation","160","375311","0.0-5.0-2.77","","","","","","148","","","","3","1","[{""stimulus"":""img/3to1/1.png"",""time"":112},{""stimulus"":""img/3to1/2.png"",""time"":207},{""stimulus"":""img/3to1/3.png"",""time"":307},{""stimulus"":""img/3to1/4.png"",""time"":409},{""stimulus"":""img/3to1/5.png"",""time"":502},{""stimulus"":""img/3to1/6.png"",""time"":612},{""stimulus"":""img/3to1/7.png"",""time"":707},{""stimulus"":""img/3to1/8.png"",""time"":799},{""stimulus"":""img/3to1/9.png"",""time"":906},{""stimulus"":""img/3to1/10.png"",""time"":1007},{""stimulus"":""img/3to1/11.png"",""time"":1091},{""stimulus"":""img/3to1/12.png"",""time"":1206}]","[]"
"","","","observe","","58016c9f551314000145af58","bdp_cybrbll","Fri Mar 24 2023 19:20:52 GMT-0400 (Eastern Daylight Time)","656532","3","1","image-keyboard-response","161","375570","0.0-5.0-1.78","","null","","img/1to3/1.png","null","147","243","0.5","0.1","1","3","",""
"","","","","","58016c9f551314000145af58","bdp_cybrbll","Fri Mar 24 2023 19:20:52 GMT-0400 (Eastern Daylight Time)","656532","3","1","animation","162","376861","0.0-5.0-2.78","","","","","","147","","","","1","3","[{""stimulus"":""img/1to3/1.png"",""time"":111},{""stimulus"":""img/1to3/2.png"",""time"":206},{""stimulus"":""img/1to3/3.png"",""time"":306},{""stimulus"":""img/1to3/4.png"",""time"":406},{""stimulus"":""img/1to3/5.png"",""time"":499},{""stimulus"":""img/1to3/6.png"",""time"":607},{""stimulus"":""img/1to3/7.png"",""time"":701},{""stimulus"":""img/1to3/8.png"",""time"":806},{""stimulus"":""img/1to3/9.png"",""time"":904},{""stimulus"":""img/1to3/10.png"",""time"":998},{""stimulus"":""img/1to3/11.png"",""time"":1106},{""stimulus"":""img/1to3/12.png"",""time"":1195}]","[]"
"","","","observe","","58016c9f551314000145af58","bdp_cybrbll","Fri Mar 24 2023 19:20:52 GMT-0400 (Eastern Daylight Time)","656532","3","1","image-keyboard-response","163","377110","0.0-5.0-1.79","","null","","img/3to2/1.png","null","146","242","0.5","0.1","3","1","",""
"","","","","","58016c9f551314000145af58","bdp_cybrbll","Fri Mar 24 2023 19:20:52 GMT-0400 (Eastern Daylight Time)","656532","3","1","animation","164","378409","0.0-5.0-2.79","","","","","","146","","","","3","1","[{""stimulus"":""img/3to1/1.png"",""time"":116},{""stimulus"":""img/3to1/2.png"",""time"":209},{""stimulus"":""img/3to1/3.png"",""time"":316},{""stimulus"":""img/3to1/4.png"",""time"":402},{""stimulus"":""img/3to1/5.png"",""time"":504},{""stimulus"":""img/3to1/6.png"",""time"":615},{""stimulus"":""img/3to1/7.png"",""time"":709},{""stimulus"":""img/3to1/8.png"",""time"":800},{""stimulus"":""img/3to1/9.png"",""time"":900},{""stimulus"":""img/3to1/10.png"",""time"":1001},{""stimulus"":""img/3to1/11.png"",""time"":1100},{""stimulus"":""img/3to1/12.png"",""time"":1192}]","[]"
"","","","observe","","58016c9f551314000145af58","bdp_cybrbll","Fri Mar 24 2023 19:20:52 GMT-0400 (Eastern Daylight Time)","656532","3","1","image-keyboard-response","165","378678","0.0-5.0-1.80","","null","","img/1to3/1.png","null","145","266","0.5","0.1","1","3","",""
"","","","","","58016c9f551314000145af58","bdp_cybrbll","Fri Mar 24 2023 19:20:52 GMT-0400 (Eastern Daylight Time)","656532","3","1","animation","166","379977","0.0-5.0-2.80","","","","","","145","","","","1","3","[{""stimulus"":""img/1to3/1.png"",""time"":110},{""stimulus"":""img/1to3/2.png"",""time"":200},{""stimulus"":""img/1to3/3.png"",""time"":315},{""stimulus"":""img/1to3/4.png"",""time"":400},{""stimulus"":""img/1to3/5.png"",""time"":516},{""stimulus"":""img/1to3/6.png"",""time"":610},{""stimulus"":""img/1to3/7.png"",""time"":703},{""stimulus"":""img/1to3/8.png"",""time"":814},{""stimulus"":""img/1to3/9.png"",""time"":900},{""stimulus"":""img/1to3/10.png"",""time"":1000},{""stimulus"":""img/1to3/11.png"",""time"":1109},{""stimulus"":""img/1to3/12.png"",""time"":1203}]","[]"
"","","","observe","","58016c9f551314000145af58","bdp_cybrbll","Fri Mar 24 2023 19:20:52 GMT-0400 (Eastern Daylight Time)","656532","3","1","image-keyboard-response","167","380412","0.0-5.0-1.81","","null","","img/3to2/1.png","null","144","416","0.5","0.1","3","1","",""
"","","","","","58016c9f551314000145af58","bdp_cybrbll","Fri Mar 24 2023 19:20:52 GMT-0400 (Eastern Daylight Time)","656532","3","1","animation","168","381710","0.0-5.0-2.81","","","","","","144","","","","3","1","[{""stimulus"":""img/3to1/1.png"",""time"":112},{""stimulus"":""img/3to1/2.png"",""time"":214},{""stimulus"":""img/3to1/3.png"",""time"":314},{""stimulus"":""img/3to1/4.png"",""time"":414},{""stimulus"":""img/3to1/5.png"",""time"":500},{""stimulus"":""img/3to1/6.png"",""time"":601},{""stimulus"":""img/3to1/7.png"",""time"":703},{""stimulus"":""img/3to1/8.png"",""time"":796},{""stimulus"":""img/3to1/9.png"",""time"":897},{""stimulus"":""img/3to1/10.png"",""time"":997},{""stimulus"":""img/3to1/11.png"",""time"":1097},{""stimulus"":""img/3to1/12.png"",""time"":1197}]","[]"
"","","","observe","","58016c9f551314000145af58","bdp_cybrbll","Fri Mar 24 2023 19:20:52 GMT-0400 (Eastern Daylight Time)","656532","3","1","image-keyboard-response","169","382506","0.0-5.0-1.82","","null","","img/1to3/1.png","null","143","777","0.5","0.1","1","3","",""
"","","","","","58016c9f551314000145af58","bdp_cybrbll","Fri Mar 24 2023 19:20:52 GMT-0400 (Eastern Daylight Time)","656532","3","1","animation","170","383810","0.0-5.0-2.82","","","","","","143","","","","1","3","[{""stimulus"":""img/1to3/1.png"",""time"":113},{""stimulus"":""img/1to3/2.png"",""time"":202},{""stimulus"":""img/1to3/3.png"",""time"":303},{""stimulus"":""img/1to3/4.png"",""time"":406},{""stimulus"":""img/1to3/5.png"",""time"":503},{""stimulus"":""img/1to3/6.png"",""time"":603},{""stimulus"":""img/1to3/7.png"",""time"":703},{""stimulus"":""img/1to3/8.png"",""time"":796},{""stimulus"":""img/1to3/9.png"",""time"":902},{""stimulus"":""img/1to3/10.png"",""time"":999},{""stimulus"":""img/1to3/11.png"",""time"":1104},{""stimulus"":""img/1to3/12.png"",""time"":1202}]","[]"
"","","","observe","","58016c9f551314000145af58","bdp_cybrbll","Fri Mar 24 2023 19:20:52 GMT-0400 (Eastern Daylight Time)","656532","3","1","image-keyboard-response","171","384289","0.0-5.0-1.83","","null","","img/3to2/1.png","null","142","463","0.5","0.1","3","2","",""
"","","","","","58016c9f551314000145af58","bdp_cybrbll","Fri Mar 24 2023 19:20:52 GMT-0400 (Eastern Daylight Time)","656532","3","1","animation","172","385593","0.0-5.0-2.83","","","","","","142","","","","3","2","[{""stimulus"":""img/3to2/1.png"",""time"":100},{""stimulus"":""img/3to2/2.png"",""time"":217},{""stimulus"":""img/3to2/3.png"",""time"":311},{""stimulus"":""img/3to2/4.png"",""time"":405},{""stimulus"":""img/3to2/5.png"",""time"":504},{""stimulus"":""img/3to2/6.png"",""time"":605},{""stimulus"":""img/3to2/7.png"",""time"":705},{""stimulus"":""img/3to2/8.png"",""time"":804},{""stimulus"":""img/3to2/9.png"",""time"":892},{""stimulus"":""img/3to2/10.png"",""time"":998},{""stimulus"":""img/3to2/11.png"",""time"":1093},{""stimulus"":""img/3to2/12.png"",""time"":1202}]","[]"
"","","","choice","","58016c9f551314000145af58","bdp_cybrbll","Fri Mar 24 2023 19:20:52 GMT-0400 (Eastern Daylight Time)","656532","3","1","image-keyboard-response","173","385816","0.0-5.0-1.84","","223","","img/2to1/1.png","1","141","313","0.5","0.1","2","1","",""
"","","","","","58016c9f551314000145af58","bdp_cybrbll","Fri Mar 24 2023 19:20:52 GMT-0400 (Eastern Daylight Time)","656532","3","1","animation","174","387110","0.0-5.0-2.84","","","","","","141","","","","2","1","[{""stimulus"":""img/2to1/1.png"",""time"":102},{""stimulus"":""img/2to1/2.png"",""time"":211},{""stimulus"":""img/2to1/3.png"",""time"":315},{""stimulus"":""img/2to1/4.png"",""time"":410},{""stimulus"":""img/2to1/5.png"",""time"":511},{""stimulus"":""img/2to1/6.png"",""time"":611},{""stimulus"":""img/2to1/7.png"",""time"":711},{""stimulus"":""img/2to1/8.png"",""time"":798},{""stimulus"":""img/2to1/9.png"",""time"":894},{""stimulus"":""img/2to1/10.png"",""time"":1009},{""stimulus"":""img/2to1/11.png"",""time"":1096},{""stimulus"":""img/2to1/12.png"",""time"":1194}]","[]"
"","","","observe","","58016c9f551314000145af58","bdp_cybrbll","Fri Mar 24 2023 19:20:52 GMT-0400 (Eastern Daylight Time)","656532","3","1","image-keyboard-response","175","387334","0.0-5.0-1.85","","null","","img/1to3/1.png","null","140","216","0.5","0.1","1","3","",""
"","","","","","58016c9f551314000145af58","bdp_cybrbll","Fri Mar 24 2023 19:20:52 GMT-0400 (Eastern Daylight Time)","656532","3","1","animation","176","388642","0.0-5.0-2.85","","","","","","140","","","","1","3","[{""stimulus"":""img/1to3/1.png"",""time"":111},{""stimulus"":""img/1to3/2.png"",""time"":210},{""stimulus"":""img/1to3/3.png"",""time"":309},{""stimulus"":""img/1to3/4.png"",""time"":409},{""stimulus"":""img/1to3/5.png"",""time"":510},{""stimulus"":""img/1to3/6.png"",""time"":600},{""stimulus"":""img/1to3/7.png"",""time"":704},{""stimulus"":""img/1to3/8.png"",""time"":809},{""stimulus"":""img/1to3/9.png"",""time"":896},{""stimulus"":""img/1to3/10.png"",""time"":993},{""stimulus"":""img/1to3/11.png"",""time"":1109},{""stimulus"":""img/1to3/12.png"",""time"":1194}]","[]"
"","","","observe","","58016c9f551314000145af58","bdp_cybrbll","Fri Mar 24 2023 19:20:52 GMT-0400 (Eastern Daylight Time)","656532","3","1","image-keyboard-response","177","388981","0.0-5.0-1.86","","null","","img/3to2/1.png","null","139","337","0.5","0.1","3","1","",""
"","","","","","58016c9f551314000145af58","bdp_cybrbll","Fri Mar 24 2023 19:20:52 GMT-0400 (Eastern Daylight Time)","656532","3","1","animation","178","390277","0.0-5.0-2.86","","","","","","139","","","","3","1","[{""stimulus"":""img/3to1/1.png"",""time"":119},{""stimulus"":""img/3to1/2.png"",""time"":212},{""stimulus"":""img/3to1/3.png"",""time"":307},{""stimulus"":""img/3to1/4.png"",""time"":409},{""stimulus"":""img/3to1/5.png"",""time"":509},{""stimulus"":""img/3to1/6.png"",""time"":612},{""stimulus"":""img/3to1/7.png"",""time"":697},{""stimulus"":""img/3to1/8.png"",""time"":807},{""stimulus"":""img/3to1/9.png"",""time"":912},{""stimulus"":""img/3to1/10.png"",""time"":994},{""stimulus"":""img/3to1/11.png"",""time"":1111},{""stimulus"":""img/3to1/12.png"",""time"":1192}]","[]"
"","","","observe","","58016c9f551314000145af58","bdp_cybrbll","Fri Mar 24 2023 19:20:52 GMT-0400 (Eastern Daylight Time)","656532","3","1","image-keyboard-response","179","390456","0.0-5.0-1.87","","null","","img/1to3/1.png","null","138","167","0.5","0.1","1","2","",""
"","","","","","58016c9f551314000145af58","bdp_cybrbll","Fri Mar 24 2023 19:20:52 GMT-0400 (Eastern Daylight Time)","656532","3","1","animation","180","391751","0.0-5.0-2.87","","","","","","138","","","","1","2","[{""stimulus"":""img/1to2/1.png"",""time"":114},{""stimulus"":""img/1to2/2.png"",""time"":221},{""stimulus"":""img/1to2/3.png"",""time"":305},{""stimulus"":""img/1to2/4.png"",""time"":409},{""stimulus"":""img/1to2/5.png"",""time"":516},{""stimulus"":""img/1to2/6.png"",""time"":605},{""stimulus"":""img/1to2/7.png"",""time"":714},{""stimulus"":""img/1to2/8.png"",""time"":804},{""stimulus"":""img/1to2/9.png"",""time"":897},{""stimulus"":""img/1to2/10.png"",""time"":1006},{""stimulus"":""img/1to2/11.png"",""time"":1096},{""stimulus"":""img/1to2/12.png"",""time"":1195}]","[]"
"","","","choice","","58016c9f551314000145af58","bdp_cybrbll","Fri Mar 24 2023 19:20:52 GMT-0400 (Eastern Daylight Time)","656532","3","1","image-keyboard-response","181","392220","0.0-5.0-1.88","","468","","img/2to1/1.png","2","137","1509","0.5","0.1","2","3","",""
"","","","","","58016c9f551314000145af58","bdp_cybrbll","Fri Mar 24 2023 19:20:52 GMT-0400 (Eastern Daylight Time)","656532","3","1","animation","182","393513","0.0-5.0-2.88","","","","","","137","","","","2","3","[{""stimulus"":""img/2to3/1.png"",""time"":114},{""stimulus"":""img/2to3/2.png"",""time"":210},{""stimulus"":""img/2to3/3.png"",""time"":306},{""stimulus"":""img/2to3/4.png"",""time"":404},{""stimulus"":""img/2to3/5.png"",""time"":504},{""stimulus"":""img/2to3/6.png"",""time"":603},{""stimulus"":""img/2to3/7.png"",""time"":701},{""stimulus"":""img/2to3/8.png"",""time"":824},{""stimulus"":""img/2to3/9.png"",""time"":905},{""stimulus"":""img/2to3/10.png"",""time"":994},{""stimulus"":""img/2to3/11.png"",""time"":1097},{""stimulus"":""img/2to3/12.png"",""time"":1193}]","[]"
"","","","observe","","58016c9f551314000145af58","bdp_cybrbll","Fri Mar 24 2023 19:20:52 GMT-0400 (Eastern Daylight Time)","656532","3","1","image-keyboard-response","183","393972","0.0-5.0-1.89","","null","","img/3to2/1.png","null","136","451","0.5","0.1","3","2","",""
"","","","","","58016c9f551314000145af58","bdp_cybrbll","Fri Mar 24 2023 19:20:52 GMT-0400 (Eastern Daylight Time)","656532","3","1","animation","184","395270","0.0-5.0-2.89","","","","","","136","","","","3","2","[{""stimulus"":""img/3to2/1.png"",""time"":110},{""stimulus"":""img/3to2/2.png"",""time"":208},{""stimulus"":""img/3to2/3.png"",""time"":308},{""stimulus"":""img/3to2/4.png"",""time"":402},{""stimulus"":""img/3to2/5.png"",""time"":502},{""stimulus"":""img/3to2/6.png"",""time"":611},{""stimulus"":""img/3to2/7.png"",""time"":699},{""stimulus"":""img/3to2/8.png"",""time"":794},{""stimulus"":""img/3to2/9.png"",""time"":898},{""stimulus"":""img/3to2/10.png"",""time"":994},{""stimulus"":""img/3to2/11.png"",""time"":1098},{""stimulus"":""img/3to2/12.png"",""time"":1201}]","[]"
"","","","choice","","58016c9f551314000145af58","bdp_cybrbll","Fri Mar 24 2023 19:20:52 GMT-0400 (Eastern Daylight Time)","656532","3","1","image-keyboard-response","185","395708","0.0-5.0-1.90","","437","","img/2to1/1.png","2","135","708","0.5","0.1","2","3","",""
"","","","","","58016c9f551314000145af58","bdp_cybrbll","Fri Mar 24 2023 19:20:52 GMT-0400 (Eastern Daylight Time)","656532","3","1","animation","186","397006","0.0-5.0-2.90","","","","","","135","","","","2","3","[{""stimulus"":""img/2to3/1.png"",""time"":106},{""stimulus"":""img/2to3/2.png"",""time"":205},{""stimulus"":""img/2to3/3.png"",""time"":315},{""stimulus"":""img/2to3/4.png"",""time"":411},{""stimulus"":""img/2to3/5.png"",""time"":505},{""stimulus"":""img/2to3/6.png"",""time"":606},{""stimulus"":""img/2to3/7.png"",""time"":698},{""stimulus"":""img/2to3/8.png"",""time"":798},{""stimulus"":""img/2to3/9.png"",""time"":906},{""stimulus"":""img/2to3/10.png"",""time"":996},{""stimulus"":""img/2to3/11.png"",""time"":1098},{""stimulus"":""img/2to3/12.png"",""time"":1195}]","[]"
"","","","observe","","58016c9f551314000145af58","bdp_cybrbll","Fri Mar 24 2023 19:20:52 GMT-0400 (Eastern Daylight Time)","656532","3","1","image-keyboard-response","187","397357","0.0-5.0-1.91","","null","","img/3to2/1.png","null","134","339","0.5","0.1","3","1","",""
"","","","","","58016c9f551314000145af58","bdp_cybrbll","Fri Mar 24 2023 19:20:52 GMT-0400 (Eastern Daylight Time)","656532","3","1","animation","188","398648","0.0-5.0-2.91","","","","","","134","","","","3","1","[{""stimulus"":""img/3to1/1.png"",""time"":111},{""stimulus"":""img/3to1/2.png"",""time"":206},{""stimulus"":""img/3to1/3.png"",""time"":311},{""stimulus"":""img/3to1/4.png"",""time"":406},{""stimulus"":""img/3to1/5.png"",""time"":497},{""stimulus"":""img/3to1/6.png"",""time"":609},{""stimulus"":""img/3to1/7.png"",""time"":706},{""stimulus"":""img/3to1/8.png"",""time"":806},{""stimulus"":""img/3to1/9.png"",""time"":906},{""stimulus"":""img/3to1/10.png"",""time"":996},{""stimulus"":""img/3to1/11.png"",""time"":1106},{""stimulus"":""img/3to1/12.png"",""time"":1193}]","[]"
"","","","observe","","58016c9f551314000145af58","bdp_cybrbll","Fri Mar 24 2023 19:20:52 GMT-0400 (Eastern Daylight Time)","656532","3","1","image-keyboard-response","189","399214","0.0-5.0-1.92","","null","","img/1to3/1.png","null","133","549","0.5","0.1","1","3","",""
