"trial_type","trial_index","time_elapsed","internal_node_id","subject_id","task","startTime","totalTime","fairPartner","unfairPartner","view_history","rt","event","trial","time","trialtype","success","stimulus","key_press","throwsLeft","rtDur","pFair","pUnfair","holder","receiver","animation_sequence","responses"
"pavlovia","0","3","0.0-0.0","TESTING","bdp_cybrbll","Fri Mar 24 2023 18:41:07 GMT-0400 (Eastern Daylight Time)","389872","3","1","","","","","","","","","","","","","","","","",""
"instructions","1","1218","0.0-1.0","TESTING","bdp_cybrbll","Fri Mar 24 2023 18:41:07 GMT-0400 (Eastern Daylight Time)","389872","3","1","[{""page_index"":0,""viewing_time"":1214}]","1214","","","","","","","","","","","","","","",""
"","","","","TESTING","bdp_cybrbll","Fri Mar 24 2023 18:41:07 GMT-0400 (Eastern Daylight Time)","389872","3","1","","","fullscreenenter","2","3168","fullscreenenter","","","","","","","","","","",""
"fullscreen","2","4168","0.0-2.0","TESTING","bdp_cybrbll","Fri Mar 24 2023 18:41:07 GMT-0400 (Eastern Daylight Time)","389872","3","1","","","","","","","true","","","","","","","","","",""
"instructions","3","5100","0.0-4.0","TESTING","bdp_cybrbll","Fri Mar 24 2023 18:41:07 GMT-0400 (Eastern Daylight Time)","389872","3","1","[{""page_index"":0,""viewing_time"":929}]","929","","","","","","","","","","","","","","",""
"image-keyboard-response","4","5565","0.0-5.0-1.0","TESTING","bdp_cybrbll","Fri Mar 24 2023 18:41:07 GMT-0400 (Eastern Daylight Time)","389872","3","1","","463","","","","choice","","img/2to1/1.png","2","225","1203","0.5","0.5","2","3","",""
"animation","5","6854","0.0-5.0-2.0","TESTING","bdp_cybrbll","Fri Mar 24 2023 18:41:07 GMT-0400 (Eastern Daylight Time)","389872","3","1","","","","","","","","","","225","","","","2","3","[{""stimulus"":""img/2to3/1.png"",""time"":110},{""stimulus"":""img/2to3/2.png"",""time"":202},{""stimulus"":""img/2to3/3.png"",""time"":305},{""stimulus"":""img/2to3/4.png"",""time"":402},{""stimulus"":""img/2to3/5.png"",""time"":500},{""stimulus"":""img/2to3/6.png"",""time"":601},{""stimulus"":""img/2to3/7.png"",""time"":701},{""stimulus"":""img/2to3/8.png"",""time"":802},{""stimulus"":""img/2to3/9.png"",""time"":897},{""stimulus"":""img/2to3/10.png"",""time"":994},{""stimulus"":""img/2to3/11.png"",""time"":1096},{""stimulus"":""img/2to3/12.png"",""time"":1192}]","[]"
"image-keyboard-response","6","7070","0.0-5.0-1.1","TESTING","bdp_cybrbll","Fri Mar 24 2023 18:41:07 GMT-0400 (Eastern Daylight Time)","389872","3","1","","null","","","","observe","","img/3to2/1.png","null","224","212","0.5","0.5","3","2","",""
"animation","7","8367","0.0-5.0-2.1","TESTING","bdp_cybrbll","Fri Mar 24 2023 18:41:07 GMT-0400 (Eastern Daylight Time)","389872","3","1","","","","","","","","","","224","","","","3","2","[{""stimulus"":""img/3to2/1.png"",""time"":106},{""stimulus"":""img/3to2/2.png"",""time"":201},{""stimulus"":""img/3to2/3.png"",""time"":305},{""stimulus"":""img/3to2/4.png"",""time"":401},{""stimulus"":""img/3to2/5.png"",""time"":505},{""stimulus"":""img/3to2/6.png"",""time"":603},{""stimulus"":""img/3to2/7.png"",""time"":697},{""stimulus"":""img/3to2/8.png"",""time"":802},{""stimulus"":""img/3to2/9.png"",""time"":899},{""stimulus"":""img/3to2/10.png"",""time"":994},{""stimulus"":""img/3to2/11.png"",""time"":1099},{""stimulus"":""img/3to2/12.png"",""time"":1196}]","[]"
"image-keyboard-response","8","8414","0.0-5.0-1.2","TESTING","bdp_cybrbll","Fri Mar 24 2023 18:41:07 GMT-0400 (Eastern Daylight Time)","389872","3","1","","44","","","","choice","","img/2to1/1.png","1","223","350","0.5","0.5","2","1","",""
"animation","9","9703","0.0-5.0-2.2","TESTING","bdp_cybrbll","Fri Mar 24 2023 18:41:07 GMT-0400 (Eastern Daylight Time)","389872","3","1","","","","","","","","","","223","","","","2","1","[{""stimulus"":""img/2to1/1.png"",""time"":105},{""stimulus"":""img/2to1/2.png"",""time"":201},{""stimulus"":""img/2to1/3.png"",""time"":306},{""stimulus"":""img/2to1/4.png"",""time"":401},{""stimulus"":""img/2to1/5.png"",""time"":497},{""stimulus"":""img/2to1/6.png"",""time"":602},{""stimulus"":""img/2to1/7.png"",""time"":698},{""stimulus"":""img/2to1/8.png"",""time"":802},{""stimulus"":""img/2to1/9.png"",""time"":898},{""stimulus"":""img/2to1/10.png"",""time"":991},{""stimulus"":""img/2to1/11.png"",""time"":1096},{""stimulus"":""img/2to1/12.png"",""time"":1197}]","[]"
"image-keyboard-response","10","9871","0.0-5.0-1.3","TESTING","bdp_cybrbll","Fri Mar 24 2023 18:41:07 GMT-0400 (Eastern Daylight Time)","389872","3","1","","null","","","","observe","","img/1to3/1.png","null","222","163","0.5","0.5","1","3","",""
"animation","11","11167","0.0-5.0-2.3","TESTING","bdp_cybrbll","Fri Mar 24 2023 18:41:07 GMT-0400 (Eastern Daylight Time)","389872","3","1","","","","","","","","","","222","","","","1","3","[{""stimulus"":""img/1to3/1.png"",""time"":104},{""stimulus"":""img/1to3/2.png"",""time"":208},{""stimulus"":""img/1to3/3.png"",""time"":305},{""stimulus"":""img/1to3/4.png"",""time"":400},{""stimulus"":""img/1to3/5.png"",""time"":504},{""stimulus"":""img/1to3/6.png"",""time"":600},{""stimulus"":""img/1to3/7.png"",""time"":697},{""stimulus"":""img/1to3/8.png"",""time"":804},{""stimulus"":""img/1to3/9.png"",""time"":897},{""stimulus"":""img/1to3/10.png"",""time"":999},{""stimulus"":""img/1to3/11.png"",""time"":1096},{""stimulus"":""img/1to3/12.png"",""time"":1191}]","[]"
"image-keyboard-response","12","11440","0.0-5.0-1.4","TESTING","bdp_cybrbll","Fri Mar 24 2023 18:41:07 GMT-0400 (Eastern Daylight Time)","389872","3","1","","null","","","","observe","","img/3to2/1.png","null","221","262","0.5","0.5","3","1","",""
"animation","13","12735","0.0-5.0-2.4","TESTING","bdp_cybrbll","Fri Mar 24 2023 18:41:07 GMT-0400 (Eastern Daylight Time)","389872","3","1","","","","","","","","","","221","","","","3","1","[{""stimulus"":""img/3to1/1.png"",""time"":103},{""stimulus"":""img/3to1/2.png"",""time"":208},{""stimulus"":""img/3to1/3.png"",""time"":303},{""stimulus"":""img/3to1/4.png"",""time"":399},{""stimulus"":""img/3to1/5.png"",""time"":502},{""stimulus"":""img/3to1/6.png"",""time"":599},{""stimulus"":""img/3to1/7.png"",""time"":704},{""stimulus"":""img/3to1/8.png"",""time"":800},{""stimulus"":""img/3to1/9.png"",""time"":896},{""stimulus"":""img/3to1/10.png"",""time"":999},{""stimulus"":""img/3to1/11.png"",""time"":1095},{""stimulus"":""img/3to1/12.png"",""time"":1194}]","[]"
"image-keyboard-response","14","12966","0.0-5.0-1.5","TESTING","bdp_cybrbll","Fri Mar 24 2023 18:41:07 GMT-0400 (Eastern Daylight Time)","389872","3","1","","null","","","","observe","","img/1to3/1.png","null","220","222","0.5","0.5","1","3","",""
"animation","15","14266","0.0-5.0-2.5","TESTING","bdp_cybrbll","Fri Mar 24 2023 18:41:07 GMT-0400 (Eastern Daylight Time)","389872","3","1","","","","","","","","","","220","","","","1","3","[{""stimulus"":""img/1to3/1.png"",""time"":106},{""stimulus"":""img/1to3/2.png"",""time"":202},{""stimulus"":""img/1to3/3.png"",""time"":304},{""stimulus"":""img/1to3/4.png"",""time"":400},{""stimulus"":""img/1to3/5.png"",""time"":505},{""stimulus"":""img/1to3/6.png"",""time"":602},{""stimulus"":""img/1to3/7.png"",""time"":697},{""stimulus"":""img/1to3/8.png"",""time"":801},{""stimulus"":""img/1to3/9.png"",""time"":897},{""stimulus"":""img/1to3/10.png"",""time"":993},{""stimulus"":""img/1to3/11.png"",""time"":1099},{""stimulus"":""img/1to3/12.png"",""time"":1193}]","[]"
"image-keyboard-response","16","14959","0.0-5.0-1.6","TESTING","bdp_cybrbll","Fri Mar 24 2023 18:41:07 GMT-0400 (Eastern Daylight Time)","389872","3","1","","null","","","","observe","","img/3to2/1.png","null","219","682","0.5","0.5","3","2","",""
"animation","17","16255","0.0-5.0-2.6","TESTING","bdp_cybrbll","Fri Mar 24 2023 18:41:07 GMT-0400 (Eastern Daylight Time)","389872","3","1","","","","","","","","","","219","","","","3","2","[{""stimulus"":""img/3to2/1.png"",""time"":104},{""stimulus"":""img/3to2/2.png"",""time"":208},{""stimulus"":""img/3to2/3.png"",""time"":308},{""stimulus"":""img/3to2/4.png"",""time"":400},{""stimulus"":""img/3to2/5.png"",""time"":504},{""stimulus"":""img/3to2/6.png"",""time"":600},{""stimulus"":""img/3to2/7.png"",""time"":695},{""stimulus"":""img/3to2/8.png"",""time"":801},{""stimulus"":""img/3to2/9.png"",""time"":896},{""stimulus"":""img/3to2/10.png"",""time"":1000},{""stimulus"":""img/3to2/11.png"",""time"":1096},{""stimulus"":""img/3to2/12.png"",""time"":1193}]","[]"
"image-keyboard-response","18","16347","0.0-5.0-1.7","TESTING","bdp_cybrbll","Fri Mar 24 2023 18:41:07 GMT-0400 (Eastern Daylight Time)","389872","3","1","","92","","","","choice","","img/2to1/1.png","1","218","609","0.5","0.5","2","1","",""
"animation","19","17635","0.0-5.0-2.7","TESTING","bdp_cybrbll","Fri Mar 24 2023 18:41:07 GMT-0400 (Eastern Daylight Time)","389872","3","1","","","","","","","","","","218","","","","2","1","[{""stimulus"":""img/2to1/1.png"",""time"":110},{""stimulus"":""img/2to1/2.png"",""time"":203},{""stimulus"":""img/2to1/3.png"",""time"":301},{""stimulus"":""img/2to1/4.png"",""time"":404},{""stimulus"":""img/2to1/5.png"",""time"":499},{""stimulus"":""img/2to1/6.png"",""time"":603},{""stimulus"":""img/2to1/7.png"",""time"":701},{""stimulus"":""img/2to1/8.png"",""time"":796},{""stimulus"":""img/2to1/9.png"",""time"":892},{""stimulus"":""img/2to1/10.png"",""time"":994},{""stimulus"":""img/2to1/11.png"",""time"":1091},{""stimulus"":""img/2to1/12.png"",""time"":1190}]","[]"
"image-keyboard-response","20","18025","0.0-5.0-1.8","TESTING","bdp_cybrbll","Fri Mar 24 2023 18:41:07 GMT-0400 (Eastern Daylight Time)","389872","3","1","","null","","","","observe","","img/1to3/1.png","null","217","378","0.5","0.5","1","2","",""
"animation","21","19318","0.0-5.0-2.8","TESTING","bdp_cybrbll","Fri Mar 24 2023 18:41:07 GMT-0400 (Eastern Daylight Time)","389872","3","1","","","","","","","","","","217","","","","1","2","[{""stimulus"":""img/1to2/1.png"",""time"":106},{""stimulus"":""img/1to2/2.png"",""time"":206},{""stimulus"":""img/1to2/3.png"",""time"":304},{""stimulus"":""img/1to2/4.png"",""time"":406},{""stimulus"":""img/1to2/5.png"",""time"":504},{""stimulus"":""img/1to2/6.png"",""time"":602},{""stimulus"":""img/1to2/7.png"",""time"":703},{""stimulus"":""img/1to2/8.png"",""time"":798},{""stimulus"":""img/1to2/9.png"",""time"":895},{""stimulus"":""img/1to2/10.png"",""time"":998},{""stimulus"":""img/1to2/11.png"",""time"":1095},{""stimulus"":""img/1to2/12.png"",""time"":1199}]","[]"
"image-keyboard-response","22","19365","0.0-5.0-1.9","TESTING","bdp_cybrbll","Fri Mar 24 2023 18:41:07 GMT-0400 (Eastern Daylight Time)","389872","3","1","","45","","","","choice","","img/2to1/1.png","2","216","679","0.5","0.5","2","3","",""
"animation","23","20655","0.0-5.0-2.9","TESTING","bdp_cybrbll","Fri Mar 24 2023 18:41:07 GMT-0400 (Eastern Daylight Time)","389872","3","1","","","","","","","","","","216","","","","2","3","[{""stimulus"":""img/2to3/1.png"",""time"":107},{""stimulus"":""img/2to3/2.png"",""time"":200},{""stimulus"":""img/2to3/3.png"",""time"":309},{""stimulus"":""img/2to3/4.png"",""time"":402},{""stimulus"":""img/2to3/5.png"",""time"":499},{""stimulus"":""img/2to3/6.png"",""time"":602},{""stimulus"":""img/2to3/7.png"",""time"":698},{""stimulus"":""img/2to3/8.png"",""time"":802},{""stimulus"":""img/2to3/9.png"",""time"":900},{""stimulus"":""img/2to3/10.png"",""time"":994},{""stimulus"":""img/2to3/11.png"",""time"":1093},{""stimulus"":""img/2to3/12.png"",""time"":1194}]","[]"
"image-keyboard-response","24","21083","0.0-5.0-1.10","TESTING","bdp_cybrbll","Fri Mar 24 2023 18:41:07 GMT-0400 (Eastern Daylight Time)","389872","3","1","","null","","","","observe","","img/3to2/1.png","null","215","416","0.5","0.5","3","2","",""
"animation","25","22375","0.0-5.0-2.10","TESTING","bdp_cybrbll","Fri Mar 24 2023 18:41:07 GMT-0400 (Eastern Daylight Time)","389872","3","1","","","","","","","","","","215","","","","3","2","[{""stimulus"":""img/3to2/1.png"",""time"":104},{""stimulus"":""img/3to2/2.png"",""time"":203},{""stimulus"":""img/3to2/3.png"",""time"":301},{""stimulus"":""img/3to2/4.png"",""time"":405},{""stimulus"":""img/3to2/5.png"",""time"":504},{""stimulus"":""img/3to2/6.png"",""time"":605},{""stimulus"":""img/3to2/7.png"",""time"":700},{""stimulus"":""img/3to2/8.png"",""time"":796},{""stimulus"":""img/3to2/9.png"",""time"":901},{""stimulus"":""img/3to2/10.png"",""time"":999},{""stimulus"":""img/3to2/11.png"",""time"":1092},{""stimulus"":""img/3to2/12.png"",""time"":1196}]","[]"
"image-keyboard-response","26","22532","0.0-5.0-1.11","TESTING","bdp_cybrbll","Fri Mar 24 2023 18:41:07 GMT-0400 (Eastern Daylight Time)","389872","3","1","","155","","","","choice","","img/2to1/1.png","1","214","293","0.5","0.5","2","1","",""
"animation","27","23822","0.0-5.0-2.11","TESTING","bdp_cybrbll","Fri Mar 24 2023 18:41:07 GMT-0400 (Eastern Daylight Time)","389872","3","1","","","","","","","","","","214","","","","2","1","[{""stimulus"":""img/2to1/1.png"",""time"":107},{""stimulus"":""img/2to1/2.png"",""time"":202},{""stimulus"":""img/2to1/3.png"",""time"":307},{""stimulus"":""img/2to1/4.png"",""time"":402},{""stimulus"":""img/2to1/5.png"",""time"":500},{""stimulus"":""img/2to1/6.png"",""time"":602},{""stimulus"":""img/2to1/7.png"",""time"":698},{""stimulus"":""img/2to1/8.png"",""time"":795},{""stimulus"":""img/2to1/9.png"",""time"":898},{""stimulus"":""img/2to1/10.png"",""time"":994},{""stimulus"":""img/2to1/11.png"",""time"":1098},{""stimulus"":""img/2to1/12.png"",""time"":1195}]","[]"
"image-keyboard-response","28","24079","0.0-5.0-1.12","TESTING","bdp_cybrbll","Fri Mar 24 2023 18:41:07 GMT-0400 (Eastern Daylight Time)","389872","3","1","","null","","","","observe","","img/1to3/1.png","null","213","250","0.5","0.5","1","3","",""
"animation","29","25375","0.0-5.0-2.12","TESTING","bdp_cybrbll","Fri Mar 24 2023 18:41:07 GMT-0400 (Eastern Daylight Time)","389872","3","1","","","","","","","","","","213","","","","1","3","[{""stimulus"":""img/1to3/1.png"",""time"":104},{""stimulus"":""img/1to3/2.png"",""time"":200},{""stimulus"":""img/1to3/3.png"",""time"":304},{""stimulus"":""img/1to3/4.png"",""time"":401},{""stimulus"":""img/1to3/5.png"",""time"":508},{""stimulus"":""img/1to3/6.png"",""time"":602},{""stimulus"":""img/1to3/7.png"",""time"":696},{""stimulus"":""img/1to3/8.png"",""time"":801},{""stimulus"":""img/1to3/9.png"",""time"":892},{""stimulus"":""img/1to3/10.png"",""time"":999},{""stimulus"":""img/1to3/11.png"",""time"":1096},{""stimulus"":""img/1to3/12.png"",""time"":1191}]","[]"
"image-keyboard-response","30","26847","0.0-5.0-1.13","TESTING","bdp_cybrbll","Fri Mar 24 2023 18:41:07 GMT-0400 (Eastern Daylight Time)","389872","3","1","","null","","","","observe","","img/3to2/1.png","null","212","1466","0.5","0.5","3","2","",""
"animation","31","28143","0.0-5.0-2.13","TESTING","bdp_cybrbll","Fri Mar 24 2023 18:41:07 GMT-0400 (Eastern Daylight Time)","389872","3","1","","","","","","","","","","212","","","","3","2","[{""stimulus"":""img/3to2/1.png"",""time"":105},{""stimulus"":""img/3to2/2.png"",""time"":209},{""stimulus"":""img/3to2/3.png"",""time"":305},{""stimulus"":""img/3to2/4.png"",""time"":401},{""stimulus"":""img/3to2/5.png"",""time"":505},{""stimulus"":""img/3to2/6.png"",""time"":601},{""stimulus"":""img/3to2/7.png"",""time"":696},{""stimulus"":""img/3to2/8.png"",""time"":802},{""stimulus"":""img/3to2/9.png"",""time"":898},{""stimulus"":""img/3to2/10.png"",""time"":1001},{""stimulus"":""img/3to2/11.png"",""time"":1096},{""stimulus"":""img/3to2/12.png"",""time"":1196}]","[]"
"image-keyboard-response","32","28158","0.0-5.0-1.14","TESTING","bdp_cybrbll","Fri Mar 24 2023 18:41:07 GMT-0400 (Eastern Daylight Time)","389872","3","1","","15","","","","choice","","img/2to1/1.png","1","211","421","0.5","0.5","2","1","",""
"animation","33","29455","0.0-5.0-2.14","TESTING","bdp_cybrbll","Fri Mar 24 2023 18:41:07 GMT-0400 (Eastern Daylight Time)","389872","3","1","","","","","","","","","","211","","","","2","1","[{""stimulus"":""img/2to1/1.png"",""time"":107},{""stimulus"":""img/2to1/2.png"",""time"":200},{""stimulus"":""img/2to1/3.png"",""time"":305},{""stimulus"":""img/2to1/4.png"",""time"":401},{""stimulus"":""img/2to1/5.png"",""time"":504},{""stimulus"":""img/2to1/6.png"",""time"":601},{""stimulus"":""img/2to1/7.png"",""time"":697},{""stimulus"":""img/2to1/8.png"",""time"":800},{""stimulus"":""img/2to1/9.png"",""time"":899},{""stimulus"":""img/2to1/10.png"",""time"":993},{""stimulus"":""img/2to1/11.png"",""time"":1096},{""stimulus"":""img/2to1/12.png"",""time"":1193}]","[]"
"image-keyboard-response","34","29727","0.0-5.0-1.15","TESTING","bdp_cybrbll","Fri Mar 24 2023 18:41:07 GMT-0400 (Eastern Daylight Time)","389872","3","1","","null","","","","observe","","img/1to3/1.png","null","210","266","0.5","0.5","1","2","",""
"animation","35","31022","0.0-5.0-2.15","TESTING","bdp_cybrbll","Fri Mar 24 2023 18:41:07 GMT-0400 (Eastern Daylight Time)","389872","3","1","","","","","","","","","","210","","","","1","2","[{""stimulus"":""img/1to2/1.png"",""time"":105},{""stimulus"":""img/1to2/2.png"",""time"":208},{""stimulus"":""img/1to2/3.png"",""time"":306},{""stimulus"":""img/1to2/4.png"",""time"":401},{""stimulus"":""img/1to2/5.png"",""time"":506},{""stimulus"":""img/1to2/6.png"",""time"":601},{""stimulus"":""img/1to2/7.png"",""time"":696},{""stimulus"":""img/1to2/8.png"",""time"":800},{""stimulus"":""img/1to2/9.png"",""time"":900},{""stimulus"":""img/1to2/10.png"",""time"":1000},{""stimulus"":""img/1to2/11.png"",""time"":1097},{""stimulus"":""img/1to2/12.png"",""time"":1191}]","[]"
"image-keyboard-response","36","31044","0.0-5.0-1.16","TESTING","bdp_cybrbll","Fri Mar 24 2023 18:41:07 GMT-0400 (Eastern Daylight Time)","389872","3","1","","21","","","","choice","","img/2to1/1.png","2","209","916","0.5","0.5","2","3","",""
"animation","37","32335","0.0-5.0-2.16","TESTING","bdp_cybrbll","Fri Mar 24 2023 18:41:07 GMT-0400 (Eastern Daylight Time)","389872","3","1","","","","","","","","","","209","","","","2","3","[{""stimulus"":""img/2to3/1.png"",""time"":102},{""stimulus"":""img/2to3/2.png"",""time"":203},{""stimulus"":""img/2to3/3.png"",""time"":300},{""stimulus"":""img/2to3/4.png"",""time"":404},{""stimulus"":""img/2to3/5.png"",""time"":499},{""stimulus"":""img/2to3/6.png"",""time"":602},{""stimulus"":""img/2to3/7.png"",""time"":699},{""stimulus"":""img/2to3/8.png"",""time"":795},{""stimulus"":""img/2to3/9.png"",""time"":900},{""stimulus"":""img/2to3/10.png"",""time"":996},{""stimulus"":""img/2to3/11.png"",""time"":1091},{""stimulus"":""img/2to3/12.png"",""time"":1196}]","[]"
"","","","","TESTING","bdp_cybrbll","Fri Mar 24 2023 18:41:07 GMT-0400 (Eastern Daylight Time)","389872","3","1","","","fullscreenexit","38","32480","fullscreenexit","","","","","","","","","","",""
"image-keyboard-response","38","32655","0.0-5.0-1.17","TESTING","bdp_cybrbll","Fri Mar 24 2023 18:41:07 GMT-0400 (Eastern Daylight Time)","389872","3","1","","null","","","","observe","","img/3to2/1.png","null","208","314","0.5","0.5","3","1","",""
"animation","39","33951","0.0-5.0-2.17","TESTING","bdp_cybrbll","Fri Mar 24 2023 18:41:07 GMT-0400 (Eastern Daylight Time)","389872","3","1","","","","","","","","","","208","","","","3","1","[{""stimulus"":""img/3to1/1.png"",""time"":105},{""stimulus"":""img/3to1/2.png"",""time"":211},{""stimulus"":""img/3to1/3.png"",""time"":305},{""stimulus"":""img/3to1/4.png"",""time"":400},{""stimulus"":""img/3to1/5.png"",""time"":505},{""stimulus"":""img/3to1/6.png"",""time"":600},{""stimulus"":""img/3to1/7.png"",""time"":697},{""stimulus"":""img/3to1/8.png"",""time"":800},{""stimulus"":""img/3to1/9.png"",""time"":898},{""stimulus"":""img/3to1/10.png"",""time"":1001},{""stimulus"":""img/3to1/11.png"",""time"":1098},{""stimulus"":""img/3to1/12.png"",""time"":1192}]","[]"
"image-keyboard-response","40","34368","0.0-5.0-1.18","TESTING","bdp_cybrbll","Fri Mar 24 2023 18:41:07 GMT-0400 (Eastern Daylight Time)","389872","3","1","","null","","","","observe","","img/1to3/1.png","null","207","410","0.5","0.5","1","3","",""
"animation","41","35665","0.0-5.0-2.18","TESTING","bdp_cybrbll","Fri Mar 24 2023 18:41:07 GMT-0400 (Eastern Daylight Time)","389872","3","1","","","","","","","","","","207","","","","1","3","[{""stimulus"":""img/1to3/1.png"",""time"":102},{""stimulus"":""img/1to3/2.png"",""time"":208},{""stimulus"":""img/1to3/3.png"",""time"":304},{""stimulus"":""img/1to3/4.png"",""time"":401},{""stimulus"":""img/1to3/5.png"",""time"":504},{""stimulus"":""img/1to3/6.png"",""time"":601},{""stimulus"":""img/1to3/7.png"",""time"":697},{""stimulus"":""img/1to3/8.png"",""time"":801},{""stimulus"":""img/1to3/9.png"",""time"":897},{""stimulus"":""img/1to3/10.png"",""time"":993},{""stimulus"":""img/1to3/11.png"",""time"":1096},{""stimulus"":""img/1to3/12.png"",""time"":1192}]","[]"
"image-keyboard-response","42","36346","0.0-5.0-1.19","TESTING","bdp_cybrbll","Fri Mar 24 2023 18:41:07 GMT-0400 (Eastern Daylight Time)","389872","3","1","","null","","","","observe","","img/3to2/1.png","null","206","668","0.5","0.5","3","1","",""
"animation","43","37640","0.0-5.0-2.19","TESTING","bdp_cybrbll","Fri Mar 24 2023 18:41:07 GMT-0400 (Eastern Daylight Time)","389872","3","1","","","","","","","","","","206","","","","3","1","[{""stimulus"":""img/3to1/1.png"",""time"":109},{""stimulus"":""img/3to1/2.png"",""time"":208},{""stimulus"":""img/3to1/3.png"",""time"":302},{""stimulus"":""img/3to1/4.png"",""time"":406},{""stimulus"":""img/3to1/5.png"",""time"":502},{""stimulus"":""img/3to1/6.png"",""time"":609},{""stimulus"":""img/3to1/7.png"",""time"":702},{""stimulus"":""img/3to1/8.png"",""time"":798},{""stimulus"":""img/3to1/9.png"",""time"":901},{""stimulus"":""img/3to1/10.png"",""time"":997},{""stimulus"":""img/3to1/11.png"",""time"":1094},{""stimulus"":""img/3to1/12.png"",""time"":1198}]","[]"
"image-keyboard-response","44","38201","0.0-5.0-1.20","TESTING","bdp_cybrbll","Fri Mar 24 2023 18:41:07 GMT-0400 (Eastern Daylight Time)","389872","3","1","","null","","","","observe","","img/1to3/1.png","null","205","550","0.5","0.5","1","2","",""
"animation","45","39495","0.0-5.0-2.20","TESTING","bdp_cybrbll","Fri Mar 24 2023 18:41:07 GMT-0400 (Eastern Daylight Time)","389872","3","1","","","","","","","","","","205","","","","1","2","[{""stimulus"":""img/1to2/1.png"",""time"":109},{""stimulus"":""img/1to2/2.png"",""time"":208},{""stimulus"":""img/1to2/3.png"",""time"":301},{""stimulus"":""img/1to2/4.png"",""time"":408},{""stimulus"":""img/1to2/5.png"",""time"":502},{""stimulus"":""img/1to2/6.png"",""time"":597},{""stimulus"":""img/1to2/7.png"",""time"":700},{""stimulus"":""img/1to2/8.png"",""time"":800},{""stimulus"":""img/1to2/9.png"",""time"":903},{""stimulus"":""img/1to2/10.png"",""time"":1000},{""stimulus"":""img/1to2/11.png"",""time"":1094},{""stimulus"":""img/1to2/12.png"",""time"":1191}]","[]"
"image-keyboard-response","46","39550","0.0-5.0-1.21","TESTING","bdp_cybrbll","Fri Mar 24 2023 18:41:07 GMT-0400 (Eastern Daylight Time)","389872","3","1","","54","","","","choice","","img/2to1/1.png","2","204","350","0.5","0.5","2","3","",""
"animation","47","40847","0.0-5.0-2.21","TESTING","bdp_cybrbll","Fri Mar 24 2023 18:41:07 GMT-0400 (Eastern Daylight Time)","389872","3","1","","","","","","","","","","204","","","","2","3","[{""stimulus"":""img/2to3/1.png"",""time"":106},{""stimulus"":""img/2to3/2.png"",""time"":201},{""stimulus"":""img/2to3/3.png"",""time"":306},{""stimulus"":""img/2to3/4.png"",""time"":402},{""stimulus"":""img/2to3/5.png"",""time"":506},{""stimulus"":""img/2to3/6.png"",""time"":600},{""stimulus"":""img/2to3/7.png"",""time"":700},{""stimulus"":""img/2to3/8.png"",""time"":801},{""stimulus"":""img/2to3/9.png"",""time"":893},{""stimulus"":""img/2to3/10.png"",""time"":993},{""stimulus"":""img/2to3/11.png"",""time"":1099},{""stimulus"":""img/2to3/12.png"",""time"":1194}]","[]"
"image-keyboard-response","48","41306","0.0-5.0-1.22","TESTING","bdp_cybrbll","Fri Mar 24 2023 18:41:07 GMT-0400 (Eastern Daylight Time)","389872","3","1","","null","","","","observe","","img/3to2/1.png","null","203","451","0.5","0.5","3","2","",""
"animation","49","42601","0.0-5.0-2.22","TESTING","bdp_cybrbll","Fri Mar 24 2023 18:41:07 GMT-0400 (Eastern Daylight Time)","389872","3","1","","","","","","","","","","203","","","","3","2","[{""stimulus"":""img/3to2/1.png"",""time"":105},{""stimulus"":""img/3to2/2.png"",""time"":204},{""stimulus"":""img/3to2/3.png"",""time"":305},{""stimulus"":""img/3to2/4.png"",""time"":405},{""stimulus"":""img/3to2/5.png"",""time"":504},{""stimulus"":""img/3to2/6.png"",""time"":599},{""stimulus"":""img/3to2/7.png"",""time"":704},{""stimulus"":""img/3to2/8.png"",""time"":798},{""stimulus"":""img/3to2/9.png"",""time"":904},{""stimulus"":""img/3to2/10.png"",""time"":1001},{""stimulus"":""img/3to2/11.png"",""time"":1095},{""stimulus"":""img/3to2/12.png"",""time"":1197}]","[]"
"image-keyboard-response","50","42727","0.0-5.0-1.23","TESTING","bdp_cybrbll","Fri Mar 24 2023 18:41:07 GMT-0400 (Eastern Daylight Time)","389872","3","1","","124","","","","choice","","img/2to1/1.png","1","202","382","0.5","0.5","2","1","",""
"animation","51","44026","0.0-5.0-2.23","TESTING","bdp_cybrbll","Fri Mar 24 2023 18:41:07 GMT-0400 (Eastern Daylight Time)","389872","3","1","","","","","","","","","","202","","","","2","1","[{""stimulus"":""img/2to1/1.png"",""time"":107},{""stimulus"":""img/2to1/2.png"",""time"":209},{""stimulus"":""img/2to1/3.png"",""time"":305},{""stimulus"":""img/2to1/4.png"",""time"":400},{""stimulus"":""img/2to1/5.png"",""time"":506},{""stimulus"":""img/2to1/6.png"",""time"":599},{""stimulus"":""img/2to1/7.png"",""time"":695},{""stimulus"":""img/2to1/8.png"",""time"":800},{""stimulus"":""img/2to1/9.png"",""time"":900},{""stimulus"":""img/2to1/10.png"",""time"":1001},{""stimulus"":""img/2to1/11.png"",""time"":1100},{""stimulus"":""img/2to1/12.png"",""time"":1192}]","[]"
"image-keyboard-response","52","45201","0.0-5.0-1.24","TESTING","bdp_cybrbll","Fri Mar 24 2023 18:41:07 GMT-0400 (Eastern Daylight Time)","389872","3","1","","null","","","","observe","","img/1to3/1.png","null","201","1163","0.5","0.5","1","3","",""
"animation","53","46496","0.0-5.0-2.24","TESTING","bdp_cybrbll","Fri Mar 24 2023 18:41:07 GMT-0400 (Eastern Daylight Time)","389872","3","1","","","","","","","","","","201","","","","1","3","[{""stimulus"":""img/1to3/1.png"",""time"":105},{""stimulus"":""img/1to3/2.png"",""time"":209},{""stimulus"":""img/1to3/3.png"",""time"":301},{""stimulus"":""img/1to3/4.png"",""time"":408},{""stimulus"":""img/1to3/5.png"",""time"":501},{""stimulus"":""img/1to3/6.png"",""time"":600},{""stimulus"":""img/1to3/7.png"",""time"":703},{""stimulus"":""img/1to3/8.png"",""time"":799},{""stimulus"":""img/1to3/9.png"",""time"":896},{""stimulus"":""img/1to3/10.png"",""time"":999},{""stimulus"":""img/1to3/11.png"",""time"":1094},{""stimulus"":""img/1to3/12.png"",""time"":1200}]","[]"
"image-keyboard-response","54","46926","0.0-5.0-1.25","TESTING","bdp_cybrbll","Fri Mar 24 2023 18:41:07 GMT-0400 (Eastern Daylight Time)","389872","3","1","","null","","","","observe","","img/3to2/1.png","null","200","422","0.5","0.5","3","2","",""
"animation","55","48227","0.0-5.0-2.25","TESTING","bdp_cybrbll","Fri Mar 24 2023 18:41:07 GMT-0400 (Eastern Daylight Time)","389872","3","1","","","","","","","","","","200","","","","3","2","[{""stimulus"":""img/3to2/1.png"",""time"":107},{""stimulus"":""img/3to2/2.png"",""time"":201},{""stimulus"":""img/3to2/3.png"",""time"":307},{""stimulus"":""img/3to2/4.png"",""time"":401},{""stimulus"":""img/3to2/5.png"",""time"":505},{""stimulus"":""img/3to2/6.png"",""time"":601},{""stimulus"":""img/3to2/7.png"",""time"":701},{""stimulus"":""img/3to2/8.png"",""time"":801},{""stimulus"":""img/3to2/9.png"",""time"":901},{""stimulus"":""img/3to2/10.png"",""time"":993},{""stimulus"":""img/3to2/11.png"",""time"":1101},{""stimulus"":""img/3to2/12.png"",""time"":1197}]","[]"
"image-keyboard-response","56","48310","0.0-5.0-1.26","TESTING","bdp_cybrbll","Fri Mar 24 2023 18:41:07 GMT-0400 (Eastern Daylight Time)","389872","3","1","","82","","","","choice","","img/2to1/1.png","1","199","285","0.5","0.5","2","1","",""
"animation","57","49610","0.0-5.0-2.26","TESTING","bdp_cybrbll","Fri Mar 24 2023 18:41:07 GMT-0400 (Eastern Daylight Time)","389872","3","1","","","","","","","","","","199","","","","2","1","[{""stimulus"":""img/2to1/1.png"",""time"":108},{""stimulus"":""img/2to1/2.png"",""time"":202},{""stimulus"":""img/2to1/3.png"",""time"":308},{""stimulus"":""img/2to1/4.png"",""time"":405},{""stimulus"":""img/2to1/5.png"",""time"":508},{""stimulus"":""img/2to1/6.png"",""time"":601},{""stimulus"":""img/2to1/7.png"",""time"":700},{""stimulus"":""img/2to1/8.png"",""time"":801},{""stimulus"":""img/2to1/9.png"",""time"":900},{""stimulus"":""img/2to1/10.png"",""time"":997},{""stimulus"":""img/2to1/11.png"",""time"":1101},{""stimulus"":""img/2to1/12.png"",""time"":1193}]","[]"
"image-keyboard-response","58","49863","0.0-5.0-1.27","TESTING","bdp_cybrbll","Fri Mar 24 2023 18:41:07 GMT-0400 (Eastern Daylight Time)","389872","3","1","","null","","","","observe","","img/1to3/1.png","null","198","246","0.5","0.5","1","3","",""
"animation","59","51160","0.0-5.0-2.27","TESTING","bdp_cybrbll","Fri Mar 24 2023 18:41:07 GMT-0400 (Eastern Daylight Time)","389872","3","1","","","","","","","","","","198","","","","1","3","[{""stimulus"":""img/1to3/1.png"",""time"":105},{""stimulus"":""img/1to3/2.png"",""time"":209},{""stimulus"":""img/1to3/3.png"",""time"":305},{""stimulus"":""img/1to3/4.png"",""time"":403},{""stimulus"":""img/1to3/5.png"",""time"":506},{""stimulus"":""img/1to3/6.png"",""time"":601},{""stimulus"":""img/1to3/7.png"",""time"":697},{""stimulus"":""img/1to3/8.png"",""time"":800},{""stimulus"":""img/1to3/9.png"",""time"":897},{""stimulus"":""img/1to3/10.png"",""time"":1000},{""stimulus"":""img/1to3/11.png"",""time"":1097},{""stimulus"":""img/1to3/12.png"",""time"":1196}]","[]"
"image-keyboard-response","60","51487","0.0-5.0-1.28","TESTING","bdp_cybrbll","Fri Mar 24 2023 18:41:07 GMT-0400 (Eastern Daylight Time)","389872","3","1","","null","","","","observe","","img/3to2/1.png","null","197","319","0.5","0.5","3","1","",""
"animation","61","52785","0.0-5.0-2.28","TESTING","bdp_cybrbll","Fri Mar 24 2023 18:41:07 GMT-0400 (Eastern Daylight Time)","389872","3","1","","","","","","","","","","197","","","","3","1","[{""stimulus"":""img/3to1/1.png"",""time"":106},{""stimulus"":""img/3to1/2.png"",""time"":208},{""stimulus"":""img/3to1/3.png"",""time"":306},{""stimulus"":""img/3to1/4.png"",""time"":401},{""stimulus"":""img/3to1/5.png"",""time"":505},{""stimulus"":""img/3to1/6.png"",""time"":601},{""stimulus"":""img/3to1/7.png"",""time"":698},{""stimulus"":""img/3to1/8.png"",""time"":799},{""stimulus"":""img/3to1/9.png"",""time"":899},{""stimulus"":""img/3to1/10.png"",""time"":991},{""stimulus"":""img/3to1/11.png"",""time"":1097},{""stimulus"":""img/3to1/12.png"",""time"":1192}]","[]"
"image-keyboard-response","62","53152","0.0-5.0-1.29","TESTING","bdp_cybrbll","Fri Mar 24 2023 18:41:07 GMT-0400 (Eastern Daylight Time)","389872","3","1","","null","","","","observe","","img/1to3/1.png","null","196","359","0.5","0.5","1","2","",""
"animation","63","54447","0.0-5.0-2.29","TESTING","bdp_cybrbll","Fri Mar 24 2023 18:41:07 GMT-0400 (Eastern Daylight Time)","389872","3","1","","","","","","","","","","196","","","","1","2","[{""stimulus"":""img/1to2/1.png"",""time"":103},{""stimulus"":""img/1to2/2.png"",""time"":207},{""stimulus"":""img/1to2/3.png"",""time"":302},{""stimulus"":""img/1to2/4.png"",""time"":398},{""stimulus"":""img/1to2/5.png"",""time"":502},{""stimulus"":""img/1to2/6.png"",""time"":599},{""stimulus"":""img/1to2/7.png"",""time"":702},{""stimulus"":""img/1to2/8.png"",""time"":799},{""stimulus"":""img/1to2/9.png"",""time"":895},{""stimulus"":""img/1to2/10.png"",""time"":999},{""stimulus"":""img/1to2/11.png"",""time"":1095},{""stimulus"":""img/1to2/12.png"",""time"":1191}]","[]"
"image-keyboard-response","64","54554","0.0-5.0-1.30","TESTING","bdp_cybrbll","Fri Mar 24 2023 18:41:07 GMT-0400 (Eastern Daylight Time)","389872","3","1","","106","","","","choice","","img/2to1/1.png","2","195","244","0.5","0.5","2","3","",""
"animation","65","55847","0.0-5.0-2.30","TESTING","bdp_cybrbll","Fri Mar 24 2023 18:41:07 GMT-0400 (Eastern Daylight Time)","389872","3","1","","","","","","","","","","195","","","","2","3","[{""stimulus"":""img/2to3/1.png"",""time"":110},{""stimulus"":""img/2to3/2.png"",""time"":206},{""stimulus"":""img/2to3/3.png"",""time"":301},{""stimulus"":""img/2to3/4.png"",""time"":406},{""stimulus"":""img/2to3/5.png"",""time"":502},{""stimulus"":""img/2to3/6.png"",""time"":598},{""stimulus"":""img/2to3/7.png"",""time"":700},{""stimulus"":""img/2to3/8.png"",""time"":797},{""stimulus"":""img/2to3/9.png"",""time"":902},{""stimulus"":""img/2to3/10.png"",""time"":998},{""stimulus"":""img/2to3/11.png"",""time"":1094},{""stimulus"":""img/2to3/12.png"",""time"":1197}]","[]"
"image-keyboard-response","66","56226","0.0-5.0-1.31","TESTING","bdp_cybrbll","Fri Mar 24 2023 18:41:07 GMT-0400 (Eastern Daylight Time)","389872","3","1","","null","","","","observe","","img/3to2/1.png","null","194","372","0.5","0.5","3","2","",""
"animation","67","57519","0.0-5.0-2.31","TESTING","bdp_cybrbll","Fri Mar 24 2023 18:41:07 GMT-0400 (Eastern Daylight Time)","389872","3","1","","","","","","","","","","194","","","","3","2","[{""stimulus"":""img/3to2/1.png"",""time"":109},{""stimulus"":""img/3to2/2.png"",""time"":204},{""stimulus"":""img/3to2/3.png"",""time"":300},{""stimulus"":""img/3to2/4.png"",""time"":406},{""stimulus"":""img/3to2/5.png"",""time"":499},{""stimulus"":""img/3to2/6.png"",""time"":595},{""stimulus"":""img/3to2/7.png"",""time"":700},{""stimulus"":""img/3to2/8.png"",""time"":800},{""stimulus"":""img/3to2/9.png"",""time"":901},{""stimulus"":""img/3to2/10.png"",""time"":1000},{""stimulus"":""img/3to2/11.png"",""time"":1092},{""stimulus"":""img/3to2/12.png"",""time"":1200}]","[]"
"image-keyboard-response","68","57540","0.0-5.0-1.32","TESTING","bdp_cybrbll","Fri Mar 24 2023 18:41:07 GMT-0400 (Eastern Daylight Time)","389872","3","1","","19","","","","choice","","img/2to1/1.png","1","193","280","0.5","0.5","2","1","",""
"animation","69","58831","0.0-5.0-2.32","TESTING","bdp_cybrbll","Fri Mar 24 2023 18:41:07 GMT-0400 (Eastern Daylight Time)","389872","3","1","","","","","","","","","","193","","","","2","1","[{""stimulus"":""img/2to1/1.png"",""time"":106},{""stimulus"":""img/2to1/2.png"",""time"":203},{""stimulus"":""img/2to1/3.png"",""time"":307},{""stimulus"":""img/2to1/4.png"",""time"":400},{""stimulus"":""img/2to1/5.png"",""time"":499},{""stimulus"":""img/2to1/6.png"",""time"":604},{""stimulus"":""img/2to1/7.png"",""time"":696},{""stimulus"":""img/2to1/8.png"",""time"":795},{""stimulus"":""img/2to1/9.png"",""time"":899},{""stimulus"":""img/2to1/10.png"",""time"":995},{""stimulus"":""img/2to1/11.png"",""time"":1100},{""stimulus"":""img/2to1/12.png"",""time"":1195}]","[]"
"image-keyboard-response","70","59709","0.0-5.0-1.33","TESTING","bdp_cybrbll","Fri Mar 24 2023 18:41:07 GMT-0400 (Eastern Daylight Time)","389872","3","1","","null","","","","observe","","img/1to3/1.png","null","192","871","0.5","0.5","1","2","",""
"animation","71","60998","0.0-5.0-2.33","TESTING","bdp_cybrbll","Fri Mar 24 2023 18:41:07 GMT-0400 (Eastern Daylight Time)","389872","3","1","","","","","","","","","","192","","","","1","2","[{""stimulus"":""img/1to2/1.png"",""time"":109},{""stimulus"":""img/1to2/2.png"",""time"":203},{""stimulus"":""img/1to2/3.png"",""time"":309},{""stimulus"":""img/1to2/4.png"",""time"":404},{""stimulus"":""img/1to2/5.png"",""time"":500},{""stimulus"":""img/1to2/6.png"",""time"":601},{""stimulus"":""img/1to2/7.png"",""time"":700},{""stimulus"":""img/1to2/8.png"",""time"":801},{""stimulus"":""img/1to2/9.png"",""time"":900},{""stimulus"":""img/1to2/10.png"",""time"":992},{""stimulus"":""img/1to2/11.png"",""time"":1091},{""stimulus"":""img/1to2/12.png"",""time"":1195}]","[]"
"image-keyboard-response","72","61031","0.0-5.0-1.34","TESTING","bdp_cybrbll","Fri Mar 24 2023 18:41:07 GMT-0400 (Eastern Daylight Time)","389872","3","1","","31","","","","choice","","img/2to1/1.png","2","191","636","0.5","0.5","2","3","",""
"animation","73","62326","0.0-5.0-2.34","TESTING","bdp_cybrbll","Fri Mar 24 2023 18:41:07 GMT-0400 (Eastern Daylight Time)","389872","3","1","","","","","","","","","","191","","","","2","3","[{""stimulus"":""img/2to3/1.png"",""time"":104},{""stimulus"":""img/2to3/2.png"",""time"":199},{""stimulus"":""img/2to3/3.png"",""time"":304},{""stimulus"":""img/2to3/4.png"",""time"":400},{""stimulus"":""img/2to3/5.png"",""time"":504},{""stimulus"":""img/2to3/6.png"",""time"":600},{""stimulus"":""img/2to3/7.png"",""time"":697},{""stimulus"":""img/2to3/8.png"",""time"":800},{""stimulus"":""img/2to3/9.png"",""time"":897},{""stimulus"":""img/2to3/10.png"",""time"":991},{""stimulus"":""img/2to3/11.png"",""time"":1096},{""stimulus"":""img/2to3/12.png"",""time"":1196}]","[]"
"image-keyboard-response","74","62839","0.0-5.0-1.35","TESTING","bdp_cybrbll","Fri Mar 24 2023 18:41:07 GMT-0400 (Eastern Daylight Time)","389872","3","1","","null","","","","observe","","img/3to2/1.png","null","190","505","0.5","0.5","3","1","",""
"animation","75","64135","0.0-5.0-2.35","TESTING","bdp_cybrbll","Fri Mar 24 2023 18:41:07 GMT-0400 (Eastern Daylight Time)","389872","3","1","","","","","","","","","","190","","","","3","1","[{""stimulus"":""img/3to1/1.png"",""time"":104},{""stimulus"":""img/3to1/2.png"",""time"":206},{""stimulus"":""img/3to1/3.png"",""time"":304},{""stimulus"":""img/3to1/4.png"",""time"":400},{""stimulus"":""img/3to1/5.png"",""time"":503},{""stimulus"":""img/3to1/6.png"",""time"":599},{""stimulus"":""img/3to1/7.png"",""time"":704},{""stimulus"":""img/3to1/8.png"",""time"":800},{""stimulus"":""img/3to1/9.png"",""time"":895},{""stimulus"":""img/3to1/10.png"",""time"":999},{""stimulus"":""img/3to1/11.png"",""time"":1096},{""stimulus"":""img/3to1/12.png"",""time"":1191}]","[]"
"image-keyboard-response","76","64471","0.0-5.0-1.36","TESTING","bdp_cybrbll","Fri Mar 24 2023 18:41:07 GMT-0400 (Eastern Daylight Time)","389872","3","1","","null","","","","observe","","img/1to3/1.png","null","189","325","0.5","0.5","1","2","",""
"animation","77","65768","0.0-5.0-2.36","TESTING","bdp_cybrbll","Fri Mar 24 2023 18:41:07 GMT-0400 (Eastern Daylight Time)","389872","3","1","","","","","","","","","","189","","","","1","2","[{""stimulus"":""img/1to2/1.png"",""time"":106},{""stimulus"":""img/1to2/2.png"",""time"":208},{""stimulus"":""img/1to2/3.png"",""time"":305},{""stimulus"":""img/1to2/4.png"",""time"":400},{""stimulus"":""img/1to2/5.png"",""time"":506},{""stimulus"":""img/1to2/6.png"",""time"":600},{""stimulus"":""img/1to2/7.png"",""time"":700},{""stimulus"":""img/1to2/8.png"",""time"":802},{""stimulus"":""img/1to2/9.png"",""time"":898},{""stimulus"":""img/1to2/10.png"",""time"":999},{""stimulus"":""img/1to2/11.png"",""time"":1096},{""stimulus"":""img/1to2/12.png"",""time"":1193}]","[]"
"image-keyboard-response","78","65788","0.0-5.0-1.37","TESTING","bdp_cybrbll","Fri Mar 24 2023 18:41:07 GMT-0400 (Eastern Daylight Time)","389872","3","1","","19","","","","choice","","img/2to1/1.png","2","188","987","0.5","0.5","2","3","",""
"animation","79","67082","0.0-5.0-2.37","TESTING","bdp_cybrbll","Fri Mar 24 2023 18:41:07 GMT-0400 (Eastern Daylight Time)","389872","3","1","","","","","","","","","","188","","","","2","3","[{""stimulus"":""img/2to3/1.png"",""time"":104},{""stimulus"":""img/2to3/2.png"",""time"":206},{""stimulus"":""img/2to3/3.png"",""time"":301},{""stimulus"":""img/2to3/4.png"",""time"":405},{""stimulus"":""img/2to3/5.png"",""time"":499},{""stimulus"":""img/2to3/6.png"",""time"":606},{""stimulus"":""img/2to3/7.png"",""time"":699},{""stimulus"":""img/2to3/8.png"",""time"":797},{""stimulus"":""img/2to3/9.png"",""time"":898},{""stimulus"":""img/2to3/10.png"",""time"":997},{""stimulus"":""img/2to3/11.png"",""time"":1090},{""stimulus"":""img/2to3/12.png"",""time"":1197}]","[]"
"image-keyboard-response","80","67618","0.0-5.0-1.38","TESTING","bdp_cybrbll","Fri Mar 24 2023 18:41:07 GMT-0400 (Eastern Daylight Time)","389872","3","1","","null","","","","observe","","img/3to2/1.png","null","187","523","0.5","0.5","3","1","",""
"animation","81","68909","0.0-5.0-2.38","TESTING","bdp_cybrbll","Fri Mar 24 2023 18:41:07 GMT-0400 (Eastern Daylight Time)","389872","3","1","","","","","","","","","","187","","","","3","1","[{""stimulus"":""img/3to1/1.png"",""time"":108},{""stimulus"":""img/3to1/2.png"",""time"":208},{""stimulus"":""img/3to1/3.png"",""time"":300},{""stimulus"":""img/3to1/4.png"",""time"":408},{""stimulus"":""img/3to1/5.png"",""time"":500},{""stimulus"":""img/3to1/6.png"",""time"":595},{""stimulus"":""img/3to1/7.png"",""time"":700},{""stimulus"":""img/3to1/8.png"",""time"":799},{""stimulus"":""img/3to1/9.png"",""time"":900},{""stimulus"":""img/3to1/10.png"",""time"":1000},{""stimulus"":""img/3to1/11.png"",""time"":1091},{""stimulus"":""img/3to1/12.png"",""time"":1199}]","[]"
"image-keyboard-response","82","69768","0.0-5.0-1.39","TESTING","bdp_cybrbll","Fri Mar 24 2023 18:41:07 GMT-0400 (Eastern Daylight Time)","389872","3","1","","null","","","","observe","","img/1to3/1.png","null","186","850","0.5","0.5","1","3","",""
"animation","83","71063","0.0-5.0-2.39","TESTING","bdp_cybrbll","Fri Mar 24 2023 18:41:07 GMT-0400 (Eastern Daylight Time)","389872","3","1","","","","","","","","","","186","","","","1","3","[{""stimulus"":""img/1to3/1.png"",""time"":104},{""stimulus"":""img/1to3/2.png"",""time"":209},{""stimulus"":""img/1to3/3.png"",""time"":302},{""stimulus"":""img/1to3/4.png"",""time"":400},{""stimulus"":""img/1to3/5.png"",""time"":505},{""stimulus"":""img/1to3/6.png"",""time"":601},{""stimulus"":""img/1to3/7.png"",""time"":703},{""stimulus"":""img/1to3/8.png"",""time"":800},{""stimulus"":""img/1to3/9.png"",""time"":896},{""stimulus"":""img/1to3/10.png"",""time"":1001},{""stimulus"":""img/1to3/11.png"",""time"":1095},{""stimulus"":""img/1to3/12.png"",""time"":1192}]","[]"
"image-keyboard-response","84","71833","0.0-5.0-1.40","TESTING","bdp_cybrbll","Fri Mar 24 2023 18:41:07 GMT-0400 (Eastern Daylight Time)","389872","3","1","","null","","","","observe","","img/3to2/1.png","null","185","761","0.5","0.5","3","2","",""
"animation","85","73125","0.0-5.0-2.40","TESTING","bdp_cybrbll","Fri Mar 24 2023 18:41:07 GMT-0400 (Eastern Daylight Time)","389872","3","1","","","","","","","","","","185","","","","3","2","[{""stimulus"":""img/3to2/1.png"",""time"":103},{""stimulus"":""img/3to2/2.png"",""time"":207},{""stimulus"":""img/3to2/3.png"",""time"":303},{""stimulus"":""img/3to2/4.png"",""time"":401},{""stimulus"":""img/3to2/5.png"",""time"":502},{""stimulus"":""img/3to2/6.png"",""time"":598},{""stimulus"":""img/3to2/7.png"",""time"":702},{""stimulus"":""img/3to2/8.png"",""time"":800},{""stimulus"":""img/3to2/9.png"",""time"":894},{""stimulus"":""img/3to2/10.png"",""time"":998},{""stimulus"":""img/3to2/11.png"",""time"":1093},{""stimulus"":""img/3to2/12.png"",""time"":1193}]","[]"
"image-keyboard-response","86","73288","0.0-5.0-1.41","TESTING","bdp_cybrbll","Fri Mar 24 2023 18:41:07 GMT-0400 (Eastern Daylight Time)","389872","3","1","","162","","","","choice","","img/2to1/1.png","1","184","319","0.5","0.5","2","1","",""
"animation","87","74585","0.0-5.0-2.41","TESTING","bdp_cybrbll","Fri Mar 24 2023 18:41:07 GMT-0400 (Eastern Daylight Time)","389872","3","1","","","","","","","","","","184","","","","2","1","[{""stimulus"":""img/2to1/1.png"",""time"":105},{""stimulus"":""img/2to1/2.png"",""time"":206},{""stimulus"":""img/2to1/3.png"",""time"":304},{""stimulus"":""img/2to1/4.png"",""time"":397},{""stimulus"":""img/2to1/5.png"",""time"":504},{""stimulus"":""img/2to1/6.png"",""time"":598},{""stimulus"":""img/2to1/7.png"",""time"":697},{""stimulus"":""img/2to1/8.png"",""time"":799},{""stimulus"":""img/2to1/9.png"",""time"":896},{""stimulus"":""img/2to1/10.png"",""time"":998},{""stimulus"":""img/2to1/11.png"",""time"":1096},{""stimulus"":""img/2to1/12.png"",""time"":1190}]","[]"
"image-keyboard-response","88","75310","0.0-5.0-1.42","TESTING","bdp_cybrbll","Fri Mar 24 2023 18:41:07 GMT-0400 (Eastern Daylight Time)","389872","3","1","","null","","","","observe","","img/1to3/1.png","null","183","715","0.5","0.5","1","2","",""
"animation","89","76610","0.0-5.0-2.42","TESTING","bdp_cybrbll","Fri Mar 24 2023 18:41:07 GMT-0400 (Eastern Daylight Time)","389872","3","1","","","","","","","","","","183","","","","1","2","[{""stimulus"":""img/1to2/1.png"",""time"":109},{""stimulus"":""img/1to2/2.png"",""time"":200},{""stimulus"":""img/1to2/3.png"",""time"":308},{""stimulus"":""img/1to2/4.png"",""time"":401},{""stimulus"":""img/1to2/5.png"",""time"":508},{""stimulus"":""img/1to2/6.png"",""time"":600},{""stimulus"":""img/1to2/7.png"",""time"":700},{""stimulus"":""img/1to2/8.png"",""time"":800},{""stimulus"":""img/1to2/9.png"",""time"":900},{""stimulus"":""img/1to2/10.png"",""time"":997},{""stimulus"":""img/1to2/11.png"",""time"":1094},{""stimulus"":""img/1to2/12.png"",""time"":1190}]","[]"
"image-keyboard-response","90","76652","0.0-5.0-1.43","TESTING","bdp_cybrbll","Fri Mar 24 2023 18:41:07 GMT-0400 (Eastern Daylight Time)","389872","3","1","","40","","","","choice","","img/2to1/1.png","2","182","833","0.5","0.5","2","3","",""
"animation","91","77944","0.0-5.0-2.43","TESTING","bdp_cybrbll","Fri Mar 24 2023 18:41:07 GMT-0400 (Eastern Daylight Time)","389872","3","1","","","","","","","","","","182","","","","2","3","[{""stimulus"":""img/2to3/1.png"",""time"":109},{""stimulus"":""img/2to3/2.png"",""time"":203},{""stimulus"":""img/2to3/3.png"",""time"":298},{""stimulus"":""img/2to3/4.png"",""time"":396},{""stimulus"":""img/2to3/5.png"",""time"":499},{""stimulus"":""img/2to3/6.png"",""time"":603},{""stimulus"":""img/2to3/7.png"",""time"":700},{""stimulus"":""img/2to3/8.png"",""time"":795},{""stimulus"":""img/2to3/9.png"",""time"":900},{""stimulus"":""img/2to3/10.png"",""time"":997},{""stimulus"":""img/2to3/11.png"",""time"":1091},{""stimulus"":""img/2to3/12.png"",""time"":1195}]","[]"
"image-keyboard-response","92","79826","0.0-5.0-1.44","TESTING","bdp_cybrbll","Fri Mar 24 2023 18:41:07 GMT-0400 (Eastern Daylight Time)","389872","3","1","","null","","","","observe","","img/3to2/1.png","null","181","1869","0.5","0.5","3","1","",""
"animation","93","81118","0.0-5.0-2.44","TESTING","bdp_cybrbll","Fri Mar 24 2023 18:41:07 GMT-0400 (Eastern Daylight Time)","389872","3","1","","","","","","","","","","181","","","","3","1","[{""stimulus"":""img/3to1/1.png"",""time"":109},{""stimulus"":""img/3to1/2.png"",""time"":207},{""stimulus"":""img/3to1/3.png"",""time"":299},{""stimulus"":""img/3to1/4.png"",""time"":404},{""stimulus"":""img/3to1/5.png"",""time"":500},{""stimulus"":""img/3to1/6.png"",""time"":595},{""stimulus"":""img/3to1/7.png"",""time"":700},{""stimulus"":""img/3to1/8.png"",""time"":799},{""stimulus"":""img/3to1/9.png"",""time"":900},{""stimulus"":""img/3to1/10.png"",""time"":1000},{""stimulus"":""img/3to1/11.png"",""time"":1094},{""stimulus"":""img/3to1/12.png"",""time"":1199}]","[]"
"image-keyboard-response","94","81632","0.0-5.0-1.45","TESTING","bdp_cybrbll","Fri Mar 24 2023 18:41:07 GMT-0400 (Eastern Daylight Time)","389872","3","1","","null","","","","observe","","img/1to3/1.png","null","180","506","0.5","0.5","1","3","",""
"animation","95","82926","0.0-5.0-2.45","TESTING","bdp_cybrbll","Fri Mar 24 2023 18:41:07 GMT-0400 (Eastern Daylight Time)","389872","3","1","","","","","","","","","","180","","","","1","3","[{""stimulus"":""img/1to3/1.png"",""time"":103},{""stimulus"":""img/1to3/2.png"",""time"":206},{""stimulus"":""img/1to3/3.png"",""time"":302},{""stimulus"":""img/1to3/4.png"",""time"":397},{""stimulus"":""img/1to3/5.png"",""time"":502},{""stimulus"":""img/1to3/6.png"",""time"":598},{""stimulus"":""img/1to3/7.png"",""time"":702},{""stimulus"":""img/1to3/8.png"",""time"":798},{""stimulus"":""img/1to3/9.png"",""time"":894},{""stimulus"":""img/1to3/10.png"",""time"":999},{""stimulus"":""img/1to3/11.png"",""time"":1094},{""stimulus"":""img/1to3/12.png"",""time"":1194}]","[]"
"image-keyboard-response","96","83255","0.0-5.0-1.46","TESTING","bdp_cybrbll","Fri Mar 24 2023 18:41:07 GMT-0400 (Eastern Daylight Time)","389872","3","1","","null","","","","observe","","img/3to2/1.png","null","179","322","0.5","0.5","3","1","",""
"animation","97","84551","0.0-5.0-2.46","TESTING","bdp_cybrbll","Fri Mar 24 2023 18:41:07 GMT-0400 (Eastern Daylight Time)","389872","3","1","","","","","","","","","","179","","","","3","1","[{""stimulus"":""img/3to1/1.png"",""time"":105},{""stimulus"":""img/3to1/2.png"",""time"":208},{""stimulus"":""img/3to1/3.png"",""time"":305},{""stimulus"":""img/3to1/4.png"",""time"":401},{""stimulus"":""img/3to1/5.png"",""time"":505},{""stimulus"":""img/3to1/6.png"",""time"":600},{""stimulus"":""img/3to1/7.png"",""time"":697},{""stimulus"":""img/3to1/8.png"",""time"":804},{""stimulus"":""img/3to1/9.png"",""time"":897},{""stimulus"":""img/3to1/10.png"",""time"":1000},{""stimulus"":""img/3to1/11.png"",""time"":1097},{""stimulus"":""img/3to1/12.png"",""time"":1193}]","[]"
"image-keyboard-response","98","85793","0.0-5.0-1.47","TESTING","bdp_cybrbll","Fri Mar 24 2023 18:41:07 GMT-0400 (Eastern Daylight Time)","389872","3","1","","null","","","","observe","","img/1to3/1.png","null","178","1236","0.5","0.5","1","3","",""
"animation","99","87089","0.0-5.0-2.47","TESTING","bdp_cybrbll","Fri Mar 24 2023 18:41:07 GMT-0400 (Eastern Daylight Time)","389872","3","1","","","","","","","","","","178","","","","1","3","[{""stimulus"":""img/1to3/1.png"",""time"":106},{""stimulus"":""img/1to3/2.png"",""time"":209},{""stimulus"":""img/1to3/3.png"",""time"":304},{""stimulus"":""img/1to3/4.png"",""time"":408},{""stimulus"":""img/1to3/5.png"",""time"":502},{""stimulus"":""img/1to3/6.png"",""time"":600},{""stimulus"":""img/1to3/7.png"",""time"":702},{""stimulus"":""img/1to3/8.png"",""time"":801},{""stimulus"":""img/1to3/9.png"",""time"":895},{""stimulus"":""img/1to3/10.png"",""time"":1000},{""stimulus"":""img/1to3/11.png"",""time"":1094},{""stimulus"":""img/1to3/12.png"",""time"":1198}]","[]"
"image-keyboard-response","100","87887","0.0-5.0-1.48","TESTING","bdp_cybrbll","Fri Mar 24 2023 18:41:07 GMT-0400 (Eastern Daylight Time)","389872","3","1","","null","","","","observe","","img/3to2/1.png","null","177","791","0.5","0.5","3","1","",""
"animation","101","89184","0.0-5.0-2.48","TESTING","bdp_cybrbll","Fri Mar 24 2023 18:41:07 GMT-0400 (Eastern Daylight Time)","389872","3","1","","","","","","","","","","177","","","","3","1","[{""stimulus"":""img/3to1/1.png"",""time"":104},{""stimulus"":""img/3to1/2.png"",""time"":212},{""stimulus"":""img/3to1/3.png"",""time"":307},{""stimulus"":""img/3to1/4.png"",""time"":400},{""stimulus"":""img/3to1/5.png"",""time"":507},{""stimulus"":""img/3to1/6.png"",""time"":600},{""stimulus"":""img/3to1/7.png"",""time"":698},{""stimulus"":""img/3to1/8.png"",""time"":800},{""stimulus"":""img/3to1/9.png"",""time"":899},{""stimulus"":""img/3to1/10.png"",""time"":999},{""stimulus"":""img/3to1/11.png"",""time"":1098},{""stimulus"":""img/3to1/12.png"",""time"":1195}]","[]"
"image-keyboard-response","102","89518","0.0-5.0-1.49","TESTING","bdp_cybrbll","Fri Mar 24 2023 18:41:07 GMT-0400 (Eastern Daylight Time)","389872","3","1","","null","","","","observe","","img/1to3/1.png","null","176","331","0.5","0.5","1","3","",""
"animation","103","90819","0.0-5.0-2.49","TESTING","bdp_cybrbll","Fri Mar 24 2023 18:41:07 GMT-0400 (Eastern Daylight Time)","389872","3","1","","","","","","","","","","176","","","","1","3","[{""stimulus"":""img/1to3/1.png"",""time"":109},{""stimulus"":""img/1to3/2.png"",""time"":201},{""stimulus"":""img/1to3/3.png"",""time"":309},{""stimulus"":""img/1to3/4.png"",""time"":402},{""stimulus"":""img/1to3/5.png"",""time"":508},{""stimulus"":""img/1to3/6.png"",""time"":601},{""stimulus"":""img/1to3/7.png"",""time"":700},{""stimulus"":""img/1to3/8.png"",""time"":800},{""stimulus"":""img/1to3/9.png"",""time"":901},{""stimulus"":""img/1to3/10.png"",""time"":992},{""stimulus"":""img/1to3/11.png"",""time"":1100},{""stimulus"":""img/1to3/12.png"",""time"":1192}]","[]"
"image-keyboard-response","104","91135","0.0-5.0-1.50","TESTING","bdp_cybrbll","Fri Mar 24 2023 18:41:07 GMT-0400 (Eastern Daylight Time)","389872","3","1","","null","","","","observe","","img/3to2/1.png","null","175","312","0.5","0.5","3","1","",""
"animation","105","92431","0.0-5.0-2.50","TESTING","bdp_cybrbll","Fri Mar 24 2023 18:41:07 GMT-0400 (Eastern Daylight Time)","389872","3","1","","","","","","","","","","175","","","","3","1","[{""stimulus"":""img/3to1/1.png"",""time"":106},{""stimulus"":""img/3to1/2.png"",""time"":211},{""stimulus"":""img/3to1/3.png"",""time"":305},{""stimulus"":""img/3to1/4.png"",""time"":401},{""stimulus"":""img/3to1/5.png"",""time"":505},{""stimulus"":""img/3to1/6.png"",""time"":600},{""stimulus"":""img/3to1/7.png"",""time"":696},{""stimulus"":""img/3to1/8.png"",""time"":801},{""stimulus"":""img/3to1/9.png"",""time"":899},{""stimulus"":""img/3to1/10.png"",""time"":1000},{""stimulus"":""img/3to1/11.png"",""time"":1100},{""stimulus"":""img/3to1/12.png"",""time"":1192}]","[]"
"image-keyboard-response","106","94039","0.0-5.0-1.51","TESTING","bdp_cybrbll","Fri Mar 24 2023 18:41:07 GMT-0400 (Eastern Daylight Time)","389872","3","1","","null","","","","observe","","img/1to3/1.png","null","174","1603","0.5","0.5","1","2","",""
"animation","107","95335","0.0-5.0-2.51","TESTING","bdp_cybrbll","Fri Mar 24 2023 18:41:07 GMT-0400 (Eastern Daylight Time)","389872","3","1","","","","","","","","","","174","","","","1","2","[{""stimulus"":""img/1to2/1.png"",""time"":104},{""stimulus"":""img/1to2/2.png"",""time"":206},{""stimulus"":""img/1to2/3.png"",""time"":303},{""stimulus"":""img/1to2/4.png"",""time"":399},{""stimulus"":""img/1to2/5.png"",""time"":504},{""stimulus"":""img/1to2/6.png"",""time"":600},{""stimulus"":""img/1to2/7.png"",""time"":704},{""stimulus"":""img/1to2/8.png"",""time"":799},{""stimulus"":""img/1to2/9.png"",""time"":895},{""stimulus"":""img/1to2/10.png"",""time"":1000},{""stimulus"":""img/1to2/11.png"",""time"":1095},{""stimulus"":""img/1to2/12.png"",""time"":1193}]","[]"
"image-keyboard-response","108","95493","0.0-5.0-1.52","TESTING","bdp_cybrbll","Fri Mar 24 2023 18:41:07 GMT-0400 (Eastern Daylight Time)","389872","3","1","","157","","","","choice","","img/2to1/1.png","2","173","325","0.5","0.5","2","3","",""
"animation","109","96785","0.0-5.0-2.52","TESTING","bdp_cybrbll","Fri Mar 24 2023 18:41:07 GMT-0400 (Eastern Daylight Time)","389872","3","1","","","","","","","","","","173","","","","2","3","[{""stimulus"":""img/2to3/1.png"",""time"":109},{""stimulus"":""img/2to3/2.png"",""time"":203},{""stimulus"":""img/2to3/3.png"",""time"":308},{""stimulus"":""img/2to3/4.png"",""time"":407},{""stimulus"":""img/2to3/5.png"",""time"":500},{""stimulus"":""img/2to3/6.png"",""time"":604},{""stimulus"":""img/2to3/7.png"",""time"":700},{""stimulus"":""img/2to3/8.png"",""time"":802},{""stimulus"":""img/2to3/9.png"",""time"":901},{""stimulus"":""img/2to3/10.png"",""time"":994},{""stimulus"":""img/2to3/11.png"",""time"":1101},{""stimulus"":""img/2to3/12.png"",""time"":1194}]","[]"
"image-keyboard-response","110","97273","0.0-5.0-1.53","TESTING","bdp_cybrbll","Fri Mar 24 2023 18:41:07 GMT-0400 (Eastern Daylight Time)","389872","3","1","","null","","","","observe","","img/3to2/1.png","null","172","480","0.5","0.5","3","2","",""
"animation","111","98568","0.0-5.0-2.53","TESTING","bdp_cybrbll","Fri Mar 24 2023 18:41:07 GMT-0400 (Eastern Daylight Time)","389872","3","1","","","","","","","","","","172","","","","3","2","[{""stimulus"":""img/3to2/1.png"",""time"":103},{""stimulus"":""img/3to2/2.png"",""time"":205},{""stimulus"":""img/3to2/3.png"",""time"":304},{""stimulus"":""img/3to2/4.png"",""time"":402},{""stimulus"":""img/3to2/5.png"",""time"":504},{""stimulus"":""img/3to2/6.png"",""time"":597},{""stimulus"":""img/3to2/7.png"",""time"":704},{""stimulus"":""img/3to2/8.png"",""time"":798},{""stimulus"":""img/3to2/9.png"",""time"":896},{""stimulus"":""img/3to2/10.png"",""time"":1000},{""stimulus"":""img/3to2/11.png"",""time"":1095},{""stimulus"":""img/3to2/12.png"",""time"":1190}]","[]"
"image-keyboard-response","112","98675","0.0-5.0-1.54","TESTING","bdp_cybrbll","Fri Mar 24 2023 18:41:07 GMT-0400 (Eastern Daylight Time)","389872","3","1","","105","","","","choice","","img/2to1/1.png","1","171","589","0.5","0.5","2","1","",""
"animation","113","99968","0.0-5.0-2.54","TESTING","bdp_cybrbll","Fri Mar 24 2023 18:41:07 GMT-0400 (Eastern Daylight Time)","389872","3","1","","","","","","","","","","171","","","","2","1","[{""stimulus"":""img/2to1/1.png"",""time"":109},{""stimulus"":""img/2to1/2.png"",""time"":204},{""stimulus"":""img/2to1/3.png"",""time"":301},{""stimulus"":""img/2to1/4.png"",""time"":407},{""stimulus"":""img/2to1/5.png"",""time"":502},{""stimulus"":""img/2to1/6.png"",""time"":603},{""stimulus"":""img/2to1/7.png"",""time"":701},{""stimulus"":""img/2to1/8.png"",""time"":795},{""stimulus"":""img/2to1/9.png"",""time"":901},{""stimulus"":""img/2to1/10.png"",""time"":999},{""stimulus"":""img/2to1/11.png"",""time"":1092},{""stimulus"":""img/2to1/12.png"",""time"":1194}]","[]"
"image-keyboard-response","114","101426","0.0-5.0-1.55","TESTING","bdp_cybrbll","Fri Mar 24 2023 18:41:07 GMT-0400 (Eastern Daylight Time)","389872","3","1","","null","","","","observe","","img/1to3/1.png","null","170","1444","0.5","0.5","1","3","",""
"animation","115","102718","0.0-5.0-2.55","TESTING","bdp_cybrbll","Fri Mar 24 2023 18:41:07 GMT-0400 (Eastern Daylight Time)","389872","3","1","","","","","","","","","","170","","","","1","3","[{""stimulus"":""img/1to3/1.png"",""time"":109},{""stimulus"":""img/1to3/2.png"",""time"":206},{""stimulus"":""img/1to3/3.png"",""time"":301},{""stimulus"":""img/1to3/4.png"",""time"":405},{""stimulus"":""img/1to3/5.png"",""time"":501},{""stimulus"":""img/1to3/6.png"",""time"":596},{""stimulus"":""img/1to3/7.png"",""time"":701},{""stimulus"":""img/1to3/8.png"",""time"":801},{""stimulus"":""img/1to3/9.png"",""time"":900},{""stimulus"":""img/1to3/10.png"",""time"":1001},{""stimulus"":""img/1to3/11.png"",""time"":1093},{""stimulus"":""img/1to3/12.png"",""time"":1200}]","[]"
"image-keyboard-response","116","103345","0.0-5.0-1.56","TESTING","bdp_cybrbll","Fri Mar 24 2023 18:41:07 GMT-0400 (Eastern Daylight Time)","389872","3","1","","null","","","","observe","","img/3to2/1.png","null","169","616","0.5","0.5","3","1","",""
"animation","117","104640","0.0-5.0-2.56","TESTING","bdp_cybrbll","Fri Mar 24 2023 18:41:07 GMT-0400 (Eastern Daylight Time)","389872","3","1","","","","","","","","","","169","","","","3","1","[{""stimulus"":""img/3to1/1.png"",""time"":102},{""stimulus"":""img/3to1/2.png"",""time"":206},{""stimulus"":""img/3to1/3.png"",""time"":303},{""stimulus"":""img/3to1/4.png"",""time"":406},{""stimulus"":""img/3to1/5.png"",""time"":501},{""stimulus"":""img/3to1/6.png"",""time"":597},{""stimulus"":""img/3to1/7.png"",""time"":703},{""stimulus"":""img/3to1/8.png"",""time"":797},{""stimulus"":""img/3to1/9.png"",""time"":894},{""stimulus"":""img/3to1/10.png"",""time"":998},{""stimulus"":""img/3to1/11.png"",""time"":1094},{""stimulus"":""img/3to1/12.png"",""time"":1197}]","[]"
"image-keyboard-response","118","105262","0.0-5.0-1.57","TESTING","bdp_cybrbll","Fri Mar 24 2023 18:41:07 GMT-0400 (Eastern Daylight Time)","389872","3","1","","null","","","","observe","","img/1to3/1.png","null","168","614","0.5","0.5","1","2","",""
"animation","119","106552","0.0-5.0-2.57","TESTING","bdp_cybrbll","Fri Mar 24 2023 18:41:07 GMT-0400 (Eastern Daylight Time)","389872","3","1","","","","","","","","","","168","","","","1","2","[{""stimulus"":""img/1to2/1.png"",""time"":106},{""stimulus"":""img/1to2/2.png"",""time"":200},{""stimulus"":""img/1to2/3.png"",""time"":298},{""stimulus"":""img/1to2/4.png"",""time"":403},{""stimulus"":""img/1to2/5.png"",""time"":506},{""stimulus"":""img/1to2/6.png"",""time"":600},{""stimulus"":""img/1to2/7.png"",""time"":698},{""stimulus"":""img/1to2/8.png"",""time"":801},{""stimulus"":""img/1to2/9.png"",""time"":899},{""stimulus"":""img/1to2/10.png"",""time"":993},{""stimulus"":""img/1to2/11.png"",""time"":1092},{""stimulus"":""img/1to2/12.png"",""time"":1191}]","[]"
"image-keyboard-response","120","106723","0.0-5.0-1.58","TESTING","bdp_cybrbll","Fri Mar 24 2023 18:41:07 GMT-0400 (Eastern Daylight Time)","389872","3","1","","170","","","","choice","","img/2to1/1.png","2","167","514","0.5","0.5","2","3","",""
"animation","121","108018","0.0-5.0-2.58","TESTING","bdp_cybrbll","Fri Mar 24 2023 18:41:07 GMT-0400 (Eastern Daylight Time)","389872","3","1","","","","","","","","","","167","","","","2","3","[{""stimulus"":""img/2to3/1.png"",""time"":108},{""stimulus"":""img/2to3/2.png"",""time"":204},{""stimulus"":""img/2to3/3.png"",""time"":304},{""stimulus"":""img/2to3/4.png"",""time"":404},{""stimulus"":""img/2to3/5.png"",""time"":504},{""stimulus"":""img/2to3/6.png"",""time"":595},{""stimulus"":""img/2to3/7.png"",""time"":695},{""stimulus"":""img/2to3/8.png"",""time"":793},{""stimulus"":""img/2to3/9.png"",""time"":904},{""stimulus"":""img/2to3/10.png"",""time"":995},{""stimulus"":""img/2to3/11.png"",""time"":1092},{""stimulus"":""img/2to3/12.png"",""time"":1196}]","[]"
"image-keyboard-response","122","108310","0.0-5.0-1.59","TESTING","bdp_cybrbll","Fri Mar 24 2023 18:41:07 GMT-0400 (Eastern Daylight Time)","389872","3","1","","null","","","","observe","","img/3to2/1.png","null","166","286","0.5","0.5","3","2","",""
"animation","123","109609","0.0-5.0-2.59","TESTING","bdp_cybrbll","Fri Mar 24 2023 18:41:07 GMT-0400 (Eastern Daylight Time)","389872","3","1","","","","","","","","","","166","","","","3","2","[{""stimulus"":""img/3to2/1.png"",""time"":108},{""stimulus"":""img/3to2/2.png"",""time"":199},{""stimulus"":""img/3to2/3.png"",""time"":307},{""stimulus"":""img/3to2/4.png"",""time"":399},{""stimulus"":""img/3to2/5.png"",""time"":508},{""stimulus"":""img/3to2/6.png"",""time"":601},{""stimulus"":""img/3to2/7.png"",""time"":699},{""stimulus"":""img/3to2/8.png"",""time"":799},{""stimulus"":""img/3to2/9.png"",""time"":899},{""stimulus"":""img/3to2/10.png"",""time"":992},{""stimulus"":""img/3to2/11.png"",""time"":1099},{""stimulus"":""img/3to2/12.png"",""time"":1192}]","[]"
"image-keyboard-response","124","109716","0.0-5.0-1.60","TESTING","bdp_cybrbll","Fri Mar 24 2023 18:41:07 GMT-0400 (Eastern Daylight Time)","389872","3","1","","106","","","","choice","","img/2to1/1.png","1","165","1001","0.5","0.5","2","1","",""
"animation","125","111010","0.0-5.0-2.60","TESTING","bdp_cybrbll","Fri Mar 24 2023 18:41:07 GMT-0400 (Eastern Daylight Time)","389872","3","1","","","","","","","","","","165","","","","2","1","[{""stimulus"":""img/2to1/1.png"",""time"":108},{""stimulus"":""img/2to1/2.png"",""time"":204},{""stimulus"":""img/2to1/3.png"",""time"":302},{""stimulus"":""img/2to1/4.png"",""time"":402},{""stimulus"":""img/2to1/5.png"",""time"":502},{""stimulus"":""img/2to1/6.png"",""time"":594},{""stimulus"":""img/2to1/7.png"",""time"":703},{""stimulus"":""img/2to1/8.png"",""time"":795},{""stimulus"":""img/2to1/9.png"",""time"":902},{""stimulus"":""img/2to1/10.png"",""time"":995},{""stimulus"":""img/2to1/11.png"",""time"":1094},{""stimulus"":""img/2to1/12.png"",""time"":1194}]","[]"
"image-keyboard-response","126","111385","0.0-5.0-1.61","TESTING","bdp_cybrbll","Fri Mar 24 2023 18:41:07 GMT-0400 (Eastern Daylight Time)","389872","3","1","","null","","","","observe","","img/1to3/1.png","null","164","362","0.5","0.5","1","2","",""
"animation","127","112681","0.0-5.0-2.61","TESTING","bdp_cybrbll","Fri Mar 24 2023 18:41:07 GMT-0400 (Eastern Daylight Time)","389872","3","1","","","","","","","","","","164","","","","1","2","[{""stimulus"":""img/1to2/1.png"",""time"":103},{""stimulus"":""img/1to2/2.png"",""time"":209},{""stimulus"":""img/1to2/3.png"",""time"":301},{""stimulus"":""img/1to2/4.png"",""time"":408},{""stimulus"":""img/1to2/5.png"",""time"":502},{""stimulus"":""img/1to2/6.png"",""time"":600},{""stimulus"":""img/1to2/7.png"",""time"":702},{""stimulus"":""img/1to2/8.png"",""time"":801},{""stimulus"":""img/1to2/9.png"",""time"":895},{""stimulus"":""img/1to2/10.png"",""time"":1000},{""stimulus"":""img/1to2/11.png"",""time"":1095},{""stimulus"":""img/1to2/12.png"",""time"":1200}]","[]"
"image-keyboard-response","128","112711","0.0-5.0-1.62","TESTING","bdp_cybrbll","Fri Mar 24 2023 18:41:07 GMT-0400 (Eastern Daylight Time)","389872","3","1","","28","","","","choice","","img/2to1/1.png","2","163","1046","0.5","0.5","2","3","",""
"animation","129","114010","0.0-5.0-2.62","TESTING","bdp_cybrbll","Fri Mar 24 2023 18:41:07 GMT-0400 (Eastern Daylight Time)","389872","3","1","","","","","","","","","","163","","","","2","3","[{""stimulus"":""img/2to3/1.png"",""time"":108},{""stimulus"":""img/2to3/2.png"",""time"":199},{""stimulus"":""img/2to3/3.png"",""time"":307},{""stimulus"":""img/2to3/4.png"",""time"":402},{""stimulus"":""img/2to3/5.png"",""time"":497},{""stimulus"":""img/2to3/6.png"",""time"":599},{""stimulus"":""img/2to3/7.png"",""time"":699},{""stimulus"":""img/2to3/8.png"",""time"":799},{""stimulus"":""img/2to3/9.png"",""time"":898},{""stimulus"":""img/2to3/10.png"",""time"":999},{""stimulus"":""img/2to3/11.png"",""time"":1099},{""stimulus"":""img/2to3/12.png"",""time"":1194}]","[]"
"image-keyboard-response","130","114270","0.0-5.0-1.63","TESTING","bdp_cybrbll","Fri Mar 24 2023 18:41:07 GMT-0400 (Eastern Daylight Time)","389872","3","1","","null","","","","observe","","img/3to2/1.png","null","162","253","0.5","0.5","3","1","",""
"animation","131","115568","0.0-5.0-2.63","TESTING","bdp_cybrbll","Fri Mar 24 2023 18:41:07 GMT-0400 (Eastern Daylight Time)","389872","3","1","","","","","","","","","","162","","","","3","1","[{""stimulus"":""img/3to1/1.png"",""time"":105},{""stimulus"":""img/3to1/2.png"",""time"":200},{""stimulus"":""img/3to1/3.png"",""time"":306},{""stimulus"":""img/3to1/4.png"",""time"":404},{""stimulus"":""img/3to1/5.png"",""time"":506},{""stimulus"":""img/3to1/6.png"",""time"":601},{""stimulus"":""img/3to1/7.png"",""time"":697},{""stimulus"":""img/3to1/8.png"",""time"":800},{""stimulus"":""img/3to1/9.png"",""time"":898},{""stimulus"":""img/3to1/10.png"",""time"":995},{""stimulus"":""img/3to1/11.png"",""time"":1098},{""stimulus"":""img/3to1/12.png"",""time"":1193}]","[]"
"image-keyboard-response","132","116054","0.0-5.0-1.64","TESTING","bdp_cybrbll","Fri Mar 24 2023 18:41:07 GMT-0400 (Eastern Daylight Time)","389872","3","1","","null","","","","observe","","img/1to3/1.png","null","161","483","0.5","0.5","1","2","",""
"animation","133","117351","0.0-5.0-2.64","TESTING","bdp_cybrbll","Fri Mar 24 2023 18:41:07 GMT-0400 (Eastern Daylight Time)","389872","3","1","","","","","","","","","","161","","","","1","2","[{""stimulus"":""img/1to2/1.png"",""time"":106},{""stimulus"":""img/1to2/2.png"",""time"":204},{""stimulus"":""img/1to2/3.png"",""time"":306},{""stimulus"":""img/1to2/4.png"",""time"":401},{""stimulus"":""img/1to2/5.png"",""time"":506},{""stimulus"":""img/1to2/6.png"",""time"":601},{""stimulus"":""img/1to2/7.png"",""time"":698},{""stimulus"":""img/1to2/8.png"",""time"":802},{""stimulus"":""img/1to2/9.png"",""time"":898},{""stimulus"":""img/1to2/10.png"",""time"":994},{""stimulus"":""img/1to2/11.png"",""time"":1099},{""stimulus"":""img/1to2/12.png"",""time"":1194}]","[]"
"image-keyboard-response","134","117451","0.0-5.0-1.65","TESTING","bdp_cybrbll","Fri Mar 24 2023 18:41:07 GMT-0400 (Eastern Daylight Time)","389872","3","1","","97","","","","choice","","img/2to1/1.png","2","160","616","0.5","0.5","2","3","",""
"animation","135","118743","0.0-5.0-2.65","TESTING","bdp_cybrbll","Fri Mar 24 2023 18:41:07 GMT-0400 (Eastern Daylight Time)","389872","3","1","","","","","","","","","","160","","","","2","3","[{""stimulus"":""img/2to3/1.png"",""time"":111},{""stimulus"":""img/2to3/2.png"",""time"":203},{""stimulus"":""img/2to3/3.png"",""time"":300},{""stimulus"":""img/2to3/4.png"",""time"":404},{""stimulus"":""img/2to3/5.png"",""time"":500},{""stimulus"":""img/2to3/6.png"",""time"":599},{""stimulus"":""img/2to3/7.png"",""time"":701},{""stimulus"":""img/2to3/8.png"",""time"":796},{""stimulus"":""img/2to3/9.png"",""time"":901},{""stimulus"":""img/2to3/10.png"",""time"":996},{""stimulus"":""img/2to3/11.png"",""time"":1093},{""stimulus"":""img/2to3/12.png"",""time"":1198}]","[]"
"image-keyboard-response","136","119184","0.0-5.0-1.66","TESTING","bdp_cybrbll","Fri Mar 24 2023 18:41:07 GMT-0400 (Eastern Daylight Time)","389872","3","1","","null","","","","observe","","img/3to2/1.png","null","159","433","0.5","0.5","3","2","",""
"animation","137","120478","0.0-5.0-2.66","TESTING","bdp_cybrbll","Fri Mar 24 2023 18:41:07 GMT-0400 (Eastern Daylight Time)","389872","3","1","","","","","","","","","","159","","","","3","2","[{""stimulus"":""img/3to2/1.png"",""time"":103},{""stimulus"":""img/3to2/2.png"",""time"":209},{""stimulus"":""img/3to2/3.png"",""time"":302},{""stimulus"":""img/3to2/4.png"",""time"":400},{""stimulus"":""img/3to2/5.png"",""time"":501},{""stimulus"":""img/3to2/6.png"",""time"":598},{""stimulus"":""img/3to2/7.png"",""time"":702},{""stimulus"":""img/3to2/8.png"",""time"":800},{""stimulus"":""img/3to2/9.png"",""time"":898},{""stimulus"":""img/3to2/10.png"",""time"":1000},{""stimulus"":""img/3to2/11.png"",""time"":1095},{""stimulus"":""img/3to2/12.png"",""time"":1192}]","[]"
"image-keyboard-response","138","120530","0.0-5.0-1.67","TESTING","bdp_cybrbll","Fri Mar 24 2023 18:41:07 GMT-0400 (Eastern Daylight Time)","389872","3","1","","50","","","","choice","","img/2to1/1.png","1","158","197","0.5","0.5","2","1","",""
"animation","139","121826","0.0-5.0-2.67","TESTING","bdp_cybrbll","Fri Mar 24 2023 18:41:07 GMT-0400 (Eastern Daylight Time)","389872","3","1","","","","","","","","","","158","","","","2","1","[{""stimulus"":""img/2to1/1.png"",""time"":111},{""stimulus"":""img/2to1/2.png"",""time"":206},{""stimulus"":""img/2to1/3.png"",""time"":301},{""stimulus"":""img/2to1/4.png"",""time"":405},{""stimulus"":""img/2to1/5.png"",""time"":501},{""stimulus"":""img/2to1/6.png"",""time"":598},{""stimulus"":""img/2to1/7.png"",""time"":703},{""stimulus"":""img/2to1/8.png"",""time"":797},{""stimulus"":""img/2to1/9.png"",""time"":902},{""stimulus"":""img/2to1/10.png"",""time"":999},{""stimulus"":""img/2to1/11.png"",""time"":1097},{""stimulus"":""img/2to1/12.png"",""time"":1196}]","[]"
"image-keyboard-response","140","122218","0.0-5.0-1.68","TESTING","bdp_cybrbll","Fri Mar 24 2023 18:41:07 GMT-0400 (Eastern Daylight Time)","389872","3","1","","null","","","","observe","","img/1to3/1.png","null","157","385","0.5","0.5","1","3","",""
"animation","141","123512","0.0-5.0-2.68","TESTING","bdp_cybrbll","Fri Mar 24 2023 18:41:07 GMT-0400 (Eastern Daylight Time)","389872","3","1","","","","","","","","","","157","","","","1","3","[{""stimulus"":""img/1to3/1.png"",""time"":110},{""stimulus"":""img/1to3/2.png"",""time"":207},{""stimulus"":""img/1to3/3.png"",""time"":299},{""stimulus"":""img/1to3/4.png"",""time"":408},{""stimulus"":""img/1to3/5.png"",""time"":499},{""stimulus"":""img/1to3/6.png"",""time"":595},{""stimulus"":""img/1to3/7.png"",""time"":703},{""stimulus"":""img/1to3/8.png"",""time"":799},{""stimulus"":""img/1to3/9.png"",""time"":900},{""stimulus"":""img/1to3/10.png"",""time"":999},{""stimulus"":""img/1to3/11.png"",""time"":1091},{""stimulus"":""img/1to3/12.png"",""time"":1199}]","[]"
"image-keyboard-response","142","123751","0.0-5.0-1.69","TESTING","bdp_cybrbll","Fri Mar 24 2023 18:41:07 GMT-0400 (Eastern Daylight Time)","389872","3","1","","null","","","","observe","","img/3to2/1.png","null","156","235","0.5","0.5","3","1","",""
"animation","143","125048","0.0-5.0-2.69","TESTING","bdp_cybrbll","Fri Mar 24 2023 18:41:07 GMT-0400 (Eastern Daylight Time)","389872","3","1","","","","","","","","","","156","","","","3","1","[{""stimulus"":""img/3to1/1.png"",""time"":104},{""stimulus"":""img/3to1/2.png"",""time"":208},{""stimulus"":""img/3to1/3.png"",""time"":307},{""stimulus"":""img/3to1/4.png"",""time"":400},{""stimulus"":""img/3to1/5.png"",""time"":504},{""stimulus"":""img/3to1/6.png"",""time"":600},{""stimulus"":""img/3to1/7.png"",""time"":696},{""stimulus"":""img/3to1/8.png"",""time"":800},{""stimulus"":""img/3to1/9.png"",""time"":897},{""stimulus"":""img/3to1/10.png"",""time"":1000},{""stimulus"":""img/3to1/11.png"",""time"":1096},{""stimulus"":""img/3to1/12.png"",""time"":1195}]","[]"
"image-keyboard-response","144","125271","0.0-5.0-1.70","TESTING","bdp_cybrbll","Fri Mar 24 2023 18:41:07 GMT-0400 (Eastern Daylight Time)","389872","3","1","","null","","","","observe","","img/1to3/1.png","null","155","213","0.5","0.5","1","3","",""
"animation","145","126568","0.0-5.0-2.70","TESTING","bdp_cybrbll","Fri Mar 24 2023 18:41:07 GMT-0400 (Eastern Daylight Time)","389872","3","1","","","","","","","","","","155","","","","1","3","[{""stimulus"":""img/1to3/1.png"",""time"":106},{""stimulus"":""img/1to3/2.png"",""time"":208},{""stimulus"":""img/1to3/3.png"",""time"":306},{""stimulus"":""img/1to3/4.png"",""time"":404},{""stimulus"":""img/1to3/5.png"",""time"":505},{""stimulus"":""img/1to3/6.png"",""time"":600},{""stimulus"":""img/1to3/7.png"",""time"":698},{""stimulus"":""img/1to3/8.png"",""time"":800},{""stimulus"":""img/1to3/9.png"",""time"":897},{""stimulus"":""img/1to3/10.png"",""time"":1002},{""stimulus"":""img/1to3/11.png"",""time"":1097},{""stimulus"":""img/1to3/12.png"",""time"":1192}]","[]"
"image-keyboard-response","146","126968","0.0-5.0-1.71","TESTING","bdp_cybrbll","Fri Mar 24 2023 18:41:07 GMT-0400 (Eastern Daylight Time)","389872","3","1","","null","","","","observe","","img/3to2/1.png","null","154","394","0.5","0.5","3","1","",""
"animation","147","128266","0.0-5.0-2.71","TESTING","bdp_cybrbll","Fri Mar 24 2023 18:41:07 GMT-0400 (Eastern Daylight Time)","389872","3","1","","","","","","","","","","154","","","","3","1","[{""stimulus"":""img/3to1/1.png"",""time"":102},{""stimulus"":""img/3to1/2.png"",""time"":208},{""stimulus"":""img/3to1/3.png"",""time"":305},{""stimulus"":""img/3to1/4.png"",""time"":400},{""stimulus"":""img/3to1/5.png"",""time"":504},{""stimulus"":""img/3to1/6.png"",""time"":600},{""stimulus"":""img/3to1/7.png"",""time"":694},{""stimulus"":""img/3to1/8.png"",""time"":800},{""stimulus"":""img/3to1/9.png"",""time"":895},{""stimulus"":""img/3to1/10.png"",""time"":1001},{""stimulus"":""img/3to1/11.png"",""time"":1095},{""stimulus"":""img/3to1/12.png"",""time"":1192}]","[]"
"image-keyboard-response","148","128759","0.0-5.0-1.72","TESTING","bdp_cybrbll","Fri Mar 24 2023 18:41:07 GMT-0400 (Eastern Daylight Time)","389872","3","1","","null","","","","observe","","img/1to3/1.png","null","153","488","0.5","0.5","1","3","",""
"animation","149","130058","0.0-5.0-2.72","TESTING","bdp_cybrbll","Fri Mar 24 2023 18:41:07 GMT-0400 (Eastern Daylight Time)","389872","3","1","","","","","","","","","","153","","","","1","3","[{""stimulus"":""img/1to3/1.png"",""time"":104},{""stimulus"":""img/1to3/2.png"",""time"":209},{""stimulus"":""img/1to3/3.png"",""time"":305},{""stimulus"":""img/1to3/4.png"",""time"":400},{""stimulus"":""img/1to3/5.png"",""time"":506},{""stimulus"":""img/1to3/6.png"",""time"":600},{""stimulus"":""img/1to3/7.png"",""time"":703},{""stimulus"":""img/1to3/8.png"",""time"":800},{""stimulus"":""img/1to3/9.png"",""time"":895},{""stimulus"":""img/1to3/10.png"",""time"":1000},{""stimulus"":""img/1to3/11.png"",""time"":1095},{""stimulus"":""img/1to3/12.png"",""time"":1191}]","[]"
"image-keyboard-response","150","130305","0.0-5.0-1.73","TESTING","bdp_cybrbll","Fri Mar 24 2023 18:41:07 GMT-0400 (Eastern Daylight Time)","389872","3","1","","null","","","","observe","","img/3to2/1.png","null","152","241","0.5","0.5","3","2","",""
"animation","151","131601","0.0-5.0-2.73","TESTING","bdp_cybrbll","Fri Mar 24 2023 18:41:07 GMT-0400 (Eastern Daylight Time)","389872","3","1","","","","","","","","","","152","","","","3","2","[{""stimulus"":""img/3to2/1.png"",""time"":105},{""stimulus"":""img/3to2/2.png"",""time"":205},{""stimulus"":""img/3to2/3.png"",""time"":305},{""stimulus"":""img/3to2/4.png"",""time"":406},{""stimulus"":""img/3to2/5.png"",""time"":505},{""stimulus"":""img/3to2/6.png"",""time"":598},{""stimulus"":""img/3to2/7.png"",""time"":705},{""stimulus"":""img/3to2/8.png"",""time"":797},{""stimulus"":""img/3to2/9.png"",""time"":898},{""stimulus"":""img/3to2/10.png"",""time"":1002},{""stimulus"":""img/3to2/11.png"",""time"":1097},{""stimulus"":""img/3to2/12.png"",""time"":1199}]","[]"
"image-keyboard-response","152","131925","0.0-5.0-1.74","TESTING","bdp_cybrbll","Fri Mar 24 2023 18:41:07 GMT-0400 (Eastern Daylight Time)","389872","3","1","","322","","","","choice","","img/2to1/1.png","1","151","330","0.5","0.5","2","1","",""
"animation","153","133218","0.0-5.0-2.74","TESTING","bdp_cybrbll","Fri Mar 24 2023 18:41:07 GMT-0400 (Eastern Daylight Time)","389872","3","1","","","","","","","","","","151","","","","2","1","[{""stimulus"":""img/2to1/1.png"",""time"":109},{""stimulus"":""img/2to1/2.png"",""time"":201},{""stimulus"":""img/2to1/3.png"",""time"":307},{""stimulus"":""img/2to1/4.png"",""time"":401},{""stimulus"":""img/2to1/5.png"",""time"":500},{""stimulus"":""img/2to1/6.png"",""time"":601},{""stimulus"":""img/2to1/7.png"",""time"":701},{""stimulus"":""img/2to1/8.png"",""time"":801},{""stimulus"":""img/2to1/9.png"",""time"":897},{""stimulus"":""img/2to1/10.png"",""time"":992},{""stimulus"":""img/2to1/11.png"",""time"":1101},{""stimulus"":""img/2to1/12.png"",""time"":1193}]","[]"
"image-keyboard-response","154","134033","0.0-5.0-1.75","TESTING","bdp_cybrbll","Fri Mar 24 2023 18:41:07 GMT-0400 (Eastern Daylight Time)","389872","3","1","","null","","","","observe","","img/1to3/1.png","null","150","807","0.5","0.5","1","2","",""
"animation","155","135328","0.0-5.0-2.75","TESTING","bdp_cybrbll","Fri Mar 24 2023 18:41:07 GMT-0400 (Eastern Daylight Time)","389872","3","1","","","","","","","","","","150","","","","1","2","[{""stimulus"":""img/1to2/1.png"",""time"":103},{""stimulus"":""img/1to2/2.png"",""time"":208},{""stimulus"":""img/1to2/3.png"",""time"":302},{""stimulus"":""img/1to2/4.png"",""time"":398},{""stimulus"":""img/1to2/5.png"",""time"":502},{""stimulus"":""img/1to2/6.png"",""time"":600},{""stimulus"":""img/1to2/7.png"",""time"":702},{""stimulus"":""img/1to2/8.png"",""time"":797},{""stimulus"":""img/1to2/9.png"",""time"":895},{""stimulus"":""img/1to2/10.png"",""time"":1000},{""stimulus"":""img/1to2/11.png"",""time"":1094},{""stimulus"":""img/1to2/12.png"",""time"":1194}]","[]"
"image-keyboard-response","156","135397","0.0-5.0-1.76","TESTING","bdp_cybrbll","Fri Mar 24 2023 18:41:07 GMT-0400 (Eastern Daylight Time)","389872","3","1","","68","","","","choice","","img/2to1/1.png","2","149","630","0.5","0.1","2","3","",""
"animation","157","136686","0.0-5.0-2.76","TESTING","bdp_cybrbll","Fri Mar 24 2023 18:41:07 GMT-0400 (Eastern Daylight Time)","389872","3","1","","","","","","","","","","149","","","","2","3","[{""stimulus"":""img/2to3/1.png"",""time"":107},{""stimulus"":""img/2to3/2.png"",""time"":205},{""stimulus"":""img/2to3/3.png"",""time"":306},{""stimulus"":""img/2to3/4.png"",""time"":405},{""stimulus"":""img/2to3/5.png"",""time"":498},{""stimulus"":""img/2to3/6.png"",""time"":605},{""stimulus"":""img/2to3/7.png"",""time"":700},{""stimulus"":""img/2to3/8.png"",""time"":805},{""stimulus"":""img/2to3/9.png"",""time"":901},{""stimulus"":""img/2to3/10.png"",""time"":997},{""stimulus"":""img/2to3/11.png"",""time"":1101},{""stimulus"":""img/2to3/12.png"",""time"":1196}]","[]"
"image-keyboard-response","158","136952","0.0-5.0-1.77","TESTING","bdp_cybrbll","Fri Mar 24 2023 18:41:07 GMT-0400 (Eastern Daylight Time)","389872","3","1","","null","","","","observe","","img/3to2/1.png","null","148","258","0.5","0.1","3","2","",""
"animation","159","138247","0.0-5.0-2.77","TESTING","bdp_cybrbll","Fri Mar 24 2023 18:41:07 GMT-0400 (Eastern Daylight Time)","389872","3","1","","","","","","","","","","148","","","","3","2","[{""stimulus"":""img/3to2/1.png"",""time"":102},{""stimulus"":""img/3to2/2.png"",""time"":207},{""stimulus"":""img/3to2/3.png"",""time"":302},{""stimulus"":""img/3to2/4.png"",""time"":406},{""stimulus"":""img/3to2/5.png"",""time"":502},{""stimulus"":""img/3to2/6.png"",""time"":600},{""stimulus"":""img/3to2/7.png"",""time"":703},{""stimulus"":""img/3to2/8.png"",""time"":800},{""stimulus"":""img/3to2/9.png"",""time"":895},{""stimulus"":""img/3to2/10.png"",""time"":999},{""stimulus"":""img/3to2/11.png"",""time"":1094},{""stimulus"":""img/3to2/12.png"",""time"":1199}]","[]"
"image-keyboard-response","160","138430","0.0-5.0-1.78","TESTING","bdp_cybrbll","Fri Mar 24 2023 18:41:07 GMT-0400 (Eastern Daylight Time)","389872","3","1","","182","","","","choice","","img/2to1/1.png","1","147","434","0.5","0.1","2","1","",""
"animation","161","139726","0.0-5.0-2.78","TESTING","bdp_cybrbll","Fri Mar 24 2023 18:41:07 GMT-0400 (Eastern Daylight Time)","389872","3","1","","","","","","","","","","147","","","","2","1","[{""stimulus"":""img/2to1/1.png"",""time"":105},{""stimulus"":""img/2to1/2.png"",""time"":200},{""stimulus"":""img/2to1/3.png"",""time"":305},{""stimulus"":""img/2to1/4.png"",""time"":400},{""stimulus"":""img/2to1/5.png"",""time"":506},{""stimulus"":""img/2to1/6.png"",""time"":600},{""stimulus"":""img/2to1/7.png"",""time"":696},{""stimulus"":""img/2to1/8.png"",""time"":803},{""stimulus"":""img/2to1/9.png"",""time"":896},{""stimulus"":""img/2to1/10.png"",""time"":996},{""stimulus"":""img/2to1/11.png"",""time"":1096},{""stimulus"":""img/2to1/12.png"",""time"":1192}]","[]"
"image-keyboard-response","162","140231","0.0-5.0-1.79","TESTING","bdp_cybrbll","Fri Mar 24 2023 18:41:07 GMT-0400 (Eastern Daylight Time)","389872","3","1","","null","","","","observe","","img/1to3/1.png","null","146","496","0.5","0.1","1","3","",""
"animation","163","141527","0.0-5.0-2.79","TESTING","bdp_cybrbll","Fri Mar 24 2023 18:41:07 GMT-0400 (Eastern Daylight Time)","389872","3","1","","","","","","","","","","146","","","","1","3","[{""stimulus"":""img/1to3/1.png"",""time"":106},{""stimulus"":""img/1to3/2.png"",""time"":208},{""stimulus"":""img/1to3/3.png"",""time"":306},{""stimulus"":""img/1to3/4.png"",""time"":400},{""stimulus"":""img/1to3/5.png"",""time"":506},{""stimulus"":""img/1to3/6.png"",""time"":600},{""stimulus"":""img/1to3/7.png"",""time"":697},{""stimulus"":""img/1to3/8.png"",""time"":800},{""stimulus"":""img/1to3/9.png"",""time"":897},{""stimulus"":""img/1to3/10.png"",""time"":1000},{""stimulus"":""img/1to3/11.png"",""time"":1096},{""stimulus"":""img/1to3/12.png"",""time"":1196}]","[]"
"image-keyboard-response","164","141894","0.0-5.0-1.80","TESTING","bdp_cybrbll","Fri Mar 24 2023 18:41:07 GMT-0400 (Eastern Daylight Time)","389872","3","1","","null","","","","observe","","img/3to2/1.png","null","145","363","0.5","0.1","3","2","",""
"animation","165","143193","0.0-5.0-2.80","TESTING","bdp_cybrbll","Fri Mar 24 2023 18:41:07 GMT-0400 (Eastern Daylight Time)","389872","3","1","","","","","","","","","","145","","","","3","2","[{""stimulus"":""img/3to2/1.png"",""time"":106},{""stimulus"":""img/3to2/2.png"",""time"":200},{""stimulus"":""img/3to2/3.png"",""time"":306},{""stimulus"":""img/3to2/4.png"",""time"":403},{""stimulus"":""img/3to2/5.png"",""time"":507},{""stimulus"":""img/3to2/6.png"",""time"":602},{""stimulus"":""img/3to2/7.png"",""time"":698},{""stimulus"":""img/3to2/8.png"",""time"":803},{""stimulus"":""img/3to2/9.png"",""time"":898},{""stimulus"":""img/3to2/10.png"",""time"":991},{""stimulus"":""img/3to2/11.png"",""time"":1099},{""stimulus"":""img/3to2/12.png"",""time"":1195}]","[]"
"image-keyboard-response","166","143271","0.0-5.0-1.81","TESTING","bdp_cybrbll","Fri Mar 24 2023 18:41:07 GMT-0400 (Eastern Daylight Time)","389872","3","1","","76","","","","choice","","img/2to1/1.png","1","144","468","0.5","0.1","2","1","",""
"animation","167","144568","0.0-5.0-2.81","TESTING","bdp_cybrbll","Fri Mar 24 2023 18:41:07 GMT-0400 (Eastern Daylight Time)","389872","3","1","","","","","","","","","","144","","","","2","1","[{""stimulus"":""img/2to1/1.png"",""time"":106},{""stimulus"":""img/2to1/2.png"",""time"":200},{""stimulus"":""img/2to1/3.png"",""time"":306},{""stimulus"":""img/2to1/4.png"",""time"":401},{""stimulus"":""img/2to1/5.png"",""time"":506},{""stimulus"":""img/2to1/6.png"",""time"":601},{""stimulus"":""img/2to1/7.png"",""time"":697},{""stimulus"":""img/2to1/8.png"",""time"":794},{""stimulus"":""img/2to1/9.png"",""time"":898},{""stimulus"":""img/2to1/10.png"",""time"":993},{""stimulus"":""img/2to1/11.png"",""time"":1097},{""stimulus"":""img/2to1/12.png"",""time"":1193}]","[]"
"image-keyboard-response","168","144810","0.0-5.0-1.82","TESTING","bdp_cybrbll","Fri Mar 24 2023 18:41:07 GMT-0400 (Eastern Daylight Time)","389872","3","1","","null","","","","observe","","img/1to3/1.png","null","143","228","0.5","0.1","1","3","",""
"animation","169","146103","0.0-5.0-2.82","TESTING","bdp_cybrbll","Fri Mar 24 2023 18:41:07 GMT-0400 (Eastern Daylight Time)","389872","3","1","","","","","","","","","","143","","","","1","3","[{""stimulus"":""img/1to3/1.png"",""time"":109},{""stimulus"":""img/1to3/2.png"",""time"":208},{""stimulus"":""img/1to3/3.png"",""time"":300},{""stimulus"":""img/1to3/4.png"",""time"":409},{""stimulus"":""img/1to3/5.png"",""time"":501},{""stimulus"":""img/1to3/6.png"",""time"":596},{""stimulus"":""img/1to3/7.png"",""time"":700},{""stimulus"":""img/1to3/8.png"",""time"":800},{""stimulus"":""img/1to3/9.png"",""time"":900},{""stimulus"":""img/1to3/10.png"",""time"":1000},{""stimulus"":""img/1to3/11.png"",""time"":1095},{""stimulus"":""img/1to3/12.png"",""time"":1200}]","[]"
"image-keyboard-response","170","146905","0.0-5.0-1.83","TESTING","bdp_cybrbll","Fri Mar 24 2023 18:41:07 GMT-0400 (Eastern Daylight Time)","389872","3","1","","null","","","","observe","","img/3to2/1.png","null","142","791","0.5","0.1","3","1","",""
"animation","171","148201","0.0-5.0-2.83","TESTING","bdp_cybrbll","Fri Mar 24 2023 18:41:07 GMT-0400 (Eastern Daylight Time)","389872","3","1","","","","","","","","","","142","","","","3","1","[{""stimulus"":""img/3to1/1.png"",""time"":105},{""stimulus"":""img/3to1/2.png"",""time"":205},{""stimulus"":""img/3to1/3.png"",""time"":305},{""stimulus"":""img/3to1/4.png"",""time"":405},{""stimulus"":""img/3to1/5.png"",""time"":505},{""stimulus"":""img/3to1/6.png"",""time"":599},{""stimulus"":""img/3to1/7.png"",""time"":705},{""stimulus"":""img/3to1/8.png"",""time"":799},{""stimulus"":""img/3to1/9.png"",""time"":896},{""stimulus"":""img/3to1/10.png"",""time"":1001},{""stimulus"":""img/3to1/11.png"",""time"":1096},{""stimulus"":""img/3to1/12.png"",""time"":1198}]","[]"
"image-keyboard-response","172","148455","0.0-5.0-1.84","TESTING","bdp_cybrbll","Fri Mar 24 2023 18:41:07 GMT-0400 (Eastern Daylight Time)","389872","3","1","","null","","","","observe","","img/1to3/1.png","null","141","243","0.5","0.1","1","3","",""
"animation","173","149751","0.0-5.0-2.84","TESTING","bdp_cybrbll","Fri Mar 24 2023 18:41:07 GMT-0400 (Eastern Daylight Time)","389872","3","1","","","","","","","","","","141","","","","1","3","[{""stimulus"":""img/1to3/1.png"",""time"":106},{""stimulus"":""img/1to3/2.png"",""time"":209},{""stimulus"":""img/1to3/3.png"",""time"":305},{""stimulus"":""img/1to3/4.png"",""time"":400},{""stimulus"":""img/1to3/5.png"",""time"":505},{""stimulus"":""img/1to3/6.png"",""time"":602},{""stimulus"":""img/1to3/7.png"",""time"":698},{""stimulus"":""img/1to3/8.png"",""time"":800},{""stimulus"":""img/1to3/9.png"",""time"":897},{""stimulus"":""img/1to3/10.png"",""time"":1001},{""stimulus"":""img/1to3/11.png"",""time"":1097},{""stimulus"":""img/1to3/12.png"",""time"":1194}]","[]"
"image-keyboard-response","174","150209","0.0-5.0-1.85","TESTING","bdp_cybrbll","Fri Mar 24 2023 18:41:07 GMT-0400 (Eastern Daylight Time)","389872","3","1","","null","","","","observe","","img/3to2/1.png","null","140","445","0.5","0.1","3","2","",""
"animation","175","151503","0.0-5.0-2.85","TESTING","bdp_cybrbll","Fri Mar 24 2023 18:41:07 GMT-0400 (Eastern Daylight Time)","389872","3","1","","","","","","","","","","140","","","","3","2","[{""stimulus"":""img/3to2/1.png"",""time"":105},{""stimulus"":""img/3to2/2.png"",""time"":209},{""stimulus"":""img/3to2/3.png"",""time"":305},{""stimulus"":""img/3to2/4.png"",""time"":409},{""stimulus"":""img/3to2/5.png"",""time"":506},{""stimulus"":""img/3to2/6.png"",""time"":603},{""stimulus"":""img/3to2/7.png"",""time"":707},{""stimulus"":""img/3to2/8.png"",""time"":800},{""stimulus"":""img/3to2/9.png"",""time"":897},{""stimulus"":""img/3to2/10.png"",""time"":1001},{""stimulus"":""img/3to2/11.png"",""time"":1096},{""stimulus"":""img/3to2/12.png"",""time"":1193}]","[]"
"image-keyboard-response","176","151596","0.0-5.0-1.86","TESTING","bdp_cybrbll","Fri Mar 24 2023 18:41:07 GMT-0400 (Eastern Daylight Time)","389872","3","1","","91","","","","choice","","img/2to1/1.png","1","139","291","0.5","0.1","2","1","",""
"animation","177","152887","0.0-5.0-2.86","TESTING","bdp_cybrbll","Fri Mar 24 2023 18:41:07 GMT-0400 (Eastern Daylight Time)","389872","3","1","","","","","","","","","","139","","","","2","1","[{""stimulus"":""img/2to1/1.png"",""time"":108},{""stimulus"":""img/2to1/2.png"",""time"":204},{""stimulus"":""img/2to1/3.png"",""time"":308},{""stimulus"":""img/2to1/4.png"",""time"":406},{""stimulus"":""img/2to1/5.png"",""time"":500},{""stimulus"":""img/2to1/6.png"",""time"":605},{""stimulus"":""img/2to1/7.png"",""time"":694},{""stimulus"":""img/2to1/8.png"",""time"":797},{""stimulus"":""img/2to1/9.png"",""time"":898},{""stimulus"":""img/2to1/10.png"",""time"":997},{""stimulus"":""img/2to1/11.png"",""time"":1099},{""stimulus"":""img/2to1/12.png"",""time"":1197}]","[]"
"image-keyboard-response","178","153670","0.0-5.0-1.87","TESTING","bdp_cybrbll","Fri Mar 24 2023 18:41:07 GMT-0400 (Eastern Daylight Time)","389872","3","1","","null","","","","observe","","img/1to3/1.png","null","138","779","0.5","0.1","1","3","",""
"animation","179","154969","0.0-5.0-2.87","TESTING","bdp_cybrbll","Fri Mar 24 2023 18:41:07 GMT-0400 (Eastern Daylight Time)","389872","3","1","","","","","","","","","","138","","","","1","3","[{""stimulus"":""img/1to3/1.png"",""time"":107},{""stimulus"":""img/1to3/2.png"",""time"":205},{""stimulus"":""img/1to3/3.png"",""time"":299},{""stimulus"":""img/1to3/4.png"",""time"":401},{""stimulus"":""img/1to3/5.png"",""time"":507},{""stimulus"":""img/1to3/6.png"",""time"":600},{""stimulus"":""img/1to3/7.png"",""time"":698},{""stimulus"":""img/1to3/8.png"",""time"":802},{""stimulus"":""img/1to3/9.png"",""time"":899},{""stimulus"":""img/1to3/10.png"",""time"":993},{""stimulus"":""img/1to3/11.png"",""time"":1099},{""stimulus"":""img/1to3/12.png"",""time"":1193}]","[]"
"image-keyboard-response","180","155240","0.0-5.0-1.88","TESTING","bdp_cybrbll","Fri Mar 24 2023 18:41:07 GMT-0400 (Eastern Daylight Time)","389872","3","1","","null","","","","observe","","img/3to2/1.png","null","137","261","0.5","0.1","3","2","",""
"animation","181","156535","0.0-5.0-2.88","TESTING","bdp_cybrbll","Fri Mar 24 2023 18:41:07 GMT-0400 (Eastern Daylight Time)","389872","3","1","","","","","","","","","","137","","","","3","2","[{""stimulus"":""img/3to2/1.png"",""time"":105},{""stimulus"":""img/3to2/2.png"",""time"":207},{""stimulus"":""img/3to2/3.png"",""time"":304},{""stimulus"":""img/3to2/4.png"",""time"":399},{""stimulus"":""img/3to2/5.png"",""time"":503},{""stimulus"":""img/3to2/6.png"",""time"":599},{""stimulus"":""img/3to2/7.png"",""time"":703},{""stimulus"":""img/3to2/8.png"",""time"":800},{""stimulus"":""img/3to2/9.png"",""time"":896},{""stimulus"":""img/3to2/10.png"",""time"":1000},{""stimulus"":""img/3to2/11.png"",""time"":1095},{""stimulus"":""img/3to2/12.png"",""time"":1192}]","[]"
"image-keyboard-response","182","157252","0.0-5.0-1.89","TESTING","bdp_cybrbll","Fri Mar 24 2023 18:41:07 GMT-0400 (Eastern Daylight Time)","389872","3","1","","716","","","","choice","","img/2to1/1.png","1","136","391","0.5","0.1","2","1","",""
"animation","183","158543","0.0-5.0-2.89","TESTING","bdp_cybrbll","Fri Mar 24 2023 18:41:07 GMT-0400 (Eastern Daylight Time)","389872","3","1","","","","","","","","","","136","","","","2","1","[{""stimulus"":""img/2to1/1.png"",""time"":108},{""stimulus"":""img/2to1/2.png"",""time"":204},{""stimulus"":""img/2to1/3.png"",""time"":308},{""stimulus"":""img/2to1/4.png"",""time"":403},{""stimulus"":""img/2to1/5.png"",""time"":499},{""stimulus"":""img/2to1/6.png"",""time"":604},{""stimulus"":""img/2to1/7.png"",""time"":700},{""stimulus"":""img/2to1/8.png"",""time"":797},{""stimulus"":""img/2to1/9.png"",""time"":893},{""stimulus"":""img/2to1/10.png"",""time"":994},{""stimulus"":""img/2to1/11.png"",""time"":1099},{""stimulus"":""img/2to1/12.png"",""time"":1198}]","[]"
"image-keyboard-response","184","158968","0.0-5.0-1.90","TESTING","bdp_cybrbll","Fri Mar 24 2023 18:41:07 GMT-0400 (Eastern Daylight Time)","389872","3","1","","null","","","","observe","","img/1to3/1.png","null","135","416","0.5","0.1","1","3","",""
"animation","185","160266","0.0-5.0-2.90","TESTING","bdp_cybrbll","Fri Mar 24 2023 18:41:07 GMT-0400 (Eastern Daylight Time)","389872","3","1","","","","","","","","","","135","","","","1","3","[{""stimulus"":""img/1to3/1.png"",""time"":104},{""stimulus"":""img/1to3/2.png"",""time"":209},{""stimulus"":""img/1to3/3.png"",""time"":306},{""stimulus"":""img/1to3/4.png"",""time"":402},{""stimulus"":""img/1to3/5.png"",""time"":503},{""stimulus"":""img/1to3/6.png"",""time"":600},{""stimulus"":""img/1to3/7.png"",""time"":706},{""stimulus"":""img/1to3/8.png"",""time"":801},{""stimulus"":""img/1to3/9.png"",""time"":896},{""stimulus"":""img/1to3/10.png"",""time"":1001},{""stimulus"":""img/1to3/11.png"",""time"":1098},{""stimulus"":""img/1to3/12.png"",""time"":1192}]","[]"
"image-keyboard-response","186","160686","0.0-5.0-1.91","TESTING","bdp_cybrbll","Fri Mar 24 2023 18:41:07 GMT-0400 (Eastern Daylight Time)","389872","3","1","","null","","","","observe","","img/3to2/1.png","null","134","411","0.5","0.1","3","1","",""
"animation","187","161985","0.0-5.0-2.91","TESTING","bdp_cybrbll","Fri Mar 24 2023 18:41:07 GMT-0400 (Eastern Daylight Time)","389872","3","1","","","","","","","","","","134","","","","3","1","[{""stimulus"":""img/3to1/1.png"",""time"":108},{""stimulus"":""img/3to1/2.png"",""time"":203},{""stimulus"":""img/3to1/3.png"",""time"":307},{""stimulus"":""img/3to1/4.png"",""time"":405},{""stimulus"":""img/3to1/5.png"",""time"":507},{""stimulus"":""img/3to1/6.png"",""time"":601},{""stimulus"":""img/3to1/7.png"",""time"":699},{""stimulus"":""img/3to1/8.png"",""time"":801},{""stimulus"":""img/3to1/9.png"",""time"":899},{""stimulus"":""img/3to1/10.png"",""time"":996},{""stimulus"":""img/3to1/11.png"",""time"":1099},{""stimulus"":""img/3to1/12.png"",""time"":1194}]","[]"
"image-keyboard-response","188","162273","0.0-5.0-1.92","TESTING","bdp_cybrbll","Fri Mar 24 2023 18:41:07 GMT-0400 (Eastern Daylight Time)","389872","3","1","","null","","","","observe","","img/1to3/1.png","null","133","279","0.5","0.1","1","3","",""
"animation","189","163568","0.0-5.0-2.92","TESTING","bdp_cybrbll","Fri Mar 24 2023 18:41:07 GMT-0400 (Eastern Daylight Time)","389872","3","1","","","","","","","","","","133","","","","1","3","[{""stimulus"":""img/1to3/1.png"",""time"":103},{""stimulus"":""img/1to3/2.png"",""time"":205},{""stimulus"":""img/1to3/3.png"",""time"":303},{""stimulus"":""img/1to3/4.png"",""time"":405},{""stimulus"":""img/1to3/5.png"",""time"":504},{""stimulus"":""img/1to3/6.png"",""time"":598},{""stimulus"":""img/1to3/7.png"",""time"":695},{""stimulus"":""img/1to3/8.png"",""time"":798},{""stimulus"":""img/1to3/9.png"",""time"":894},{""stimulus"":""img/1to3/10.png"",""time"":999},{""stimulus"":""img/1to3/11.png"",""time"":1095},{""stimulus"":""img/1to3/12.png"",""time"":1198}]","[]"
"image-keyboard-response","190","163959","0.0-5.0-1.93","TESTING","bdp_cybrbll","Fri Mar 24 2023 18:41:07 GMT-0400 (Eastern Daylight Time)","389872","3","1","","null","","","","observe","","img/3to2/1.png","null","132","384","0.5","0.1","3","2","",""
"animation","191","165256","0.0-5.0-2.93","TESTING","bdp_cybrbll","Fri Mar 24 2023 18:41:07 GMT-0400 (Eastern Daylight Time)","389872","3","1","","","","","","","","","","132","","","","3","2","[{""stimulus"":""img/3to2/1.png"",""time"":105},{""stimulus"":""img/3to2/2.png"",""time"":208},{""stimulus"":""img/3to2/3.png"",""time"":305},{""stimulus"":""img/3to2/4.png"",""time"":400},{""stimulus"":""img/3to2/5.png"",""time"":503},{""stimulus"":""img/3to2/6.png"",""time"":600},{""stimulus"":""img/3to2/7.png"",""time"":695},{""stimulus"":""img/3to2/8.png"",""time"":800},{""stimulus"":""img/3to2/9.png"",""time"":896},{""stimulus"":""img/3to2/10.png"",""time"":1000},{""stimulus"":""img/3to2/11.png"",""time"":1097},{""stimulus"":""img/3to2/12.png"",""time"":1192}]","[]"
"image-keyboard-response","192","165923","0.0-5.0-1.94","TESTING","bdp_cybrbll","Fri Mar 24 2023 18:41:07 GMT-0400 (Eastern Daylight Time)","389872","3","1","","664","","","","choice","","img/2to1/1.png","2","131","180","0.5","0.1","2","3","",""
"animation","193","167218","0.0-5.0-2.94","TESTING","bdp_cybrbll","Fri Mar 24 2023 18:41:07 GMT-0400 (Eastern Daylight Time)","389872","3","1","","","","","","","","","","131","","","","2","3","[{""stimulus"":""img/2to3/1.png"",""time"":108},{""stimulus"":""img/2to3/2.png"",""time"":204},{""stimulus"":""img/2to3/3.png"",""time"":298},{""stimulus"":""img/2to3/4.png"",""time"":405},{""stimulus"":""img/2to3/5.png"",""time"":498},{""stimulus"":""img/2to3/6.png"",""time"":603},{""stimulus"":""img/2to3/7.png"",""time"":703},{""stimulus"":""img/2to3/8.png"",""time"":795},{""stimulus"":""img/2to3/9.png"",""time"":901},{""stimulus"":""img/2to3/10.png"",""time"":996},{""stimulus"":""img/2to3/11.png"",""time"":1091},{""stimulus"":""img/2to3/12.png"",""time"":1195}]","[]"
"image-keyboard-response","194","168104","0.0-5.0-1.95","TESTING","bdp_cybrbll","Fri Mar 24 2023 18:41:07 GMT-0400 (Eastern Daylight Time)","389872","3","1","","null","","","","observe","","img/3to2/1.png","null","130","878","0.5","0.1","3","2","",""
"animation","195","169401","0.0-5.0-2.95","TESTING","bdp_cybrbll","Fri Mar 24 2023 18:41:07 GMT-0400 (Eastern Daylight Time)","389872","3","1","","","","","","","","","","130","","","","3","2","[{""stimulus"":""img/3to2/1.png"",""time"":106},{""stimulus"":""img/3to2/2.png"",""time"":205},{""stimulus"":""img/3to2/3.png"",""time"":305},{""stimulus"":""img/3to2/4.png"",""time"":398},{""stimulus"":""img/3to2/5.png"",""time"":505},{""stimulus"":""img/3to2/6.png"",""time"":598},{""stimulus"":""img/3to2/7.png"",""time"":705},{""stimulus"":""img/3to2/8.png"",""time"":800},{""stimulus"":""img/3to2/9.png"",""time"":897},{""stimulus"":""img/3to2/10.png"",""time"":1001},{""stimulus"":""img/3to2/11.png"",""time"":1097},{""stimulus"":""img/3to2/12.png"",""time"":1190}]","[]"
"image-keyboard-response","196","169662","0.0-5.0-1.96","TESTING","bdp_cybrbll","Fri Mar 24 2023 18:41:07 GMT-0400 (Eastern Daylight Time)","389872","3","1","","259","","","","choice","","img/2to1/1.png","1","129","650","0.5","0.1","2","1","",""
