"trial_type","trial_index","time_elapsed","internal_node_id","subject_id","task","startTime","totalTime","fairPartner","unfairPartner","view_history","rt","event","trial","time","trialtype","success","stimulus","key_press","throwsLeft","rtDur","pFair","pUnfair","holder","receiver","animation_sequence","responses"
"pavlovia","0","22","0.0-0.0","5c4e31b37065de00011f795d","bdp_cybrbll","Sun Apr 02 2023 10:57:26 GMT-0600 (Mountain Daylight Time)","451677","1","3","","","","","","","","","","","","","","","","",""
"instructions","1","3908","0.0-1.0","5c4e31b37065de00011f795d","bdp_cybrbll","Sun Apr 02 2023 10:57:26 GMT-0600 (Mountain Daylight Time)","451677","1","3","[{""page_index"":0,""viewing_time"":3875}]","3884","","","","","","","","","","","","","","",""
"","","","","5c4e31b37065de00011f795d","bdp_cybrbll","Sun Apr 02 2023 10:57:26 GMT-0600 (Mountain Daylight Time)","451677","1","3","","","fullscreenenter","2","8712","fullscreenenter","","","","","","","","","","",""
"fullscreen","2","9687","0.0-2.0","5c4e31b37065de00011f795d","bdp_cybrbll","Sun Apr 02 2023 10:57:26 GMT-0600 (Mountain Daylight Time)","451677","1","3","","","","","","","true","","","","","","","","","",""
"instructions","3","40555","0.0-4.0","5c4e31b37065de00011f795d","bdp_cybrbll","Sun Apr 02 2023 10:57:26 GMT-0600 (Mountain Daylight Time)","451677","1","3","[{""page_index"":0,""viewing_time"":30859}]","30860","","","","","","","","","","","","","","",""
"image-keyboard-response","4","42238","0.0-5.0-1.0","5c4e31b37065de00011f795d","bdp_cybrbll","Sun Apr 02 2023 10:57:26 GMT-0600 (Mountain Daylight Time)","451677","1","3","","1673","","","","choice","","img/2to1/1.png","2","225","691","0.5","0.5","2","3","",""
"animation","5","43527","0.0-5.0-2.0","5c4e31b37065de00011f795d","bdp_cybrbll","Sun Apr 02 2023 10:57:26 GMT-0600 (Mountain Daylight Time)","451677","1","3","","","","","","","","","","225","","","","2","3","[{""stimulus"":""img/2to3/1.png"",""time"":103},{""stimulus"":""img/2to3/2.png"",""time"":199},{""stimulus"":""img/2to3/3.png"",""time"":299},{""stimulus"":""img/2to3/4.png"",""time"":398},{""stimulus"":""img/2to3/5.png"",""time"":496},{""stimulus"":""img/2to3/6.png"",""time"":596},{""stimulus"":""img/2to3/7.png"",""time"":695},{""stimulus"":""img/2to3/8.png"",""time"":794},{""stimulus"":""img/2to3/9.png"",""time"":892},{""stimulus"":""img/2to3/10.png"",""time"":992},{""stimulus"":""img/2to3/11.png"",""time"":1091},{""stimulus"":""img/2to3/12.png"",""time"":1191}]","[]"
"image-keyboard-response","6","44222","0.0-5.0-1.1","5c4e31b37065de00011f795d","bdp_cybrbll","Sun Apr 02 2023 10:57:26 GMT-0600 (Mountain Daylight Time)","451677","1","3","","null","","","","observe","","img/3to2/1.png","null","224","689","0.5","0.5","3","1","",""
"animation","7","45511","0.0-5.0-2.1","5c4e31b37065de00011f795d","bdp_cybrbll","Sun Apr 02 2023 10:57:26 GMT-0600 (Mountain Daylight Time)","451677","1","3","","","","","","","","","","224","","","","3","1","[{""stimulus"":""img/3to1/1.png"",""time"":102},{""stimulus"":""img/3to1/2.png"",""time"":200},{""stimulus"":""img/3to1/3.png"",""time"":299},{""stimulus"":""img/3to1/4.png"",""time"":398},{""stimulus"":""img/3to1/5.png"",""time"":497},{""stimulus"":""img/3to1/6.png"",""time"":597},{""stimulus"":""img/3to1/7.png"",""time"":695},{""stimulus"":""img/3to1/8.png"",""time"":794},{""stimulus"":""img/3to1/9.png"",""time"":894},{""stimulus"":""img/3to1/10.png"",""time"":993},{""stimulus"":""img/3to1/11.png"",""time"":1090},{""stimulus"":""img/3to1/12.png"",""time"":1190}]","[]"
"image-keyboard-response","8","46364","0.0-5.0-1.2","5c4e31b37065de00011f795d","bdp_cybrbll","Sun Apr 02 2023 10:57:26 GMT-0600 (Mountain Daylight Time)","451677","1","3","","null","","","","observe","","img/1to3/1.png","null","223","850","0.5","0.5","1","2","",""
"animation","9","47653","0.0-5.0-2.2","5c4e31b37065de00011f795d","bdp_cybrbll","Sun Apr 02 2023 10:57:26 GMT-0600 (Mountain Daylight Time)","451677","1","3","","","","","","","","","","223","","","","1","2","[{""stimulus"":""img/1to2/1.png"",""time"":101},{""stimulus"":""img/1to2/2.png"",""time"":200},{""stimulus"":""img/1to2/3.png"",""time"":298},{""stimulus"":""img/1to2/4.png"",""time"":397},{""stimulus"":""img/1to2/5.png"",""time"":496},{""stimulus"":""img/1to2/6.png"",""time"":595},{""stimulus"":""img/1to2/7.png"",""time"":694},{""stimulus"":""img/1to2/8.png"",""time"":794},{""stimulus"":""img/1to2/9.png"",""time"":893},{""stimulus"":""img/1to2/10.png"",""time"":992},{""stimulus"":""img/1to2/11.png"",""time"":1091},{""stimulus"":""img/1to2/12.png"",""time"":1192}]","[]"
"image-keyboard-response","10","48145","0.0-5.0-1.3","5c4e31b37065de00011f795d","bdp_cybrbll","Sun Apr 02 2023 10:57:26 GMT-0600 (Mountain Daylight Time)","451677","1","3","","484","","","","choice","","img/2to1/1.png","1","222","354","0.5","0.5","2","1","",""
"animation","11","49434","0.0-5.0-2.3","5c4e31b37065de00011f795d","bdp_cybrbll","Sun Apr 02 2023 10:57:26 GMT-0600 (Mountain Daylight Time)","451677","1","3","","","","","","","","","","222","","","","2","1","[{""stimulus"":""img/2to1/1.png"",""time"":102},{""stimulus"":""img/2to1/2.png"",""time"":201},{""stimulus"":""img/2to1/3.png"",""time"":299},{""stimulus"":""img/2to1/4.png"",""time"":399},{""stimulus"":""img/2to1/5.png"",""time"":497},{""stimulus"":""img/2to1/6.png"",""time"":596},{""stimulus"":""img/2to1/7.png"",""time"":696},{""stimulus"":""img/2to1/8.png"",""time"":793},{""stimulus"":""img/2to1/9.png"",""time"":893},{""stimulus"":""img/2to1/10.png"",""time"":992},{""stimulus"":""img/2to1/11.png"",""time"":1092},{""stimulus"":""img/2to1/12.png"",""time"":1190}]","[]"
"image-keyboard-response","12","49930","0.0-5.0-1.4","5c4e31b37065de00011f795d","bdp_cybrbll","Sun Apr 02 2023 10:57:26 GMT-0600 (Mountain Daylight Time)","451677","1","3","","null","","","","observe","","img/1to3/1.png","null","221","492","0.5","0.5","1","2","",""
"animation","13","51219","0.0-5.0-2.4","5c4e31b37065de00011f795d","bdp_cybrbll","Sun Apr 02 2023 10:57:26 GMT-0600 (Mountain Daylight Time)","451677","1","3","","","","","","","","","","221","","","","1","2","[{""stimulus"":""img/1to2/1.png"",""time"":103},{""stimulus"":""img/1to2/2.png"",""time"":201},{""stimulus"":""img/1to2/3.png"",""time"":298},{""stimulus"":""img/1to2/4.png"",""time"":397},{""stimulus"":""img/1to2/5.png"",""time"":497},{""stimulus"":""img/1to2/6.png"",""time"":595},{""stimulus"":""img/1to2/7.png"",""time"":694},{""stimulus"":""img/1to2/8.png"",""time"":796},{""stimulus"":""img/1to2/9.png"",""time"":894},{""stimulus"":""img/1to2/10.png"",""time"":993},{""stimulus"":""img/1to2/11.png"",""time"":1090},{""stimulus"":""img/1to2/12.png"",""time"":1190}]","[]"
"image-keyboard-response","14","51610","0.0-5.0-1.5","5c4e31b37065de00011f795d","bdp_cybrbll","Sun Apr 02 2023 10:57:26 GMT-0600 (Mountain Daylight Time)","451677","1","3","","386","","","","choice","","img/2to1/1.png","2","220","693","0.5","0.5","2","3","",""
"animation","15","52898","0.0-5.0-2.5","5c4e31b37065de00011f795d","bdp_cybrbll","Sun Apr 02 2023 10:57:26 GMT-0600 (Mountain Daylight Time)","451677","1","3","","","","","","","","","","220","","","","2","3","[{""stimulus"":""img/2to3/1.png"",""time"":103},{""stimulus"":""img/2to3/2.png"",""time"":201},{""stimulus"":""img/2to3/3.png"",""time"":301},{""stimulus"":""img/2to3/4.png"",""time"":398},{""stimulus"":""img/2to3/5.png"",""time"":498},{""stimulus"":""img/2to3/6.png"",""time"":598},{""stimulus"":""img/2to3/7.png"",""time"":697},{""stimulus"":""img/2to3/8.png"",""time"":793},{""stimulus"":""img/2to3/9.png"",""time"":894},{""stimulus"":""img/2to3/10.png"",""time"":991},{""stimulus"":""img/2to3/11.png"",""time"":1091},{""stimulus"":""img/2to3/12.png"",""time"":1191}]","[]"
"image-keyboard-response","16","53635","0.0-5.0-1.6","5c4e31b37065de00011f795d","bdp_cybrbll","Sun Apr 02 2023 10:57:26 GMT-0600 (Mountain Daylight Time)","451677","1","3","","null","","","","observe","","img/3to2/1.png","null","219","731","0.5","0.5","3","1","",""
"animation","17","54924","0.0-5.0-2.6","5c4e31b37065de00011f795d","bdp_cybrbll","Sun Apr 02 2023 10:57:26 GMT-0600 (Mountain Daylight Time)","451677","1","3","","","","","","","","","","219","","","","3","1","[{""stimulus"":""img/3to1/1.png"",""time"":103},{""stimulus"":""img/3to1/2.png"",""time"":201},{""stimulus"":""img/3to1/3.png"",""time"":301},{""stimulus"":""img/3to1/4.png"",""time"":400},{""stimulus"":""img/3to1/5.png"",""time"":498},{""stimulus"":""img/3to1/6.png"",""time"":595},{""stimulus"":""img/3to1/7.png"",""time"":696},{""stimulus"":""img/3to1/8.png"",""time"":793},{""stimulus"":""img/3to1/9.png"",""time"":895},{""stimulus"":""img/3to1/10.png"",""time"":995},{""stimulus"":""img/3to1/11.png"",""time"":1092},{""stimulus"":""img/3to1/12.png"",""time"":1191}]","[]"
"image-keyboard-response","18","55234","0.0-5.0-1.7","5c4e31b37065de00011f795d","bdp_cybrbll","Sun Apr 02 2023 10:57:26 GMT-0600 (Mountain Daylight Time)","451677","1","3","","null","","","","observe","","img/1to3/1.png","null","218","303","0.5","0.5","1","2","",""
"animation","19","56522","0.0-5.0-2.7","5c4e31b37065de00011f795d","bdp_cybrbll","Sun Apr 02 2023 10:57:26 GMT-0600 (Mountain Daylight Time)","451677","1","3","","","","","","","","","","218","","","","1","2","[{""stimulus"":""img/1to2/1.png"",""time"":103},{""stimulus"":""img/1to2/2.png"",""time"":201},{""stimulus"":""img/1to2/3.png"",""time"":298},{""stimulus"":""img/1to2/4.png"",""time"":398},{""stimulus"":""img/1to2/5.png"",""time"":498},{""stimulus"":""img/1to2/6.png"",""time"":597},{""stimulus"":""img/1to2/7.png"",""time"":695},{""stimulus"":""img/1to2/8.png"",""time"":794},{""stimulus"":""img/1to2/9.png"",""time"":892},{""stimulus"":""img/1to2/10.png"",""time"":991},{""stimulus"":""img/1to2/11.png"",""time"":1090},{""stimulus"":""img/1to2/12.png"",""time"":1189}]","[]"
"image-keyboard-response","20","56984","0.0-5.0-1.8","5c4e31b37065de00011f795d","bdp_cybrbll","Sun Apr 02 2023 10:57:26 GMT-0600 (Mountain Daylight Time)","451677","1","3","","456","","","","choice","","img/2to1/1.png","2","217","293","0.5","0.5","2","3","",""
"animation","21","58274","0.0-5.0-2.8","5c4e31b37065de00011f795d","bdp_cybrbll","Sun Apr 02 2023 10:57:26 GMT-0600 (Mountain Daylight Time)","451677","1","3","","","","","","","","","","217","","","","2","3","[{""stimulus"":""img/2to3/1.png"",""time"":102},{""stimulus"":""img/2to3/2.png"",""time"":201},{""stimulus"":""img/2to3/3.png"",""time"":298},{""stimulus"":""img/2to3/4.png"",""time"":397},{""stimulus"":""img/2to3/5.png"",""time"":496},{""stimulus"":""img/2to3/6.png"",""time"":595},{""stimulus"":""img/2to3/7.png"",""time"":694},{""stimulus"":""img/2to3/8.png"",""time"":793},{""stimulus"":""img/2to3/9.png"",""time"":893},{""stimulus"":""img/2to3/10.png"",""time"":992},{""stimulus"":""img/2to3/11.png"",""time"":1090},{""stimulus"":""img/2to3/12.png"",""time"":1189}]","[]"
"image-keyboard-response","22","59219","0.0-5.0-1.9","5c4e31b37065de00011f795d","bdp_cybrbll","Sun Apr 02 2023 10:57:26 GMT-0600 (Mountain Daylight Time)","451677","1","3","","null","","","","observe","","img/3to2/1.png","null","216","943","0.5","0.5","3","1","",""
"animation","23","60508","0.0-5.0-2.9","5c4e31b37065de00011f795d","bdp_cybrbll","Sun Apr 02 2023 10:57:26 GMT-0600 (Mountain Daylight Time)","451677","1","3","","","","","","","","","","216","","","","3","1","[{""stimulus"":""img/3to1/1.png"",""time"":102},{""stimulus"":""img/3to1/2.png"",""time"":200},{""stimulus"":""img/3to1/3.png"",""time"":299},{""stimulus"":""img/3to1/4.png"",""time"":398},{""stimulus"":""img/3to1/5.png"",""time"":497},{""stimulus"":""img/3to1/6.png"",""time"":596},{""stimulus"":""img/3to1/7.png"",""time"":696},{""stimulus"":""img/3to1/8.png"",""time"":797},{""stimulus"":""img/3to1/9.png"",""time"":893},{""stimulus"":""img/3to1/10.png"",""time"":994},{""stimulus"":""img/3to1/11.png"",""time"":1090},{""stimulus"":""img/3to1/12.png"",""time"":1190}]","[]"
"image-keyboard-response","24","60875","0.0-5.0-1.10","5c4e31b37065de00011f795d","bdp_cybrbll","Sun Apr 02 2023 10:57:26 GMT-0600 (Mountain Daylight Time)","451677","1","3","","null","","","","observe","","img/1to3/1.png","null","215","363","0.5","0.5","1","3","",""
"animation","25","62163","0.0-5.0-2.10","5c4e31b37065de00011f795d","bdp_cybrbll","Sun Apr 02 2023 10:57:26 GMT-0600 (Mountain Daylight Time)","451677","1","3","","","","","","","","","","215","","","","1","3","[{""stimulus"":""img/1to3/1.png"",""time"":102},{""stimulus"":""img/1to3/2.png"",""time"":200},{""stimulus"":""img/1to3/3.png"",""time"":299},{""stimulus"":""img/1to3/4.png"",""time"":397},{""stimulus"":""img/1to3/5.png"",""time"":497},{""stimulus"":""img/1to3/6.png"",""time"":595},{""stimulus"":""img/1to3/7.png"",""time"":694},{""stimulus"":""img/1to3/8.png"",""time"":794},{""stimulus"":""img/1to3/9.png"",""time"":892},{""stimulus"":""img/1to3/10.png"",""time"":991},{""stimulus"":""img/1to3/11.png"",""time"":1090},{""stimulus"":""img/1to3/12.png"",""time"":1189}]","[]"
"image-keyboard-response","26","62537","0.0-5.0-1.11","5c4e31b37065de00011f795d","bdp_cybrbll","Sun Apr 02 2023 10:57:26 GMT-0600 (Mountain Daylight Time)","451677","1","3","","null","","","","observe","","img/3to2/1.png","null","214","372","0.5","0.5","3","2","",""
"animation","27","63825","0.0-5.0-2.11","5c4e31b37065de00011f795d","bdp_cybrbll","Sun Apr 02 2023 10:57:26 GMT-0600 (Mountain Daylight Time)","451677","1","3","","","","","","","","","","214","","","","3","2","[{""stimulus"":""img/3to2/1.png"",""time"":100},{""stimulus"":""img/3to2/2.png"",""time"":200},{""stimulus"":""img/3to2/3.png"",""time"":299},{""stimulus"":""img/3to2/4.png"",""time"":398},{""stimulus"":""img/3to2/5.png"",""time"":497},{""stimulus"":""img/3to2/6.png"",""time"":596},{""stimulus"":""img/3to2/7.png"",""time"":695},{""stimulus"":""img/3to2/8.png"",""time"":794},{""stimulus"":""img/3to2/9.png"",""time"":893},{""stimulus"":""img/3to2/10.png"",""time"":992},{""stimulus"":""img/3to2/11.png"",""time"":1092},{""stimulus"":""img/3to2/12.png"",""time"":1190}]","[]"
"image-keyboard-response","28","64369","0.0-5.0-1.12","5c4e31b37065de00011f795d","bdp_cybrbll","Sun Apr 02 2023 10:57:26 GMT-0600 (Mountain Daylight Time)","451677","1","3","","540","","","","choice","","img/2to1/1.png","1","213","261","0.5","0.5","2","1","",""
"animation","29","65658","0.0-5.0-2.12","5c4e31b37065de00011f795d","bdp_cybrbll","Sun Apr 02 2023 10:57:26 GMT-0600 (Mountain Daylight Time)","451677","1","3","","","","","","","","","","213","","","","2","1","[{""stimulus"":""img/2to1/1.png"",""time"":100},{""stimulus"":""img/2to1/2.png"",""time"":199},{""stimulus"":""img/2to1/3.png"",""time"":298},{""stimulus"":""img/2to1/4.png"",""time"":397},{""stimulus"":""img/2to1/5.png"",""time"":496},{""stimulus"":""img/2to1/6.png"",""time"":595},{""stimulus"":""img/2to1/7.png"",""time"":694},{""stimulus"":""img/2to1/8.png"",""time"":793},{""stimulus"":""img/2to1/9.png"",""time"":892},{""stimulus"":""img/2to1/10.png"",""time"":991},{""stimulus"":""img/2to1/11.png"",""time"":1090},{""stimulus"":""img/2to1/12.png"",""time"":1190}]","[]"
"image-keyboard-response","30","66343","0.0-5.0-1.13","5c4e31b37065de00011f795d","bdp_cybrbll","Sun Apr 02 2023 10:57:26 GMT-0600 (Mountain Daylight Time)","451677","1","3","","null","","","","observe","","img/1to3/1.png","null","212","680","0.5","0.5","1","2","",""
"animation","31","67632","0.0-5.0-2.13","5c4e31b37065de00011f795d","bdp_cybrbll","Sun Apr 02 2023 10:57:26 GMT-0600 (Mountain Daylight Time)","451677","1","3","","","","","","","","","","212","","","","1","2","[{""stimulus"":""img/1to2/1.png"",""time"":103},{""stimulus"":""img/1to2/2.png"",""time"":201},{""stimulus"":""img/1to2/3.png"",""time"":299},{""stimulus"":""img/1to2/4.png"",""time"":398},{""stimulus"":""img/1to2/5.png"",""time"":497},{""stimulus"":""img/1to2/6.png"",""time"":596},{""stimulus"":""img/1to2/7.png"",""time"":695},{""stimulus"":""img/1to2/8.png"",""time"":794},{""stimulus"":""img/1to2/9.png"",""time"":893},{""stimulus"":""img/1to2/10.png"",""time"":993},{""stimulus"":""img/1to2/11.png"",""time"":1092},{""stimulus"":""img/1to2/12.png"",""time"":1190}]","[]"
"image-keyboard-response","32","68081","0.0-5.0-1.14","5c4e31b37065de00011f795d","bdp_cybrbll","Sun Apr 02 2023 10:57:26 GMT-0600 (Mountain Daylight Time)","451677","1","3","","446","","","","choice","","img/2to1/1.png","2","211","627","0.5","0.5","2","3","",""
"animation","33","69369","0.0-5.0-2.14","5c4e31b37065de00011f795d","bdp_cybrbll","Sun Apr 02 2023 10:57:26 GMT-0600 (Mountain Daylight Time)","451677","1","3","","","","","","","","","","211","","","","2","3","[{""stimulus"":""img/2to3/1.png"",""time"":101},{""stimulus"":""img/2to3/2.png"",""time"":199},{""stimulus"":""img/2to3/3.png"",""time"":299},{""stimulus"":""img/2to3/4.png"",""time"":397},{""stimulus"":""img/2to3/5.png"",""time"":496},{""stimulus"":""img/2to3/6.png"",""time"":595},{""stimulus"":""img/2to3/7.png"",""time"":694},{""stimulus"":""img/2to3/8.png"",""time"":793},{""stimulus"":""img/2to3/9.png"",""time"":892},{""stimulus"":""img/2to3/10.png"",""time"":991},{""stimulus"":""img/2to3/11.png"",""time"":1090},{""stimulus"":""img/2to3/12.png"",""time"":1189}]","[]"
"image-keyboard-response","34","69819","0.0-5.0-1.15","5c4e31b37065de00011f795d","bdp_cybrbll","Sun Apr 02 2023 10:57:26 GMT-0600 (Mountain Daylight Time)","451677","1","3","","null","","","","observe","","img/3to2/1.png","null","210","448","0.5","0.5","3","2","",""
"animation","35","71109","0.0-5.0-2.15","5c4e31b37065de00011f795d","bdp_cybrbll","Sun Apr 02 2023 10:57:26 GMT-0600 (Mountain Daylight Time)","451677","1","3","","","","","","","","","","210","","","","3","2","[{""stimulus"":""img/3to2/1.png"",""time"":103},{""stimulus"":""img/3to2/2.png"",""time"":200},{""stimulus"":""img/3to2/3.png"",""time"":300},{""stimulus"":""img/3to2/4.png"",""time"":399},{""stimulus"":""img/3to2/5.png"",""time"":496},{""stimulus"":""img/3to2/6.png"",""time"":595},{""stimulus"":""img/3to2/7.png"",""time"":694},{""stimulus"":""img/3to2/8.png"",""time"":794},{""stimulus"":""img/3to2/9.png"",""time"":894},{""stimulus"":""img/3to2/10.png"",""time"":994},{""stimulus"":""img/3to2/11.png"",""time"":1091},{""stimulus"":""img/3to2/12.png"",""time"":1190}]","[]"
"image-keyboard-response","36","71300","0.0-5.0-1.16","5c4e31b37065de00011f795d","bdp_cybrbll","Sun Apr 02 2023 10:57:26 GMT-0600 (Mountain Daylight Time)","451677","1","3","","185","","","","choice","","img/2to1/1.png","1","209","747","0.5","0.5","2","1","",""
"animation","37","72590","0.0-5.0-2.16","5c4e31b37065de00011f795d","bdp_cybrbll","Sun Apr 02 2023 10:57:26 GMT-0600 (Mountain Daylight Time)","451677","1","3","","","","","","","","","","209","","","","2","1","[{""stimulus"":""img/2to1/1.png"",""time"":101},{""stimulus"":""img/2to1/2.png"",""time"":200},{""stimulus"":""img/2to1/3.png"",""time"":299},{""stimulus"":""img/2to1/4.png"",""time"":398},{""stimulus"":""img/2to1/5.png"",""time"":496},{""stimulus"":""img/2to1/6.png"",""time"":596},{""stimulus"":""img/2to1/7.png"",""time"":695},{""stimulus"":""img/2to1/8.png"",""time"":794},{""stimulus"":""img/2to1/9.png"",""time"":893},{""stimulus"":""img/2to1/10.png"",""time"":991},{""stimulus"":""img/2to1/11.png"",""time"":1090},{""stimulus"":""img/2to1/12.png"",""time"":1190}]","[]"
"image-keyboard-response","38","72815","0.0-5.0-1.17","5c4e31b37065de00011f795d","bdp_cybrbll","Sun Apr 02 2023 10:57:26 GMT-0600 (Mountain Daylight Time)","451677","1","3","","null","","","","observe","","img/1to3/1.png","null","208","222","0.5","0.5","1","2","",""
"animation","39","74103","0.0-5.0-2.17","5c4e31b37065de00011f795d","bdp_cybrbll","Sun Apr 02 2023 10:57:26 GMT-0600 (Mountain Daylight Time)","451677","1","3","","","","","","","","","","208","","","","1","2","[{""stimulus"":""img/1to2/1.png"",""time"":103},{""stimulus"":""img/1to2/2.png"",""time"":201},{""stimulus"":""img/1to2/3.png"",""time"":300},{""stimulus"":""img/1to2/4.png"",""time"":399},{""stimulus"":""img/1to2/5.png"",""time"":496},{""stimulus"":""img/1to2/6.png"",""time"":596},{""stimulus"":""img/1to2/7.png"",""time"":694},{""stimulus"":""img/1to2/8.png"",""time"":794},{""stimulus"":""img/1to2/9.png"",""time"":893},{""stimulus"":""img/1to2/10.png"",""time"":991},{""stimulus"":""img/1to2/11.png"",""time"":1091},{""stimulus"":""img/1to2/12.png"",""time"":1189}]","[]"
"image-keyboard-response","40","74138","0.0-5.0-1.18","5c4e31b37065de00011f795d","bdp_cybrbll","Sun Apr 02 2023 10:57:26 GMT-0600 (Mountain Daylight Time)","451677","1","3","","31","","","","choice","","img/2to1/1.png","2","207","536","0.5","0.5","2","3","",""
"animation","41","75428","0.0-5.0-2.18","5c4e31b37065de00011f795d","bdp_cybrbll","Sun Apr 02 2023 10:57:26 GMT-0600 (Mountain Daylight Time)","451677","1","3","","","","","","","","","","207","","","","2","3","[{""stimulus"":""img/2to3/1.png"",""time"":102},{""stimulus"":""img/2to3/2.png"",""time"":201},{""stimulus"":""img/2to3/3.png"",""time"":300},{""stimulus"":""img/2to3/4.png"",""time"":399},{""stimulus"":""img/2to3/5.png"",""time"":498},{""stimulus"":""img/2to3/6.png"",""time"":597},{""stimulus"":""img/2to3/7.png"",""time"":694},{""stimulus"":""img/2to3/8.png"",""time"":795},{""stimulus"":""img/2to3/9.png"",""time"":893},{""stimulus"":""img/2to3/10.png"",""time"":993},{""stimulus"":""img/2to3/11.png"",""time"":1090},{""stimulus"":""img/2to3/12.png"",""time"":1189}]","[]"
"image-keyboard-response","42","75627","0.0-5.0-1.19","5c4e31b37065de00011f795d","bdp_cybrbll","Sun Apr 02 2023 10:57:26 GMT-0600 (Mountain Daylight Time)","451677","1","3","","null","","","","observe","","img/3to2/1.png","null","206","194","0.5","0.5","3","2","",""
"animation","43","76916","0.0-5.0-2.19","5c4e31b37065de00011f795d","bdp_cybrbll","Sun Apr 02 2023 10:57:26 GMT-0600 (Mountain Daylight Time)","451677","1","3","","","","","","","","","","206","","","","3","2","[{""stimulus"":""img/3to2/1.png"",""time"":103},{""stimulus"":""img/3to2/2.png"",""time"":201},{""stimulus"":""img/3to2/3.png"",""time"":299},{""stimulus"":""img/3to2/4.png"",""time"":399},{""stimulus"":""img/3to2/5.png"",""time"":498},{""stimulus"":""img/3to2/6.png"",""time"":595},{""stimulus"":""img/3to2/7.png"",""time"":696},{""stimulus"":""img/3to2/8.png"",""time"":793},{""stimulus"":""img/3to2/9.png"",""time"":894},{""stimulus"":""img/3to2/10.png"",""time"":991},{""stimulus"":""img/3to2/11.png"",""time"":1091},{""stimulus"":""img/3to2/12.png"",""time"":1189}]","[]"
"image-keyboard-response","44","77153","0.0-5.0-1.20","5c4e31b37065de00011f795d","bdp_cybrbll","Sun Apr 02 2023 10:57:26 GMT-0600 (Mountain Daylight Time)","451677","1","3","","234","","","","choice","","img/2to1/1.png","1","205","258","0.5","0.5","2","1","",""
"animation","45","78441","0.0-5.0-2.20","5c4e31b37065de00011f795d","bdp_cybrbll","Sun Apr 02 2023 10:57:26 GMT-0600 (Mountain Daylight Time)","451677","1","3","","","","","","","","","","205","","","","2","1","[{""stimulus"":""img/2to1/1.png"",""time"":109},{""stimulus"":""img/2to1/2.png"",""time"":209},{""stimulus"":""img/2to1/3.png"",""time"":298},{""stimulus"":""img/2to1/4.png"",""time"":399},{""stimulus"":""img/2to1/5.png"",""time"":498},{""stimulus"":""img/2to1/6.png"",""time"":596},{""stimulus"":""img/2to1/7.png"",""time"":694},{""stimulus"":""img/2to1/8.png"",""time"":793},{""stimulus"":""img/2to1/9.png"",""time"":893},{""stimulus"":""img/2to1/10.png"",""time"":992},{""stimulus"":""img/2to1/11.png"",""time"":1090},{""stimulus"":""img/2to1/12.png"",""time"":1191}]","[]"
"image-keyboard-response","46","78807","0.0-5.0-1.21","5c4e31b37065de00011f795d","bdp_cybrbll","Sun Apr 02 2023 10:57:26 GMT-0600 (Mountain Daylight Time)","451677","1","3","","null","","","","observe","","img/1to3/1.png","null","204","356","0.5","0.5","1","2","",""
"animation","47","80096","0.0-5.0-2.21","5c4e31b37065de00011f795d","bdp_cybrbll","Sun Apr 02 2023 10:57:26 GMT-0600 (Mountain Daylight Time)","451677","1","3","","","","","","","","","","204","","","","1","2","[{""stimulus"":""img/1to2/1.png"",""time"":102},{""stimulus"":""img/1to2/2.png"",""time"":203},{""stimulus"":""img/1to2/3.png"",""time"":301},{""stimulus"":""img/1to2/4.png"",""time"":399},{""stimulus"":""img/1to2/5.png"",""time"":497},{""stimulus"":""img/1to2/6.png"",""time"":596},{""stimulus"":""img/1to2/7.png"",""time"":695},{""stimulus"":""img/1to2/8.png"",""time"":794},{""stimulus"":""img/1to2/9.png"",""time"":893},{""stimulus"":""img/1to2/10.png"",""time"":993},{""stimulus"":""img/1to2/11.png"",""time"":1091},{""stimulus"":""img/1to2/12.png"",""time"":1191}]","[]"
"image-keyboard-response","48","80464","0.0-5.0-1.22","5c4e31b37065de00011f795d","bdp_cybrbll","Sun Apr 02 2023 10:57:26 GMT-0600 (Mountain Daylight Time)","451677","1","3","","362","","","","choice","","img/2to1/1.png","2","203","415","0.5","0.5","2","3","",""
"animation","49","81752","0.0-5.0-2.22","5c4e31b37065de00011f795d","bdp_cybrbll","Sun Apr 02 2023 10:57:26 GMT-0600 (Mountain Daylight Time)","451677","1","3","","","","","","","","","","203","","","","2","3","[{""stimulus"":""img/2to3/1.png"",""time"":104},{""stimulus"":""img/2to3/2.png"",""time"":200},{""stimulus"":""img/2to3/3.png"",""time"":299},{""stimulus"":""img/2to3/4.png"",""time"":402},{""stimulus"":""img/2to3/5.png"",""time"":496},{""stimulus"":""img/2to3/6.png"",""time"":595},{""stimulus"":""img/2to3/7.png"",""time"":698},{""stimulus"":""img/2to3/8.png"",""time"":800},{""stimulus"":""img/2to3/9.png"",""time"":900},{""stimulus"":""img/2to3/10.png"",""time"":999},{""stimulus"":""img/2to3/11.png"",""time"":1099},{""stimulus"":""img/2to3/12.png"",""time"":1197}]","[]"
"image-keyboard-response","50","82231","0.0-5.0-1.23","5c4e31b37065de00011f795d","bdp_cybrbll","Sun Apr 02 2023 10:57:26 GMT-0600 (Mountain Daylight Time)","451677","1","3","","null","","","","observe","","img/3to2/1.png","null","202","468","0.5","0.5","3","2","",""
"animation","51","83519","0.0-5.0-2.23","5c4e31b37065de00011f795d","bdp_cybrbll","Sun Apr 02 2023 10:57:26 GMT-0600 (Mountain Daylight Time)","451677","1","3","","","","","","","","","","202","","","","3","2","[{""stimulus"":""img/3to2/1.png"",""time"":104},{""stimulus"":""img/3to2/2.png"",""time"":199},{""stimulus"":""img/3to2/3.png"",""time"":300},{""stimulus"":""img/3to2/4.png"",""time"":397},{""stimulus"":""img/3to2/5.png"",""time"":498},{""stimulus"":""img/3to2/6.png"",""time"":596},{""stimulus"":""img/3to2/7.png"",""time"":696},{""stimulus"":""img/3to2/8.png"",""time"":795},{""stimulus"":""img/3to2/9.png"",""time"":894},{""stimulus"":""img/3to2/10.png"",""time"":991},{""stimulus"":""img/3to2/11.png"",""time"":1091},{""stimulus"":""img/3to2/12.png"",""time"":1189}]","[]"
"image-keyboard-response","52","83919","0.0-5.0-1.24","5c4e31b37065de00011f795d","bdp_cybrbll","Sun Apr 02 2023 10:57:26 GMT-0600 (Mountain Daylight Time)","451677","1","3","","395","","","","choice","","img/2to1/1.png","1","201","953","0.5","0.5","2","1","",""
"animation","53","85208","0.0-5.0-2.24","5c4e31b37065de00011f795d","bdp_cybrbll","Sun Apr 02 2023 10:57:26 GMT-0600 (Mountain Daylight Time)","451677","1","3","","","","","","","","","","201","","","","2","1","[{""stimulus"":""img/2to1/1.png"",""time"":102},{""stimulus"":""img/2to1/2.png"",""time"":201},{""stimulus"":""img/2to1/3.png"",""time"":301},{""stimulus"":""img/2to1/4.png"",""time"":398},{""stimulus"":""img/2to1/5.png"",""time"":497},{""stimulus"":""img/2to1/6.png"",""time"":597},{""stimulus"":""img/2to1/7.png"",""time"":698},{""stimulus"":""img/2to1/8.png"",""time"":795},{""stimulus"":""img/2to1/9.png"",""time"":897},{""stimulus"":""img/2to1/10.png"",""time"":993},{""stimulus"":""img/2to1/11.png"",""time"":1093},{""stimulus"":""img/2to1/12.png"",""time"":1190}]","[]"
"image-keyboard-response","54","85781","0.0-5.0-1.25","5c4e31b37065de00011f795d","bdp_cybrbll","Sun Apr 02 2023 10:57:26 GMT-0600 (Mountain Daylight Time)","451677","1","3","","null","","","","observe","","img/1to3/1.png","null","200","569","0.5","0.5","1","3","",""
"animation","55","87069","0.0-5.0-2.25","5c4e31b37065de00011f795d","bdp_cybrbll","Sun Apr 02 2023 10:57:26 GMT-0600 (Mountain Daylight Time)","451677","1","3","","","","","","","","","","200","","","","1","3","[{""stimulus"":""img/1to3/1.png"",""time"":101},{""stimulus"":""img/1to3/2.png"",""time"":199},{""stimulus"":""img/1to3/3.png"",""time"":298},{""stimulus"":""img/1to3/4.png"",""time"":397},{""stimulus"":""img/1to3/5.png"",""time"":496},{""stimulus"":""img/1to3/6.png"",""time"":595},{""stimulus"":""img/1to3/7.png"",""time"":694},{""stimulus"":""img/1to3/8.png"",""time"":793},{""stimulus"":""img/1to3/9.png"",""time"":892},{""stimulus"":""img/1to3/10.png"",""time"":991},{""stimulus"":""img/1to3/11.png"",""time"":1090},{""stimulus"":""img/1to3/12.png"",""time"":1189}]","[]"
"image-keyboard-response","56","87807","0.0-5.0-1.26","5c4e31b37065de00011f795d","bdp_cybrbll","Sun Apr 02 2023 10:57:26 GMT-0600 (Mountain Daylight Time)","451677","1","3","","null","","","","observe","","img/3to2/1.png","null","199","736","0.5","0.5","3","1","",""
"animation","57","89097","0.0-5.0-2.26","5c4e31b37065de00011f795d","bdp_cybrbll","Sun Apr 02 2023 10:57:26 GMT-0600 (Mountain Daylight Time)","451677","1","3","","","","","","","","","","199","","","","3","1","[{""stimulus"":""img/3to1/1.png"",""time"":103},{""stimulus"":""img/3to1/2.png"",""time"":201},{""stimulus"":""img/3to1/3.png"",""time"":300},{""stimulus"":""img/3to1/4.png"",""time"":399},{""stimulus"":""img/3to1/5.png"",""time"":497},{""stimulus"":""img/3to1/6.png"",""time"":596},{""stimulus"":""img/3to1/7.png"",""time"":695},{""stimulus"":""img/3to1/8.png"",""time"":794},{""stimulus"":""img/3to1/9.png"",""time"":893},{""stimulus"":""img/3to1/10.png"",""time"":992},{""stimulus"":""img/3to1/11.png"",""time"":1091},{""stimulus"":""img/3to1/12.png"",""time"":1190}]","[]"
"image-keyboard-response","58","89546","0.0-5.0-1.27","5c4e31b37065de00011f795d","bdp_cybrbll","Sun Apr 02 2023 10:57:26 GMT-0600 (Mountain Daylight Time)","451677","1","3","","null","","","","observe","","img/1to3/1.png","null","198","444","0.5","0.5","1","3","",""
"animation","59","90834","0.0-5.0-2.27","5c4e31b37065de00011f795d","bdp_cybrbll","Sun Apr 02 2023 10:57:26 GMT-0600 (Mountain Daylight Time)","451677","1","3","","","","","","","","","","198","","","","1","3","[{""stimulus"":""img/1to3/1.png"",""time"":102},{""stimulus"":""img/1to3/2.png"",""time"":202},{""stimulus"":""img/1to3/3.png"",""time"":298},{""stimulus"":""img/1to3/4.png"",""time"":397},{""stimulus"":""img/1to3/5.png"",""time"":496},{""stimulus"":""img/1to3/6.png"",""time"":595},{""stimulus"":""img/1to3/7.png"",""time"":696},{""stimulus"":""img/1to3/8.png"",""time"":795},{""stimulus"":""img/1to3/9.png"",""time"":894},{""stimulus"":""img/1to3/10.png"",""time"":993},{""stimulus"":""img/1to3/11.png"",""time"":1092},{""stimulus"":""img/1to3/12.png"",""time"":1190}]","[]"
"image-keyboard-response","60","91224","0.0-5.0-1.28","5c4e31b37065de00011f795d","bdp_cybrbll","Sun Apr 02 2023 10:57:26 GMT-0600 (Mountain Daylight Time)","451677","1","3","","null","","","","observe","","img/3to2/1.png","null","197","385","0.5","0.5","3","1","",""
"animation","61","92512","0.0-5.0-2.28","5c4e31b37065de00011f795d","bdp_cybrbll","Sun Apr 02 2023 10:57:26 GMT-0600 (Mountain Daylight Time)","451677","1","3","","","","","","","","","","197","","","","3","1","[{""stimulus"":""img/3to1/1.png"",""time"":102},{""stimulus"":""img/3to1/2.png"",""time"":201},{""stimulus"":""img/3to1/3.png"",""time"":301},{""stimulus"":""img/3to1/4.png"",""time"":398},{""stimulus"":""img/3to1/5.png"",""time"":497},{""stimulus"":""img/3to1/6.png"",""time"":600},{""stimulus"":""img/3to1/7.png"",""time"":697},{""stimulus"":""img/3to1/8.png"",""time"":795},{""stimulus"":""img/3to1/9.png"",""time"":894},{""stimulus"":""img/3to1/10.png"",""time"":992},{""stimulus"":""img/3to1/11.png"",""time"":1091},{""stimulus"":""img/3to1/12.png"",""time"":1189}]","[]"
"image-keyboard-response","62","93063","0.0-5.0-1.29","5c4e31b37065de00011f795d","bdp_cybrbll","Sun Apr 02 2023 10:57:26 GMT-0600 (Mountain Daylight Time)","451677","1","3","","null","","","","observe","","img/1to3/1.png","null","196","544","0.5","0.5","1","2","",""
"animation","63","94352","0.0-5.0-2.29","5c4e31b37065de00011f795d","bdp_cybrbll","Sun Apr 02 2023 10:57:26 GMT-0600 (Mountain Daylight Time)","451677","1","3","","","","","","","","","","196","","","","1","2","[{""stimulus"":""img/1to2/1.png"",""time"":101},{""stimulus"":""img/1to2/2.png"",""time"":199},{""stimulus"":""img/1to2/3.png"",""time"":298},{""stimulus"":""img/1to2/4.png"",""time"":398},{""stimulus"":""img/1to2/5.png"",""time"":496},{""stimulus"":""img/1to2/6.png"",""time"":596},{""stimulus"":""img/1to2/7.png"",""time"":694},{""stimulus"":""img/1to2/8.png"",""time"":794},{""stimulus"":""img/1to2/9.png"",""time"":896},{""stimulus"":""img/1to2/10.png"",""time"":993},{""stimulus"":""img/1to2/11.png"",""time"":1090},{""stimulus"":""img/1to2/12.png"",""time"":1193}]","[]"
"image-keyboard-response","64","94794","0.0-5.0-1.30","5c4e31b37065de00011f795d","bdp_cybrbll","Sun Apr 02 2023 10:57:26 GMT-0600 (Mountain Daylight Time)","451677","1","3","","433","","","","choice","","img/2to1/1.png","2","195","618","0.5","0.5","2","3","",""
"animation","65","96083","0.0-5.0-2.30","5c4e31b37065de00011f795d","bdp_cybrbll","Sun Apr 02 2023 10:57:26 GMT-0600 (Mountain Daylight Time)","451677","1","3","","","","","","","","","","195","","","","2","3","[{""stimulus"":""img/2to3/1.png"",""time"":103},{""stimulus"":""img/2to3/2.png"",""time"":200},{""stimulus"":""img/2to3/3.png"",""time"":299},{""stimulus"":""img/2to3/4.png"",""time"":398},{""stimulus"":""img/2to3/5.png"",""time"":497},{""stimulus"":""img/2to3/6.png"",""time"":596},{""stimulus"":""img/2to3/7.png"",""time"":695},{""stimulus"":""img/2to3/8.png"",""time"":794},{""stimulus"":""img/2to3/9.png"",""time"":893},{""stimulus"":""img/2to3/10.png"",""time"":992},{""stimulus"":""img/2to3/11.png"",""time"":1091},{""stimulus"":""img/2to3/12.png"",""time"":1190}]","[]"
"image-keyboard-response","66","97009","0.0-5.0-1.31","5c4e31b37065de00011f795d","bdp_cybrbll","Sun Apr 02 2023 10:57:26 GMT-0600 (Mountain Daylight Time)","451677","1","3","","null","","","","observe","","img/3to2/1.png","null","194","923","0.5","0.5","3","1","",""
"animation","67","98297","0.0-5.0-2.31","5c4e31b37065de00011f795d","bdp_cybrbll","Sun Apr 02 2023 10:57:26 GMT-0600 (Mountain Daylight Time)","451677","1","3","","","","","","","","","","194","","","","3","1","[{""stimulus"":""img/3to1/1.png"",""time"":103},{""stimulus"":""img/3to1/2.png"",""time"":202},{""stimulus"":""img/3to1/3.png"",""time"":299},{""stimulus"":""img/3to1/4.png"",""time"":398},{""stimulus"":""img/3to1/5.png"",""time"":499},{""stimulus"":""img/3to1/6.png"",""time"":596},{""stimulus"":""img/3to1/7.png"",""time"":695},{""stimulus"":""img/3to1/8.png"",""time"":794},{""stimulus"":""img/3to1/9.png"",""time"":893},{""stimulus"":""img/3to1/10.png"",""time"":993},{""stimulus"":""img/3to1/11.png"",""time"":1091},{""stimulus"":""img/3to1/12.png"",""time"":1192}]","[]"
"image-keyboard-response","68","98446","0.0-5.0-1.32","5c4e31b37065de00011f795d","bdp_cybrbll","Sun Apr 02 2023 10:57:26 GMT-0600 (Mountain Daylight Time)","451677","1","3","","null","","","","observe","","img/1to3/1.png","null","193","144","0.5","0.5","1","3","",""
"animation","69","99735","0.0-5.0-2.32","5c4e31b37065de00011f795d","bdp_cybrbll","Sun Apr 02 2023 10:57:26 GMT-0600 (Mountain Daylight Time)","451677","1","3","","","","","","","","","","193","","","","1","3","[{""stimulus"":""img/1to3/1.png"",""time"":120},{""stimulus"":""img/1to3/2.png"",""time"":200},{""stimulus"":""img/1to3/3.png"",""time"":301},{""stimulus"":""img/1to3/4.png"",""time"":397},{""stimulus"":""img/1to3/5.png"",""time"":499},{""stimulus"":""img/1to3/6.png"",""time"":596},{""stimulus"":""img/1to3/7.png"",""time"":694},{""stimulus"":""img/1to3/8.png"",""time"":795},{""stimulus"":""img/1to3/9.png"",""time"":895},{""stimulus"":""img/1to3/10.png"",""time"":994},{""stimulus"":""img/1to3/11.png"",""time"":1093},{""stimulus"":""img/1to3/12.png"",""time"":1192}]","[]"
"image-keyboard-response","70","100038","0.0-5.0-1.33","5c4e31b37065de00011f795d","bdp_cybrbll","Sun Apr 02 2023 10:57:26 GMT-0600 (Mountain Daylight Time)","451677","1","3","","null","","","","observe","","img/3to2/1.png","null","192","298","0.5","0.5","3","1","",""
"animation","71","101327","0.0-5.0-2.33","5c4e31b37065de00011f795d","bdp_cybrbll","Sun Apr 02 2023 10:57:26 GMT-0600 (Mountain Daylight Time)","451677","1","3","","","","","","","","","","192","","","","3","1","[{""stimulus"":""img/3to1/1.png"",""time"":102},{""stimulus"":""img/3to1/2.png"",""time"":202},{""stimulus"":""img/3to1/3.png"",""time"":301},{""stimulus"":""img/3to1/4.png"",""time"":398},{""stimulus"":""img/3to1/5.png"",""time"":499},{""stimulus"":""img/3to1/6.png"",""time"":598},{""stimulus"":""img/3to1/7.png"",""time"":697},{""stimulus"":""img/3to1/8.png"",""time"":798},{""stimulus"":""img/3to1/9.png"",""time"":897},{""stimulus"":""img/3to1/10.png"",""time"":993},{""stimulus"":""img/3to1/11.png"",""time"":1093},{""stimulus"":""img/3to1/12.png"",""time"":1190}]","[]"
"image-keyboard-response","72","101643","0.0-5.0-1.34","5c4e31b37065de00011f795d","bdp_cybrbll","Sun Apr 02 2023 10:57:26 GMT-0600 (Mountain Daylight Time)","451677","1","3","","null","","","","observe","","img/1to3/1.png","null","191","312","0.5","0.5","1","2","",""
"animation","73","102932","0.0-5.0-2.34","5c4e31b37065de00011f795d","bdp_cybrbll","Sun Apr 02 2023 10:57:26 GMT-0600 (Mountain Daylight Time)","451677","1","3","","","","","","","","","","191","","","","1","2","[{""stimulus"":""img/1to2/1.png"",""time"":103},{""stimulus"":""img/1to2/2.png"",""time"":200},{""stimulus"":""img/1to2/3.png"",""time"":300},{""stimulus"":""img/1to2/4.png"",""time"":397},{""stimulus"":""img/1to2/5.png"",""time"":496},{""stimulus"":""img/1to2/6.png"",""time"":596},{""stimulus"":""img/1to2/7.png"",""time"":698},{""stimulus"":""img/1to2/8.png"",""time"":793},{""stimulus"":""img/1to2/9.png"",""time"":894},{""stimulus"":""img/1to2/10.png"",""time"":994},{""stimulus"":""img/1to2/11.png"",""time"":1092},{""stimulus"":""img/1to2/12.png"",""time"":1196}]","[]"
"image-keyboard-response","74","103398","0.0-5.0-1.35","5c4e31b37065de00011f795d","bdp_cybrbll","Sun Apr 02 2023 10:57:26 GMT-0600 (Mountain Daylight Time)","451677","1","3","","459","","","","choice","","img/2to1/1.png","2","190","266","0.5","0.5","2","3","",""
"animation","75","104686","0.0-5.0-2.35","5c4e31b37065de00011f795d","bdp_cybrbll","Sun Apr 02 2023 10:57:26 GMT-0600 (Mountain Daylight Time)","451677","1","3","","","","","","","","","","190","","","","2","3","[{""stimulus"":""img/2to3/1.png"",""time"":103},{""stimulus"":""img/2to3/2.png"",""time"":201},{""stimulus"":""img/2to3/3.png"",""time"":298},{""stimulus"":""img/2to3/4.png"",""time"":398},{""stimulus"":""img/2to3/5.png"",""time"":498},{""stimulus"":""img/2to3/6.png"",""time"":595},{""stimulus"":""img/2to3/7.png"",""time"":694},{""stimulus"":""img/2to3/8.png"",""time"":794},{""stimulus"":""img/2to3/9.png"",""time"":893},{""stimulus"":""img/2to3/10.png"",""time"":992},{""stimulus"":""img/2to3/11.png"",""time"":1090},{""stimulus"":""img/2to3/12.png"",""time"":1190}]","[]"
"image-keyboard-response","76","105479","0.0-5.0-1.36","5c4e31b37065de00011f795d","bdp_cybrbll","Sun Apr 02 2023 10:57:26 GMT-0600 (Mountain Daylight Time)","451677","1","3","","null","","","","observe","","img/3to2/1.png","null","189","788","0.5","0.5","3","2","",""
"animation","77","106767","0.0-5.0-2.36","5c4e31b37065de00011f795d","bdp_cybrbll","Sun Apr 02 2023 10:57:26 GMT-0600 (Mountain Daylight Time)","451677","1","3","","","","","","","","","","189","","","","3","2","[{""stimulus"":""img/3to2/1.png"",""time"":101},{""stimulus"":""img/3to2/2.png"",""time"":199},{""stimulus"":""img/3to2/3.png"",""time"":298},{""stimulus"":""img/3to2/4.png"",""time"":397},{""stimulus"":""img/3to2/5.png"",""time"":496},{""stimulus"":""img/3to2/6.png"",""time"":595},{""stimulus"":""img/3to2/7.png"",""time"":694},{""stimulus"":""img/3to2/8.png"",""time"":793},{""stimulus"":""img/3to2/9.png"",""time"":892},{""stimulus"":""img/3to2/10.png"",""time"":991},{""stimulus"":""img/3to2/11.png"",""time"":1090},{""stimulus"":""img/3to2/12.png"",""time"":1189}]","[]"
"image-keyboard-response","78","107163","0.0-5.0-1.37","5c4e31b37065de00011f795d","bdp_cybrbll","Sun Apr 02 2023 10:57:26 GMT-0600 (Mountain Daylight Time)","451677","1","3","","394","","","","choice","","img/2to1/1.png","1","188","331","0.5","0.5","2","1","",""
"animation","79","108451","0.0-5.0-2.37","5c4e31b37065de00011f795d","bdp_cybrbll","Sun Apr 02 2023 10:57:26 GMT-0600 (Mountain Daylight Time)","451677","1","3","","","","","","","","","","188","","","","2","1","[{""stimulus"":""img/2to1/1.png"",""time"":103},{""stimulus"":""img/2to1/2.png"",""time"":205},{""stimulus"":""img/2to1/3.png"",""time"":298},{""stimulus"":""img/2to1/4.png"",""time"":399},{""stimulus"":""img/2to1/5.png"",""time"":498},{""stimulus"":""img/2to1/6.png"",""time"":596},{""stimulus"":""img/2to1/7.png"",""time"":698},{""stimulus"":""img/2to1/8.png"",""time"":795},{""stimulus"":""img/2to1/9.png"",""time"":894},{""stimulus"":""img/2to1/10.png"",""time"":992},{""stimulus"":""img/2to1/11.png"",""time"":1096},{""stimulus"":""img/2to1/12.png"",""time"":1191}]","[]"
"image-keyboard-response","80","109006","0.0-5.0-1.38","5c4e31b37065de00011f795d","bdp_cybrbll","Sun Apr 02 2023 10:57:26 GMT-0600 (Mountain Daylight Time)","451677","1","3","","null","","","","observe","","img/1to3/1.png","null","187","548","0.5","0.5","1","2","",""
"animation","81","110295","0.0-5.0-2.38","5c4e31b37065de00011f795d","bdp_cybrbll","Sun Apr 02 2023 10:57:26 GMT-0600 (Mountain Daylight Time)","451677","1","3","","","","","","","","","","187","","","","1","2","[{""stimulus"":""img/1to2/1.png"",""time"":101},{""stimulus"":""img/1to2/2.png"",""time"":203},{""stimulus"":""img/1to2/3.png"",""time"":299},{""stimulus"":""img/1to2/4.png"",""time"":398},{""stimulus"":""img/1to2/5.png"",""time"":497},{""stimulus"":""img/1to2/6.png"",""time"":597},{""stimulus"":""img/1to2/7.png"",""time"":696},{""stimulus"":""img/1to2/8.png"",""time"":795},{""stimulus"":""img/1to2/9.png"",""time"":894},{""stimulus"":""img/1to2/10.png"",""time"":993},{""stimulus"":""img/1to2/11.png"",""time"":1092},{""stimulus"":""img/1to2/12.png"",""time"":1191}]","[]"
"image-keyboard-response","82","110709","0.0-5.0-1.39","5c4e31b37065de00011f795d","bdp_cybrbll","Sun Apr 02 2023 10:57:26 GMT-0600 (Mountain Daylight Time)","451677","1","3","","408","","","","choice","","img/2to1/1.png","2","186","369","0.5","0.5","2","3","",""
"animation","83","111997","0.0-5.0-2.39","5c4e31b37065de00011f795d","bdp_cybrbll","Sun Apr 02 2023 10:57:26 GMT-0600 (Mountain Daylight Time)","451677","1","3","","","","","","","","","","186","","","","2","3","[{""stimulus"":""img/2to3/1.png"",""time"":103},{""stimulus"":""img/2to3/2.png"",""time"":204},{""stimulus"":""img/2to3/3.png"",""time"":300},{""stimulus"":""img/2to3/4.png"",""time"":397},{""stimulus"":""img/2to3/5.png"",""time"":496},{""stimulus"":""img/2to3/6.png"",""time"":596},{""stimulus"":""img/2to3/7.png"",""time"":694},{""stimulus"":""img/2to3/8.png"",""time"":793},{""stimulus"":""img/2to3/9.png"",""time"":892},{""stimulus"":""img/2to3/10.png"",""time"":991},{""stimulus"":""img/2to3/11.png"",""time"":1091},{""stimulus"":""img/2to3/12.png"",""time"":1190}]","[]"
"image-keyboard-response","84","113178","0.0-5.0-1.40","5c4e31b37065de00011f795d","bdp_cybrbll","Sun Apr 02 2023 10:57:26 GMT-0600 (Mountain Daylight Time)","451677","1","3","","null","","","","observe","","img/3to2/1.png","null","185","1177","0.5","0.5","3","2","",""
"animation","85","114466","0.0-5.0-2.40","5c4e31b37065de00011f795d","bdp_cybrbll","Sun Apr 02 2023 10:57:26 GMT-0600 (Mountain Daylight Time)","451677","1","3","","","","","","","","","","185","","","","3","2","[{""stimulus"":""img/3to2/1.png"",""time"":100},{""stimulus"":""img/3to2/2.png"",""time"":199},{""stimulus"":""img/3to2/3.png"",""time"":298},{""stimulus"":""img/3to2/4.png"",""time"":397},{""stimulus"":""img/3to2/5.png"",""time"":495},{""stimulus"":""img/3to2/6.png"",""time"":595},{""stimulus"":""img/3to2/7.png"",""time"":694},{""stimulus"":""img/3to2/8.png"",""time"":793},{""stimulus"":""img/3to2/9.png"",""time"":891},{""stimulus"":""img/3to2/10.png"",""time"":991},{""stimulus"":""img/3to2/11.png"",""time"":1090},{""stimulus"":""img/3to2/12.png"",""time"":1189}]","[]"
"image-keyboard-response","86","114869","0.0-5.0-1.41","5c4e31b37065de00011f795d","bdp_cybrbll","Sun Apr 02 2023 10:57:26 GMT-0600 (Mountain Daylight Time)","451677","1","3","","401","","","","choice","","img/2to1/1.png","1","184","346","0.5","0.5","2","1","",""
"animation","87","116157","0.0-5.0-2.41","5c4e31b37065de00011f795d","bdp_cybrbll","Sun Apr 02 2023 10:57:26 GMT-0600 (Mountain Daylight Time)","451677","1","3","","","","","","","","","","184","","","","2","1","[{""stimulus"":""img/2to1/1.png"",""time"":100},{""stimulus"":""img/2to1/2.png"",""time"":199},{""stimulus"":""img/2to1/3.png"",""time"":299},{""stimulus"":""img/2to1/4.png"",""time"":396},{""stimulus"":""img/2to1/5.png"",""time"":496},{""stimulus"":""img/2to1/6.png"",""time"":594},{""stimulus"":""img/2to1/7.png"",""time"":694},{""stimulus"":""img/2to1/8.png"",""time"":793},{""stimulus"":""img/2to1/9.png"",""time"":892},{""stimulus"":""img/2to1/10.png"",""time"":991},{""stimulus"":""img/2to1/11.png"",""time"":1090},{""stimulus"":""img/2to1/12.png"",""time"":1193}]","[]"
"image-keyboard-response","88","117146","0.0-5.0-1.42","5c4e31b37065de00011f795d","bdp_cybrbll","Sun Apr 02 2023 10:57:26 GMT-0600 (Mountain Daylight Time)","451677","1","3","","null","","","","observe","","img/1to3/1.png","null","183","987","0.5","0.5","1","3","",""
"animation","89","118435","0.0-5.0-2.42","5c4e31b37065de00011f795d","bdp_cybrbll","Sun Apr 02 2023 10:57:26 GMT-0600 (Mountain Daylight Time)","451677","1","3","","","","","","","","","","183","","","","1","3","[{""stimulus"":""img/1to3/1.png"",""time"":103},{""stimulus"":""img/1to3/2.png"",""time"":203},{""stimulus"":""img/1to3/3.png"",""time"":299},{""stimulus"":""img/1to3/4.png"",""time"":399},{""stimulus"":""img/1to3/5.png"",""time"":497},{""stimulus"":""img/1to3/6.png"",""time"":596},{""stimulus"":""img/1to3/7.png"",""time"":695},{""stimulus"":""img/1to3/8.png"",""time"":794},{""stimulus"":""img/1to3/9.png"",""time"":893},{""stimulus"":""img/1to3/10.png"",""time"":992},{""stimulus"":""img/1to3/11.png"",""time"":1091},{""stimulus"":""img/1to3/12.png"",""time"":1190}]","[]"
"image-keyboard-response","90","118983","0.0-5.0-1.43","5c4e31b37065de00011f795d","bdp_cybrbll","Sun Apr 02 2023 10:57:26 GMT-0600 (Mountain Daylight Time)","451677","1","3","","null","","","","observe","","img/3to2/1.png","null","182","544","0.5","0.5","3","1","",""
"animation","91","120272","0.0-5.0-2.43","5c4e31b37065de00011f795d","bdp_cybrbll","Sun Apr 02 2023 10:57:26 GMT-0600 (Mountain Daylight Time)","451677","1","3","","","","","","","","","","182","","","","3","1","[{""stimulus"":""img/3to1/1.png"",""time"":102},{""stimulus"":""img/3to1/2.png"",""time"":200},{""stimulus"":""img/3to1/3.png"",""time"":298},{""stimulus"":""img/3to1/4.png"",""time"":397},{""stimulus"":""img/3to1/5.png"",""time"":496},{""stimulus"":""img/3to1/6.png"",""time"":595},{""stimulus"":""img/3to1/7.png"",""time"":694},{""stimulus"":""img/3to1/8.png"",""time"":793},{""stimulus"":""img/3to1/9.png"",""time"":892},{""stimulus"":""img/3to1/10.png"",""time"":991},{""stimulus"":""img/3to1/11.png"",""time"":1090},{""stimulus"":""img/3to1/12.png"",""time"":1189}]","[]"
"image-keyboard-response","92","120565","0.0-5.0-1.44","5c4e31b37065de00011f795d","bdp_cybrbll","Sun Apr 02 2023 10:57:26 GMT-0600 (Mountain Daylight Time)","451677","1","3","","null","","","","observe","","img/1to3/1.png","null","181","292","0.5","0.5","1","3","",""
"animation","93","121853","0.0-5.0-2.44","5c4e31b37065de00011f795d","bdp_cybrbll","Sun Apr 02 2023 10:57:26 GMT-0600 (Mountain Daylight Time)","451677","1","3","","","","","","","","","","181","","","","1","3","[{""stimulus"":""img/1to3/1.png"",""time"":100},{""stimulus"":""img/1to3/2.png"",""time"":199},{""stimulus"":""img/1to3/3.png"",""time"":300},{""stimulus"":""img/1to3/4.png"",""time"":397},{""stimulus"":""img/1to3/5.png"",""time"":497},{""stimulus"":""img/1to3/6.png"",""time"":597},{""stimulus"":""img/1to3/7.png"",""time"":698},{""stimulus"":""img/1to3/8.png"",""time"":799},{""stimulus"":""img/1to3/9.png"",""time"":897},{""stimulus"":""img/1to3/10.png"",""time"":1000},{""stimulus"":""img/1to3/11.png"",""time"":1097},{""stimulus"":""img/1to3/12.png"",""time"":1189}]","[]"
"image-keyboard-response","94","122025","0.0-5.0-1.45","5c4e31b37065de00011f795d","bdp_cybrbll","Sun Apr 02 2023 10:57:26 GMT-0600 (Mountain Daylight Time)","451677","1","3","","null","","","","observe","","img/3to2/1.png","null","180","158","0.5","0.5","3","2","",""
"animation","95","123319","0.0-5.0-2.45","5c4e31b37065de00011f795d","bdp_cybrbll","Sun Apr 02 2023 10:57:26 GMT-0600 (Mountain Daylight Time)","451677","1","3","","","","","","","","","","180","","","","3","2","[{""stimulus"":""img/3to2/1.png"",""time"":102},{""stimulus"":""img/3to2/2.png"",""time"":202},{""stimulus"":""img/3to2/3.png"",""time"":300},{""stimulus"":""img/3to2/4.png"",""time"":397},{""stimulus"":""img/3to2/5.png"",""time"":498},{""stimulus"":""img/3to2/6.png"",""time"":595},{""stimulus"":""img/3to2/7.png"",""time"":696},{""stimulus"":""img/3to2/8.png"",""time"":796},{""stimulus"":""img/3to2/9.png"",""time"":895},{""stimulus"":""img/3to2/10.png"",""time"":992},{""stimulus"":""img/3to2/11.png"",""time"":1092},{""stimulus"":""img/3to2/12.png"",""time"":1190}]","[]"
"image-keyboard-response","96","123732","0.0-5.0-1.46","5c4e31b37065de00011f795d","bdp_cybrbll","Sun Apr 02 2023 10:57:26 GMT-0600 (Mountain Daylight Time)","451677","1","3","","409","","","","choice","","img/2to1/1.png","1","179","458","0.5","0.5","2","1","",""
"animation","97","125020","0.0-5.0-2.46","5c4e31b37065de00011f795d","bdp_cybrbll","Sun Apr 02 2023 10:57:26 GMT-0600 (Mountain Daylight Time)","451677","1","3","","","","","","","","","","179","","","","2","1","[{""stimulus"":""img/2to1/1.png"",""time"":104},{""stimulus"":""img/2to1/2.png"",""time"":201},{""stimulus"":""img/2to1/3.png"",""time"":300},{""stimulus"":""img/2to1/4.png"",""time"":397},{""stimulus"":""img/2to1/5.png"",""time"":497},{""stimulus"":""img/2to1/6.png"",""time"":597},{""stimulus"":""img/2to1/7.png"",""time"":697},{""stimulus"":""img/2to1/8.png"",""time"":795},{""stimulus"":""img/2to1/9.png"",""time"":894},{""stimulus"":""img/2to1/10.png"",""time"":993},{""stimulus"":""img/2to1/11.png"",""time"":1092},{""stimulus"":""img/2to1/12.png"",""time"":1191}]","[]"
"image-keyboard-response","98","125505","0.0-5.0-1.47","5c4e31b37065de00011f795d","bdp_cybrbll","Sun Apr 02 2023 10:57:26 GMT-0600 (Mountain Daylight Time)","451677","1","3","","null","","","","observe","","img/1to3/1.png","null","178","481","0.5","0.5","1","3","",""
"animation","99","126794","0.0-5.0-2.47","5c4e31b37065de00011f795d","bdp_cybrbll","Sun Apr 02 2023 10:57:26 GMT-0600 (Mountain Daylight Time)","451677","1","3","","","","","","","","","","178","","","","1","3","[{""stimulus"":""img/1to3/1.png"",""time"":103},{""stimulus"":""img/1to3/2.png"",""time"":201},{""stimulus"":""img/1to3/3.png"",""time"":299},{""stimulus"":""img/1to3/4.png"",""time"":397},{""stimulus"":""img/1to3/5.png"",""time"":498},{""stimulus"":""img/1to3/6.png"",""time"":597},{""stimulus"":""img/1to3/7.png"",""time"":696},{""stimulus"":""img/1to3/8.png"",""time"":793},{""stimulus"":""img/1to3/9.png"",""time"":893},{""stimulus"":""img/1to3/10.png"",""time"":992},{""stimulus"":""img/1to3/11.png"",""time"":1090},{""stimulus"":""img/1to3/12.png"",""time"":1189}]","[]"
"image-keyboard-response","100","127208","0.0-5.0-1.48","5c4e31b37065de00011f795d","bdp_cybrbll","Sun Apr 02 2023 10:57:26 GMT-0600 (Mountain Daylight Time)","451677","1","3","","null","","","","observe","","img/3to2/1.png","null","177","410","0.5","0.5","3","1","",""
"animation","101","128496","0.0-5.0-2.48","5c4e31b37065de00011f795d","bdp_cybrbll","Sun Apr 02 2023 10:57:26 GMT-0600 (Mountain Daylight Time)","451677","1","3","","","","","","","","","","177","","","","3","1","[{""stimulus"":""img/3to1/1.png"",""time"":101},{""stimulus"":""img/3to1/2.png"",""time"":200},{""stimulus"":""img/3to1/3.png"",""time"":298},{""stimulus"":""img/3to1/4.png"",""time"":400},{""stimulus"":""img/3to1/5.png"",""time"":497},{""stimulus"":""img/3to1/6.png"",""time"":596},{""stimulus"":""img/3to1/7.png"",""time"":696},{""stimulus"":""img/3to1/8.png"",""time"":795},{""stimulus"":""img/3to1/9.png"",""time"":893},{""stimulus"":""img/3to1/10.png"",""time"":992},{""stimulus"":""img/3to1/11.png"",""time"":1091},{""stimulus"":""img/3to1/12.png"",""time"":1190}]","[]"
"image-keyboard-response","102","129203","0.0-5.0-1.49","5c4e31b37065de00011f795d","bdp_cybrbll","Sun Apr 02 2023 10:57:26 GMT-0600 (Mountain Daylight Time)","451677","1","3","","null","","","","observe","","img/1to3/1.png","null","176","703","0.5","0.5","1","3","",""
"animation","103","130491","0.0-5.0-2.49","5c4e31b37065de00011f795d","bdp_cybrbll","Sun Apr 02 2023 10:57:26 GMT-0600 (Mountain Daylight Time)","451677","1","3","","","","","","","","","","176","","","","1","3","[{""stimulus"":""img/1to3/1.png"",""time"":103},{""stimulus"":""img/1to3/2.png"",""time"":201},{""stimulus"":""img/1to3/3.png"",""time"":298},{""stimulus"":""img/1to3/4.png"",""time"":397},{""stimulus"":""img/1to3/5.png"",""time"":496},{""stimulus"":""img/1to3/6.png"",""time"":596},{""stimulus"":""img/1to3/7.png"",""time"":696},{""stimulus"":""img/1to3/8.png"",""time"":794},{""stimulus"":""img/1to3/9.png"",""time"":894},{""stimulus"":""img/1to3/10.png"",""time"":993},{""stimulus"":""img/1to3/11.png"",""time"":1091},{""stimulus"":""img/1to3/12.png"",""time"":1190}]","[]"
"image-keyboard-response","104","131071","0.0-5.0-1.50","5c4e31b37065de00011f795d","bdp_cybrbll","Sun Apr 02 2023 10:57:26 GMT-0600 (Mountain Daylight Time)","451677","1","3","","null","","","","observe","","img/3to2/1.png","null","175","576","0.5","0.5","3","1","",""
"animation","105","132363","0.0-5.0-2.50","5c4e31b37065de00011f795d","bdp_cybrbll","Sun Apr 02 2023 10:57:26 GMT-0600 (Mountain Daylight Time)","451677","1","3","","","","","","","","","","175","","","","3","1","[{""stimulus"":""img/3to1/1.png"",""time"":101},{""stimulus"":""img/3to1/2.png"",""time"":200},{""stimulus"":""img/3to1/3.png"",""time"":299},{""stimulus"":""img/3to1/4.png"",""time"":397},{""stimulus"":""img/3to1/5.png"",""time"":496},{""stimulus"":""img/3to1/6.png"",""time"":595},{""stimulus"":""img/3to1/7.png"",""time"":694},{""stimulus"":""img/3to1/8.png"",""time"":793},{""stimulus"":""img/3to1/9.png"",""time"":892},{""stimulus"":""img/3to1/10.png"",""time"":993},{""stimulus"":""img/3to1/11.png"",""time"":1093},{""stimulus"":""img/3to1/12.png"",""time"":1193}]","[]"
"image-keyboard-response","106","133831","0.0-5.0-1.51","5c4e31b37065de00011f795d","bdp_cybrbll","Sun Apr 02 2023 10:57:26 GMT-0600 (Mountain Daylight Time)","451677","1","3","","null","","","","observe","","img/1to3/1.png","null","174","1466","0.5","0.5","1","2","",""
"animation","107","135118","0.0-5.0-2.51","5c4e31b37065de00011f795d","bdp_cybrbll","Sun Apr 02 2023 10:57:26 GMT-0600 (Mountain Daylight Time)","451677","1","3","","","","","","","","","","174","","","","1","2","[{""stimulus"":""img/1to2/1.png"",""time"":100},{""stimulus"":""img/1to2/2.png"",""time"":199},{""stimulus"":""img/1to2/3.png"",""time"":298},{""stimulus"":""img/1to2/4.png"",""time"":397},{""stimulus"":""img/1to2/5.png"",""time"":497},{""stimulus"":""img/1to2/6.png"",""time"":596},{""stimulus"":""img/1to2/7.png"",""time"":696},{""stimulus"":""img/1to2/8.png"",""time"":794},{""stimulus"":""img/1to2/9.png"",""time"":893},{""stimulus"":""img/1to2/10.png"",""time"":991},{""stimulus"":""img/1to2/11.png"",""time"":1090},{""stimulus"":""img/1to2/12.png"",""time"":1189}]","[]"
"image-keyboard-response","108","135483","0.0-5.0-1.52","5c4e31b37065de00011f795d","bdp_cybrbll","Sun Apr 02 2023 10:57:26 GMT-0600 (Mountain Daylight Time)","451677","1","3","","362","","","","choice","","img/2to1/1.png","2","173","367","0.5","0.5","2","3","",""
"animation","109","136773","0.0-5.0-2.52","5c4e31b37065de00011f795d","bdp_cybrbll","Sun Apr 02 2023 10:57:26 GMT-0600 (Mountain Daylight Time)","451677","1","3","","","","","","","","","","173","","","","2","3","[{""stimulus"":""img/2to3/1.png"",""time"":109},{""stimulus"":""img/2to3/2.png"",""time"":214},{""stimulus"":""img/2to3/3.png"",""time"":298},{""stimulus"":""img/2to3/4.png"",""time"":398},{""stimulus"":""img/2to3/5.png"",""time"":496},{""stimulus"":""img/2to3/6.png"",""time"":595},{""stimulus"":""img/2to3/7.png"",""time"":695},{""stimulus"":""img/2to3/8.png"",""time"":793},{""stimulus"":""img/2to3/9.png"",""time"":892},{""stimulus"":""img/2to3/10.png"",""time"":991},{""stimulus"":""img/2to3/11.png"",""time"":1090},{""stimulus"":""img/2to3/12.png"",""time"":1189}]","[]"
"image-keyboard-response","110","137349","0.0-5.0-1.53","5c4e31b37065de00011f795d","bdp_cybrbll","Sun Apr 02 2023 10:57:26 GMT-0600 (Mountain Daylight Time)","451677","1","3","","null","","","","observe","","img/3to2/1.png","null","172","573","0.5","0.5","3","1","",""
"animation","111","138636","0.0-5.0-2.53","5c4e31b37065de00011f795d","bdp_cybrbll","Sun Apr 02 2023 10:57:26 GMT-0600 (Mountain Daylight Time)","451677","1","3","","","","","","","","","","172","","","","3","1","[{""stimulus"":""img/3to1/1.png"",""time"":101},{""stimulus"":""img/3to1/2.png"",""time"":200},{""stimulus"":""img/3to1/3.png"",""time"":299},{""stimulus"":""img/3to1/4.png"",""time"":398},{""stimulus"":""img/3to1/5.png"",""time"":496},{""stimulus"":""img/3to1/6.png"",""time"":595},{""stimulus"":""img/3to1/7.png"",""time"":695},{""stimulus"":""img/3to1/8.png"",""time"":793},{""stimulus"":""img/3to1/9.png"",""time"":892},{""stimulus"":""img/3to1/10.png"",""time"":991},{""stimulus"":""img/3to1/11.png"",""time"":1090},{""stimulus"":""img/3to1/12.png"",""time"":1190}]","[]"
"image-keyboard-response","112","139399","0.0-5.0-1.54","5c4e31b37065de00011f795d","bdp_cybrbll","Sun Apr 02 2023 10:57:26 GMT-0600 (Mountain Daylight Time)","451677","1","3","","null","","","","observe","","img/1to3/1.png","null","171","761","0.5","0.5","1","2","",""
"animation","113","140687","0.0-5.0-2.54","5c4e31b37065de00011f795d","bdp_cybrbll","Sun Apr 02 2023 10:57:26 GMT-0600 (Mountain Daylight Time)","451677","1","3","","","","","","","","","","171","","","","1","2","[{""stimulus"":""img/1to2/1.png"",""time"":101},{""stimulus"":""img/1to2/2.png"",""time"":199},{""stimulus"":""img/1to2/3.png"",""time"":299},{""stimulus"":""img/1to2/4.png"",""time"":398},{""stimulus"":""img/1to2/5.png"",""time"":497},{""stimulus"":""img/1to2/6.png"",""time"":596},{""stimulus"":""img/1to2/7.png"",""time"":695},{""stimulus"":""img/1to2/8.png"",""time"":793},{""stimulus"":""img/1to2/9.png"",""time"":892},{""stimulus"":""img/1to2/10.png"",""time"":992},{""stimulus"":""img/1to2/11.png"",""time"":1091},{""stimulus"":""img/1to2/12.png"",""time"":1190}]","[]"
"image-keyboard-response","114","141132","0.0-5.0-1.55","5c4e31b37065de00011f795d","bdp_cybrbll","Sun Apr 02 2023 10:57:26 GMT-0600 (Mountain Daylight Time)","451677","1","3","","442","","","","choice","","img/2to1/1.png","2","170","642","0.5","0.5","2","3","",""
"animation","115","142420","0.0-5.0-2.55","5c4e31b37065de00011f795d","bdp_cybrbll","Sun Apr 02 2023 10:57:26 GMT-0600 (Mountain Daylight Time)","451677","1","3","","","","","","","","","","170","","","","2","3","[{""stimulus"":""img/2to3/1.png"",""time"":100},{""stimulus"":""img/2to3/2.png"",""time"":199},{""stimulus"":""img/2to3/3.png"",""time"":298},{""stimulus"":""img/2to3/4.png"",""time"":397},{""stimulus"":""img/2to3/5.png"",""time"":496},{""stimulus"":""img/2to3/6.png"",""time"":595},{""stimulus"":""img/2to3/7.png"",""time"":694},{""stimulus"":""img/2to3/8.png"",""time"":793},{""stimulus"":""img/2to3/9.png"",""time"":892},{""stimulus"":""img/2to3/10.png"",""time"":991},{""stimulus"":""img/2to3/11.png"",""time"":1090},{""stimulus"":""img/2to3/12.png"",""time"":1189}]","[]"
"image-keyboard-response","116","142742","0.0-5.0-1.56","5c4e31b37065de00011f795d","bdp_cybrbll","Sun Apr 02 2023 10:57:26 GMT-0600 (Mountain Daylight Time)","451677","1","3","","null","","","","observe","","img/3to2/1.png","null","169","321","0.5","0.5","3","1","",""
"animation","117","144030","0.0-5.0-2.56","5c4e31b37065de00011f795d","bdp_cybrbll","Sun Apr 02 2023 10:57:26 GMT-0600 (Mountain Daylight Time)","451677","1","3","","","","","","","","","","169","","","","3","1","[{""stimulus"":""img/3to1/1.png"",""time"":100},{""stimulus"":""img/3to1/2.png"",""time"":199},{""stimulus"":""img/3to1/3.png"",""time"":297},{""stimulus"":""img/3to1/4.png"",""time"":396},{""stimulus"":""img/3to1/5.png"",""time"":496},{""stimulus"":""img/3to1/6.png"",""time"":594},{""stimulus"":""img/3to1/7.png"",""time"":693},{""stimulus"":""img/3to1/8.png"",""time"":792},{""stimulus"":""img/3to1/9.png"",""time"":891},{""stimulus"":""img/3to1/10.png"",""time"":990},{""stimulus"":""img/3to1/11.png"",""time"":1089},{""stimulus"":""img/3to1/12.png"",""time"":1188}]","[]"
"image-keyboard-response","118","144359","0.0-5.0-1.57","5c4e31b37065de00011f795d","bdp_cybrbll","Sun Apr 02 2023 10:57:26 GMT-0600 (Mountain Daylight Time)","451677","1","3","","null","","","","observe","","img/1to3/1.png","null","168","328","0.5","0.5","1","2","",""
"animation","119","145647","0.0-5.0-2.57","5c4e31b37065de00011f795d","bdp_cybrbll","Sun Apr 02 2023 10:57:26 GMT-0600 (Mountain Daylight Time)","451677","1","3","","","","","","","","","","168","","","","1","2","[{""stimulus"":""img/1to2/1.png"",""time"":100},{""stimulus"":""img/1to2/2.png"",""time"":199},{""stimulus"":""img/1to2/3.png"",""time"":298},{""stimulus"":""img/1to2/4.png"",""time"":397},{""stimulus"":""img/1to2/5.png"",""time"":496},{""stimulus"":""img/1to2/6.png"",""time"":595},{""stimulus"":""img/1to2/7.png"",""time"":694},{""stimulus"":""img/1to2/8.png"",""time"":793},{""stimulus"":""img/1to2/9.png"",""time"":892},{""stimulus"":""img/1to2/10.png"",""time"":991},{""stimulus"":""img/1to2/11.png"",""time"":1090},{""stimulus"":""img/1to2/12.png"",""time"":1189}]","[]"
"image-keyboard-response","120","146065","0.0-5.0-1.58","5c4e31b37065de00011f795d","bdp_cybrbll","Sun Apr 02 2023 10:57:26 GMT-0600 (Mountain Daylight Time)","451677","1","3","","417","","","","choice","","img/2to1/1.png","2","167","799","0.5","0.5","2","3","",""
"animation","121","147353","0.0-5.0-2.58","5c4e31b37065de00011f795d","bdp_cybrbll","Sun Apr 02 2023 10:57:26 GMT-0600 (Mountain Daylight Time)","451677","1","3","","","","","","","","","","167","","","","2","3","[{""stimulus"":""img/2to3/1.png"",""time"":100},{""stimulus"":""img/2to3/2.png"",""time"":199},{""stimulus"":""img/2to3/3.png"",""time"":298},{""stimulus"":""img/2to3/4.png"",""time"":397},{""stimulus"":""img/2to3/5.png"",""time"":496},{""stimulus"":""img/2to3/6.png"",""time"":595},{""stimulus"":""img/2to3/7.png"",""time"":694},{""stimulus"":""img/2to3/8.png"",""time"":793},{""stimulus"":""img/2to3/9.png"",""time"":892},{""stimulus"":""img/2to3/10.png"",""time"":991},{""stimulus"":""img/2to3/11.png"",""time"":1090},{""stimulus"":""img/2to3/12.png"",""time"":1189}]","[]"
"image-keyboard-response","122","147938","0.0-5.0-1.59","5c4e31b37065de00011f795d","bdp_cybrbll","Sun Apr 02 2023 10:57:26 GMT-0600 (Mountain Daylight Time)","451677","1","3","","null","","","","observe","","img/3to2/1.png","null","166","584","0.5","0.5","3","1","",""
"animation","123","149226","0.0-5.0-2.59","5c4e31b37065de00011f795d","bdp_cybrbll","Sun Apr 02 2023 10:57:26 GMT-0600 (Mountain Daylight Time)","451677","1","3","","","","","","","","","","166","","","","3","1","[{""stimulus"":""img/3to1/1.png"",""time"":100},{""stimulus"":""img/3to1/2.png"",""time"":199},{""stimulus"":""img/3to1/3.png"",""time"":298},{""stimulus"":""img/3to1/4.png"",""time"":397},{""stimulus"":""img/3to1/5.png"",""time"":496},{""stimulus"":""img/3to1/6.png"",""time"":595},{""stimulus"":""img/3to1/7.png"",""time"":694},{""stimulus"":""img/3to1/8.png"",""time"":793},{""stimulus"":""img/3to1/9.png"",""time"":892},{""stimulus"":""img/3to1/10.png"",""time"":991},{""stimulus"":""img/3to1/11.png"",""time"":1090},{""stimulus"":""img/3to1/12.png"",""time"":1189}]","[]"
"image-keyboard-response","124","149499","0.0-5.0-1.60","5c4e31b37065de00011f795d","bdp_cybrbll","Sun Apr 02 2023 10:57:26 GMT-0600 (Mountain Daylight Time)","451677","1","3","","null","","","","observe","","img/1to3/1.png","null","165","272","0.5","0.5","1","2","",""
"animation","125","150787","0.0-5.0-2.60","5c4e31b37065de00011f795d","bdp_cybrbll","Sun Apr 02 2023 10:57:26 GMT-0600 (Mountain Daylight Time)","451677","1","3","","","","","","","","","","165","","","","1","2","[{""stimulus"":""img/1to2/1.png"",""time"":100},{""stimulus"":""img/1to2/2.png"",""time"":198},{""stimulus"":""img/1to2/3.png"",""time"":297},{""stimulus"":""img/1to2/4.png"",""time"":396},{""stimulus"":""img/1to2/5.png"",""time"":495},{""stimulus"":""img/1to2/6.png"",""time"":594},{""stimulus"":""img/1to2/7.png"",""time"":693},{""stimulus"":""img/1to2/8.png"",""time"":792},{""stimulus"":""img/1to2/9.png"",""time"":891},{""stimulus"":""img/1to2/10.png"",""time"":990},{""stimulus"":""img/1to2/11.png"",""time"":1089},{""stimulus"":""img/1to2/12.png"",""time"":1188}]","[]"
"image-keyboard-response","126","152408","0.0-5.0-1.61","5c4e31b37065de00011f795d","bdp_cybrbll","Sun Apr 02 2023 10:57:26 GMT-0600 (Mountain Daylight Time)","451677","1","3","","1620","","","","choice","","img/2to1/1.png","2","164","1180","0.5","0.5","2","3","",""
"animation","127","153696","0.0-5.0-2.61","5c4e31b37065de00011f795d","bdp_cybrbll","Sun Apr 02 2023 10:57:26 GMT-0600 (Mountain Daylight Time)","451677","1","3","","","","","","","","","","164","","","","2","3","[{""stimulus"":""img/2to3/1.png"",""time"":100},{""stimulus"":""img/2to3/2.png"",""time"":198},{""stimulus"":""img/2to3/3.png"",""time"":297},{""stimulus"":""img/2to3/4.png"",""time"":398},{""stimulus"":""img/2to3/5.png"",""time"":496},{""stimulus"":""img/2to3/6.png"",""time"":598},{""stimulus"":""img/2to3/7.png"",""time"":695},{""stimulus"":""img/2to3/8.png"",""time"":794},{""stimulus"":""img/2to3/9.png"",""time"":891},{""stimulus"":""img/2to3/10.png"",""time"":993},{""stimulus"":""img/2to3/11.png"",""time"":1090},{""stimulus"":""img/2to3/12.png"",""time"":1189}]","[]"
"image-keyboard-response","128","154491","0.0-5.0-1.62","5c4e31b37065de00011f795d","bdp_cybrbll","Sun Apr 02 2023 10:57:26 GMT-0600 (Mountain Daylight Time)","451677","1","3","","null","","","","observe","","img/3to2/1.png","null","163","793","0.5","0.5","3","1","",""
"animation","129","155780","0.0-5.0-2.62","5c4e31b37065de00011f795d","bdp_cybrbll","Sun Apr 02 2023 10:57:26 GMT-0600 (Mountain Daylight Time)","451677","1","3","","","","","","","","","","163","","","","3","1","[{""stimulus"":""img/3to1/1.png"",""time"":101},{""stimulus"":""img/3to1/2.png"",""time"":201},{""stimulus"":""img/3to1/3.png"",""time"":298},{""stimulus"":""img/3to1/4.png"",""time"":397},{""stimulus"":""img/3to1/5.png"",""time"":498},{""stimulus"":""img/3to1/6.png"",""time"":596},{""stimulus"":""img/3to1/7.png"",""time"":694},{""stimulus"":""img/3to1/8.png"",""time"":793},{""stimulus"":""img/3to1/9.png"",""time"":894},{""stimulus"":""img/3to1/10.png"",""time"":991},{""stimulus"":""img/3to1/11.png"",""time"":1090},{""stimulus"":""img/3to1/12.png"",""time"":1189}]","[]"
"image-keyboard-response","130","156065","0.0-5.0-1.63","5c4e31b37065de00011f795d","bdp_cybrbll","Sun Apr 02 2023 10:57:26 GMT-0600 (Mountain Daylight Time)","451677","1","3","","null","","","","observe","","img/1to3/1.png","null","162","283","0.5","0.5","1","2","",""
"animation","131","157353","0.0-5.0-2.63","5c4e31b37065de00011f795d","bdp_cybrbll","Sun Apr 02 2023 10:57:26 GMT-0600 (Mountain Daylight Time)","451677","1","3","","","","","","","","","","162","","","","1","2","[{""stimulus"":""img/1to2/1.png"",""time"":101},{""stimulus"":""img/1to2/2.png"",""time"":199},{""stimulus"":""img/1to2/3.png"",""time"":299},{""stimulus"":""img/1to2/4.png"",""time"":397},{""stimulus"":""img/1to2/5.png"",""time"":498},{""stimulus"":""img/1to2/6.png"",""time"":600},{""stimulus"":""img/1to2/7.png"",""time"":695},{""stimulus"":""img/1to2/8.png"",""time"":797},{""stimulus"":""img/1to2/9.png"",""time"":898},{""stimulus"":""img/1to2/10.png"",""time"":995},{""stimulus"":""img/1to2/11.png"",""time"":1094},{""stimulus"":""img/1to2/12.png"",""time"":1200}]","[]"
"image-keyboard-response","132","157756","0.0-5.0-1.64","5c4e31b37065de00011f795d","bdp_cybrbll","Sun Apr 02 2023 10:57:26 GMT-0600 (Mountain Daylight Time)","451677","1","3","","394","","","","choice","","img/2to1/1.png","2","161","416","0.5","0.5","2","3","",""
"animation","133","159047","0.0-5.0-2.64","5c4e31b37065de00011f795d","bdp_cybrbll","Sun Apr 02 2023 10:57:26 GMT-0600 (Mountain Daylight Time)","451677","1","3","","","","","","","","","","161","","","","2","3","[{""stimulus"":""img/2to3/1.png"",""time"":102},{""stimulus"":""img/2to3/2.png"",""time"":204},{""stimulus"":""img/2to3/3.png"",""time"":298},{""stimulus"":""img/2to3/4.png"",""time"":404},{""stimulus"":""img/2to3/5.png"",""time"":504},{""stimulus"":""img/2to3/6.png"",""time"":603},{""stimulus"":""img/2to3/7.png"",""time"":694},{""stimulus"":""img/2to3/8.png"",""time"":794},{""stimulus"":""img/2to3/9.png"",""time"":902},{""stimulus"":""img/2to3/10.png"",""time"":994},{""stimulus"":""img/2to3/11.png"",""time"":1092},{""stimulus"":""img/2to3/12.png"",""time"":1189}]","[]"
"image-keyboard-response","134","159269","0.0-5.0-1.65","5c4e31b37065de00011f795d","bdp_cybrbll","Sun Apr 02 2023 10:57:26 GMT-0600 (Mountain Daylight Time)","451677","1","3","","null","","","","observe","","img/3to2/1.png","null","160","218","0.5","0.5","3","2","",""
"animation","135","160557","0.0-5.0-2.65","5c4e31b37065de00011f795d","bdp_cybrbll","Sun Apr 02 2023 10:57:26 GMT-0600 (Mountain Daylight Time)","451677","1","3","","","","","","","","","","160","","","","3","2","[{""stimulus"":""img/3to2/1.png"",""time"":101},{""stimulus"":""img/3to2/2.png"",""time"":199},{""stimulus"":""img/3to2/3.png"",""time"":298},{""stimulus"":""img/3to2/4.png"",""time"":397},{""stimulus"":""img/3to2/5.png"",""time"":496},{""stimulus"":""img/3to2/6.png"",""time"":595},{""stimulus"":""img/3to2/7.png"",""time"":695},{""stimulus"":""img/3to2/8.png"",""time"":793},{""stimulus"":""img/3to2/9.png"",""time"":893},{""stimulus"":""img/3to2/10.png"",""time"":991},{""stimulus"":""img/3to2/11.png"",""time"":1093},{""stimulus"":""img/3to2/12.png"",""time"":1191}]","[]"
"image-keyboard-response","136","160823","0.0-5.0-1.66","5c4e31b37065de00011f795d","bdp_cybrbll","Sun Apr 02 2023 10:57:26 GMT-0600 (Mountain Daylight Time)","451677","1","3","","260","","","","choice","","img/2to1/1.png","1","159","291","0.5","0.5","2","1","",""
"animation","137","162111","0.0-5.0-2.66","5c4e31b37065de00011f795d","bdp_cybrbll","Sun Apr 02 2023 10:57:26 GMT-0600 (Mountain Daylight Time)","451677","1","3","","","","","","","","","","159","","","","2","1","[{""stimulus"":""img/2to1/1.png"",""time"":101},{""stimulus"":""img/2to1/2.png"",""time"":202},{""stimulus"":""img/2to1/3.png"",""time"":298},{""stimulus"":""img/2to1/4.png"",""time"":397},{""stimulus"":""img/2to1/5.png"",""time"":496},{""stimulus"":""img/2to1/6.png"",""time"":595},{""stimulus"":""img/2to1/7.png"",""time"":694},{""stimulus"":""img/2to1/8.png"",""time"":793},{""stimulus"":""img/2to1/9.png"",""time"":893},{""stimulus"":""img/2to1/10.png"",""time"":992},{""stimulus"":""img/2to1/11.png"",""time"":1092},{""stimulus"":""img/2to1/12.png"",""time"":1190}]","[]"
"image-keyboard-response","138","162351","0.0-5.0-1.67","5c4e31b37065de00011f795d","bdp_cybrbll","Sun Apr 02 2023 10:57:26 GMT-0600 (Mountain Daylight Time)","451677","1","3","","null","","","","observe","","img/1to3/1.png","null","158","236","0.5","0.5","1","3","",""
"animation","139","163640","0.0-5.0-2.67","5c4e31b37065de00011f795d","bdp_cybrbll","Sun Apr 02 2023 10:57:26 GMT-0600 (Mountain Daylight Time)","451677","1","3","","","","","","","","","","158","","","","1","3","[{""stimulus"":""img/1to3/1.png"",""time"":101},{""stimulus"":""img/1to3/2.png"",""time"":202},{""stimulus"":""img/1to3/3.png"",""time"":299},{""stimulus"":""img/1to3/4.png"",""time"":398},{""stimulus"":""img/1to3/5.png"",""time"":496},{""stimulus"":""img/1to3/6.png"",""time"":596},{""stimulus"":""img/1to3/7.png"",""time"":695},{""stimulus"":""img/1to3/8.png"",""time"":794},{""stimulus"":""img/1to3/9.png"",""time"":893},{""stimulus"":""img/1to3/10.png"",""time"":991},{""stimulus"":""img/1to3/11.png"",""time"":1090},{""stimulus"":""img/1to3/12.png"",""time"":1191}]","[]"
"image-keyboard-response","140","164397","0.0-5.0-1.68","5c4e31b37065de00011f795d","bdp_cybrbll","Sun Apr 02 2023 10:57:26 GMT-0600 (Mountain Daylight Time)","451677","1","3","","null","","","","observe","","img/3to2/1.png","null","157","753","0.5","0.5","3","1","",""
"animation","141","165685","0.0-5.0-2.68","5c4e31b37065de00011f795d","bdp_cybrbll","Sun Apr 02 2023 10:57:26 GMT-0600 (Mountain Daylight Time)","451677","1","3","","","","","","","","","","157","","","","3","1","[{""stimulus"":""img/3to1/1.png"",""time"":103},{""stimulus"":""img/3to1/2.png"",""time"":200},{""stimulus"":""img/3to1/3.png"",""time"":299},{""stimulus"":""img/3to1/4.png"",""time"":399},{""stimulus"":""img/3to1/5.png"",""time"":496},{""stimulus"":""img/3to1/6.png"",""time"":595},{""stimulus"":""img/3to1/7.png"",""time"":695},{""stimulus"":""img/3to1/8.png"",""time"":793},{""stimulus"":""img/3to1/9.png"",""time"":892},{""stimulus"":""img/3to1/10.png"",""time"":992},{""stimulus"":""img/3to1/11.png"",""time"":1090},{""stimulus"":""img/3to1/12.png"",""time"":1189}]","[]"
"image-keyboard-response","142","165968","0.0-5.0-1.69","5c4e31b37065de00011f795d","bdp_cybrbll","Sun Apr 02 2023 10:57:26 GMT-0600 (Mountain Daylight Time)","451677","1","3","","null","","","","observe","","img/1to3/1.png","null","156","280","0.5","0.5","1","3","",""
"animation","143","167265","0.0-5.0-2.69","5c4e31b37065de00011f795d","bdp_cybrbll","Sun Apr 02 2023 10:57:26 GMT-0600 (Mountain Daylight Time)","451677","1","3","","","","","","","","","","156","","","","1","3","[{""stimulus"":""img/1to3/1.png"",""time"":101},{""stimulus"":""img/1to3/2.png"",""time"":200},{""stimulus"":""img/1to3/3.png"",""time"":299},{""stimulus"":""img/1to3/4.png"",""time"":397},{""stimulus"":""img/1to3/5.png"",""time"":496},{""stimulus"":""img/1to3/6.png"",""time"":597},{""stimulus"":""img/1to3/7.png"",""time"":697},{""stimulus"":""img/1to3/8.png"",""time"":794},{""stimulus"":""img/1to3/9.png"",""time"":895},{""stimulus"":""img/1to3/10.png"",""time"":996},{""stimulus"":""img/1to3/11.png"",""time"":1093},{""stimulus"":""img/1to3/12.png"",""time"":1195}]","[]"
"image-keyboard-response","144","167562","0.0-5.0-1.70","5c4e31b37065de00011f795d","bdp_cybrbll","Sun Apr 02 2023 10:57:26 GMT-0600 (Mountain Daylight Time)","451677","1","3","","null","","","","observe","","img/3to2/1.png","null","155","283","0.5","0.5","3","1","",""
"animation","145","168850","0.0-5.0-2.70","5c4e31b37065de00011f795d","bdp_cybrbll","Sun Apr 02 2023 10:57:26 GMT-0600 (Mountain Daylight Time)","451677","1","3","","","","","","","","","","155","","","","3","1","[{""stimulus"":""img/3to1/1.png"",""time"":102},{""stimulus"":""img/3to1/2.png"",""time"":201},{""stimulus"":""img/3to1/3.png"",""time"":298},{""stimulus"":""img/3to1/4.png"",""time"":401},{""stimulus"":""img/3to1/5.png"",""time"":503},{""stimulus"":""img/3to1/6.png"",""time"":603},{""stimulus"":""img/3to1/7.png"",""time"":702},{""stimulus"":""img/3to1/8.png"",""time"":802},{""stimulus"":""img/3to1/9.png"",""time"":899},{""stimulus"":""img/3to1/10.png"",""time"":1000},{""stimulus"":""img/3to1/11.png"",""time"":1090},{""stimulus"":""img/3to1/12.png"",""time"":1191}]","[]"
"image-keyboard-response","146","170128","0.0-5.0-1.71","5c4e31b37065de00011f795d","bdp_cybrbll","Sun Apr 02 2023 10:57:26 GMT-0600 (Mountain Daylight Time)","451677","1","3","","null","","","","observe","","img/1to3/1.png","null","154","1271","0.5","0.5","1","3","",""
"animation","147","171416","0.0-5.0-2.71","5c4e31b37065de00011f795d","bdp_cybrbll","Sun Apr 02 2023 10:57:26 GMT-0600 (Mountain Daylight Time)","451677","1","3","","","","","","","","","","154","","","","1","3","[{""stimulus"":""img/1to3/1.png"",""time"":102},{""stimulus"":""img/1to3/2.png"",""time"":201},{""stimulus"":""img/1to3/3.png"",""time"":300},{""stimulus"":""img/1to3/4.png"",""time"":398},{""stimulus"":""img/1to3/5.png"",""time"":498},{""stimulus"":""img/1to3/6.png"",""time"":597},{""stimulus"":""img/1to3/7.png"",""time"":697},{""stimulus"":""img/1to3/8.png"",""time"":800},{""stimulus"":""img/1to3/9.png"",""time"":895},{""stimulus"":""img/1to3/10.png"",""time"":994},{""stimulus"":""img/1to3/11.png"",""time"":1090},{""stimulus"":""img/1to3/12.png"",""time"":1189}]","[]"
"image-keyboard-response","148","171970","0.0-5.0-1.72","5c4e31b37065de00011f795d","bdp_cybrbll","Sun Apr 02 2023 10:57:26 GMT-0600 (Mountain Daylight Time)","451677","1","3","","null","","","","observe","","img/3to2/1.png","null","153","550","0.5","0.5","3","2","",""
"animation","149","173264","0.0-5.0-2.72","5c4e31b37065de00011f795d","bdp_cybrbll","Sun Apr 02 2023 10:57:26 GMT-0600 (Mountain Daylight Time)","451677","1","3","","","","","","","","","","153","","","","3","2","[{""stimulus"":""img/3to2/1.png"",""time"":100},{""stimulus"":""img/3to2/2.png"",""time"":199},{""stimulus"":""img/3to2/3.png"",""time"":298},{""stimulus"":""img/3to2/4.png"",""time"":397},{""stimulus"":""img/3to2/5.png"",""time"":497},{""stimulus"":""img/3to2/6.png"",""time"":595},{""stimulus"":""img/3to2/7.png"",""time"":695},{""stimulus"":""img/3to2/8.png"",""time"":793},{""stimulus"":""img/3to2/9.png"",""time"":893},{""stimulus"":""img/3to2/10.png"",""time"":993},{""stimulus"":""img/3to2/11.png"",""time"":1095},{""stimulus"":""img/3to2/12.png"",""time"":1193}]","[]"
"image-keyboard-response","150","173818","0.0-5.0-1.73","5c4e31b37065de00011f795d","bdp_cybrbll","Sun Apr 02 2023 10:57:26 GMT-0600 (Mountain Daylight Time)","451677","1","3","","553","","","","choice","","img/2to1/1.png","1","152","222","0.5","0.5","2","1","",""
"animation","151","175107","0.0-5.0-2.73","5c4e31b37065de00011f795d","bdp_cybrbll","Sun Apr 02 2023 10:57:26 GMT-0600 (Mountain Daylight Time)","451677","1","3","","","","","","","","","","152","","","","2","1","[{""stimulus"":""img/2to1/1.png"",""time"":102},{""stimulus"":""img/2to1/2.png"",""time"":201},{""stimulus"":""img/2to1/3.png"",""time"":299},{""stimulus"":""img/2to1/4.png"",""time"":398},{""stimulus"":""img/2to1/5.png"",""time"":496},{""stimulus"":""img/2to1/6.png"",""time"":595},{""stimulus"":""img/2to1/7.png"",""time"":694},{""stimulus"":""img/2to1/8.png"",""time"":795},{""stimulus"":""img/2to1/9.png"",""time"":893},{""stimulus"":""img/2to1/10.png"",""time"":994},{""stimulus"":""img/2to1/11.png"",""time"":1094},{""stimulus"":""img/2to1/12.png"",""time"":1192}]","[]"
"image-keyboard-response","152","176369","0.0-5.0-1.74","5c4e31b37065de00011f795d","bdp_cybrbll","Sun Apr 02 2023 10:57:26 GMT-0600 (Mountain Daylight Time)","451677","1","3","","null","","","","observe","","img/1to3/1.png","null","151","1257","0.5","0.5","1","3","",""
"animation","153","177663","0.0-5.0-2.74","5c4e31b37065de00011f795d","bdp_cybrbll","Sun Apr 02 2023 10:57:26 GMT-0600 (Mountain Daylight Time)","451677","1","3","","","","","","","","","","151","","","","1","3","[{""stimulus"":""img/1to3/1.png"",""time"":101},{""stimulus"":""img/1to3/2.png"",""time"":199},{""stimulus"":""img/1to3/3.png"",""time"":299},{""stimulus"":""img/1to3/4.png"",""time"":398},{""stimulus"":""img/1to3/5.png"",""time"":496},{""stimulus"":""img/1to3/6.png"",""time"":595},{""stimulus"":""img/1to3/7.png"",""time"":694},{""stimulus"":""img/1to3/8.png"",""time"":796},{""stimulus"":""img/1to3/9.png"",""time"":893},{""stimulus"":""img/1to3/10.png"",""time"":991},{""stimulus"":""img/1to3/11.png"",""time"":1092},{""stimulus"":""img/1to3/12.png"",""time"":1191}]","[]"
"image-keyboard-response","154","178754","0.0-5.0-1.75","5c4e31b37065de00011f795d","bdp_cybrbll","Sun Apr 02 2023 10:57:26 GMT-0600 (Mountain Daylight Time)","451677","1","3","","null","","","","observe","","img/3to2/1.png","null","150","1088","0.5","0.5","3","2","",""
"animation","155","180042","0.0-5.0-2.75","5c4e31b37065de00011f795d","bdp_cybrbll","Sun Apr 02 2023 10:57:26 GMT-0600 (Mountain Daylight Time)","451677","1","3","","","","","","","","","","150","","","","3","2","[{""stimulus"":""img/3to2/1.png"",""time"":109},{""stimulus"":""img/3to2/2.png"",""time"":206},{""stimulus"":""img/3to2/3.png"",""time"":308},{""stimulus"":""img/3to2/4.png"",""time"":397},{""stimulus"":""img/3to2/5.png"",""time"":499},{""stimulus"":""img/3to2/6.png"",""time"":595},{""stimulus"":""img/3to2/7.png"",""time"":696},{""stimulus"":""img/3to2/8.png"",""time"":805},{""stimulus"":""img/3to2/9.png"",""time"":893},{""stimulus"":""img/3to2/10.png"",""time"":996},{""stimulus"":""img/3to2/11.png"",""time"":1091},{""stimulus"":""img/3to2/12.png"",""time"":1189}]","[]"
"image-keyboard-response","156","180681","0.0-5.0-1.76","5c4e31b37065de00011f795d","bdp_cybrbll","Sun Apr 02 2023 10:57:26 GMT-0600 (Mountain Daylight Time)","451677","1","3","","634","","","","choice","","img/2to1/1.png","1","149","804","0.5","0.1","2","1","",""
"animation","157","181970","0.0-5.0-2.76","5c4e31b37065de00011f795d","bdp_cybrbll","Sun Apr 02 2023 10:57:26 GMT-0600 (Mountain Daylight Time)","451677","1","3","","","","","","","","","","149","","","","2","1","[{""stimulus"":""img/2to1/1.png"",""time"":102},{""stimulus"":""img/2to1/2.png"",""time"":199},{""stimulus"":""img/2to1/3.png"",""time"":298},{""stimulus"":""img/2to1/4.png"",""time"":398},{""stimulus"":""img/2to1/5.png"",""time"":497},{""stimulus"":""img/2to1/6.png"",""time"":596},{""stimulus"":""img/2to1/7.png"",""time"":695},{""stimulus"":""img/2to1/8.png"",""time"":793},{""stimulus"":""img/2to1/9.png"",""time"":893},{""stimulus"":""img/2to1/10.png"",""time"":991},{""stimulus"":""img/2to1/11.png"",""time"":1090},{""stimulus"":""img/2to1/12.png"",""time"":1189}]","[]"
"image-keyboard-response","158","182336","0.0-5.0-1.77","5c4e31b37065de00011f795d","bdp_cybrbll","Sun Apr 02 2023 10:57:26 GMT-0600 (Mountain Daylight Time)","451677","1","3","","null","","","","observe","","img/1to3/1.png","null","148","363","0.5","0.1","1","2","",""
"animation","159","183625","0.0-5.0-2.77","5c4e31b37065de00011f795d","bdp_cybrbll","Sun Apr 02 2023 10:57:26 GMT-0600 (Mountain Daylight Time)","451677","1","3","","","","","","","","","","148","","","","1","2","[{""stimulus"":""img/1to2/1.png"",""time"":100},{""stimulus"":""img/1to2/2.png"",""time"":200},{""stimulus"":""img/1to2/3.png"",""time"":301},{""stimulus"":""img/1to2/4.png"",""time"":398},{""stimulus"":""img/1to2/5.png"",""time"":497},{""stimulus"":""img/1to2/6.png"",""time"":596},{""stimulus"":""img/1to2/7.png"",""time"":695},{""stimulus"":""img/1to2/8.png"",""time"":794},{""stimulus"":""img/1to2/9.png"",""time"":892},{""stimulus"":""img/1to2/10.png"",""time"":992},{""stimulus"":""img/1to2/11.png"",""time"":1091},{""stimulus"":""img/1to2/12.png"",""time"":1190}]","[]"
"image-keyboard-response","160","184064","0.0-5.0-1.78","5c4e31b37065de00011f795d","bdp_cybrbll","Sun Apr 02 2023 10:57:26 GMT-0600 (Mountain Daylight Time)","451677","1","3","","436","","","","choice","","img/2to1/1.png","2","147","493","0.5","0.1","2","3","",""
"animation","161","185353","0.0-5.0-2.78","5c4e31b37065de00011f795d","bdp_cybrbll","Sun Apr 02 2023 10:57:26 GMT-0600 (Mountain Daylight Time)","451677","1","3","","","","","","","","","","147","","","","2","3","[{""stimulus"":""img/2to3/1.png"",""time"":101},{""stimulus"":""img/2to3/2.png"",""time"":199},{""stimulus"":""img/2to3/3.png"",""time"":298},{""stimulus"":""img/2to3/4.png"",""time"":397},{""stimulus"":""img/2to3/5.png"",""time"":496},{""stimulus"":""img/2to3/6.png"",""time"":596},{""stimulus"":""img/2to3/7.png"",""time"":694},{""stimulus"":""img/2to3/8.png"",""time"":797},{""stimulus"":""img/2to3/9.png"",""time"":892},{""stimulus"":""img/2to3/10.png"",""time"":993},{""stimulus"":""img/2to3/11.png"",""time"":1095},{""stimulus"":""img/2to3/12.png"",""time"":1193}]","[]"
"image-keyboard-response","162","186074","0.0-5.0-1.79","5c4e31b37065de00011f795d","bdp_cybrbll","Sun Apr 02 2023 10:57:26 GMT-0600 (Mountain Daylight Time)","451677","1","3","","null","","","","observe","","img/3to2/1.png","null","146","715","0.5","0.1","3","1","",""
"animation","163","187362","0.0-5.0-2.79","5c4e31b37065de00011f795d","bdp_cybrbll","Sun Apr 02 2023 10:57:26 GMT-0600 (Mountain Daylight Time)","451677","1","3","","","","","","","","","","146","","","","3","1","[{""stimulus"":""img/3to1/1.png"",""time"":100},{""stimulus"":""img/3to1/2.png"",""time"":199},{""stimulus"":""img/3to1/3.png"",""time"":298},{""stimulus"":""img/3to1/4.png"",""time"":397},{""stimulus"":""img/3to1/5.png"",""time"":496},{""stimulus"":""img/3to1/6.png"",""time"":595},{""stimulus"":""img/3to1/7.png"",""time"":694},{""stimulus"":""img/3to1/8.png"",""time"":793},{""stimulus"":""img/3to1/9.png"",""time"":892},{""stimulus"":""img/3to1/10.png"",""time"":990},{""stimulus"":""img/3to1/11.png"",""time"":1089},{""stimulus"":""img/3to1/12.png"",""time"":1189}]","[]"
"image-keyboard-response","164","188285","0.0-5.0-1.80","5c4e31b37065de00011f795d","bdp_cybrbll","Sun Apr 02 2023 10:57:26 GMT-0600 (Mountain Daylight Time)","451677","1","3","","null","","","","observe","","img/1to3/1.png","null","145","921","0.5","0.1","1","3","",""
"animation","165","189573","0.0-5.0-2.80","5c4e31b37065de00011f795d","bdp_cybrbll","Sun Apr 02 2023 10:57:26 GMT-0600 (Mountain Daylight Time)","451677","1","3","","","","","","","","","","145","","","","1","3","[{""stimulus"":""img/1to3/1.png"",""time"":101},{""stimulus"":""img/1to3/2.png"",""time"":200},{""stimulus"":""img/1to3/3.png"",""time"":298},{""stimulus"":""img/1to3/4.png"",""time"":397},{""stimulus"":""img/1to3/5.png"",""time"":496},{""stimulus"":""img/1to3/6.png"",""time"":595},{""stimulus"":""img/1to3/7.png"",""time"":694},{""stimulus"":""img/1to3/8.png"",""time"":793},{""stimulus"":""img/1to3/9.png"",""time"":893},{""stimulus"":""img/1to3/10.png"",""time"":991},{""stimulus"":""img/1to3/11.png"",""time"":1090},{""stimulus"":""img/1to3/12.png"",""time"":1189}]","[]"
"image-keyboard-response","166","189875","0.0-5.0-1.81","5c4e31b37065de00011f795d","bdp_cybrbll","Sun Apr 02 2023 10:57:26 GMT-0600 (Mountain Daylight Time)","451677","1","3","","null","","","","observe","","img/3to2/1.png","null","144","300","0.5","0.1","3","1","",""
"animation","167","191163","0.0-5.0-2.81","5c4e31b37065de00011f795d","bdp_cybrbll","Sun Apr 02 2023 10:57:26 GMT-0600 (Mountain Daylight Time)","451677","1","3","","","","","","","","","","144","","","","3","1","[{""stimulus"":""img/3to1/1.png"",""time"":100},{""stimulus"":""img/3to1/2.png"",""time"":199},{""stimulus"":""img/3to1/3.png"",""time"":298},{""stimulus"":""img/3to1/4.png"",""time"":396},{""stimulus"":""img/3to1/5.png"",""time"":496},{""stimulus"":""img/3to1/6.png"",""time"":594},{""stimulus"":""img/3to1/7.png"",""time"":693},{""stimulus"":""img/3to1/8.png"",""time"":793},{""stimulus"":""img/3to1/9.png"",""time"":892},{""stimulus"":""img/3to1/10.png"",""time"":991},{""stimulus"":""img/3to1/11.png"",""time"":1090},{""stimulus"":""img/3to1/12.png"",""time"":1193}]","[]"
"image-keyboard-response","168","191430","0.0-5.0-1.82","5c4e31b37065de00011f795d","bdp_cybrbll","Sun Apr 02 2023 10:57:26 GMT-0600 (Mountain Daylight Time)","451677","1","3","","null","","","","observe","","img/1to3/1.png","null","143","265","0.5","0.1","1","3","",""
"animation","169","192719","0.0-5.0-2.82","5c4e31b37065de00011f795d","bdp_cybrbll","Sun Apr 02 2023 10:57:26 GMT-0600 (Mountain Daylight Time)","451677","1","3","","","","","","","","","","143","","","","1","3","[{""stimulus"":""img/1to3/1.png"",""time"":102},{""stimulus"":""img/1to3/2.png"",""time"":201},{""stimulus"":""img/1to3/3.png"",""time"":299},{""stimulus"":""img/1to3/4.png"",""time"":398},{""stimulus"":""img/1to3/5.png"",""time"":499},{""stimulus"":""img/1to3/6.png"",""time"":598},{""stimulus"":""img/1to3/7.png"",""time"":696},{""stimulus"":""img/1to3/8.png"",""time"":793},{""stimulus"":""img/1to3/9.png"",""time"":892},{""stimulus"":""img/1to3/10.png"",""time"":990},{""stimulus"":""img/1to3/11.png"",""time"":1090},{""stimulus"":""img/1to3/12.png"",""time"":1190}]","[]"
"image-keyboard-response","170","193962","0.0-5.0-1.83","5c4e31b37065de00011f795d","bdp_cybrbll","Sun Apr 02 2023 10:57:26 GMT-0600 (Mountain Daylight Time)","451677","1","3","","null","","","","observe","","img/3to2/1.png","null","142","1236","0.5","0.1","3","1","",""
"animation","171","195250","0.0-5.0-2.83","5c4e31b37065de00011f795d","bdp_cybrbll","Sun Apr 02 2023 10:57:26 GMT-0600 (Mountain Daylight Time)","451677","1","3","","","","","","","","","","142","","","","3","1","[{""stimulus"":""img/3to1/1.png"",""time"":101},{""stimulus"":""img/3to1/2.png"",""time"":199},{""stimulus"":""img/3to1/3.png"",""time"":298},{""stimulus"":""img/3to1/4.png"",""time"":397},{""stimulus"":""img/3to1/5.png"",""time"":497},{""stimulus"":""img/3to1/6.png"",""time"":602},{""stimulus"":""img/3to1/7.png"",""time"":700},{""stimulus"":""img/3to1/8.png"",""time"":797},{""stimulus"":""img/3to1/9.png"",""time"":900},{""stimulus"":""img/3to1/10.png"",""time"":1002},{""stimulus"":""img/3to1/11.png"",""time"":1091},{""stimulus"":""img/3to1/12.png"",""time"":1199}]","[]"
"image-keyboard-response","172","195741","0.0-5.0-1.84","5c4e31b37065de00011f795d","bdp_cybrbll","Sun Apr 02 2023 10:57:26 GMT-0600 (Mountain Daylight Time)","451677","1","3","","null","","","","observe","","img/1to3/1.png","null","141","487","0.5","0.1","1","3","",""
"animation","173","197030","0.0-5.0-2.84","5c4e31b37065de00011f795d","bdp_cybrbll","Sun Apr 02 2023 10:57:26 GMT-0600 (Mountain Daylight Time)","451677","1","3","","","","","","","","","","141","","","","1","3","[{""stimulus"":""img/1to3/1.png"",""time"":102},{""stimulus"":""img/1to3/2.png"",""time"":202},{""stimulus"":""img/1to3/3.png"",""time"":300},{""stimulus"":""img/1to3/4.png"",""time"":399},{""stimulus"":""img/1to3/5.png"",""time"":497},{""stimulus"":""img/1to3/6.png"",""time"":597},{""stimulus"":""img/1to3/7.png"",""time"":696},{""stimulus"":""img/1to3/8.png"",""time"":795},{""stimulus"":""img/1to3/9.png"",""time"":894},{""stimulus"":""img/1to3/10.png"",""time"":993},{""stimulus"":""img/1to3/11.png"",""time"":1092},{""stimulus"":""img/1to3/12.png"",""time"":1191}]","[]"
"image-keyboard-response","174","197389","0.0-5.0-1.85","5c4e31b37065de00011f795d","bdp_cybrbll","Sun Apr 02 2023 10:57:26 GMT-0600 (Mountain Daylight Time)","451677","1","3","","null","","","","observe","","img/3to2/1.png","null","140","354","0.5","0.1","3","1","",""
"animation","175","198678","0.0-5.0-2.85","5c4e31b37065de00011f795d","bdp_cybrbll","Sun Apr 02 2023 10:57:26 GMT-0600 (Mountain Daylight Time)","451677","1","3","","","","","","","","","","140","","","","3","1","[{""stimulus"":""img/3to1/1.png"",""time"":101},{""stimulus"":""img/3to1/2.png"",""time"":200},{""stimulus"":""img/3to1/3.png"",""time"":299},{""stimulus"":""img/3to1/4.png"",""time"":398},{""stimulus"":""img/3to1/5.png"",""time"":497},{""stimulus"":""img/3to1/6.png"",""time"":595},{""stimulus"":""img/3to1/7.png"",""time"":695},{""stimulus"":""img/3to1/8.png"",""time"":794},{""stimulus"":""img/3to1/9.png"",""time"":893},{""stimulus"":""img/3to1/10.png"",""time"":991},{""stimulus"":""img/3to1/11.png"",""time"":1090},{""stimulus"":""img/3to1/12.png"",""time"":1196}]","[]"
"image-keyboard-response","176","199778","0.0-5.0-1.86","5c4e31b37065de00011f795d","bdp_cybrbll","Sun Apr 02 2023 10:57:26 GMT-0600 (Mountain Daylight Time)","451677","1","3","","null","","","","observe","","img/1to3/1.png","null","139","1098","0.5","0.1","1","3","",""
"animation","177","201066","0.0-5.0-2.86","5c4e31b37065de00011f795d","bdp_cybrbll","Sun Apr 02 2023 10:57:26 GMT-0600 (Mountain Daylight Time)","451677","1","3","","","","","","","","","","139","","","","1","3","[{""stimulus"":""img/1to3/1.png"",""time"":101},{""stimulus"":""img/1to3/2.png"",""time"":199},{""stimulus"":""img/1to3/3.png"",""time"":299},{""stimulus"":""img/1to3/4.png"",""time"":397},{""stimulus"":""img/1to3/5.png"",""time"":497},{""stimulus"":""img/1to3/6.png"",""time"":595},{""stimulus"":""img/1to3/7.png"",""time"":694},{""stimulus"":""img/1to3/8.png"",""time"":793},{""stimulus"":""img/1to3/9.png"",""time"":892},{""stimulus"":""img/1to3/10.png"",""time"":991},{""stimulus"":""img/1to3/11.png"",""time"":1092},{""stimulus"":""img/1to3/12.png"",""time"":1189}]","[]"
"image-keyboard-response","178","201515","0.0-5.0-1.87","5c4e31b37065de00011f795d","bdp_cybrbll","Sun Apr 02 2023 10:57:26 GMT-0600 (Mountain Daylight Time)","451677","1","3","","null","","","","observe","","img/3to2/1.png","null","138","446","0.5","0.1","3","1","",""
"animation","179","202804","0.0-5.0-2.87","5c4e31b37065de00011f795d","bdp_cybrbll","Sun Apr 02 2023 10:57:26 GMT-0600 (Mountain Daylight Time)","451677","1","3","","","","","","","","","","138","","","","3","1","[{""stimulus"":""img/3to1/1.png"",""time"":104},{""stimulus"":""img/3to1/2.png"",""time"":202},{""stimulus"":""img/3to1/3.png"",""time"":298},{""stimulus"":""img/3to1/4.png"",""time"":398},{""stimulus"":""img/3to1/5.png"",""time"":497},{""stimulus"":""img/3to1/6.png"",""time"":596},{""stimulus"":""img/3to1/7.png"",""time"":695},{""stimulus"":""img/3to1/8.png"",""time"":794},{""stimulus"":""img/3to1/9.png"",""time"":892},{""stimulus"":""img/3to1/10.png"",""time"":991},{""stimulus"":""img/3to1/11.png"",""time"":1091},{""stimulus"":""img/3to1/12.png"",""time"":1190}]","[]"
"image-keyboard-response","180","203071","0.0-5.0-1.88","5c4e31b37065de00011f795d","bdp_cybrbll","Sun Apr 02 2023 10:57:26 GMT-0600 (Mountain Daylight Time)","451677","1","3","","null","","","","observe","","img/1to3/1.png","null","137","262","0.5","0.1","1","3","",""
"animation","181","204362","0.0-5.0-2.88","5c4e31b37065de00011f795d","bdp_cybrbll","Sun Apr 02 2023 10:57:26 GMT-0600 (Mountain Daylight Time)","451677","1","3","","","","","","","","","","137","","","","1","3","[{""stimulus"":""img/1to3/1.png"",""time"":102},{""stimulus"":""img/1to3/2.png"",""time"":200},{""stimulus"":""img/1to3/3.png"",""time"":299},{""stimulus"":""img/1to3/4.png"",""time"":398},{""stimulus"":""img/1to3/5.png"",""time"":496},{""stimulus"":""img/1to3/6.png"",""time"":595},{""stimulus"":""img/1to3/7.png"",""time"":694},{""stimulus"":""img/1to3/8.png"",""time"":794},{""stimulus"":""img/1to3/9.png"",""time"":892},{""stimulus"":""img/1to3/10.png"",""time"":993},{""stimulus"":""img/1to3/11.png"",""time"":1092},{""stimulus"":""img/1to3/12.png"",""time"":1192}]","[]"
"image-keyboard-response","182","204543","0.0-5.0-1.89","5c4e31b37065de00011f795d","bdp_cybrbll","Sun Apr 02 2023 10:57:26 GMT-0600 (Mountain Daylight Time)","451677","1","3","","null","","","","observe","","img/3to2/1.png","null","136","178","0.5","0.1","3","1","",""
"animation","183","205832","0.0-5.0-2.89","5c4e31b37065de00011f795d","bdp_cybrbll","Sun Apr 02 2023 10:57:26 GMT-0600 (Mountain Daylight Time)","451677","1","3","","","","","","","","","","136","","","","3","1","[{""stimulus"":""img/3to1/1.png"",""time"":104},{""stimulus"":""img/3to1/2.png"",""time"":202},{""stimulus"":""img/3to1/3.png"",""time"":301},{""stimulus"":""img/3to1/4.png"",""time"":399},{""stimulus"":""img/3to1/5.png"",""time"":498},{""stimulus"":""img/3to1/6.png"",""time"":595},{""stimulus"":""img/3to1/7.png"",""time"":701},{""stimulus"":""img/3to1/8.png"",""time"":796},{""stimulus"":""img/3to1/9.png"",""time"":894},{""stimulus"":""img/3to1/10.png"",""time"":994},{""stimulus"":""img/3to1/11.png"",""time"":1093},{""stimulus"":""img/3to1/12.png"",""time"":1191}]","[]"
"image-keyboard-response","184","206416","0.0-5.0-1.90","5c4e31b37065de00011f795d","bdp_cybrbll","Sun Apr 02 2023 10:57:26 GMT-0600 (Mountain Daylight Time)","451677","1","3","","null","","","","observe","","img/1to3/1.png","null","135","579","0.5","0.1","1","3","",""
"animation","185","207705","0.0-5.0-2.90","5c4e31b37065de00011f795d","bdp_cybrbll","Sun Apr 02 2023 10:57:26 GMT-0600 (Mountain Daylight Time)","451677","1","3","","","","","","","","","","135","","","","1","3","[{""stimulus"":""img/1to3/1.png"",""time"":102},{""stimulus"":""img/1to3/2.png"",""time"":201},{""stimulus"":""img/1to3/3.png"",""time"":299},{""stimulus"":""img/1to3/4.png"",""time"":400},{""stimulus"":""img/1to3/5.png"",""time"":498},{""stimulus"":""img/1to3/6.png"",""time"":598},{""stimulus"":""img/1to3/7.png"",""time"":695},{""stimulus"":""img/1to3/8.png"",""time"":794},{""stimulus"":""img/1to3/9.png"",""time"":893},{""stimulus"":""img/1to3/10.png"",""time"":992},{""stimulus"":""img/1to3/11.png"",""time"":1091},{""stimulus"":""img/1to3/12.png"",""time"":1190}]","[]"
"image-keyboard-response","186","208134","0.0-5.0-1.91","5c4e31b37065de00011f795d","bdp_cybrbll","Sun Apr 02 2023 10:57:26 GMT-0600 (Mountain Daylight Time)","451677","1","3","","null","","","","observe","","img/3to2/1.png","null","134","424","0.5","0.1","3","1","",""
"animation","187","209423","0.0-5.0-2.91","5c4e31b37065de00011f795d","bdp_cybrbll","Sun Apr 02 2023 10:57:26 GMT-0600 (Mountain Daylight Time)","451677","1","3","","","","","","","","","","134","","","","3","1","[{""stimulus"":""img/3to1/1.png"",""time"":102},{""stimulus"":""img/3to1/2.png"",""time"":202},{""stimulus"":""img/3to1/3.png"",""time"":299},{""stimulus"":""img/3to1/4.png"",""time"":399},{""stimulus"":""img/3to1/5.png"",""time"":498},{""stimulus"":""img/3to1/6.png"",""time"":597},{""stimulus"":""img/3to1/7.png"",""time"":696},{""stimulus"":""img/3to1/8.png"",""time"":797},{""stimulus"":""img/3to1/9.png"",""time"":895},{""stimulus"":""img/3to1/10.png"",""time"":991},{""stimulus"":""img/3to1/11.png"",""time"":1090},{""stimulus"":""img/3to1/12.png"",""time"":1191}]","[]"
"image-keyboard-response","188","209903","0.0-5.0-1.92","5c4e31b37065de00011f795d","bdp_cybrbll","Sun Apr 02 2023 10:57:26 GMT-0600 (Mountain Daylight Time)","451677","1","3","","null","","","","observe","","img/1to3/1.png","null","133","475","0.5","0.1","1","2","",""
"animation","189","211192","0.0-5.0-2.92","5c4e31b37065de00011f795d","bdp_cybrbll","Sun Apr 02 2023 10:57:26 GMT-0600 (Mountain Daylight Time)","451677","1","3","","","","","","","","","","133","","","","1","2","[{""stimulus"":""img/1to2/1.png"",""time"":103},{""stimulus"":""img/1to2/2.png"",""time"":202},{""stimulus"":""img/1to2/3.png"",""time"":300},{""stimulus"":""img/1to2/4.png"",""time"":398},{""stimulus"":""img/1to2/5.png"",""time"":496},{""stimulus"":""img/1to2/6.png"",""time"":595},{""stimulus"":""img/1to2/7.png"",""time"":695},{""stimulus"":""img/1to2/8.png"",""time"":793},{""stimulus"":""img/1to2/9.png"",""time"":892},{""stimulus"":""img/1to2/10.png"",""time"":991},{""stimulus"":""img/1to2/11.png"",""time"":1090},{""stimulus"":""img/1to2/12.png"",""time"":1190}]","[]"
"image-keyboard-response","190","211635","0.0-5.0-1.93","5c4e31b37065de00011f795d","bdp_cybrbll","Sun Apr 02 2023 10:57:26 GMT-0600 (Mountain Daylight Time)","451677","1","3","","438","","","","choice","","img/2to1/1.png","2","132","226","0.5","0.1","2","3","",""
