"trial_type","trial_index","time_elapsed","internal_node_id","subject_id","task","startTime","totalTime","fairPartner","unfairPartner","event","trial","time","trialtype","numBlurs","view_history","rt","success","stimulus","key_press","throwsLeft","rtDur","pFair","pUnfair","holder","receiver","animation_sequence","responses"
"pavlovia","0","2","0.0-0.0","60c837327440575481e333ce","bdp_cybrbll","Sat Mar 25 2023 16:41:59 GMT-0700 (Mountain Standard Time)","436658","3","1","","","","","","","","","","","","","","","","","",""
"","","","","60c837327440575481e333ce","bdp_cybrbll","Sat Mar 25 2023 16:41:59 GMT-0700 (Mountain Standard Time)","436658","3","1","blur","1","431","blurevent","1","","","","","","","","","","","","",""
"","","","","60c837327440575481e333ce","bdp_cybrbll","Sat Mar 25 2023 16:41:59 GMT-0700 (Mountain Standard Time)","436658","3","1","focus","1","2135","focusevent","","","","","","","","","","","","","",""
"instructions","1","4007","0.0-1.0","60c837327440575481e333ce","bdp_cybrbll","Sat Mar 25 2023 16:41:59 GMT-0700 (Mountain Standard Time)","436658","3","1","","","","","","[{""page_index"":0,""viewing_time"":4005}]","4005","","","","","","","","","","",""
"","","","","60c837327440575481e333ce","bdp_cybrbll","Sat Mar 25 2023 16:41:59 GMT-0700 (Mountain Standard Time)","436658","3","1","fullscreenenter","2","5686","fullscreenenter","","","","","","","","","","","","","",""
"fullscreen","2","6679","0.0-2.0","60c837327440575481e333ce","bdp_cybrbll","Sat Mar 25 2023 16:41:59 GMT-0700 (Mountain Standard Time)","436658","3","1","","","","","","","","true","","","","","","","","","",""
"instructions","3","17762","0.0-4.0","60c837327440575481e333ce","bdp_cybrbll","Sat Mar 25 2023 16:41:59 GMT-0700 (Mountain Standard Time)","436658","3","1","","","","","","[{""page_index"":0,""viewing_time"":11081}]","11082","","","","","","","","","","",""
"image-keyboard-response","4","20018","0.0-5.0-0.0-0.0","60c837327440575481e333ce","bdp_cybrbll","Sat Mar 25 2023 16:41:59 GMT-0700 (Mountain Standard Time)","436658","3","1","","","","blurwarn","1","","2256","","","49","","","","","","","",""
"image-keyboard-response","5","21337","0.0-5.0-1.0","60c837327440575481e333ce","bdp_cybrbll","Sat Mar 25 2023 16:41:59 GMT-0700 (Mountain Standard Time)","436658","3","1","","","","choice","","","1057","","img/2to1/1.png","1","225","293","0.5","0.5","2","1","",""
"animation","6","22627","0.0-5.0-2.0","60c837327440575481e333ce","bdp_cybrbll","Sat Mar 25 2023 16:41:59 GMT-0700 (Mountain Standard Time)","436658","3","1","","","","","","","","","","","225","","","","2","1","[{""stimulus"":""img/2to1/1.png"",""time"":109},{""stimulus"":""img/2to1/2.png"",""time"":206},{""stimulus"":""img/2to1/3.png"",""time"":308},{""stimulus"":""img/2to1/4.png"",""time"":401},{""stimulus"":""img/2to1/5.png"",""time"":510},{""stimulus"":""img/2to1/6.png"",""time"":604},{""stimulus"":""img/2to1/7.png"",""time"":700},{""stimulus"":""img/2to1/8.png"",""time"":794},{""stimulus"":""img/2to1/9.png"",""time"":903},{""stimulus"":""img/2to1/10.png"",""time"":994},{""stimulus"":""img/2to1/11.png"",""time"":1102},{""stimulus"":""img/2to1/12.png"",""time"":1195}]","[]"
"image-keyboard-response","7","22922","0.0-5.0-1.1","60c837327440575481e333ce","bdp_cybrbll","Sat Mar 25 2023 16:41:59 GMT-0700 (Mountain Standard Time)","436658","3","1","","","","observe","","","null","","img/1to3/1.png","null","224","280","0.5","0.5","1","3","",""
"animation","8","24217","0.0-5.0-2.1","60c837327440575481e333ce","bdp_cybrbll","Sat Mar 25 2023 16:41:59 GMT-0700 (Mountain Standard Time)","436658","3","1","","","","","","","","","","","224","","","","1","3","[{""stimulus"":""img/1to3/1.png"",""time"":109},{""stimulus"":""img/1to3/2.png"",""time"":198},{""stimulus"":""img/1to3/3.png"",""time"":298},{""stimulus"":""img/1to3/4.png"",""time"":407},{""stimulus"":""img/1to3/5.png"",""time"":501},{""stimulus"":""img/1to3/6.png"",""time"":595},{""stimulus"":""img/1to3/7.png"",""time"":703},{""stimulus"":""img/1to3/8.png"",""time"":798},{""stimulus"":""img/1to3/9.png"",""time"":892},{""stimulus"":""img/1to3/10.png"",""time"":991},{""stimulus"":""img/1to3/11.png"",""time"":1093},{""stimulus"":""img/1to3/12.png"",""time"":1202}]","[]"
"image-keyboard-response","9","24743","0.0-5.0-1.2","60c837327440575481e333ce","bdp_cybrbll","Sat Mar 25 2023 16:41:59 GMT-0700 (Mountain Standard Time)","436658","3","1","","","","observe","","","null","","img/3to2/1.png","null","223","510","0.5","0.5","3","2","",""
"animation","10","26046","0.0-5.0-2.2","60c837327440575481e333ce","bdp_cybrbll","Sat Mar 25 2023 16:41:59 GMT-0700 (Mountain Standard Time)","436658","3","1","","","","","","","","","","","223","","","","3","2","[{""stimulus"":""img/3to2/1.png"",""time"":108},{""stimulus"":""img/3to2/2.png"",""time"":199},{""stimulus"":""img/3to2/3.png"",""time"":310},{""stimulus"":""img/3to2/4.png"",""time"":403},{""stimulus"":""img/3to2/5.png"",""time"":510},{""stimulus"":""img/3to2/6.png"",""time"":603},{""stimulus"":""img/3to2/7.png"",""time"":694},{""stimulus"":""img/3to2/8.png"",""time"":805},{""stimulus"":""img/3to2/9.png"",""time"":898},{""stimulus"":""img/3to2/10.png"",""time"":1006},{""stimulus"":""img/3to2/11.png"",""time"":1100},{""stimulus"":""img/3to2/12.png"",""time"":1194}]","[]"
"image-keyboard-response","11","26257","0.0-5.0-1.3","60c837327440575481e333ce","bdp_cybrbll","Sat Mar 25 2023 16:41:59 GMT-0700 (Mountain Standard Time)","436658","3","1","","","","choice","","","210","","img/2to1/1.png","2","222","314","0.5","0.5","2","3","",""
"animation","12","27551","0.0-5.0-2.3","60c837327440575481e333ce","bdp_cybrbll","Sat Mar 25 2023 16:41:59 GMT-0700 (Mountain Standard Time)","436658","3","1","","","","","","","","","","","222","","","","2","3","[{""stimulus"":""img/2to3/1.png"",""time"":114},{""stimulus"":""img/2to3/2.png"",""time"":207},{""stimulus"":""img/2to3/3.png"",""time"":301},{""stimulus"":""img/2to3/4.png"",""time"":410},{""stimulus"":""img/2to3/5.png"",""time"":504},{""stimulus"":""img/2to3/6.png"",""time"":597},{""stimulus"":""img/2to3/7.png"",""time"":705},{""stimulus"":""img/2to3/8.png"",""time"":801},{""stimulus"":""img/2to3/9.png"",""time"":892},{""stimulus"":""img/2to3/10.png"",""time"":1000},{""stimulus"":""img/2to3/11.png"",""time"":1093},{""stimulus"":""img/2to3/12.png"",""time"":1201}]","[]"
"image-keyboard-response","13","28798","0.0-5.0-1.4","60c837327440575481e333ce","bdp_cybrbll","Sat Mar 25 2023 16:41:59 GMT-0700 (Mountain Standard Time)","436658","3","1","","","","observe","","","null","","img/3to2/1.png","null","221","1232","0.5","0.5","3","2","",""
"animation","14","30090","0.0-5.0-2.4","60c837327440575481e333ce","bdp_cybrbll","Sat Mar 25 2023 16:41:59 GMT-0700 (Mountain Standard Time)","436658","3","1","","","","","","","","","","","221","","","","3","2","[{""stimulus"":""img/3to2/1.png"",""time"":110},{""stimulus"":""img/3to2/2.png"",""time"":202},{""stimulus"":""img/3to2/3.png"",""time"":311},{""stimulus"":""img/3to2/4.png"",""time"":397},{""stimulus"":""img/3to2/5.png"",""time"":502},{""stimulus"":""img/3to2/6.png"",""time"":596},{""stimulus"":""img/3to2/7.png"",""time"":707},{""stimulus"":""img/3to2/8.png"",""time"":803},{""stimulus"":""img/3to2/9.png"",""time"":898},{""stimulus"":""img/3to2/10.png"",""time"":992},{""stimulus"":""img/3to2/11.png"",""time"":1103},{""stimulus"":""img/3to2/12.png"",""time"":1198}]","[]"
"image-keyboard-response","15","30655","0.0-5.0-1.5","60c837327440575481e333ce","bdp_cybrbll","Sat Mar 25 2023 16:41:59 GMT-0700 (Mountain Standard Time)","436658","3","1","","","","choice","","","563","","img/2to1/1.png","1","220","694","0.5","0.5","2","1","",""
"animation","16","31942","0.0-5.0-2.5","60c837327440575481e333ce","bdp_cybrbll","Sat Mar 25 2023 16:41:59 GMT-0700 (Mountain Standard Time)","436658","3","1","","","","","","","","","","","220","","","","2","1","[{""stimulus"":""img/2to1/1.png"",""time"":102},{""stimulus"":""img/2to1/2.png"",""time"":212},{""stimulus"":""img/2to1/3.png"",""time"":306},{""stimulus"":""img/2to1/4.png"",""time"":403},{""stimulus"":""img/2to1/5.png"",""time"":497},{""stimulus"":""img/2to1/6.png"",""time"":606},{""stimulus"":""img/2to1/7.png"",""time"":699},{""stimulus"":""img/2to1/8.png"",""time"":794},{""stimulus"":""img/2to1/9.png"",""time"":903},{""stimulus"":""img/2to1/10.png"",""time"":999},{""stimulus"":""img/2to1/11.png"",""time"":1096},{""stimulus"":""img/2to1/12.png"",""time"":1192}]","[]"
"image-keyboard-response","17","32305","0.0-5.0-1.6","60c837327440575481e333ce","bdp_cybrbll","Sat Mar 25 2023 16:41:59 GMT-0700 (Mountain Standard Time)","436658","3","1","","","","observe","","","null","","img/1to3/1.png","null","219","354","0.5","0.5","1","2","",""
"animation","18","33597","0.0-5.0-2.6","60c837327440575481e333ce","bdp_cybrbll","Sat Mar 25 2023 16:41:59 GMT-0700 (Mountain Standard Time)","436658","3","1","","","","","","","","","","","219","","","","1","2","[{""stimulus"":""img/1to2/1.png"",""time"":110},{""stimulus"":""img/1to2/2.png"",""time"":204},{""stimulus"":""img/1to2/3.png"",""time"":298},{""stimulus"":""img/1to2/4.png"",""time"":408},{""stimulus"":""img/1to2/5.png"",""time"":504},{""stimulus"":""img/1to2/6.png"",""time"":596},{""stimulus"":""img/1to2/7.png"",""time"":707},{""stimulus"":""img/1to2/8.png"",""time"":801},{""stimulus"":""img/1to2/9.png"",""time"":897},{""stimulus"":""img/1to2/10.png"",""time"":992},{""stimulus"":""img/1to2/11.png"",""time"":1102},{""stimulus"":""img/1to2/12.png"",""time"":1196}]","[]"
"image-keyboard-response","19","34284","0.0-5.0-1.7","60c837327440575481e333ce","bdp_cybrbll","Sat Mar 25 2023 16:41:59 GMT-0700 (Mountain Standard Time)","436658","3","1","","","","choice","","","687","","img/2to1/1.png","2","218","281","0.5","0.5","2","3","",""
"animation","20","35582","0.0-5.0-2.7","60c837327440575481e333ce","bdp_cybrbll","Sat Mar 25 2023 16:41:59 GMT-0700 (Mountain Standard Time)","436658","3","1","","","","","","","","","","","218","","","","2","3","[{""stimulus"":""img/2to3/1.png"",""time"":108},{""stimulus"":""img/2to3/2.png"",""time"":204},{""stimulus"":""img/2to3/3.png"",""time"":299},{""stimulus"":""img/2to3/4.png"",""time"":411},{""stimulus"":""img/2to3/5.png"",""time"":505},{""stimulus"":""img/2to3/6.png"",""time"":599},{""stimulus"":""img/2to3/7.png"",""time"":696},{""stimulus"":""img/2to3/8.png"",""time"":805},{""stimulus"":""img/2to3/9.png"",""time"":902},{""stimulus"":""img/2to3/10.png"",""time"":998},{""stimulus"":""img/2to3/11.png"",""time"":1092},{""stimulus"":""img/2to3/12.png"",""time"":1203}]","[]"
"image-keyboard-response","21","36184","0.0-5.0-1.8","60c837327440575481e333ce","bdp_cybrbll","Sat Mar 25 2023 16:41:59 GMT-0700 (Mountain Standard Time)","436658","3","1","","","","observe","","","null","","img/3to2/1.png","null","217","596","0.5","0.5","3","1","",""
"animation","22","37481","0.0-5.0-2.8","60c837327440575481e333ce","bdp_cybrbll","Sat Mar 25 2023 16:41:59 GMT-0700 (Mountain Standard Time)","436658","3","1","","","","","","","","","","","217","","","","3","1","[{""stimulus"":""img/3to1/1.png"",""time"":110},{""stimulus"":""img/3to1/2.png"",""time"":205},{""stimulus"":""img/3to1/3.png"",""time"":301},{""stimulus"":""img/3to1/4.png"",""time"":412},{""stimulus"":""img/3to1/5.png"",""time"":506},{""stimulus"":""img/3to1/6.png"",""time"":602},{""stimulus"":""img/3to1/7.png"",""time"":697},{""stimulus"":""img/3to1/8.png"",""time"":810},{""stimulus"":""img/3to1/9.png"",""time"":901},{""stimulus"":""img/3to1/10.png"",""time"":995},{""stimulus"":""img/3to1/11.png"",""time"":1093},{""stimulus"":""img/3to1/12.png"",""time"":1203}]","[]"
"image-keyboard-response","23","37844","0.0-5.0-1.9","60c837327440575481e333ce","bdp_cybrbll","Sat Mar 25 2023 16:41:59 GMT-0700 (Mountain Standard Time)","436658","3","1","","","","observe","","","null","","img/1to3/1.png","null","216","356","0.5","0.5","1","2","",""
"animation","24","39140","0.0-5.0-2.9","60c837327440575481e333ce","bdp_cybrbll","Sat Mar 25 2023 16:41:59 GMT-0700 (Mountain Standard Time)","436658","3","1","","","","","","","","","","","216","","","","1","2","[{""stimulus"":""img/1to2/1.png"",""time"":110},{""stimulus"":""img/1to2/2.png"",""time"":206},{""stimulus"":""img/1to2/3.png"",""time"":301},{""stimulus"":""img/1to2/4.png"",""time"":412},{""stimulus"":""img/1to2/5.png"",""time"":504},{""stimulus"":""img/1to2/6.png"",""time"":599},{""stimulus"":""img/1to2/7.png"",""time"":694},{""stimulus"":""img/1to2/8.png"",""time"":807},{""stimulus"":""img/1to2/9.png"",""time"":903},{""stimulus"":""img/1to2/10.png"",""time"":996},{""stimulus"":""img/1to2/11.png"",""time"":1091},{""stimulus"":""img/1to2/12.png"",""time"":1202}]","[]"
"image-keyboard-response","25","39548","0.0-5.0-1.10","60c837327440575481e333ce","bdp_cybrbll","Sat Mar 25 2023 16:41:59 GMT-0700 (Mountain Standard Time)","436658","3","1","","","","choice","","","407","","img/2to1/1.png","1","215","130","0.5","0.5","2","1","",""
"animation","26","40848","0.0-5.0-2.10","60c837327440575481e333ce","bdp_cybrbll","Sat Mar 25 2023 16:41:59 GMT-0700 (Mountain Standard Time)","436658","3","1","","","","","","","","","","","215","","","","2","1","[{""stimulus"":""img/2to1/1.png"",""time"":113},{""stimulus"":""img/2to1/2.png"",""time"":207},{""stimulus"":""img/2to1/3.png"",""time"":300},{""stimulus"":""img/2to1/4.png"",""time"":410},{""stimulus"":""img/2to1/5.png"",""time"":496},{""stimulus"":""img/2to1/6.png"",""time"":601},{""stimulus"":""img/2to1/7.png"",""time"":697},{""stimulus"":""img/2to1/8.png"",""time"":792},{""stimulus"":""img/2to1/9.png"",""time"":904},{""stimulus"":""img/2to1/10.png"",""time"":991},{""stimulus"":""img/2to1/11.png"",""time"":1094},{""stimulus"":""img/2to1/12.png"",""time"":1204}]","[]"
"image-keyboard-response","27","41084","0.0-5.0-1.11","60c837327440575481e333ce","bdp_cybrbll","Sat Mar 25 2023 16:41:59 GMT-0700 (Mountain Standard Time)","436658","3","1","","","","observe","","","null","","img/1to3/1.png","null","214","234","0.5","0.5","1","2","",""
"animation","28","42388","0.0-5.0-2.11","60c837327440575481e333ce","bdp_cybrbll","Sat Mar 25 2023 16:41:59 GMT-0700 (Mountain Standard Time)","436658","3","1","","","","","","","","","","","214","","","","1","2","[{""stimulus"":""img/1to2/1.png"",""time"":111},{""stimulus"":""img/1to2/2.png"",""time"":206},{""stimulus"":""img/1to2/3.png"",""time"":302},{""stimulus"":""img/1to2/4.png"",""time"":412},{""stimulus"":""img/1to2/5.png"",""time"":507},{""stimulus"":""img/1to2/6.png"",""time"":603},{""stimulus"":""img/1to2/7.png"",""time"":700},{""stimulus"":""img/1to2/8.png"",""time"":795},{""stimulus"":""img/1to2/9.png"",""time"":905},{""stimulus"":""img/1to2/10.png"",""time"":1001},{""stimulus"":""img/1to2/11.png"",""time"":1097},{""stimulus"":""img/1to2/12.png"",""time"":1192}]","[]"
"image-keyboard-response","29","42681","0.0-5.0-1.12","60c837327440575481e333ce","bdp_cybrbll","Sat Mar 25 2023 16:41:59 GMT-0700 (Mountain Standard Time)","436658","3","1","","","","choice","","","293","","img/2to1/1.png","2","213","612","0.5","0.5","2","3","",""
"animation","30","43974","0.0-5.0-2.12","60c837327440575481e333ce","bdp_cybrbll","Sat Mar 25 2023 16:41:59 GMT-0700 (Mountain Standard Time)","436658","3","1","","","","","","","","","","","213","","","","2","3","[{""stimulus"":""img/2to3/1.png"",""time"":104},{""stimulus"":""img/2to3/2.png"",""time"":199},{""stimulus"":""img/2to3/3.png"",""time"":311},{""stimulus"":""img/2to3/4.png"",""time"":407},{""stimulus"":""img/2to3/5.png"",""time"":502},{""stimulus"":""img/2to3/6.png"",""time"":596},{""stimulus"":""img/2to3/7.png"",""time"":705},{""stimulus"":""img/2to3/8.png"",""time"":802},{""stimulus"":""img/2to3/9.png"",""time"":898},{""stimulus"":""img/2to3/10.png"",""time"":992},{""stimulus"":""img/2to3/11.png"",""time"":1104},{""stimulus"":""img/2to3/12.png"",""time"":1198}]","[]"
"image-keyboard-response","31","44242","0.0-5.0-1.13","60c837327440575481e333ce","bdp_cybrbll","Sat Mar 25 2023 16:41:59 GMT-0700 (Mountain Standard Time)","436658","3","1","","","","observe","","","null","","img/3to2/1.png","null","212","260","0.5","0.5","3","2","",""
"animation","32","45539","0.0-5.0-2.13","60c837327440575481e333ce","bdp_cybrbll","Sat Mar 25 2023 16:41:59 GMT-0700 (Mountain Standard Time)","436658","3","1","","","","","","","","","","","212","","","","3","2","[{""stimulus"":""img/3to2/1.png"",""time"":110},{""stimulus"":""img/3to2/2.png"",""time"":205},{""stimulus"":""img/3to2/3.png"",""time"":299},{""stimulus"":""img/3to2/4.png"",""time"":396},{""stimulus"":""img/3to2/5.png"",""time"":505},{""stimulus"":""img/3to2/6.png"",""time"":595},{""stimulus"":""img/3to2/7.png"",""time"":694},{""stimulus"":""img/3to2/8.png"",""time"":805},{""stimulus"":""img/3to2/9.png"",""time"":892},{""stimulus"":""img/3to2/10.png"",""time"":994},{""stimulus"":""img/3to2/11.png"",""time"":1106},{""stimulus"":""img/3to2/12.png"",""time"":1190}]","[]"
"image-keyboard-response","33","45695","0.0-5.0-1.14","60c837327440575481e333ce","bdp_cybrbll","Sat Mar 25 2023 16:41:59 GMT-0700 (Mountain Standard Time)","436658","3","1","","","","choice","","","155","","img/2to1/1.png","1","211","1008","0.5","0.5","2","1","",""
"animation","34","46998","0.0-5.0-2.14","60c837327440575481e333ce","bdp_cybrbll","Sat Mar 25 2023 16:41:59 GMT-0700 (Mountain Standard Time)","436658","3","1","","","","","","","","","","","211","","","","2","1","[{""stimulus"":""img/2to1/1.png"",""time"":113},{""stimulus"":""img/2to1/2.png"",""time"":208},{""stimulus"":""img/2to1/3.png"",""time"":303},{""stimulus"":""img/2to1/4.png"",""time"":398},{""stimulus"":""img/2to1/5.png"",""time"":510},{""stimulus"":""img/2to1/6.png"",""time"":606},{""stimulus"":""img/2to1/7.png"",""time"":701},{""stimulus"":""img/2to1/8.png"",""time"":796},{""stimulus"":""img/2to1/9.png"",""time"":907},{""stimulus"":""img/2to1/10.png"",""time"":1002},{""stimulus"":""img/2to1/11.png"",""time"":1096},{""stimulus"":""img/2to1/12.png"",""time"":1191}]","[]"
"image-keyboard-response","35","47297","0.0-5.0-1.15","60c837327440575481e333ce","bdp_cybrbll","Sat Mar 25 2023 16:41:59 GMT-0700 (Mountain Standard Time)","436658","3","1","","","","observe","","","null","","img/1to3/1.png","null","210","293","0.5","0.5","1","3","",""
"animation","36","48590","0.0-5.0-2.15","60c837327440575481e333ce","bdp_cybrbll","Sat Mar 25 2023 16:41:59 GMT-0700 (Mountain Standard Time)","436658","3","1","","","","","","","","","","","210","","","","1","3","[{""stimulus"":""img/1to3/1.png"",""time"":111},{""stimulus"":""img/1to3/2.png"",""time"":204},{""stimulus"":""img/1to3/3.png"",""time"":300},{""stimulus"":""img/1to3/4.png"",""time"":410},{""stimulus"":""img/1to3/5.png"",""time"":503},{""stimulus"":""img/1to3/6.png"",""time"":597},{""stimulus"":""img/1to3/7.png"",""time"":705},{""stimulus"":""img/1to3/8.png"",""time"":801},{""stimulus"":""img/1to3/9.png"",""time"":896},{""stimulus"":""img/1to3/10.png"",""time"":1006},{""stimulus"":""img/1to3/11.png"",""time"":1101},{""stimulus"":""img/1to3/12.png"",""time"":1198}]","[]"
"image-keyboard-response","37","49111","0.0-5.0-1.16","60c837327440575481e333ce","bdp_cybrbll","Sat Mar 25 2023 16:41:59 GMT-0700 (Mountain Standard Time)","436658","3","1","","","","observe","","","null","","img/3to2/1.png","null","209","520","0.5","0.5","3","2","",""
"animation","38","50400","0.0-5.0-2.16","60c837327440575481e333ce","bdp_cybrbll","Sat Mar 25 2023 16:41:59 GMT-0700 (Mountain Standard Time)","436658","3","1","","","","","","","","","","","209","","","","3","2","[{""stimulus"":""img/3to2/1.png"",""time"":112},{""stimulus"":""img/3to2/2.png"",""time"":199},{""stimulus"":""img/3to2/3.png"",""time"":301},{""stimulus"":""img/3to2/4.png"",""time"":398},{""stimulus"":""img/3to2/5.png"",""time"":511},{""stimulus"":""img/3to2/6.png"",""time"":607},{""stimulus"":""img/3to2/7.png"",""time"":701},{""stimulus"":""img/3to2/8.png"",""time"":795},{""stimulus"":""img/3to2/9.png"",""time"":907},{""stimulus"":""img/3to2/10.png"",""time"":1002},{""stimulus"":""img/3to2/11.png"",""time"":1097},{""stimulus"":""img/3to2/12.png"",""time"":1193}]","[]"
"image-keyboard-response","39","52033","0.0-5.0-1.17","60c837327440575481e333ce","bdp_cybrbll","Sat Mar 25 2023 16:41:59 GMT-0700 (Mountain Standard Time)","436658","3","1","","","","choice","","","1633","","img/2to1/1.png","1","208","709","0.5","0.5","2","1","",""
"animation","40","53321","0.0-5.0-2.17","60c837327440575481e333ce","bdp_cybrbll","Sat Mar 25 2023 16:41:59 GMT-0700 (Mountain Standard Time)","436658","3","1","","","","","","","","","","","208","","","","2","1","[{""stimulus"":""img/2to1/1.png"",""time"":99},{""stimulus"":""img/2to1/2.png"",""time"":203},{""stimulus"":""img/2to1/3.png"",""time"":298},{""stimulus"":""img/2to1/4.png"",""time"":407},{""stimulus"":""img/2to1/5.png"",""time"":495},{""stimulus"":""img/2to1/6.png"",""time"":594},{""stimulus"":""img/2to1/7.png"",""time"":709},{""stimulus"":""img/2to1/8.png"",""time"":803},{""stimulus"":""img/2to1/9.png"",""time"":899},{""stimulus"":""img/2to1/10.png"",""time"":994},{""stimulus"":""img/2to1/11.png"",""time"":1089},{""stimulus"":""img/2to1/12.png"",""time"":1201}]","[]"
"image-keyboard-response","41","53615","0.0-5.0-1.18","60c837327440575481e333ce","bdp_cybrbll","Sat Mar 25 2023 16:41:59 GMT-0700 (Mountain Standard Time)","436658","3","1","","","","observe","","","null","","img/1to3/1.png","null","207","289","0.5","0.5","1","2","",""
"animation","42","54908","0.0-5.0-2.18","60c837327440575481e333ce","bdp_cybrbll","Sat Mar 25 2023 16:41:59 GMT-0700 (Mountain Standard Time)","436658","3","1","","","","","","","","","","","207","","","","1","2","[{""stimulus"":""img/1to2/1.png"",""time"":110},{""stimulus"":""img/1to2/2.png"",""time"":204},{""stimulus"":""img/1to2/3.png"",""time"":297},{""stimulus"":""img/1to2/4.png"",""time"":409},{""stimulus"":""img/1to2/5.png"",""time"":504},{""stimulus"":""img/1to2/6.png"",""time"":599},{""stimulus"":""img/1to2/7.png"",""time"":694},{""stimulus"":""img/1to2/8.png"",""time"":807},{""stimulus"":""img/1to2/9.png"",""time"":901},{""stimulus"":""img/1to2/10.png"",""time"":997},{""stimulus"":""img/1to2/11.png"",""time"":1091},{""stimulus"":""img/1to2/12.png"",""time"":1200}]","[]"
"image-keyboard-response","43","55059","0.0-5.0-1.19","60c837327440575481e333ce","bdp_cybrbll","Sat Mar 25 2023 16:41:59 GMT-0700 (Mountain Standard Time)","436658","3","1","","","","choice","","","150","","img/2to1/1.png","2","206","394","0.5","0.5","2","3","",""
"animation","44","56357","0.0-5.0-2.19","60c837327440575481e333ce","bdp_cybrbll","Sat Mar 25 2023 16:41:59 GMT-0700 (Mountain Standard Time)","436658","3","1","","","","","","","","","","","206","","","","2","3","[{""stimulus"":""img/2to3/1.png"",""time"":101},{""stimulus"":""img/2to3/2.png"",""time"":202},{""stimulus"":""img/2to3/3.png"",""time"":306},{""stimulus"":""img/2to3/4.png"",""time"":403},{""stimulus"":""img/2to3/5.png"",""time"":510},{""stimulus"":""img/2to3/6.png"",""time"":605},{""stimulus"":""img/2to3/7.png"",""time"":700},{""stimulus"":""img/2to3/8.png"",""time"":795},{""stimulus"":""img/2to3/9.png"",""time"":907},{""stimulus"":""img/2to3/10.png"",""time"":999},{""stimulus"":""img/2to3/11.png"",""time"":1093},{""stimulus"":""img/2to3/12.png"",""time"":1202}]","[]"
"image-keyboard-response","45","56848","0.0-5.0-1.20","60c837327440575481e333ce","bdp_cybrbll","Sat Mar 25 2023 16:41:59 GMT-0700 (Mountain Standard Time)","436658","3","1","","","","observe","","","null","","img/3to2/1.png","null","205","484","0.5","0.5","3","2","",""
"animation","46","58137","0.0-5.0-2.20","60c837327440575481e333ce","bdp_cybrbll","Sat Mar 25 2023 16:41:59 GMT-0700 (Mountain Standard Time)","436658","3","1","","","","","","","","","","","205","","","","3","2","[{""stimulus"":""img/3to2/1.png"",""time"":112},{""stimulus"":""img/3to2/2.png"",""time"":209},{""stimulus"":""img/3to2/3.png"",""time"":303},{""stimulus"":""img/3to2/4.png"",""time"":410},{""stimulus"":""img/3to2/5.png"",""time"":505},{""stimulus"":""img/3to2/6.png"",""time"":598},{""stimulus"":""img/3to2/7.png"",""time"":709},{""stimulus"":""img/3to2/8.png"",""time"":792},{""stimulus"":""img/3to2/9.png"",""time"":898},{""stimulus"":""img/3to2/10.png"",""time"":992},{""stimulus"":""img/3to2/11.png"",""time"":1101},{""stimulus"":""img/3to2/12.png"",""time"":1190}]","[]"
"image-keyboard-response","47","58153","0.0-5.0-1.21","60c837327440575481e333ce","bdp_cybrbll","Sat Mar 25 2023 16:41:59 GMT-0700 (Mountain Standard Time)","436658","3","1","","","","choice","","","16","","img/2to1/1.png","1","204","341","0.5","0.5","2","1","",""
"animation","48","59442","0.0-5.0-2.21","60c837327440575481e333ce","bdp_cybrbll","Sat Mar 25 2023 16:41:59 GMT-0700 (Mountain Standard Time)","436658","3","1","","","","","","","","","","","204","","","","2","1","[{""stimulus"":""img/2to1/1.png"",""time"":113},{""stimulus"":""img/2to1/2.png"",""time"":208},{""stimulus"":""img/2to1/3.png"",""time"":301},{""stimulus"":""img/2to1/4.png"",""time"":412},{""stimulus"":""img/2to1/5.png"",""time"":510},{""stimulus"":""img/2to1/6.png"",""time"":604},{""stimulus"":""img/2to1/7.png"",""time"":698},{""stimulus"":""img/2to1/8.png"",""time"":793},{""stimulus"":""img/2to1/9.png"",""time"":906},{""stimulus"":""img/2to1/10.png"",""time"":990},{""stimulus"":""img/2to1/11.png"",""time"":1098},{""stimulus"":""img/2to1/12.png"",""time"":1194}]","[]"
"image-keyboard-response","49","59777","0.0-5.0-1.22","60c837327440575481e333ce","bdp_cybrbll","Sat Mar 25 2023 16:41:59 GMT-0700 (Mountain Standard Time)","436658","3","1","","","","observe","","","null","","img/1to3/1.png","null","203","326","0.5","0.5","1","2","",""
"animation","50","61074","0.0-5.0-2.22","60c837327440575481e333ce","bdp_cybrbll","Sat Mar 25 2023 16:41:59 GMT-0700 (Mountain Standard Time)","436658","3","1","","","","","","","","","","","203","","","","1","2","[{""stimulus"":""img/1to2/1.png"",""time"":111},{""stimulus"":""img/1to2/2.png"",""time"":204},{""stimulus"":""img/1to2/3.png"",""time"":298},{""stimulus"":""img/1to2/4.png"",""time"":409},{""stimulus"":""img/1to2/5.png"",""time"":503},{""stimulus"":""img/1to2/6.png"",""time"":599},{""stimulus"":""img/1to2/7.png"",""time"":711},{""stimulus"":""img/1to2/8.png"",""time"":804},{""stimulus"":""img/1to2/9.png"",""time"":900},{""stimulus"":""img/1to2/10.png"",""time"":995},{""stimulus"":""img/1to2/11.png"",""time"":1090},{""stimulus"":""img/1to2/12.png"",""time"":1202}]","[]"
"image-keyboard-response","51","61248","0.0-5.0-1.23","60c837327440575481e333ce","bdp_cybrbll","Sat Mar 25 2023 16:41:59 GMT-0700 (Mountain Standard Time)","436658","3","1","","","","choice","","","173","","img/2to1/1.png","2","202","225","0.5","0.5","2","3","",""
"animation","52","62543","0.0-5.0-2.23","60c837327440575481e333ce","bdp_cybrbll","Sat Mar 25 2023 16:41:59 GMT-0700 (Mountain Standard Time)","436658","3","1","","","","","","","","","","","202","","","","2","3","[{""stimulus"":""img/2to3/1.png"",""time"":109},{""stimulus"":""img/2to3/2.png"",""time"":202},{""stimulus"":""img/2to3/3.png"",""time"":313},{""stimulus"":""img/2to3/4.png"",""time"":397},{""stimulus"":""img/2to3/5.png"",""time"":503},{""stimulus"":""img/2to3/6.png"",""time"":598},{""stimulus"":""img/2to3/7.png"",""time"":709},{""stimulus"":""img/2to3/8.png"",""time"":802},{""stimulus"":""img/2to3/9.png"",""time"":892},{""stimulus"":""img/2to3/10.png"",""time"":994},{""stimulus"":""img/2to3/11.png"",""time"":1106},{""stimulus"":""img/2to3/12.png"",""time"":1201}]","[]"
"image-keyboard-response","53","62714","0.0-5.0-1.24","60c837327440575481e333ce","bdp_cybrbll","Sat Mar 25 2023 16:41:59 GMT-0700 (Mountain Standard Time)","436658","3","1","","","","observe","","","null","","img/3to2/1.png","null","201","158","0.5","0.5","3","1","",""
"animation","54","64013","0.0-5.0-2.24","60c837327440575481e333ce","bdp_cybrbll","Sat Mar 25 2023 16:41:59 GMT-0700 (Mountain Standard Time)","436658","3","1","","","","","","","","","","","201","","","","3","1","[{""stimulus"":""img/3to1/1.png"",""time"":112},{""stimulus"":""img/3to1/2.png"",""time"":207},{""stimulus"":""img/3to1/3.png"",""time"":303},{""stimulus"":""img/3to1/4.png"",""time"":397},{""stimulus"":""img/3to1/5.png"",""time"":507},{""stimulus"":""img/3to1/6.png"",""time"":603},{""stimulus"":""img/3to1/7.png"",""time"":699},{""stimulus"":""img/3to1/8.png"",""time"":796},{""stimulus"":""img/3to1/9.png"",""time"":905},{""stimulus"":""img/3to1/10.png"",""time"":999},{""stimulus"":""img/3to1/11.png"",""time"":1094},{""stimulus"":""img/3to1/12.png"",""time"":1203}]","[]"
"image-keyboard-response","55","64375","0.0-5.0-1.25","60c837327440575481e333ce","bdp_cybrbll","Sat Mar 25 2023 16:41:59 GMT-0700 (Mountain Standard Time)","436658","3","1","","","","observe","","","null","","img/1to3/1.png","null","200","361","0.5","0.5","1","3","",""
"animation","56","65666","0.0-5.0-2.25","60c837327440575481e333ce","bdp_cybrbll","Sat Mar 25 2023 16:41:59 GMT-0700 (Mountain Standard Time)","436658","3","1","","","","","","","","","","","200","","","","1","3","[{""stimulus"":""img/1to3/1.png"",""time"":109},{""stimulus"":""img/1to3/2.png"",""time"":201},{""stimulus"":""img/1to3/3.png"",""time"":312},{""stimulus"":""img/1to3/4.png"",""time"":407},{""stimulus"":""img/1to3/5.png"",""time"":500},{""stimulus"":""img/1to3/6.png"",""time"":610},{""stimulus"":""img/1to3/7.png"",""time"":703},{""stimulus"":""img/1to3/8.png"",""time"":799},{""stimulus"":""img/1to3/9.png"",""time"":894},{""stimulus"":""img/1to3/10.png"",""time"":991},{""stimulus"":""img/1to3/11.png"",""time"":1102},{""stimulus"":""img/1to3/12.png"",""time"":1197}]","[]"
"image-keyboard-response","57","65982","0.0-5.0-1.26","60c837327440575481e333ce","bdp_cybrbll","Sat Mar 25 2023 16:41:59 GMT-0700 (Mountain Standard Time)","436658","3","1","","","","observe","","","null","","img/3to2/1.png","null","199","303","0.5","0.5","3","1","",""
"animation","58","67281","0.0-5.0-2.26","60c837327440575481e333ce","bdp_cybrbll","Sat Mar 25 2023 16:41:59 GMT-0700 (Mountain Standard Time)","436658","3","1","","","","","","","","","","","199","","","","3","1","[{""stimulus"":""img/3to1/1.png"",""time"":110},{""stimulus"":""img/3to1/2.png"",""time"":205},{""stimulus"":""img/3to1/3.png"",""time"":301},{""stimulus"":""img/3to1/4.png"",""time"":410},{""stimulus"":""img/3to1/5.png"",""time"":503},{""stimulus"":""img/3to1/6.png"",""time"":596},{""stimulus"":""img/3to1/7.png"",""time"":706},{""stimulus"":""img/3to1/8.png"",""time"":799},{""stimulus"":""img/3to1/9.png"",""time"":907},{""stimulus"":""img/3to1/10.png"",""time"":1000},{""stimulus"":""img/3to1/11.png"",""time"":1094},{""stimulus"":""img/3to1/12.png"",""time"":1203}]","[]"
"image-keyboard-response","59","68336","0.0-5.0-1.27","60c837327440575481e333ce","bdp_cybrbll","Sat Mar 25 2023 16:41:59 GMT-0700 (Mountain Standard Time)","436658","3","1","","","","observe","","","null","","img/1to3/1.png","null","198","1046","0.5","0.5","1","3","",""
"animation","60","69624","0.0-5.0-2.27","60c837327440575481e333ce","bdp_cybrbll","Sat Mar 25 2023 16:41:59 GMT-0700 (Mountain Standard Time)","436658","3","1","","","","","","","","","","","198","","","","1","3","[{""stimulus"":""img/1to3/1.png"",""time"":112},{""stimulus"":""img/1to3/2.png"",""time"":200},{""stimulus"":""img/1to3/3.png"",""time"":298},{""stimulus"":""img/1to3/4.png"",""time"":413},{""stimulus"":""img/1to3/5.png"",""time"":506},{""stimulus"":""img/1to3/6.png"",""time"":595},{""stimulus"":""img/1to3/7.png"",""time"":696},{""stimulus"":""img/1to3/8.png"",""time"":793},{""stimulus"":""img/1to3/9.png"",""time"":904},{""stimulus"":""img/1to3/10.png"",""time"":1000},{""stimulus"":""img/1to3/11.png"",""time"":1095},{""stimulus"":""img/1to3/12.png"",""time"":1192}]","[]"
"image-keyboard-response","61","69829","0.0-5.0-1.28","60c837327440575481e333ce","bdp_cybrbll","Sat Mar 25 2023 16:41:59 GMT-0700 (Mountain Standard Time)","436658","3","1","","","","observe","","","null","","img/3to2/1.png","null","197","189","0.5","0.5","3","2","",""
"animation","62","71123","0.0-5.0-2.28","60c837327440575481e333ce","bdp_cybrbll","Sat Mar 25 2023 16:41:59 GMT-0700 (Mountain Standard Time)","436658","3","1","","","","","","","","","","","197","","","","3","2","[{""stimulus"":""img/3to2/1.png"",""time"":111},{""stimulus"":""img/3to2/2.png"",""time"":206},{""stimulus"":""img/3to2/3.png"",""time"":299},{""stimulus"":""img/3to2/4.png"",""time"":411},{""stimulus"":""img/3to2/5.png"",""time"":503},{""stimulus"":""img/3to2/6.png"",""time"":597},{""stimulus"":""img/3to2/7.png"",""time"":707},{""stimulus"":""img/3to2/8.png"",""time"":793},{""stimulus"":""img/3to2/9.png"",""time"":897},{""stimulus"":""img/3to2/10.png"",""time"":1006},{""stimulus"":""img/3to2/11.png"",""time"":1090},{""stimulus"":""img/3to2/12.png"",""time"":1197}]","[]"
"image-keyboard-response","63","71172","0.0-5.0-1.29","60c837327440575481e333ce","bdp_cybrbll","Sat Mar 25 2023 16:41:59 GMT-0700 (Mountain Standard Time)","436658","3","1","","","","choice","","","46","","img/2to1/1.png","1","196","276","0.5","0.5","2","1","",""
"animation","64","72469","0.0-5.0-2.29","60c837327440575481e333ce","bdp_cybrbll","Sat Mar 25 2023 16:41:59 GMT-0700 (Mountain Standard Time)","436658","3","1","","","","","","","","","","","196","","","","2","1","[{""stimulus"":""img/2to1/1.png"",""time"":105},{""stimulus"":""img/2to1/2.png"",""time"":202},{""stimulus"":""img/2to1/3.png"",""time"":298},{""stimulus"":""img/2to1/4.png"",""time"":408},{""stimulus"":""img/2to1/5.png"",""time"":504},{""stimulus"":""img/2to1/6.png"",""time"":600},{""stimulus"":""img/2to1/7.png"",""time"":695},{""stimulus"":""img/2to1/8.png"",""time"":805},{""stimulus"":""img/2to1/9.png"",""time"":900},{""stimulus"":""img/2to1/10.png"",""time"":995},{""stimulus"":""img/2to1/11.png"",""time"":1091},{""stimulus"":""img/2to1/12.png"",""time"":1202}]","[]"
"image-keyboard-response","65","73027","0.0-5.0-1.30","60c837327440575481e333ce","bdp_cybrbll","Sat Mar 25 2023 16:41:59 GMT-0700 (Mountain Standard Time)","436658","3","1","","","","observe","","","null","","img/1to3/1.png","null","195","554","0.5","0.5","1","2","",""
"animation","66","74321","0.0-5.0-2.30","60c837327440575481e333ce","bdp_cybrbll","Sat Mar 25 2023 16:41:59 GMT-0700 (Mountain Standard Time)","436658","3","1","","","","","","","","","","","195","","","","1","2","[{""stimulus"":""img/1to2/1.png"",""time"":111},{""stimulus"":""img/1to2/2.png"",""time"":206},{""stimulus"":""img/1to2/3.png"",""time"":301},{""stimulus"":""img/1to2/4.png"",""time"":398},{""stimulus"":""img/1to2/5.png"",""time"":505},{""stimulus"":""img/1to2/6.png"",""time"":595},{""stimulus"":""img/1to2/7.png"",""time"":696},{""stimulus"":""img/1to2/8.png"",""time"":808},{""stimulus"":""img/1to2/9.png"",""time"":892},{""stimulus"":""img/1to2/10.png"",""time"":996},{""stimulus"":""img/1to2/11.png"",""time"":1091},{""stimulus"":""img/1to2/12.png"",""time"":1200}]","[]"
"image-keyboard-response","67","74630","0.0-5.0-1.31","60c837327440575481e333ce","bdp_cybrbll","Sat Mar 25 2023 16:41:59 GMT-0700 (Mountain Standard Time)","436658","3","1","","","","choice","","","308","","img/2to1/1.png","2","194","302","0.5","0.5","2","3","",""
"animation","68","75923","0.0-5.0-2.31","60c837327440575481e333ce","bdp_cybrbll","Sat Mar 25 2023 16:41:59 GMT-0700 (Mountain Standard Time)","436658","3","1","","","","","","","","","","","194","","","","2","3","[{""stimulus"":""img/2to3/1.png"",""time"":104},{""stimulus"":""img/2to3/2.png"",""time"":199},{""stimulus"":""img/2to3/3.png"",""time"":309},{""stimulus"":""img/2to3/4.png"",""time"":404},{""stimulus"":""img/2to3/5.png"",""time"":502},{""stimulus"":""img/2to3/6.png"",""time"":595},{""stimulus"":""img/2to3/7.png"",""time"":707},{""stimulus"":""img/2to3/8.png"",""time"":794},{""stimulus"":""img/2to3/9.png"",""time"":895},{""stimulus"":""img/2to3/10.png"",""time"":1004},{""stimulus"":""img/2to3/11.png"",""time"":1101},{""stimulus"":""img/2to3/12.png"",""time"":1196}]","[]"
"image-keyboard-response","69","76347","0.0-5.0-1.32","60c837327440575481e333ce","bdp_cybrbll","Sat Mar 25 2023 16:41:59 GMT-0700 (Mountain Standard Time)","436658","3","1","","","","observe","","","null","","img/3to2/1.png","null","193","420","0.5","0.5","3","1","",""
"animation","70","77634","0.0-5.0-2.32","60c837327440575481e333ce","bdp_cybrbll","Sat Mar 25 2023 16:41:59 GMT-0700 (Mountain Standard Time)","436658","3","1","","","","","","","","","","","193","","","","3","1","[{""stimulus"":""img/3to1/1.png"",""time"":110},{""stimulus"":""img/3to1/2.png"",""time"":204},{""stimulus"":""img/3to1/3.png"",""time"":297},{""stimulus"":""img/3to1/4.png"",""time"":407},{""stimulus"":""img/3to1/5.png"",""time"":502},{""stimulus"":""img/3to1/6.png"",""time"":594},{""stimulus"":""img/3to1/7.png"",""time"":696},{""stimulus"":""img/3to1/8.png"",""time"":792},{""stimulus"":""img/3to1/9.png"",""time"":901},{""stimulus"":""img/3to1/10.png"",""time"":995},{""stimulus"":""img/3to1/11.png"",""time"":1091},{""stimulus"":""img/3to1/12.png"",""time"":1202}]","[]"
"image-keyboard-response","71","78289","0.0-5.0-1.33","60c837327440575481e333ce","bdp_cybrbll","Sat Mar 25 2023 16:41:59 GMT-0700 (Mountain Standard Time)","436658","3","1","","","","observe","","","null","","img/1to3/1.png","null","192","651","0.5","0.5","1","3","",""
"animation","72","79585","0.0-5.0-2.33","60c837327440575481e333ce","bdp_cybrbll","Sat Mar 25 2023 16:41:59 GMT-0700 (Mountain Standard Time)","436658","3","1","","","","","","","","","","","192","","","","1","3","[{""stimulus"":""img/1to3/1.png"",""time"":110},{""stimulus"":""img/1to3/2.png"",""time"":207},{""stimulus"":""img/1to3/3.png"",""time"":301},{""stimulus"":""img/1to3/4.png"",""time"":410},{""stimulus"":""img/1to3/5.png"",""time"":502},{""stimulus"":""img/1to3/6.png"",""time"":597},{""stimulus"":""img/1to3/7.png"",""time"":707},{""stimulus"":""img/1to3/8.png"",""time"":802},{""stimulus"":""img/1to3/9.png"",""time"":896},{""stimulus"":""img/1to3/10.png"",""time"":993},{""stimulus"":""img/1to3/11.png"",""time"":1105},{""stimulus"":""img/1to3/12.png"",""time"":1199}]","[]"
"image-keyboard-response","73","80520","0.0-5.0-1.34","60c837327440575481e333ce","bdp_cybrbll","Sat Mar 25 2023 16:41:59 GMT-0700 (Mountain Standard Time)","436658","3","1","","","","observe","","","null","","img/3to2/1.png","null","191","921","0.5","0.5","3","2","",""
"animation","74","81817","0.0-5.0-2.34","60c837327440575481e333ce","bdp_cybrbll","Sat Mar 25 2023 16:41:59 GMT-0700 (Mountain Standard Time)","436658","3","1","","","","","","","","","","","191","","","","3","2","[{""stimulus"":""img/3to2/1.png"",""time"":111},{""stimulus"":""img/3to2/2.png"",""time"":205},{""stimulus"":""img/3to2/3.png"",""time"":301},{""stimulus"":""img/3to2/4.png"",""time"":413},{""stimulus"":""img/3to2/5.png"",""time"":505},{""stimulus"":""img/3to2/6.png"",""time"":601},{""stimulus"":""img/3to2/7.png"",""time"":696},{""stimulus"":""img/3to2/8.png"",""time"":806},{""stimulus"":""img/3to2/9.png"",""time"":903},{""stimulus"":""img/3to2/10.png"",""time"":998},{""stimulus"":""img/3to2/11.png"",""time"":1091},{""stimulus"":""img/3to2/12.png"",""time"":1201}]","[]"
"image-keyboard-response","75","82028","0.0-5.0-1.35","60c837327440575481e333ce","bdp_cybrbll","Sat Mar 25 2023 16:41:59 GMT-0700 (Mountain Standard Time)","436658","3","1","","","","choice","","","210","","img/2to1/1.png","1","190","243","0.5","0.5","2","1","",""
"animation","76","83318","0.0-5.0-2.35","60c837327440575481e333ce","bdp_cybrbll","Sat Mar 25 2023 16:41:59 GMT-0700 (Mountain Standard Time)","436658","3","1","","","","","","","","","","","190","","","","2","1","[{""stimulus"":""img/2to1/1.png"",""time"":105},{""stimulus"":""img/2to1/2.png"",""time"":201},{""stimulus"":""img/2to1/3.png"",""time"":311},{""stimulus"":""img/2to1/4.png"",""time"":406},{""stimulus"":""img/2to1/5.png"",""time"":500},{""stimulus"":""img/2to1/6.png"",""time"":609},{""stimulus"":""img/2to1/7.png"",""time"":704},{""stimulus"":""img/2to1/8.png"",""time"":799},{""stimulus"":""img/2to1/9.png"",""time"":891},{""stimulus"":""img/2to1/10.png"",""time"":1004},{""stimulus"":""img/2to1/11.png"",""time"":1099},{""stimulus"":""img/2to1/12.png"",""time"":1193}]","[]"
"image-keyboard-response","77","83491","0.0-5.0-1.36","60c837327440575481e333ce","bdp_cybrbll","Sat Mar 25 2023 16:41:59 GMT-0700 (Mountain Standard Time)","436658","3","1","","","","observe","","","null","","img/1to3/1.png","null","189","163","0.5","0.5","1","2","",""
"animation","78","84789","0.0-5.0-2.36","60c837327440575481e333ce","bdp_cybrbll","Sat Mar 25 2023 16:41:59 GMT-0700 (Mountain Standard Time)","436658","3","1","","","","","","","","","","","189","","","","1","2","[{""stimulus"":""img/1to2/1.png"",""time"":112},{""stimulus"":""img/1to2/2.png"",""time"":207},{""stimulus"":""img/1to2/3.png"",""time"":304},{""stimulus"":""img/1to2/4.png"",""time"":398},{""stimulus"":""img/1to2/5.png"",""time"":508},{""stimulus"":""img/1to2/6.png"",""time"":602},{""stimulus"":""img/1to2/7.png"",""time"":698},{""stimulus"":""img/1to2/8.png"",""time"":794},{""stimulus"":""img/1to2/9.png"",""time"":903},{""stimulus"":""img/1to2/10.png"",""time"":997},{""stimulus"":""img/1to2/11.png"",""time"":1092},{""stimulus"":""img/1to2/12.png"",""time"":1203}]","[]"
"image-keyboard-response","79","85039","0.0-5.0-1.37","60c837327440575481e333ce","bdp_cybrbll","Sat Mar 25 2023 16:41:59 GMT-0700 (Mountain Standard Time)","436658","3","1","","","","choice","","","249","","img/2to1/1.png","2","188","720","0.5","0.5","2","3","",""
"animation","80","86328","0.0-5.0-2.37","60c837327440575481e333ce","bdp_cybrbll","Sat Mar 25 2023 16:41:59 GMT-0700 (Mountain Standard Time)","436658","3","1","","","","","","","","","","","188","","","","2","3","[{""stimulus"":""img/2to3/1.png"",""time"":101},{""stimulus"":""img/2to3/2.png"",""time"":212},{""stimulus"":""img/2to3/3.png"",""time"":306},{""stimulus"":""img/2to3/4.png"",""time"":402},{""stimulus"":""img/2to3/5.png"",""time"":496},{""stimulus"":""img/2to3/6.png"",""time"":607},{""stimulus"":""img/2to3/7.png"",""time"":703},{""stimulus"":""img/2to3/8.png"",""time"":793},{""stimulus"":""img/2to3/9.png"",""time"":893},{""stimulus"":""img/2to3/10.png"",""time"":1004},{""stimulus"":""img/2to3/11.png"",""time"":1099},{""stimulus"":""img/2to3/12.png"",""time"":1194}]","[]"
"image-keyboard-response","81","87215","0.0-5.0-1.38","60c837327440575481e333ce","bdp_cybrbll","Sat Mar 25 2023 16:41:59 GMT-0700 (Mountain Standard Time)","436658","3","1","","","","observe","","","null","","img/3to2/1.png","null","187","885","0.5","0.5","3","1","",""
"animation","82","88507","0.0-5.0-2.38","60c837327440575481e333ce","bdp_cybrbll","Sat Mar 25 2023 16:41:59 GMT-0700 (Mountain Standard Time)","436658","3","1","","","","","","","","","","","187","","","","3","1","[{""stimulus"":""img/3to1/1.png"",""time"":113},{""stimulus"":""img/3to1/2.png"",""time"":199},{""stimulus"":""img/3to1/3.png"",""time"":302},{""stimulus"":""img/3to1/4.png"",""time"":397},{""stimulus"":""img/3to1/5.png"",""time"":507},{""stimulus"":""img/3to1/6.png"",""time"":602},{""stimulus"":""img/3to1/7.png"",""time"":696},{""stimulus"":""img/3to1/8.png"",""time"":806},{""stimulus"":""img/3to1/9.png"",""time"":893},{""stimulus"":""img/3to1/10.png"",""time"":995},{""stimulus"":""img/3to1/11.png"",""time"":1104},{""stimulus"":""img/3to1/12.png"",""time"":1199}]","[]"
"image-keyboard-response","83","88992","0.0-5.0-1.39","60c837327440575481e333ce","bdp_cybrbll","Sat Mar 25 2023 16:41:59 GMT-0700 (Mountain Standard Time)","436658","3","1","","","","observe","","","null","","img/1to3/1.png","null","186","480","0.5","0.5","1","3","",""
"animation","84","90290","0.0-5.0-2.39","60c837327440575481e333ce","bdp_cybrbll","Sat Mar 25 2023 16:41:59 GMT-0700 (Mountain Standard Time)","436658","3","1","","","","","","","","","","","186","","","","1","3","[{""stimulus"":""img/1to3/1.png"",""time"":109},{""stimulus"":""img/1to3/2.png"",""time"":204},{""stimulus"":""img/1to3/3.png"",""time"":299},{""stimulus"":""img/1to3/4.png"",""time"":410},{""stimulus"":""img/1to3/5.png"",""time"":505},{""stimulus"":""img/1to3/6.png"",""time"":601},{""stimulus"":""img/1to3/7.png"",""time"":696},{""stimulus"":""img/1to3/8.png"",""time"":807},{""stimulus"":""img/1to3/9.png"",""time"":904},{""stimulus"":""img/1to3/10.png"",""time"":999},{""stimulus"":""img/1to3/11.png"",""time"":1094},{""stimulus"":""img/1to3/12.png"",""time"":1203}]","[]"
"image-keyboard-response","85","90654","0.0-5.0-1.40","60c837327440575481e333ce","bdp_cybrbll","Sat Mar 25 2023 16:41:59 GMT-0700 (Mountain Standard Time)","436658","3","1","","","","observe","","","null","","img/3to2/1.png","null","185","353","0.5","0.5","3","2","",""
"animation","86","91941","0.0-5.0-2.40","60c837327440575481e333ce","bdp_cybrbll","Sat Mar 25 2023 16:41:59 GMT-0700 (Mountain Standard Time)","436658","3","1","","","","","","","","","","","185","","","","3","2","[{""stimulus"":""img/3to2/1.png"",""time"":111},{""stimulus"":""img/3to2/2.png"",""time"":205},{""stimulus"":""img/3to2/3.png"",""time"":299},{""stimulus"":""img/3to2/4.png"",""time"":410},{""stimulus"":""img/3to2/5.png"",""time"":503},{""stimulus"":""img/3to2/6.png"",""time"":598},{""stimulus"":""img/3to2/7.png"",""time"":693},{""stimulus"":""img/3to2/8.png"",""time"":806},{""stimulus"":""img/3to2/9.png"",""time"":899},{""stimulus"":""img/3to2/10.png"",""time"":997},{""stimulus"":""img/3to2/11.png"",""time"":1093},{""stimulus"":""img/3to2/12.png"",""time"":1189}]","[]"
"image-keyboard-response","87","92189","0.0-5.0-1.41","60c837327440575481e333ce","bdp_cybrbll","Sat Mar 25 2023 16:41:59 GMT-0700 (Mountain Standard Time)","436658","3","1","","","","choice","","","247","","img/2to1/1.png","1","184","536","0.5","0.5","2","1","",""
"animation","88","93487","0.0-5.0-2.41","60c837327440575481e333ce","bdp_cybrbll","Sat Mar 25 2023 16:41:59 GMT-0700 (Mountain Standard Time)","436658","3","1","","","","","","","","","","","184","","","","2","1","[{""stimulus"":""img/2to1/1.png"",""time"":103},{""stimulus"":""img/2to1/2.png"",""time"":214},{""stimulus"":""img/2to1/3.png"",""time"":308},{""stimulus"":""img/2to1/4.png"",""time"":404},{""stimulus"":""img/2to1/5.png"",""time"":501},{""stimulus"":""img/2to1/6.png"",""time"":597},{""stimulus"":""img/2to1/7.png"",""time"":707},{""stimulus"":""img/2to1/8.png"",""time"":804},{""stimulus"":""img/2to1/9.png"",""time"":900},{""stimulus"":""img/2to1/10.png"",""time"":995},{""stimulus"":""img/2to1/11.png"",""time"":1091},{""stimulus"":""img/2to1/12.png"",""time"":1203}]","[]"
"image-keyboard-response","89","93851","0.0-5.0-1.42","60c837327440575481e333ce","bdp_cybrbll","Sat Mar 25 2023 16:41:59 GMT-0700 (Mountain Standard Time)","436658","3","1","","","","observe","","","null","","img/1to3/1.png","null","183","355","0.5","0.5","1","3","",""
"animation","90","95139","0.0-5.0-2.42","60c837327440575481e333ce","bdp_cybrbll","Sat Mar 25 2023 16:41:59 GMT-0700 (Mountain Standard Time)","436658","3","1","","","","","","","","","","","183","","","","1","3","[{""stimulus"":""img/1to3/1.png"",""time"":112},{""stimulus"":""img/1to3/2.png"",""time"":209},{""stimulus"":""img/1to3/3.png"",""time"":303},{""stimulus"":""img/1to3/4.png"",""time"":398},{""stimulus"":""img/1to3/5.png"",""time"":507},{""stimulus"":""img/1to3/6.png"",""time"":602},{""stimulus"":""img/1to3/7.png"",""time"":698},{""stimulus"":""img/1to3/8.png"",""time"":807},{""stimulus"":""img/1to3/9.png"",""time"":902},{""stimulus"":""img/1to3/10.png"",""time"":990},{""stimulus"":""img/1to3/11.png"",""time"":1089},{""stimulus"":""img/1to3/12.png"",""time"":1203}]","[]"
"image-keyboard-response","91","95327","0.0-5.0-1.43","60c837327440575481e333ce","bdp_cybrbll","Sat Mar 25 2023 16:41:59 GMT-0700 (Mountain Standard Time)","436658","3","1","","","","observe","","","null","","img/3to2/1.png","null","182","180","0.5","0.5","3","2","",""
"animation","92","96619","0.0-5.0-2.43","60c837327440575481e333ce","bdp_cybrbll","Sat Mar 25 2023 16:41:59 GMT-0700 (Mountain Standard Time)","436658","3","1","","","","","","","","","","","182","","","","3","2","[{""stimulus"":""img/3to2/1.png"",""time"":110},{""stimulus"":""img/3to2/2.png"",""time"":206},{""stimulus"":""img/3to2/3.png"",""time"":297},{""stimulus"":""img/3to2/4.png"",""time"":411},{""stimulus"":""img/3to2/5.png"",""time"":496},{""stimulus"":""img/3to2/6.png"",""time"":601},{""stimulus"":""img/3to2/7.png"",""time"":696},{""stimulus"":""img/3to2/8.png"",""time"":793},{""stimulus"":""img/3to2/9.png"",""time"":901},{""stimulus"":""img/3to2/10.png"",""time"":995},{""stimulus"":""img/3to2/11.png"",""time"":1104},{""stimulus"":""img/3to2/12.png"",""time"":1200}]","[]"
"image-keyboard-response","93","96977","0.0-5.0-1.44","60c837327440575481e333ce","bdp_cybrbll","Sat Mar 25 2023 16:41:59 GMT-0700 (Mountain Standard Time)","436658","3","1","","","","choice","","","358","","img/2to1/1.png","2","181","265","0.5","0.5","2","3","",""
"animation","94","98273","0.0-5.0-2.44","60c837327440575481e333ce","bdp_cybrbll","Sat Mar 25 2023 16:41:59 GMT-0700 (Mountain Standard Time)","436658","3","1","","","","","","","","","","","181","","","","2","3","[{""stimulus"":""img/2to3/1.png"",""time"":112},{""stimulus"":""img/2to3/2.png"",""time"":208},{""stimulus"":""img/2to3/3.png"",""time"":303},{""stimulus"":""img/2to3/4.png"",""time"":400},{""stimulus"":""img/2to3/5.png"",""time"":507},{""stimulus"":""img/2to3/6.png"",""time"":602},{""stimulus"":""img/2to3/7.png"",""time"":695},{""stimulus"":""img/2to3/8.png"",""time"":806},{""stimulus"":""img/2to3/9.png"",""time"":901},{""stimulus"":""img/2to3/10.png"",""time"":996},{""stimulus"":""img/2to3/11.png"",""time"":1091},{""stimulus"":""img/2to3/12.png"",""time"":1200}]","[]"
"image-keyboard-response","95","98779","0.0-5.0-1.45","60c837327440575481e333ce","bdp_cybrbll","Sat Mar 25 2023 16:41:59 GMT-0700 (Mountain Standard Time)","436658","3","1","","","","observe","","","null","","img/3to2/1.png","null","180","501","0.5","0.5","3","2","",""
"animation","96","100081","0.0-5.0-2.45","60c837327440575481e333ce","bdp_cybrbll","Sat Mar 25 2023 16:41:59 GMT-0700 (Mountain Standard Time)","436658","3","1","","","","","","","","","","","180","","","","3","2","[{""stimulus"":""img/3to2/1.png"",""time"":112},{""stimulus"":""img/3to2/2.png"",""time"":207},{""stimulus"":""img/3to2/3.png"",""time"":302},{""stimulus"":""img/3to2/4.png"",""time"":400},{""stimulus"":""img/3to2/5.png"",""time"":508},{""stimulus"":""img/3to2/6.png"",""time"":605},{""stimulus"":""img/3to2/7.png"",""time"":698},{""stimulus"":""img/3to2/8.png"",""time"":795},{""stimulus"":""img/3to2/9.png"",""time"":903},{""stimulus"":""img/3to2/10.png"",""time"":999},{""stimulus"":""img/3to2/11.png"",""time"":1094},{""stimulus"":""img/3to2/12.png"",""time"":1190}]","[]"
"image-keyboard-response","97","100448","0.0-5.0-1.46","60c837327440575481e333ce","bdp_cybrbll","Sat Mar 25 2023 16:41:59 GMT-0700 (Mountain Standard Time)","436658","3","1","","","","choice","","","367","","img/2to1/1.png","1","179","301","0.5","0.5","2","1","",""
"animation","98","101744","0.0-5.0-2.46","60c837327440575481e333ce","bdp_cybrbll","Sat Mar 25 2023 16:41:59 GMT-0700 (Mountain Standard Time)","436658","3","1","","","","","","","","","","","179","","","","2","1","[{""stimulus"":""img/2to1/1.png"",""time"":104},{""stimulus"":""img/2to1/2.png"",""time"":200},{""stimulus"":""img/2to1/3.png"",""time"":312},{""stimulus"":""img/2to1/4.png"",""time"":408},{""stimulus"":""img/2to1/5.png"",""time"":497},{""stimulus"":""img/2to1/6.png"",""time"":595},{""stimulus"":""img/2to1/7.png"",""time"":695},{""stimulus"":""img/2to1/8.png"",""time"":801},{""stimulus"":""img/2to1/9.png"",""time"":895},{""stimulus"":""img/2to1/10.png"",""time"":991},{""stimulus"":""img/2to1/11.png"",""time"":1103},{""stimulus"":""img/2to1/12.png"",""time"":1200}]","[]"
"image-keyboard-response","99","102139","0.0-5.0-1.47","60c837327440575481e333ce","bdp_cybrbll","Sat Mar 25 2023 16:41:59 GMT-0700 (Mountain Standard Time)","436658","3","1","","","","observe","","","null","","img/1to3/1.png","null","178","388","0.5","0.5","1","3","",""
"animation","100","103427","0.0-5.0-2.47","60c837327440575481e333ce","bdp_cybrbll","Sat Mar 25 2023 16:41:59 GMT-0700 (Mountain Standard Time)","436658","3","1","","","","","","","","","","","178","","","","1","3","[{""stimulus"":""img/1to3/1.png"",""time"":100},{""stimulus"":""img/1to3/2.png"",""time"":199},{""stimulus"":""img/1to3/3.png"",""time"":311},{""stimulus"":""img/1to3/4.png"",""time"":406},{""stimulus"":""img/1to3/5.png"",""time"":503},{""stimulus"":""img/1to3/6.png"",""time"":599},{""stimulus"":""img/1to3/7.png"",""time"":694},{""stimulus"":""img/1to3/8.png"",""time"":802},{""stimulus"":""img/1to3/9.png"",""time"":895},{""stimulus"":""img/1to3/10.png"",""time"":992},{""stimulus"":""img/1to3/11.png"",""time"":1103},{""stimulus"":""img/1to3/12.png"",""time"":1197}]","[]"
"image-keyboard-response","101","104252","0.0-5.0-1.48","60c837327440575481e333ce","bdp_cybrbll","Sat Mar 25 2023 16:41:59 GMT-0700 (Mountain Standard Time)","436658","3","1","","","","observe","","","null","","img/3to2/1.png","null","177","819","0.5","0.5","3","1","",""
"animation","102","105540","0.0-5.0-2.48","60c837327440575481e333ce","bdp_cybrbll","Sat Mar 25 2023 16:41:59 GMT-0700 (Mountain Standard Time)","436658","3","1","","","","","","","","","","","177","","","","3","1","[{""stimulus"":""img/3to1/1.png"",""time"":111},{""stimulus"":""img/3to1/2.png"",""time"":206},{""stimulus"":""img/3to1/3.png"",""time"":300},{""stimulus"":""img/3to1/4.png"",""time"":411},{""stimulus"":""img/3to1/5.png"",""time"":507},{""stimulus"":""img/3to1/6.png"",""time"":604},{""stimulus"":""img/3to1/7.png"",""time"":700},{""stimulus"":""img/3to1/8.png"",""time"":798},{""stimulus"":""img/3to1/9.png"",""time"":892},{""stimulus"":""img/3to1/10.png"",""time"":1000},{""stimulus"":""img/3to1/11.png"",""time"":1097},{""stimulus"":""img/3to1/12.png"",""time"":1190}]","[]"
"image-keyboard-response","103","105790","0.0-5.0-1.49","60c837327440575481e333ce","bdp_cybrbll","Sat Mar 25 2023 16:41:59 GMT-0700 (Mountain Standard Time)","436658","3","1","","","","observe","","","null","","img/1to3/1.png","null","176","247","0.5","0.5","1","3","",""
"animation","104","107088","0.0-5.0-2.49","60c837327440575481e333ce","bdp_cybrbll","Sat Mar 25 2023 16:41:59 GMT-0700 (Mountain Standard Time)","436658","3","1","","","","","","","","","","","176","","","","1","3","[{""stimulus"":""img/1to3/1.png"",""time"":110},{""stimulus"":""img/1to3/2.png"",""time"":207},{""stimulus"":""img/1to3/3.png"",""time"":302},{""stimulus"":""img/1to3/4.png"",""time"":412},{""stimulus"":""img/1to3/5.png"",""time"":505},{""stimulus"":""img/1to3/6.png"",""time"":601},{""stimulus"":""img/1to3/7.png"",""time"":696},{""stimulus"":""img/1to3/8.png"",""time"":807},{""stimulus"":""img/1to3/9.png"",""time"":905},{""stimulus"":""img/1to3/10.png"",""time"":1000},{""stimulus"":""img/1to3/11.png"",""time"":1094},{""stimulus"":""img/1to3/12.png"",""time"":1188}]","[]"
"image-keyboard-response","105","107414","0.0-5.0-1.50","60c837327440575481e333ce","bdp_cybrbll","Sat Mar 25 2023 16:41:59 GMT-0700 (Mountain Standard Time)","436658","3","1","","","","observe","","","null","","img/3to2/1.png","null","175","311","0.5","0.5","3","1","",""
"animation","106","108715","0.0-5.0-2.50","60c837327440575481e333ce","bdp_cybrbll","Sat Mar 25 2023 16:41:59 GMT-0700 (Mountain Standard Time)","436658","3","1","","","","","","","","","","","175","","","","3","1","[{""stimulus"":""img/3to1/1.png"",""time"":113},{""stimulus"":""img/3to1/2.png"",""time"":208},{""stimulus"":""img/3to1/3.png"",""time"":302},{""stimulus"":""img/3to1/4.png"",""time"":396},{""stimulus"":""img/3to1/5.png"",""time"":507},{""stimulus"":""img/3to1/6.png"",""time"":603},{""stimulus"":""img/3to1/7.png"",""time"":693},{""stimulus"":""img/3to1/8.png"",""time"":792},{""stimulus"":""img/3to1/9.png"",""time"":903},{""stimulus"":""img/3to1/10.png"",""time"":999},{""stimulus"":""img/3to1/11.png"",""time"":1093},{""stimulus"":""img/3to1/12.png"",""time"":1189}]","[]"
"image-keyboard-response","107","109063","0.0-5.0-1.51","60c837327440575481e333ce","bdp_cybrbll","Sat Mar 25 2023 16:41:59 GMT-0700 (Mountain Standard Time)","436658","3","1","","","","observe","","","null","","img/1to3/1.png","null","174","345","0.5","0.5","1","2","",""
"animation","108","110357","0.0-5.0-2.51","60c837327440575481e333ce","bdp_cybrbll","Sat Mar 25 2023 16:41:59 GMT-0700 (Mountain Standard Time)","436658","3","1","","","","","","","","","","","174","","","","1","2","[{""stimulus"":""img/1to2/1.png"",""time"":109},{""stimulus"":""img/1to2/2.png"",""time"":202},{""stimulus"":""img/1to2/3.png"",""time"":314},{""stimulus"":""img/1to2/4.png"",""time"":410},{""stimulus"":""img/1to2/5.png"",""time"":507},{""stimulus"":""img/1to2/6.png"",""time"":601},{""stimulus"":""img/1to2/7.png"",""time"":709},{""stimulus"":""img/1to2/8.png"",""time"":804},{""stimulus"":""img/1to2/9.png"",""time"":898},{""stimulus"":""img/1to2/10.png"",""time"":992},{""stimulus"":""img/1to2/11.png"",""time"":1103},{""stimulus"":""img/1to2/12.png"",""time"":1198}]","[]"
"image-keyboard-response","109","110674","0.0-5.0-1.52","60c837327440575481e333ce","bdp_cybrbll","Sat Mar 25 2023 16:41:59 GMT-0700 (Mountain Standard Time)","436658","3","1","","","","choice","","","313","","img/2to1/1.png","1","173","210","0.5","0.5","2","1","",""
"animation","110","111970","0.0-5.0-2.52","60c837327440575481e333ce","bdp_cybrbll","Sat Mar 25 2023 16:41:59 GMT-0700 (Mountain Standard Time)","436658","3","1","","","","","","","","","","","173","","","","2","1","[{""stimulus"":""img/2to1/1.png"",""time"":111},{""stimulus"":""img/2to1/2.png"",""time"":205},{""stimulus"":""img/2to1/3.png"",""time"":299},{""stimulus"":""img/2to1/4.png"",""time"":410},{""stimulus"":""img/2to1/5.png"",""time"":502},{""stimulus"":""img/2to1/6.png"",""time"":598},{""stimulus"":""img/2to1/7.png"",""time"":694},{""stimulus"":""img/2to1/8.png"",""time"":806},{""stimulus"":""img/2to1/9.png"",""time"":900},{""stimulus"":""img/2to1/10.png"",""time"":995},{""stimulus"":""img/2to1/11.png"",""time"":1104},{""stimulus"":""img/2to1/12.png"",""time"":1203}]","[]"
"image-keyboard-response","111","112240","0.0-5.0-1.53","60c837327440575481e333ce","bdp_cybrbll","Sat Mar 25 2023 16:41:59 GMT-0700 (Mountain Standard Time)","436658","3","1","","","","observe","","","null","","img/1to3/1.png","null","172","265","0.5","0.5","1","3","",""
"animation","112","113527","0.0-5.0-2.53","60c837327440575481e333ce","bdp_cybrbll","Sat Mar 25 2023 16:41:59 GMT-0700 (Mountain Standard Time)","436658","3","1","","","","","","","","","","","172","","","","1","3","[{""stimulus"":""img/1to3/1.png"",""time"":109},{""stimulus"":""img/1to3/2.png"",""time"":203},{""stimulus"":""img/1to3/3.png"",""time"":299},{""stimulus"":""img/1to3/4.png"",""time"":406},{""stimulus"":""img/1to3/5.png"",""time"":501},{""stimulus"":""img/1to3/6.png"",""time"":597},{""stimulus"":""img/1to3/7.png"",""time"":695},{""stimulus"":""img/1to3/8.png"",""time"":806},{""stimulus"":""img/1to3/9.png"",""time"":902},{""stimulus"":""img/1to3/10.png"",""time"":998},{""stimulus"":""img/1to3/11.png"",""time"":1095},{""stimulus"":""img/1to3/12.png"",""time"":1190}]","[]"
"image-keyboard-response","113","113846","0.0-5.0-1.54","60c837327440575481e333ce","bdp_cybrbll","Sat Mar 25 2023 16:41:59 GMT-0700 (Mountain Standard Time)","436658","3","1","","","","observe","","","null","","img/3to2/1.png","null","171","310","0.5","0.5","3","1","",""
"animation","114","115147","0.0-5.0-2.54","60c837327440575481e333ce","bdp_cybrbll","Sat Mar 25 2023 16:41:59 GMT-0700 (Mountain Standard Time)","436658","3","1","","","","","","","","","","","171","","","","3","1","[{""stimulus"":""img/3to1/1.png"",""time"":113},{""stimulus"":""img/3to1/2.png"",""time"":208},{""stimulus"":""img/3to1/3.png"",""time"":298},{""stimulus"":""img/3to1/4.png"",""time"":398},{""stimulus"":""img/3to1/5.png"",""time"":509},{""stimulus"":""img/3to1/6.png"",""time"":603},{""stimulus"":""img/3to1/7.png"",""time"":694},{""stimulus"":""img/3to1/8.png"",""time"":796},{""stimulus"":""img/3to1/9.png"",""time"":892},{""stimulus"":""img/3to1/10.png"",""time"":1003},{""stimulus"":""img/3to1/11.png"",""time"":1090},{""stimulus"":""img/3to1/12.png"",""time"":1190}]","[]"
"image-keyboard-response","115","115760","0.0-5.0-1.55","60c837327440575481e333ce","bdp_cybrbll","Sat Mar 25 2023 16:41:59 GMT-0700 (Mountain Standard Time)","436658","3","1","","","","observe","","","null","","img/1to3/1.png","null","170","607","0.5","0.5","1","2","",""
"animation","116","117058","0.0-5.0-2.55","60c837327440575481e333ce","bdp_cybrbll","Sat Mar 25 2023 16:41:59 GMT-0700 (Mountain Standard Time)","436658","3","1","","","","","","","","","","","170","","","","1","2","[{""stimulus"":""img/1to2/1.png"",""time"":108},{""stimulus"":""img/1to2/2.png"",""time"":203},{""stimulus"":""img/1to2/3.png"",""time"":298},{""stimulus"":""img/1to2/4.png"",""time"":410},{""stimulus"":""img/1to2/5.png"",""time"":503},{""stimulus"":""img/1to2/6.png"",""time"":600},{""stimulus"":""img/1to2/7.png"",""time"":696},{""stimulus"":""img/1to2/8.png"",""time"":807},{""stimulus"":""img/1to2/9.png"",""time"":901},{""stimulus"":""img/1to2/10.png"",""time"":998},{""stimulus"":""img/1to2/11.png"",""time"":1093},{""stimulus"":""img/1to2/12.png"",""time"":1203}]","[]"
"image-keyboard-response","117","117181","0.0-5.0-1.56","60c837327440575481e333ce","bdp_cybrbll","Sat Mar 25 2023 16:41:59 GMT-0700 (Mountain Standard Time)","436658","3","1","","","","choice","","","122","","img/2to1/1.png","1","169","1265","0.5","0.5","2","1","",""
"animation","118","118474","0.0-5.0-2.56","60c837327440575481e333ce","bdp_cybrbll","Sat Mar 25 2023 16:41:59 GMT-0700 (Mountain Standard Time)","436658","3","1","","","","","","","","","","","169","","","","2","1","[{""stimulus"":""img/2to1/1.png"",""time"":114},{""stimulus"":""img/2to1/2.png"",""time"":210},{""stimulus"":""img/2to1/3.png"",""time"":304},{""stimulus"":""img/2to1/4.png"",""time"":412},{""stimulus"":""img/2to1/5.png"",""time"":507},{""stimulus"":""img/2to1/6.png"",""time"":601},{""stimulus"":""img/2to1/7.png"",""time"":710},{""stimulus"":""img/2to1/8.png"",""time"":804},{""stimulus"":""img/2to1/9.png"",""time"":898},{""stimulus"":""img/2to1/10.png"",""time"":994},{""stimulus"":""img/2to1/11.png"",""time"":1104},{""stimulus"":""img/2to1/12.png"",""time"":1197}]","[]"
"image-keyboard-response","119","118786","0.0-5.0-1.57","60c837327440575481e333ce","bdp_cybrbll","Sat Mar 25 2023 16:41:59 GMT-0700 (Mountain Standard Time)","436658","3","1","","","","observe","","","null","","img/1to3/1.png","null","168","307","0.5","0.5","1","2","",""
"animation","120","120075","0.0-5.0-2.57","60c837327440575481e333ce","bdp_cybrbll","Sat Mar 25 2023 16:41:59 GMT-0700 (Mountain Standard Time)","436658","3","1","","","","","","","","","","","168","","","","1","2","[{""stimulus"":""img/1to2/1.png"",""time"":110},{""stimulus"":""img/1to2/2.png"",""time"":205},{""stimulus"":""img/1to2/3.png"",""time"":299},{""stimulus"":""img/1to2/4.png"",""time"":409},{""stimulus"":""img/1to2/5.png"",""time"":501},{""stimulus"":""img/1to2/6.png"",""time"":610},{""stimulus"":""img/1to2/7.png"",""time"":705},{""stimulus"":""img/1to2/8.png"",""time"":800},{""stimulus"":""img/1to2/9.png"",""time"":895},{""stimulus"":""img/1to2/10.png"",""time"":1006},{""stimulus"":""img/1to2/11.png"",""time"":1101},{""stimulus"":""img/1to2/12.png"",""time"":1194}]","[]"
"image-keyboard-response","121","121502","0.0-5.0-1.58","60c837327440575481e333ce","bdp_cybrbll","Sat Mar 25 2023 16:41:59 GMT-0700 (Mountain Standard Time)","436658","3","1","","","","choice","","","1426","","img/2to1/1.png","2","167","219","0.5","0.5","2","3","",""
"animation","122","122805","0.0-5.0-2.58","60c837327440575481e333ce","bdp_cybrbll","Sat Mar 25 2023 16:41:59 GMT-0700 (Mountain Standard Time)","436658","3","1","","","","","","","","","","","167","","","","2","3","[{""stimulus"":""img/2to3/1.png"",""time"":103},{""stimulus"":""img/2to3/2.png"",""time"":214},{""stimulus"":""img/2to3/3.png"",""time"":309},{""stimulus"":""img/2to3/4.png"",""time"":405},{""stimulus"":""img/2to3/5.png"",""time"":500},{""stimulus"":""img/2to3/6.png"",""time"":609},{""stimulus"":""img/2to3/7.png"",""time"":694},{""stimulus"":""img/2to3/8.png"",""time"":799},{""stimulus"":""img/2to3/9.png"",""time"":893},{""stimulus"":""img/2to3/10.png"",""time"":1002},{""stimulus"":""img/2to3/11.png"",""time"":1098},{""stimulus"":""img/2to3/12.png"",""time"":1191}]","[]"
"image-keyboard-response","123","123515","0.0-5.0-1.59","60c837327440575481e333ce","bdp_cybrbll","Sat Mar 25 2023 16:41:59 GMT-0700 (Mountain Standard Time)","436658","3","1","","","","observe","","","null","","img/3to2/1.png","null","166","701","0.5","0.5","3","1","",""
"animation","124","124809","0.0-5.0-2.59","60c837327440575481e333ce","bdp_cybrbll","Sat Mar 25 2023 16:41:59 GMT-0700 (Mountain Standard Time)","436658","3","1","","","","","","","","","","","166","","","","3","1","[{""stimulus"":""img/3to1/1.png"",""time"":109},{""stimulus"":""img/3to1/2.png"",""time"":204},{""stimulus"":""img/3to1/3.png"",""time"":298},{""stimulus"":""img/3to1/4.png"",""time"":410},{""stimulus"":""img/3to1/5.png"",""time"":504},{""stimulus"":""img/3to1/6.png"",""time"":600},{""stimulus"":""img/3to1/7.png"",""time"":694},{""stimulus"":""img/3to1/8.png"",""time"":792},{""stimulus"":""img/3to1/9.png"",""time"":900},{""stimulus"":""img/3to1/10.png"",""time"":995},{""stimulus"":""img/3to1/11.png"",""time"":1089},{""stimulus"":""img/3to1/12.png"",""time"":1201}]","[]"
"image-keyboard-response","125","125000","0.0-5.0-1.60","60c837327440575481e333ce","bdp_cybrbll","Sat Mar 25 2023 16:41:59 GMT-0700 (Mountain Standard Time)","436658","3","1","","","","observe","","","null","","img/1to3/1.png","null","165","188","0.5","0.5","1","2","",""
"animation","126","126289","0.0-5.0-2.60","60c837327440575481e333ce","bdp_cybrbll","Sat Mar 25 2023 16:41:59 GMT-0700 (Mountain Standard Time)","436658","3","1","","","","","","","","","","","165","","","","1","2","[{""stimulus"":""img/1to2/1.png"",""time"":111},{""stimulus"":""img/1to2/2.png"",""time"":208},{""stimulus"":""img/1to2/3.png"",""time"":304},{""stimulus"":""img/1to2/4.png"",""time"":399},{""stimulus"":""img/1to2/5.png"",""time"":497},{""stimulus"":""img/1to2/6.png"",""time"":607},{""stimulus"":""img/1to2/7.png"",""time"":703},{""stimulus"":""img/1to2/8.png"",""time"":798},{""stimulus"":""img/1to2/9.png"",""time"":905},{""stimulus"":""img/1to2/10.png"",""time"":999},{""stimulus"":""img/1to2/11.png"",""time"":1096},{""stimulus"":""img/1to2/12.png"",""time"":1194}]","[]"
"image-keyboard-response","127","126344","0.0-5.0-1.61","60c837327440575481e333ce","bdp_cybrbll","Sat Mar 25 2023 16:41:59 GMT-0700 (Mountain Standard Time)","436658","3","1","","","","choice","","","55","","img/2to1/1.png","1","164","616","0.5","0.5","2","1","",""
"animation","128","127643","0.0-5.0-2.61","60c837327440575481e333ce","bdp_cybrbll","Sat Mar 25 2023 16:41:59 GMT-0700 (Mountain Standard Time)","436658","3","1","","","","","","","","","","","164","","","","2","1","[{""stimulus"":""img/2to1/1.png"",""time"":102},{""stimulus"":""img/2to1/2.png"",""time"":200},{""stimulus"":""img/2to1/3.png"",""time"":308},{""stimulus"":""img/2to1/4.png"",""time"":404},{""stimulus"":""img/2to1/5.png"",""time"":497},{""stimulus"":""img/2to1/6.png"",""time"":609},{""stimulus"":""img/2to1/7.png"",""time"":703},{""stimulus"":""img/2to1/8.png"",""time"":796},{""stimulus"":""img/2to1/9.png"",""time"":907},{""stimulus"":""img/2to1/10.png"",""time"":1001},{""stimulus"":""img/2to1/11.png"",""time"":1095},{""stimulus"":""img/2to1/12.png"",""time"":1190}]","[]"
"image-keyboard-response","129","128071","0.0-5.0-1.62","60c837327440575481e333ce","bdp_cybrbll","Sat Mar 25 2023 16:41:59 GMT-0700 (Mountain Standard Time)","436658","3","1","","","","observe","","","null","","img/1to3/1.png","null","163","416","0.5","0.5","1","2","",""
"animation","130","129370","0.0-5.0-2.62","60c837327440575481e333ce","bdp_cybrbll","Sat Mar 25 2023 16:41:59 GMT-0700 (Mountain Standard Time)","436658","3","1","","","","","","","","","","","163","","","","1","2","[{""stimulus"":""img/1to2/1.png"",""time"":110},{""stimulus"":""img/1to2/2.png"",""time"":205},{""stimulus"":""img/1to2/3.png"",""time"":298},{""stimulus"":""img/1to2/4.png"",""time"":409},{""stimulus"":""img/1to2/5.png"",""time"":504},{""stimulus"":""img/1to2/6.png"",""time"":599},{""stimulus"":""img/1to2/7.png"",""time"":694},{""stimulus"":""img/1to2/8.png"",""time"":805},{""stimulus"":""img/1to2/9.png"",""time"":900},{""stimulus"":""img/1to2/10.png"",""time"":997},{""stimulus"":""img/1to2/11.png"",""time"":1092},{""stimulus"":""img/1to2/12.png"",""time"":1204}]","[]"
"image-keyboard-response","131","129772","0.0-5.0-1.63","60c837327440575481e333ce","bdp_cybrbll","Sat Mar 25 2023 16:41:59 GMT-0700 (Mountain Standard Time)","436658","3","1","","","","choice","","","402","","img/2to1/1.png","1","162","290","0.5","0.5","2","1","",""
"animation","132","131067","0.0-5.0-2.63","60c837327440575481e333ce","bdp_cybrbll","Sat Mar 25 2023 16:41:59 GMT-0700 (Mountain Standard Time)","436658","3","1","","","","","","","","","","","162","","","","2","1","[{""stimulus"":""img/2to1/1.png"",""time"":106},{""stimulus"":""img/2to1/2.png"",""time"":202},{""stimulus"":""img/2to1/3.png"",""time"":312},{""stimulus"":""img/2to1/4.png"",""time"":407},{""stimulus"":""img/2to1/5.png"",""time"":502},{""stimulus"":""img/2to1/6.png"",""time"":597},{""stimulus"":""img/2to1/7.png"",""time"":710},{""stimulus"":""img/2to1/8.png"",""time"":803},{""stimulus"":""img/2to1/9.png"",""time"":898},{""stimulus"":""img/2to1/10.png"",""time"":993},{""stimulus"":""img/2to1/11.png"",""time"":1103},{""stimulus"":""img/2to1/12.png"",""time"":1200}]","[]"
"image-keyboard-response","133","131321","0.0-5.0-1.64","60c837327440575481e333ce","bdp_cybrbll","Sat Mar 25 2023 16:41:59 GMT-0700 (Mountain Standard Time)","436658","3","1","","","","observe","","","null","","img/1to3/1.png","null","161","242","0.5","0.5","1","3","",""
"animation","134","132612","0.0-5.0-2.64","60c837327440575481e333ce","bdp_cybrbll","Sat Mar 25 2023 16:41:59 GMT-0700 (Mountain Standard Time)","436658","3","1","","","","","","","","","","","161","","","","1","3","[{""stimulus"":""img/1to3/1.png"",""time"":111},{""stimulus"":""img/1to3/2.png"",""time"":199},{""stimulus"":""img/1to3/3.png"",""time"":302},{""stimulus"":""img/1to3/4.png"",""time"":399},{""stimulus"":""img/1to3/5.png"",""time"":510},{""stimulus"":""img/1to3/6.png"",""time"":594},{""stimulus"":""img/1to3/7.png"",""time"":702},{""stimulus"":""img/1to3/8.png"",""time"":799},{""stimulus"":""img/1to3/9.png"",""time"":895},{""stimulus"":""img/1to3/10.png"",""time"":991},{""stimulus"":""img/1to3/11.png"",""time"":1101},{""stimulus"":""img/1to3/12.png"",""time"":1195}]","[]"
"image-keyboard-response","135","133300","0.0-5.0-1.65","60c837327440575481e333ce","bdp_cybrbll","Sat Mar 25 2023 16:41:59 GMT-0700 (Mountain Standard Time)","436658","3","1","","","","observe","","","null","","img/3to2/1.png","null","160","681","0.5","0.5","3","2","",""
"animation","136","134591","0.0-5.0-2.65","60c837327440575481e333ce","bdp_cybrbll","Sat Mar 25 2023 16:41:59 GMT-0700 (Mountain Standard Time)","436658","3","1","","","","","","","","","","","160","","","","3","2","[{""stimulus"":""img/3to2/1.png"",""time"":111},{""stimulus"":""img/3to2/2.png"",""time"":206},{""stimulus"":""img/3to2/3.png"",""time"":302},{""stimulus"":""img/3to2/4.png"",""time"":398},{""stimulus"":""img/3to2/5.png"",""time"":509},{""stimulus"":""img/3to2/6.png"",""time"":605},{""stimulus"":""img/3to2/7.png"",""time"":700},{""stimulus"":""img/3to2/8.png"",""time"":797},{""stimulus"":""img/3to2/9.png"",""time"":894},{""stimulus"":""img/3to2/10.png"",""time"":1005},{""stimulus"":""img/3to2/11.png"",""time"":1100},{""stimulus"":""img/3to2/12.png"",""time"":1197}]","[]"
"image-keyboard-response","137","134908","0.0-5.0-1.66","60c837327440575481e333ce","bdp_cybrbll","Sat Mar 25 2023 16:41:59 GMT-0700 (Mountain Standard Time)","436658","3","1","","","","choice","","","316","","img/2to1/1.png","2","159","248","0.5","0.5","2","3","",""
"animation","138","136210","0.0-5.0-2.66","60c837327440575481e333ce","bdp_cybrbll","Sat Mar 25 2023 16:41:59 GMT-0700 (Mountain Standard Time)","436658","3","1","","","","","","","","","","","159","","","","2","3","[{""stimulus"":""img/2to3/1.png"",""time"":109},{""stimulus"":""img/2to3/2.png"",""time"":204},{""stimulus"":""img/2to3/3.png"",""time"":298},{""stimulus"":""img/2to3/4.png"",""time"":398},{""stimulus"":""img/2to3/5.png"",""time"":505},{""stimulus"":""img/2to3/6.png"",""time"":601},{""stimulus"":""img/2to3/7.png"",""time"":698},{""stimulus"":""img/2to3/8.png"",""time"":794},{""stimulus"":""img/2to3/9.png"",""time"":903},{""stimulus"":""img/2to3/10.png"",""time"":998},{""stimulus"":""img/2to3/11.png"",""time"":1093},{""stimulus"":""img/2to3/12.png"",""time"":1190}]","[]"
"image-keyboard-response","139","136916","0.0-5.0-1.67","60c837327440575481e333ce","bdp_cybrbll","Sat Mar 25 2023 16:41:59 GMT-0700 (Mountain Standard Time)","436658","3","1","","","","observe","","","null","","img/3to2/1.png","null","158","693","0.5","0.5","3","2","",""
"animation","140","138209","0.0-5.0-2.67","60c837327440575481e333ce","bdp_cybrbll","Sat Mar 25 2023 16:41:59 GMT-0700 (Mountain Standard Time)","436658","3","1","","","","","","","","","","","158","","","","3","2","[{""stimulus"":""img/3to2/1.png"",""time"":109},{""stimulus"":""img/3to2/2.png"",""time"":203},{""stimulus"":""img/3to2/3.png"",""time"":312},{""stimulus"":""img/3to2/4.png"",""time"":397},{""stimulus"":""img/3to2/5.png"",""time"":501},{""stimulus"":""img/3to2/6.png"",""time"":596},{""stimulus"":""img/3to2/7.png"",""time"":706},{""stimulus"":""img/3to2/8.png"",""time"":800},{""stimulus"":""img/3to2/9.png"",""time"":897},{""stimulus"":""img/3to2/10.png"",""time"":1006},{""stimulus"":""img/3to2/11.png"",""time"":1101},{""stimulus"":""img/3to2/12.png"",""time"":1198}]","[]"
"image-keyboard-response","141","138349","0.0-5.0-1.68","60c837327440575481e333ce","bdp_cybrbll","Sat Mar 25 2023 16:41:59 GMT-0700 (Mountain Standard Time)","436658","3","1","","","","choice","","","140","","img/2to1/1.png","2","157","142","0.5","0.5","2","3","",""
"animation","142","139638","0.0-5.0-2.68","60c837327440575481e333ce","bdp_cybrbll","Sat Mar 25 2023 16:41:59 GMT-0700 (Mountain Standard Time)","436658","3","1","","","","","","","","","","","157","","","","2","3","[{""stimulus"":""img/2to3/1.png"",""time"":112},{""stimulus"":""img/2to3/2.png"",""time"":205},{""stimulus"":""img/2to3/3.png"",""time"":300},{""stimulus"":""img/2to3/4.png"",""time"":411},{""stimulus"":""img/2to3/5.png"",""time"":505},{""stimulus"":""img/2to3/6.png"",""time"":600},{""stimulus"":""img/2to3/7.png"",""time"":696},{""stimulus"":""img/2to3/8.png"",""time"":794},{""stimulus"":""img/2to3/9.png"",""time"":903},{""stimulus"":""img/2to3/10.png"",""time"":991},{""stimulus"":""img/2to3/11.png"",""time"":1090},{""stimulus"":""img/2to3/12.png"",""time"":1199}]","[]"
"image-keyboard-response","143","139990","0.0-5.0-1.69","60c837327440575481e333ce","bdp_cybrbll","Sat Mar 25 2023 16:41:59 GMT-0700 (Mountain Standard Time)","436658","3","1","","","","observe","","","null","","img/3to2/1.png","null","156","343","0.5","0.5","3","2","",""
"animation","144","141292","0.0-5.0-2.69","60c837327440575481e333ce","bdp_cybrbll","Sat Mar 25 2023 16:41:59 GMT-0700 (Mountain Standard Time)","436658","3","1","","","","","","","","","","","156","","","","3","2","[{""stimulus"":""img/3to2/1.png"",""time"":112},{""stimulus"":""img/3to2/2.png"",""time"":209},{""stimulus"":""img/3to2/3.png"",""time"":304},{""stimulus"":""img/3to2/4.png"",""time"":400},{""stimulus"":""img/3to2/5.png"",""time"":510},{""stimulus"":""img/3to2/6.png"",""time"":606},{""stimulus"":""img/3to2/7.png"",""time"":702},{""stimulus"":""img/3to2/8.png"",""time"":798},{""stimulus"":""img/3to2/9.png"",""time"":893},{""stimulus"":""img/3to2/10.png"",""time"":1002},{""stimulus"":""img/3to2/11.png"",""time"":1098},{""stimulus"":""img/3to2/12.png"",""time"":1191}]","[]"
"image-keyboard-response","145","141415","0.0-5.0-1.70","60c837327440575481e333ce","bdp_cybrbll","Sat Mar 25 2023 16:41:59 GMT-0700 (Mountain Standard Time)","436658","3","1","","","","choice","","","123","","img/2to1/1.png","1","155","923","0.5","0.5","2","1","",""
"animation","146","142713","0.0-5.0-2.70","60c837327440575481e333ce","bdp_cybrbll","Sat Mar 25 2023 16:41:59 GMT-0700 (Mountain Standard Time)","436658","3","1","","","","","","","","","","","155","","","","2","1","[{""stimulus"":""img/2to1/1.png"",""time"":111},{""stimulus"":""img/2to1/2.png"",""time"":206},{""stimulus"":""img/2to1/3.png"",""time"":301},{""stimulus"":""img/2to1/4.png"",""time"":412},{""stimulus"":""img/2to1/5.png"",""time"":508},{""stimulus"":""img/2to1/6.png"",""time"":604},{""stimulus"":""img/2to1/7.png"",""time"":700},{""stimulus"":""img/2to1/8.png"",""time"":797},{""stimulus"":""img/2to1/9.png"",""time"":905},{""stimulus"":""img/2to1/10.png"",""time"":991},{""stimulus"":""img/2to1/11.png"",""time"":1090},{""stimulus"":""img/2to1/12.png"",""time"":1204}]","[]"
"image-keyboard-response","147","143014","0.0-5.0-1.71","60c837327440575481e333ce","bdp_cybrbll","Sat Mar 25 2023 16:41:59 GMT-0700 (Mountain Standard Time)","436658","3","1","","","","observe","","","null","","img/1to3/1.png","null","154","286","0.5","0.5","1","3","",""
"animation","148","144316","0.0-5.0-2.71","60c837327440575481e333ce","bdp_cybrbll","Sat Mar 25 2023 16:41:59 GMT-0700 (Mountain Standard Time)","436658","3","1","","","","","","","","","","","154","","","","1","3","[{""stimulus"":""img/1to3/1.png"",""time"":112},{""stimulus"":""img/1to3/2.png"",""time"":207},{""stimulus"":""img/1to3/3.png"",""time"":302},{""stimulus"":""img/1to3/4.png"",""time"":412},{""stimulus"":""img/1to3/5.png"",""time"":508},{""stimulus"":""img/1to3/6.png"",""time"":602},{""stimulus"":""img/1to3/7.png"",""time"":700},{""stimulus"":""img/1to3/8.png"",""time"":794},{""stimulus"":""img/1to3/9.png"",""time"":906},{""stimulus"":""img/1to3/10.png"",""time"":1000},{""stimulus"":""img/1to3/11.png"",""time"":1095},{""stimulus"":""img/1to3/12.png"",""time"":1190}]","[]"
"image-keyboard-response","149","144696","0.0-5.0-1.72","60c837327440575481e333ce","bdp_cybrbll","Sat Mar 25 2023 16:41:59 GMT-0700 (Mountain Standard Time)","436658","3","1","","","","observe","","","null","","img/3to2/1.png","null","153","377","0.5","0.5","3","2","",""
"animation","150","145984","0.0-5.0-2.72","60c837327440575481e333ce","bdp_cybrbll","Sat Mar 25 2023 16:41:59 GMT-0700 (Mountain Standard Time)","436658","3","1","","","","","","","","","","","153","","","","3","2","[{""stimulus"":""img/3to2/1.png"",""time"":110},{""stimulus"":""img/3to2/2.png"",""time"":204},{""stimulus"":""img/3to2/3.png"",""time"":313},{""stimulus"":""img/3to2/4.png"",""time"":408},{""stimulus"":""img/3to2/5.png"",""time"":504},{""stimulus"":""img/3to2/6.png"",""time"":597},{""stimulus"":""img/3to2/7.png"",""time"":709},{""stimulus"":""img/3to2/8.png"",""time"":805},{""stimulus"":""img/3to2/9.png"",""time"":898},{""stimulus"":""img/3to2/10.png"",""time"":992},{""stimulus"":""img/3to2/11.png"",""time"":1100},{""stimulus"":""img/3to2/12.png"",""time"":1194}]","[]"
"image-keyboard-response","151","146206","0.0-5.0-1.73","60c837327440575481e333ce","bdp_cybrbll","Sat Mar 25 2023 16:41:59 GMT-0700 (Mountain Standard Time)","436658","3","1","","","","choice","","","221","","img/2to1/1.png","1","152","736","0.5","0.5","2","1","",""
"animation","152","147500","0.0-5.0-2.73","60c837327440575481e333ce","bdp_cybrbll","Sat Mar 25 2023 16:41:59 GMT-0700 (Mountain Standard Time)","436658","3","1","","","","","","","","","","","152","","","","2","1","[{""stimulus"":""img/2to1/1.png"",""time"":110},{""stimulus"":""img/2to1/2.png"",""time"":207},{""stimulus"":""img/2to1/3.png"",""time"":306},{""stimulus"":""img/2to1/4.png"",""time"":398},{""stimulus"":""img/2to1/5.png"",""time"":511},{""stimulus"":""img/2to1/6.png"",""time"":604},{""stimulus"":""img/2to1/7.png"",""time"":697},{""stimulus"":""img/2to1/8.png"",""time"":807},{""stimulus"":""img/2to1/9.png"",""time"":901},{""stimulus"":""img/2to1/10.png"",""time"":995},{""stimulus"":""img/2to1/11.png"",""time"":1105},{""stimulus"":""img/2to1/12.png"",""time"":1200}]","[]"
"image-keyboard-response","153","147895","0.0-5.0-1.74","60c837327440575481e333ce","bdp_cybrbll","Sat Mar 25 2023 16:41:59 GMT-0700 (Mountain Standard Time)","436658","3","1","","","","observe","","","null","","img/1to3/1.png","null","151","385","0.5","0.5","1","2","",""
"animation","154","149188","0.0-5.0-2.74","60c837327440575481e333ce","bdp_cybrbll","Sat Mar 25 2023 16:41:59 GMT-0700 (Mountain Standard Time)","436658","3","1","","","","","","","","","","","151","","","","1","2","[{""stimulus"":""img/1to2/1.png"",""time"":108},{""stimulus"":""img/1to2/2.png"",""time"":204},{""stimulus"":""img/1to2/3.png"",""time"":300},{""stimulus"":""img/1to2/4.png"",""time"":409},{""stimulus"":""img/1to2/5.png"",""time"":503},{""stimulus"":""img/1to2/6.png"",""time"":597},{""stimulus"":""img/1to2/7.png"",""time"":708},{""stimulus"":""img/1to2/8.png"",""time"":804},{""stimulus"":""img/1to2/9.png"",""time"":900},{""stimulus"":""img/1to2/10.png"",""time"":993},{""stimulus"":""img/1to2/11.png"",""time"":1104},{""stimulus"":""img/1to2/12.png"",""time"":1198}]","[]"
"image-keyboard-response","155","149452","0.0-5.0-1.75","60c837327440575481e333ce","bdp_cybrbll","Sat Mar 25 2023 16:41:59 GMT-0700 (Mountain Standard Time)","436658","3","1","","","","choice","","","263","","img/2to1/1.png","2","150","402","0.5","0.5","2","3","",""
"animation","156","150749","0.0-5.0-2.75","60c837327440575481e333ce","bdp_cybrbll","Sat Mar 25 2023 16:41:59 GMT-0700 (Mountain Standard Time)","436658","3","1","","","","","","","","","","","150","","","","2","3","[{""stimulus"":""img/2to3/1.png"",""time"":114},{""stimulus"":""img/2to3/2.png"",""time"":210},{""stimulus"":""img/2to3/3.png"",""time"":306},{""stimulus"":""img/2to3/4.png"",""time"":401},{""stimulus"":""img/2to3/5.png"",""time"":496},{""stimulus"":""img/2to3/6.png"",""time"":606},{""stimulus"":""img/2to3/7.png"",""time"":693},{""stimulus"":""img/2to3/8.png"",""time"":794},{""stimulus"":""img/2to3/9.png"",""time"":902},{""stimulus"":""img/2to3/10.png"",""time"":997},{""stimulus"":""img/2to3/11.png"",""time"":1092},{""stimulus"":""img/2to3/12.png"",""time"":1188}]","[]"
"image-keyboard-response","157","151367","0.0-5.0-1.76","60c837327440575481e333ce","bdp_cybrbll","Sat Mar 25 2023 16:41:59 GMT-0700 (Mountain Standard Time)","436658","3","1","","","","observe","","","null","","img/3to2/1.png","null","149","610","0.5","0.1","3","1","",""
"animation","158","152666","0.0-5.0-2.76","60c837327440575481e333ce","bdp_cybrbll","Sat Mar 25 2023 16:41:59 GMT-0700 (Mountain Standard Time)","436658","3","1","","","","","","","","","","","149","","","","3","1","[{""stimulus"":""img/3to1/1.png"",""time"":113},{""stimulus"":""img/3to1/2.png"",""time"":209},{""stimulus"":""img/3to1/3.png"",""time"":303},{""stimulus"":""img/3to1/4.png"",""time"":399},{""stimulus"":""img/3to1/5.png"",""time"":510},{""stimulus"":""img/3to1/6.png"",""time"":605},{""stimulus"":""img/3to1/7.png"",""time"":701},{""stimulus"":""img/3to1/8.png"",""time"":809},{""stimulus"":""img/3to1/9.png"",""time"":903},{""stimulus"":""img/3to1/10.png"",""time"":999},{""stimulus"":""img/3to1/11.png"",""time"":1094},{""stimulus"":""img/3to1/12.png"",""time"":1205}]","[]"
"image-keyboard-response","159","153027","0.0-5.0-1.77","60c837327440575481e333ce","bdp_cybrbll","Sat Mar 25 2023 16:41:59 GMT-0700 (Mountain Standard Time)","436658","3","1","","","","observe","","","null","","img/1to3/1.png","null","148","359","0.5","0.1","1","2","",""
"animation","160","154315","0.0-5.0-2.77","60c837327440575481e333ce","bdp_cybrbll","Sat Mar 25 2023 16:41:59 GMT-0700 (Mountain Standard Time)","436658","3","1","","","","","","","","","","","148","","","","1","2","[{""stimulus"":""img/1to2/1.png"",""time"":108},{""stimulus"":""img/1to2/2.png"",""time"":204},{""stimulus"":""img/1to2/3.png"",""time"":298},{""stimulus"":""img/1to2/4.png"",""time"":411},{""stimulus"":""img/1to2/5.png"",""time"":496},{""stimulus"":""img/1to2/6.png"",""time"":599},{""stimulus"":""img/1to2/7.png"",""time"":707},{""stimulus"":""img/1to2/8.png"",""time"":804},{""stimulus"":""img/1to2/9.png"",""time"":899},{""stimulus"":""img/1to2/10.png"",""time"":995},{""stimulus"":""img/1to2/11.png"",""time"":1105},{""stimulus"":""img/1to2/12.png"",""time"":1200}]","[]"
"image-keyboard-response","161","154707","0.0-5.0-1.78","60c837327440575481e333ce","bdp_cybrbll","Sat Mar 25 2023 16:41:59 GMT-0700 (Mountain Standard Time)","436658","3","1","","","","choice","","","391","","img/2to1/1.png","2","147","680","0.5","0.1","2","3","",""
"animation","162","156001","0.0-5.0-2.78","60c837327440575481e333ce","bdp_cybrbll","Sat Mar 25 2023 16:41:59 GMT-0700 (Mountain Standard Time)","436658","3","1","","","","","","","","","","","147","","","","2","3","[{""stimulus"":""img/2to3/1.png"",""time"":105},{""stimulus"":""img/2to3/2.png"",""time"":202},{""stimulus"":""img/2to3/3.png"",""time"":313},{""stimulus"":""img/2to3/4.png"",""time"":408},{""stimulus"":""img/2to3/5.png"",""time"":504},{""stimulus"":""img/2to3/6.png"",""time"":600},{""stimulus"":""img/2to3/7.png"",""time"":695},{""stimulus"":""img/2to3/8.png"",""time"":805},{""stimulus"":""img/2to3/9.png"",""time"":899},{""stimulus"":""img/2to3/10.png"",""time"":993},{""stimulus"":""img/2to3/11.png"",""time"":1104},{""stimulus"":""img/2to3/12.png"",""time"":1200}]","[]"
"image-keyboard-response","163","156434","0.0-5.0-1.79","60c837327440575481e333ce","bdp_cybrbll","Sat Mar 25 2023 16:41:59 GMT-0700 (Mountain Standard Time)","436658","3","1","","","","observe","","","null","","img/3to2/1.png","null","146","418","0.5","0.1","3","1","",""
"animation","164","157726","0.0-5.0-2.79","60c837327440575481e333ce","bdp_cybrbll","Sat Mar 25 2023 16:41:59 GMT-0700 (Mountain Standard Time)","436658","3","1","","","","","","","","","","","146","","","","3","1","[{""stimulus"":""img/3to1/1.png"",""time"":113},{""stimulus"":""img/3to1/2.png"",""time"":207},{""stimulus"":""img/3to1/3.png"",""time"":301},{""stimulus"":""img/3to1/4.png"",""time"":412},{""stimulus"":""img/3to1/5.png"",""time"":507},{""stimulus"":""img/3to1/6.png"",""time"":604},{""stimulus"":""img/3to1/7.png"",""time"":694},{""stimulus"":""img/3to1/8.png"",""time"":794},{""stimulus"":""img/3to1/9.png"",""time"":904},{""stimulus"":""img/3to1/10.png"",""time"":997},{""stimulus"":""img/3to1/11.png"",""time"":1091},{""stimulus"":""img/3to1/12.png"",""time"":1198}]","[]"
"image-keyboard-response","165","158233","0.0-5.0-1.80","60c837327440575481e333ce","bdp_cybrbll","Sat Mar 25 2023 16:41:59 GMT-0700 (Mountain Standard Time)","436658","3","1","","","","observe","","","null","","img/1to3/1.png","null","145","500","0.5","0.1","1","3","",""
"animation","166","159521","0.0-5.0-2.80","60c837327440575481e333ce","bdp_cybrbll","Sat Mar 25 2023 16:41:59 GMT-0700 (Mountain Standard Time)","436658","3","1","","","","","","","","","","","145","","","","1","3","[{""stimulus"":""img/1to3/1.png"",""time"":110},{""stimulus"":""img/1to3/2.png"",""time"":203},{""stimulus"":""img/1to3/3.png"",""time"":298},{""stimulus"":""img/1to3/4.png"",""time"":409},{""stimulus"":""img/1to3/5.png"",""time"":505},{""stimulus"":""img/1to3/6.png"",""time"":600},{""stimulus"":""img/1to3/7.png"",""time"":696},{""stimulus"":""img/1to3/8.png"",""time"":806},{""stimulus"":""img/1to3/9.png"",""time"":893},{""stimulus"":""img/1to3/10.png"",""time"":996},{""stimulus"":""img/1to3/11.png"",""time"":1090},{""stimulus"":""img/1to3/12.png"",""time"":1203}]","[]"
"image-keyboard-response","167","160795","0.0-5.0-1.81","60c837327440575481e333ce","bdp_cybrbll","Sat Mar 25 2023 16:41:59 GMT-0700 (Mountain Standard Time)","436658","3","1","","","","observe","","","null","","img/3to2/1.png","null","144","1262","0.5","0.1","3","2","",""
"animation","168","162083","0.0-5.0-2.81","60c837327440575481e333ce","bdp_cybrbll","Sat Mar 25 2023 16:41:59 GMT-0700 (Mountain Standard Time)","436658","3","1","","","","","","","","","","","144","","","","3","2","[{""stimulus"":""img/3to2/1.png"",""time"":110},{""stimulus"":""img/3to2/2.png"",""time"":206},{""stimulus"":""img/3to2/3.png"",""time"":301},{""stimulus"":""img/3to2/4.png"",""time"":413},{""stimulus"":""img/3to2/5.png"",""time"":507},{""stimulus"":""img/3to2/6.png"",""time"":601},{""stimulus"":""img/3to2/7.png"",""time"":694},{""stimulus"":""img/3to2/8.png"",""time"":807},{""stimulus"":""img/3to2/9.png"",""time"":901},{""stimulus"":""img/3to2/10.png"",""time"":995},{""stimulus"":""img/3to2/11.png"",""time"":1090},{""stimulus"":""img/3to2/12.png"",""time"":1202}]","[]"
"image-keyboard-response","169","162453","0.0-5.0-1.82","60c837327440575481e333ce","bdp_cybrbll","Sat Mar 25 2023 16:41:59 GMT-0700 (Mountain Standard Time)","436658","3","1","","","","choice","","","370","","img/2to1/1.png","1","143","424","0.5","0.1","2","1","",""
"animation","170","163743","0.0-5.0-2.82","60c837327440575481e333ce","bdp_cybrbll","Sat Mar 25 2023 16:41:59 GMT-0700 (Mountain Standard Time)","436658","3","1","","","","","","","","","","","143","","","","2","1","[{""stimulus"":""img/2to1/1.png"",""time"":116},{""stimulus"":""img/2to1/2.png"",""time"":211},{""stimulus"":""img/2to1/3.png"",""time"":306},{""stimulus"":""img/2to1/4.png"",""time"":401},{""stimulus"":""img/2to1/5.png"",""time"":498},{""stimulus"":""img/2to1/6.png"",""time"":595},{""stimulus"":""img/2to1/7.png"",""time"":701},{""stimulus"":""img/2to1/8.png"",""time"":797},{""stimulus"":""img/2to1/9.png"",""time"":893},{""stimulus"":""img/2to1/10.png"",""time"":1003},{""stimulus"":""img/2to1/11.png"",""time"":1099},{""stimulus"":""img/2to1/12.png"",""time"":1189}]","[]"
"image-keyboard-response","171","164769","0.0-5.0-1.83","60c837327440575481e333ce","bdp_cybrbll","Sat Mar 25 2023 16:41:59 GMT-0700 (Mountain Standard Time)","436658","3","1","","","","observe","","","null","","img/1to3/1.png","null","142","1016","0.5","0.1","1","3","",""
"animation","172","166069","0.0-5.0-2.83","60c837327440575481e333ce","bdp_cybrbll","Sat Mar 25 2023 16:41:59 GMT-0700 (Mountain Standard Time)","436658","3","1","","","","","","","","","","","142","","","","1","3","[{""stimulus"":""img/1to3/1.png"",""time"":111},{""stimulus"":""img/1to3/2.png"",""time"":207},{""stimulus"":""img/1to3/3.png"",""time"":303},{""stimulus"":""img/1to3/4.png"",""time"":398},{""stimulus"":""img/1to3/5.png"",""time"":508},{""stimulus"":""img/1to3/6.png"",""time"":604},{""stimulus"":""img/1to3/7.png"",""time"":702},{""stimulus"":""img/1to3/8.png"",""time"":795},{""stimulus"":""img/1to3/9.png"",""time"":905},{""stimulus"":""img/1to3/10.png"",""time"":998},{""stimulus"":""img/1to3/11.png"",""time"":1093},{""stimulus"":""img/1to3/12.png"",""time"":1204}]","[]"
"image-keyboard-response","173","166560","0.0-5.0-1.84","60c837327440575481e333ce","bdp_cybrbll","Sat Mar 25 2023 16:41:59 GMT-0700 (Mountain Standard Time)","436658","3","1","","","","observe","","","null","","img/3to2/1.png","null","141","489","0.5","0.1","3","1","",""
"animation","174","167861","0.0-5.0-2.84","60c837327440575481e333ce","bdp_cybrbll","Sat Mar 25 2023 16:41:59 GMT-0700 (Mountain Standard Time)","436658","3","1","","","","","","","","","","","141","","","","3","1","[{""stimulus"":""img/3to1/1.png"",""time"":113},{""stimulus"":""img/3to1/2.png"",""time"":206},{""stimulus"":""img/3to1/3.png"",""time"":301},{""stimulus"":""img/3to1/4.png"",""time"":398},{""stimulus"":""img/3to1/5.png"",""time"":510},{""stimulus"":""img/3to1/6.png"",""time"":605},{""stimulus"":""img/3to1/7.png"",""time"":701},{""stimulus"":""img/3to1/8.png"",""time"":797},{""stimulus"":""img/3to1/9.png"",""time"":892},{""stimulus"":""img/3to1/10.png"",""time"":1003},{""stimulus"":""img/3to1/11.png"",""time"":1100},{""stimulus"":""img/3to1/12.png"",""time"":1192}]","[]"
"image-keyboard-response","175","168050","0.0-5.0-1.85","60c837327440575481e333ce","bdp_cybrbll","Sat Mar 25 2023 16:41:59 GMT-0700 (Mountain Standard Time)","436658","3","1","","","","observe","","","null","","img/1to3/1.png","null","140","180","0.5","0.1","1","3","",""
"animation","176","169338","0.0-5.0-2.85","60c837327440575481e333ce","bdp_cybrbll","Sat Mar 25 2023 16:41:59 GMT-0700 (Mountain Standard Time)","436658","3","1","","","","","","","","","","","140","","","","1","3","[{""stimulus"":""img/1to3/1.png"",""time"":112},{""stimulus"":""img/1to3/2.png"",""time"":211},{""stimulus"":""img/1to3/3.png"",""time"":304},{""stimulus"":""img/1to3/4.png"",""time"":397},{""stimulus"":""img/1to3/5.png"",""time"":507},{""stimulus"":""img/1to3/6.png"",""time"":595},{""stimulus"":""img/1to3/7.png"",""time"":698},{""stimulus"":""img/1to3/8.png"",""time"":807},{""stimulus"":""img/1to3/9.png"",""time"":892},{""stimulus"":""img/1to3/10.png"",""time"":997},{""stimulus"":""img/1to3/11.png"",""time"":1092},{""stimulus"":""img/1to3/12.png"",""time"":1203}]","[]"
"image-keyboard-response","177","169840","0.0-5.0-1.86","60c837327440575481e333ce","bdp_cybrbll","Sat Mar 25 2023 16:41:59 GMT-0700 (Mountain Standard Time)","436658","3","1","","","","observe","","","null","","img/3to2/1.png","null","139","495","0.5","0.1","3","2","",""
"animation","178","171128","0.0-5.0-2.86","60c837327440575481e333ce","bdp_cybrbll","Sat Mar 25 2023 16:41:59 GMT-0700 (Mountain Standard Time)","436658","3","1","","","","","","","","","","","139","","","","3","2","[{""stimulus"":""img/3to2/1.png"",""time"":113},{""stimulus"":""img/3to2/2.png"",""time"":205},{""stimulus"":""img/3to2/3.png"",""time"":298},{""stimulus"":""img/3to2/4.png"",""time"":412},{""stimulus"":""img/3to2/5.png"",""time"":496},{""stimulus"":""img/3to2/6.png"",""time"":594},{""stimulus"":""img/3to2/7.png"",""time"":698},{""stimulus"":""img/3to2/8.png"",""time"":793},{""stimulus"":""img/3to2/9.png"",""time"":903},{""stimulus"":""img/3to2/10.png"",""time"":1000},{""stimulus"":""img/3to2/11.png"",""time"":1090},{""stimulus"":""img/3to2/12.png"",""time"":1189}]","[]"
"image-keyboard-response","179","171453","0.0-5.0-1.87","60c837327440575481e333ce","bdp_cybrbll","Sat Mar 25 2023 16:41:59 GMT-0700 (Mountain Standard Time)","436658","3","1","","","","choice","","","324","","img/2to1/1.png","2","138","906","0.5","0.1","2","3","",""
"animation","180","172754","0.0-5.0-2.87","60c837327440575481e333ce","bdp_cybrbll","Sat Mar 25 2023 16:41:59 GMT-0700 (Mountain Standard Time)","436658","3","1","","","","","","","","","","","138","","","","2","3","[{""stimulus"":""img/2to3/1.png"",""time"":114},{""stimulus"":""img/2to3/2.png"",""time"":210},{""stimulus"":""img/2to3/3.png"",""time"":305},{""stimulus"":""img/2to3/4.png"",""time"":398},{""stimulus"":""img/2to3/5.png"",""time"":509},{""stimulus"":""img/2to3/6.png"",""time"":604},{""stimulus"":""img/2to3/7.png"",""time"":698},{""stimulus"":""img/2to3/8.png"",""time"":808},{""stimulus"":""img/2to3/9.png"",""time"":892},{""stimulus"":""img/2to3/10.png"",""time"":992},{""stimulus"":""img/2to3/11.png"",""time"":1093},{""stimulus"":""img/2to3/12.png"",""time"":1189}]","[]"
"image-keyboard-response","181","174389","0.0-5.0-1.88","60c837327440575481e333ce","bdp_cybrbll","Sat Mar 25 2023 16:41:59 GMT-0700 (Mountain Standard Time)","436658","3","1","","","","observe","","","null","","img/3to2/1.png","null","137","1632","0.5","0.1","3","1","",""
"animation","182","175686","0.0-5.0-2.88","60c837327440575481e333ce","bdp_cybrbll","Sat Mar 25 2023 16:41:59 GMT-0700 (Mountain Standard Time)","436658","3","1","","","","","","","","","","","137","","","","3","1","[{""stimulus"":""img/3to1/1.png"",""time"":112},{""stimulus"":""img/3to1/2.png"",""time"":206},{""stimulus"":""img/3to1/3.png"",""time"":301},{""stimulus"":""img/3to1/4.png"",""time"":397},{""stimulus"":""img/3to1/5.png"",""time"":507},{""stimulus"":""img/3to1/6.png"",""time"":600},{""stimulus"":""img/3to1/7.png"",""time"":695},{""stimulus"":""img/3to1/8.png"",""time"":804},{""stimulus"":""img/3to1/9.png"",""time"":900},{""stimulus"":""img/3to1/10.png"",""time"":994},{""stimulus"":""img/3to1/11.png"",""time"":1090},{""stimulus"":""img/3to1/12.png"",""time"":1201}]","[]"
"image-keyboard-response","183","176143","0.0-5.0-1.89","60c837327440575481e333ce","bdp_cybrbll","Sat Mar 25 2023 16:41:59 GMT-0700 (Mountain Standard Time)","436658","3","1","","","","observe","","","null","","img/1to3/1.png","null","136","450","0.5","0.1","1","3","",""
"animation","184","177441","0.0-5.0-2.89","60c837327440575481e333ce","bdp_cybrbll","Sat Mar 25 2023 16:41:59 GMT-0700 (Mountain Standard Time)","436658","3","1","","","","","","","","","","","136","","","","1","3","[{""stimulus"":""img/1to3/1.png"",""time"":112},{""stimulus"":""img/1to3/2.png"",""time"":207},{""stimulus"":""img/1to3/3.png"",""time"":299},{""stimulus"":""img/1to3/4.png"",""time"":398},{""stimulus"":""img/1to3/5.png"",""time"":509},{""stimulus"":""img/1to3/6.png"",""time"":604},{""stimulus"":""img/1to3/7.png"",""time"":698},{""stimulus"":""img/1to3/8.png"",""time"":794},{""stimulus"":""img/1to3/9.png"",""time"":904},{""stimulus"":""img/1to3/10.png"",""time"":990},{""stimulus"":""img/1to3/11.png"",""time"":1092},{""stimulus"":""img/1to3/12.png"",""time"":1189}]","[]"
"image-keyboard-response","185","177916","0.0-5.0-1.90","60c837327440575481e333ce","bdp_cybrbll","Sat Mar 25 2023 16:41:59 GMT-0700 (Mountain Standard Time)","436658","3","1","","","","observe","","","null","","img/3to2/1.png","null","135","463","0.5","0.1","3","1","",""
"animation","186","179204","0.0-5.0-2.90","60c837327440575481e333ce","bdp_cybrbll","Sat Mar 25 2023 16:41:59 GMT-0700 (Mountain Standard Time)","436658","3","1","","","","","","","","","","","135","","","","3","1","[{""stimulus"":""img/3to1/1.png"",""time"":112},{""stimulus"":""img/3to1/2.png"",""time"":198},{""stimulus"":""img/3to1/3.png"",""time"":301},{""stimulus"":""img/3to1/4.png"",""time"":412},{""stimulus"":""img/3to1/5.png"",""time"":508},{""stimulus"":""img/3to1/6.png"",""time"":604},{""stimulus"":""img/3to1/7.png"",""time"":701},{""stimulus"":""img/3to1/8.png"",""time"":795},{""stimulus"":""img/3to1/9.png"",""time"":892},{""stimulus"":""img/3to1/10.png"",""time"":990},{""stimulus"":""img/3to1/11.png"",""time"":1098},{""stimulus"":""img/3to1/12.png"",""time"":1192}]","[]"
"image-keyboard-response","187","180043","0.0-5.0-1.91","60c837327440575481e333ce","bdp_cybrbll","Sat Mar 25 2023 16:41:59 GMT-0700 (Mountain Standard Time)","436658","3","1","","","","observe","","","null","","img/1to3/1.png","null","134","836","0.5","0.1","1","3","",""
"animation","188","181331","0.0-5.0-2.91","60c837327440575481e333ce","bdp_cybrbll","Sat Mar 25 2023 16:41:59 GMT-0700 (Mountain Standard Time)","436658","3","1","","","","","","","","","","","134","","","","1","3","[{""stimulus"":""img/1to3/1.png"",""time"":111},{""stimulus"":""img/1to3/2.png"",""time"":205},{""stimulus"":""img/1to3/3.png"",""time"":298},{""stimulus"":""img/1to3/4.png"",""time"":412},{""stimulus"":""img/1to3/5.png"",""time"":507},{""stimulus"":""img/1to3/6.png"",""time"":595},{""stimulus"":""img/1to3/7.png"",""time"":699},{""stimulus"":""img/1to3/8.png"",""time"":793},{""stimulus"":""img/1to3/9.png"",""time"":892},{""stimulus"":""img/1to3/10.png"",""time"":995},{""stimulus"":""img/1to3/11.png"",""time"":1104},{""stimulus"":""img/1to3/12.png"",""time"":1200}]","[]"
"image-keyboard-response","189","181973","0.0-5.0-1.92","60c837327440575481e333ce","bdp_cybrbll","Sat Mar 25 2023 16:41:59 GMT-0700 (Mountain Standard Time)","436658","3","1","","","","observe","","","null","","img/3to2/1.png","null","133","641","0.5","0.1","3","2","",""
