"trial_type","trial_index","time_elapsed","internal_node_id","subject_id","task","startTime","totalTime","fairPartner","unfairPartner","view_history","rt","event","trial","time","trialtype","success","stimulus","key_press","throwsLeft","rtDur","pFair","pUnfair","holder","receiver","animation_sequence","responses","numBlurs"
"pavlovia","0","2","0.0-0.0","63ed15bed4665c62d9e6dbb2","bdp_cybrbll","Fri Mar 24 2023 20:36:28 GMT-0400 (Eastern Daylight Time)","632115","3","1","","","","","","","","","","","","","","","","","",""
"instructions","1","20118","0.0-1.0","63ed15bed4665c62d9e6dbb2","bdp_cybrbll","Fri Mar 24 2023 20:36:28 GMT-0400 (Eastern Daylight Time)","632115","3","1","[{""page_index"":0,""viewing_time"":20115}]","20116","","","","","","","","","","","","","","","",""
"","","","","63ed15bed4665c62d9e6dbb2","bdp_cybrbll","Fri Mar 24 2023 20:36:28 GMT-0400 (Eastern Daylight Time)","632115","3","1","","","fullscreenenter","2","21457","fullscreenenter","","","","","","","","","","","",""
"fullscreen","2","22456","0.0-2.0","63ed15bed4665c62d9e6dbb2","bdp_cybrbll","Fri Mar 24 2023 20:36:28 GMT-0400 (Eastern Daylight Time)","632115","3","1","","","","","","","true","","","","","","","","","","",""
"instructions","3","38653","0.0-4.0","63ed15bed4665c62d9e6dbb2","bdp_cybrbll","Fri Mar 24 2023 20:36:28 GMT-0400 (Eastern Daylight Time)","632115","3","1","[{""page_index"":0,""viewing_time"":16196}]","16196","","","","","","","","","","","","","","","",""
"image-keyboard-response","4","44061","0.0-5.0-1.0","63ed15bed4665c62d9e6dbb2","bdp_cybrbll","Fri Mar 24 2023 20:36:28 GMT-0400 (Eastern Daylight Time)","632115","3","1","","5407","","","","choice","","img/2to1/1.png","2","225","311","0.5","0.5","2","3","","",""
"animation","5","45351","0.0-5.0-2.0","63ed15bed4665c62d9e6dbb2","bdp_cybrbll","Fri Mar 24 2023 20:36:28 GMT-0400 (Eastern Daylight Time)","632115","3","1","","","","","","","","","","225","","","","2","3","[{""stimulus"":""img/2to3/1.png"",""time"":100},{""stimulus"":""img/2to3/2.png"",""time"":205},{""stimulus"":""img/2to3/3.png"",""time"":299},{""stimulus"":""img/2to3/4.png"",""time"":407},{""stimulus"":""img/2to3/5.png"",""time"":501},{""stimulus"":""img/2to3/6.png"",""time"":594},{""stimulus"":""img/2to3/7.png"",""time"":699},{""stimulus"":""img/2to3/8.png"",""time"":795},{""stimulus"":""img/2to3/9.png"",""time"":905},{""stimulus"":""img/2to3/10.png"",""time"":1000},{""stimulus"":""img/2to3/11.png"",""time"":1093},{""stimulus"":""img/2to3/12.png"",""time"":1195}]","[]",""
"image-keyboard-response","6","45632","0.0-5.0-1.1","63ed15bed4665c62d9e6dbb2","bdp_cybrbll","Fri Mar 24 2023 20:36:28 GMT-0400 (Eastern Daylight Time)","632115","3","1","","null","","","","observe","","img/3to2/1.png","null","224","274","0.5","0.5","3","1","","",""
"animation","7","46933","0.0-5.0-2.1","63ed15bed4665c62d9e6dbb2","bdp_cybrbll","Fri Mar 24 2023 20:36:28 GMT-0400 (Eastern Daylight Time)","632115","3","1","","","","","","","","","","224","","","","3","1","[{""stimulus"":""img/3to1/1.png"",""time"":110},{""stimulus"":""img/3to1/2.png"",""time"":199},{""stimulus"":""img/3to1/3.png"",""time"":312},{""stimulus"":""img/3to1/4.png"",""time"":406},{""stimulus"":""img/3to1/5.png"",""time"":500},{""stimulus"":""img/3to1/6.png"",""time"":609},{""stimulus"":""img/3to1/7.png"",""time"":699},{""stimulus"":""img/3to1/8.png"",""time"":793},{""stimulus"":""img/3to1/9.png"",""time"":903},{""stimulus"":""img/3to1/10.png"",""time"":997},{""stimulus"":""img/3to1/11.png"",""time"":1090},{""stimulus"":""img/3to1/12.png"",""time"":1193}]","[]",""
"image-keyboard-response","8","47383","0.0-5.0-1.2","63ed15bed4665c62d9e6dbb2","bdp_cybrbll","Fri Mar 24 2023 20:36:28 GMT-0400 (Eastern Daylight Time)","632115","3","1","","null","","","","observe","","img/1to3/1.png","null","223","440","0.5","0.5","1","2","","",""
"animation","9","48684","0.0-5.0-2.2","63ed15bed4665c62d9e6dbb2","bdp_cybrbll","Fri Mar 24 2023 20:36:28 GMT-0400 (Eastern Daylight Time)","632115","3","1","","","","","","","","","","223","","","","1","2","[{""stimulus"":""img/1to2/1.png"",""time"":110},{""stimulus"":""img/1to2/2.png"",""time"":199},{""stimulus"":""img/1to2/3.png"",""time"":299},{""stimulus"":""img/1to2/4.png"",""time"":409},{""stimulus"":""img/1to2/5.png"",""time"":500},{""stimulus"":""img/1to2/6.png"",""time"":608},{""stimulus"":""img/1to2/7.png"",""time"":702},{""stimulus"":""img/1to2/8.png"",""time"":796},{""stimulus"":""img/1to2/9.png"",""time"":906},{""stimulus"":""img/1to2/10.png"",""time"":1004},{""stimulus"":""img/1to2/11.png"",""time"":1098},{""stimulus"":""img/1to2/12.png"",""time"":1193}]","[]",""
"image-keyboard-response","10","48729","0.0-5.0-1.3","63ed15bed4665c62d9e6dbb2","bdp_cybrbll","Fri Mar 24 2023 20:36:28 GMT-0400 (Eastern Daylight Time)","632115","3","1","","44","","","","choice","","img/2to1/1.png","2","222","309","0.5","0.5","2","3","","",""
"animation","11","50024","0.0-5.0-2.3","63ed15bed4665c62d9e6dbb2","bdp_cybrbll","Fri Mar 24 2023 20:36:28 GMT-0400 (Eastern Daylight Time)","632115","3","1","","","","","","","","","","222","","","","2","3","[{""stimulus"":""img/2to3/1.png"",""time"":100},{""stimulus"":""img/2to3/2.png"",""time"":207},{""stimulus"":""img/2to3/3.png"",""time"":300},{""stimulus"":""img/2to3/4.png"",""time"":411},{""stimulus"":""img/2to3/5.png"",""time"":504},{""stimulus"":""img/2to3/6.png"",""time"":598},{""stimulus"":""img/2to3/7.png"",""time"":703},{""stimulus"":""img/2to3/8.png"",""time"":798},{""stimulus"":""img/2to3/9.png"",""time"":906},{""stimulus"":""img/2to3/10.png"",""time"":999},{""stimulus"":""img/2to3/11.png"",""time"":1092},{""stimulus"":""img/2to3/12.png"",""time"":1201}]","[]",""
"image-keyboard-response","12","50321","0.0-5.0-1.4","63ed15bed4665c62d9e6dbb2","bdp_cybrbll","Fri Mar 24 2023 20:36:28 GMT-0400 (Eastern Daylight Time)","632115","3","1","","null","","","","observe","","img/3to2/1.png","null","221","289","0.5","0.5","3","1","","",""
"animation","13","51623","0.0-5.0-2.4","63ed15bed4665c62d9e6dbb2","bdp_cybrbll","Fri Mar 24 2023 20:36:28 GMT-0400 (Eastern Daylight Time)","632115","3","1","","","","","","","","","","221","","","","3","1","[{""stimulus"":""img/3to1/1.png"",""time"":101},{""stimulus"":""img/3to1/2.png"",""time"":200},{""stimulus"":""img/3to1/3.png"",""time"":306},{""stimulus"":""img/3to1/4.png"",""time"":400},{""stimulus"":""img/3to1/5.png"",""time"":509},{""stimulus"":""img/3to1/6.png"",""time"":595},{""stimulus"":""img/3to1/7.png"",""time"":695},{""stimulus"":""img/3to1/8.png"",""time"":803},{""stimulus"":""img/3to1/9.png"",""time"":897},{""stimulus"":""img/3to1/10.png"",""time"":1006},{""stimulus"":""img/3to1/11.png"",""time"":1098},{""stimulus"":""img/3to1/12.png"",""time"":1192}]","[]",""
"image-keyboard-response","14","52097","0.0-5.0-1.5","63ed15bed4665c62d9e6dbb2","bdp_cybrbll","Fri Mar 24 2023 20:36:28 GMT-0400 (Eastern Daylight Time)","632115","3","1","","null","","","","observe","","img/1to3/1.png","null","220","472","0.5","0.5","1","2","","",""
"animation","15","53392","0.0-5.0-2.5","63ed15bed4665c62d9e6dbb2","bdp_cybrbll","Fri Mar 24 2023 20:36:28 GMT-0400 (Eastern Daylight Time)","632115","3","1","","","","","","","","","","220","","","","1","2","[{""stimulus"":""img/1to2/1.png"",""time"":114},{""stimulus"":""img/1to2/2.png"",""time"":198},{""stimulus"":""img/1to2/3.png"",""time"":302},{""stimulus"":""img/1to2/4.png"",""time"":407},{""stimulus"":""img/1to2/5.png"",""time"":501},{""stimulus"":""img/1to2/6.png"",""time"":609},{""stimulus"":""img/1to2/7.png"",""time"":704},{""stimulus"":""img/1to2/8.png"",""time"":796},{""stimulus"":""img/1to2/9.png"",""time"":905},{""stimulus"":""img/1to2/10.png"",""time"":999},{""stimulus"":""img/1to2/11.png"",""time"":1092},{""stimulus"":""img/1to2/12.png"",""time"":1192}]","[]",""
"image-keyboard-response","16","54364","0.0-5.0-1.6","63ed15bed4665c62d9e6dbb2","bdp_cybrbll","Fri Mar 24 2023 20:36:28 GMT-0400 (Eastern Daylight Time)","632115","3","1","","972","","","","choice","","img/2to1/1.png","2","219","480","0.5","0.5","2","3","","",""
"animation","17","55655","0.0-5.0-2.6","63ed15bed4665c62d9e6dbb2","bdp_cybrbll","Fri Mar 24 2023 20:36:28 GMT-0400 (Eastern Daylight Time)","632115","3","1","","","","","","","","","","219","","","","2","3","[{""stimulus"":""img/2to3/1.png"",""time"":101},{""stimulus"":""img/2to3/2.png"",""time"":199},{""stimulus"":""img/2to3/3.png"",""time"":306},{""stimulus"":""img/2to3/4.png"",""time"":402},{""stimulus"":""img/2to3/5.png"",""time"":502},{""stimulus"":""img/2to3/6.png"",""time"":594},{""stimulus"":""img/2to3/7.png"",""time"":698},{""stimulus"":""img/2to3/8.png"",""time"":808},{""stimulus"":""img/2to3/9.png"",""time"":901},{""stimulus"":""img/2to3/10.png"",""time"":992},{""stimulus"":""img/2to3/11.png"",""time"":1103},{""stimulus"":""img/2to3/12.png"",""time"":1197}]","[]",""
"image-keyboard-response","18","56221","0.0-5.0-1.7","63ed15bed4665c62d9e6dbb2","bdp_cybrbll","Fri Mar 24 2023 20:36:28 GMT-0400 (Eastern Daylight Time)","632115","3","1","","null","","","","observe","","img/3to2/1.png","null","218","554","0.5","0.5","3","1","","",""
"animation","19","57515","0.0-5.0-2.7","63ed15bed4665c62d9e6dbb2","bdp_cybrbll","Fri Mar 24 2023 20:36:28 GMT-0400 (Eastern Daylight Time)","632115","3","1","","","","","","","","","","218","","","","3","1","[{""stimulus"":""img/3to1/1.png"",""time"":110},{""stimulus"":""img/3to1/2.png"",""time"":200},{""stimulus"":""img/3to1/3.png"",""time"":298},{""stimulus"":""img/3to1/4.png"",""time"":407},{""stimulus"":""img/3to1/5.png"",""time"":502},{""stimulus"":""img/3to1/6.png"",""time"":597},{""stimulus"":""img/3to1/7.png"",""time"":701},{""stimulus"":""img/3to1/8.png"",""time"":793},{""stimulus"":""img/3to1/9.png"",""time"":905},{""stimulus"":""img/3to1/10.png"",""time"":999},{""stimulus"":""img/3to1/11.png"",""time"":1093},{""stimulus"":""img/3to1/12.png"",""time"":1199}]","[]",""
"image-keyboard-response","20","57679","0.0-5.0-1.8","63ed15bed4665c62d9e6dbb2","bdp_cybrbll","Fri Mar 24 2023 20:36:28 GMT-0400 (Eastern Daylight Time)","632115","3","1","","null","","","","observe","","img/1to3/1.png","null","217","163","0.5","0.5","1","2","","",""
"animation","21","58971","0.0-5.0-2.8","63ed15bed4665c62d9e6dbb2","bdp_cybrbll","Fri Mar 24 2023 20:36:28 GMT-0400 (Eastern Daylight Time)","632115","3","1","","","","","","","","","","217","","","","1","2","[{""stimulus"":""img/1to2/1.png"",""time"":100},{""stimulus"":""img/1to2/2.png"",""time"":200},{""stimulus"":""img/1to2/3.png"",""time"":302},{""stimulus"":""img/1to2/4.png"",""time"":411},{""stimulus"":""img/1to2/5.png"",""time"":504},{""stimulus"":""img/1to2/6.png"",""time"":599},{""stimulus"":""img/1to2/7.png"",""time"":707},{""stimulus"":""img/1to2/8.png"",""time"":793},{""stimulus"":""img/1to2/9.png"",""time"":904},{""stimulus"":""img/1to2/10.png"",""time"":998},{""stimulus"":""img/1to2/11.png"",""time"":1092},{""stimulus"":""img/1to2/12.png"",""time"":1201}]","[]",""
"image-keyboard-response","22","60861","0.0-5.0-1.9","63ed15bed4665c62d9e6dbb2","bdp_cybrbll","Fri Mar 24 2023 20:36:28 GMT-0400 (Eastern Daylight Time)","632115","3","1","","1890","","","","choice","","img/2to1/1.png","1","216","911","0.5","0.5","2","1","","",""
"animation","23","62149","0.0-5.0-2.9","63ed15bed4665c62d9e6dbb2","bdp_cybrbll","Fri Mar 24 2023 20:36:28 GMT-0400 (Eastern Daylight Time)","632115","3","1","","","","","","","","","","216","","","","2","1","[{""stimulus"":""img/2to1/1.png"",""time"":112},{""stimulus"":""img/2to1/2.png"",""time"":200},{""stimulus"":""img/2to1/3.png"",""time"":300},{""stimulus"":""img/2to1/4.png"",""time"":411},{""stimulus"":""img/2to1/5.png"",""time"":505},{""stimulus"":""img/2to1/6.png"",""time"":600},{""stimulus"":""img/2to1/7.png"",""time"":694},{""stimulus"":""img/2to1/8.png"",""time"":804},{""stimulus"":""img/2to1/9.png"",""time"":897},{""stimulus"":""img/2to1/10.png"",""time"":1006},{""stimulus"":""img/2to1/11.png"",""time"":1100},{""stimulus"":""img/2to1/12.png"",""time"":1195}]","[]",""
"image-keyboard-response","24","62694","0.0-5.0-1.10","63ed15bed4665c62d9e6dbb2","bdp_cybrbll","Fri Mar 24 2023 20:36:28 GMT-0400 (Eastern Daylight Time)","632115","3","1","","null","","","","observe","","img/1to3/1.png","null","215","540","0.5","0.5","1","3","","",""
"animation","25","63982","0.0-5.0-2.10","63ed15bed4665c62d9e6dbb2","bdp_cybrbll","Fri Mar 24 2023 20:36:28 GMT-0400 (Eastern Daylight Time)","632115","3","1","","","","","","","","","","215","","","","1","3","[{""stimulus"":""img/1to3/1.png"",""time"":109},{""stimulus"":""img/1to3/2.png"",""time"":202},{""stimulus"":""img/1to3/3.png"",""time"":311},{""stimulus"":""img/1to3/4.png"",""time"":407},{""stimulus"":""img/1to3/5.png"",""time"":500},{""stimulus"":""img/1to3/6.png"",""time"":610},{""stimulus"":""img/1to3/7.png"",""time"":693},{""stimulus"":""img/1to3/8.png"",""time"":798},{""stimulus"":""img/1to3/9.png"",""time"":896},{""stimulus"":""img/1to3/10.png"",""time"":991},{""stimulus"":""img/1to3/11.png"",""time"":1101},{""stimulus"":""img/1to3/12.png"",""time"":1195}]","[]",""
"image-keyboard-response","26","64868","0.0-5.0-1.11","63ed15bed4665c62d9e6dbb2","bdp_cybrbll","Fri Mar 24 2023 20:36:28 GMT-0400 (Eastern Daylight Time)","632115","3","1","","null","","","","observe","","img/3to2/1.png","null","214","877","0.5","0.5","3","1","","",""
"animation","27","66167","0.0-5.0-2.11","63ed15bed4665c62d9e6dbb2","bdp_cybrbll","Fri Mar 24 2023 20:36:28 GMT-0400 (Eastern Daylight Time)","632115","3","1","","","","","","","","","","214","","","","3","1","[{""stimulus"":""img/3to1/1.png"",""time"":111},{""stimulus"":""img/3to1/2.png"",""time"":199},{""stimulus"":""img/3to1/3.png"",""time"":298},{""stimulus"":""img/3to1/4.png"",""time"":406},{""stimulus"":""img/3to1/5.png"",""time"":501},{""stimulus"":""img/3to1/6.png"",""time"":609},{""stimulus"":""img/3to1/7.png"",""time"":703},{""stimulus"":""img/3to1/8.png"",""time"":796},{""stimulus"":""img/3to1/9.png"",""time"":905},{""stimulus"":""img/3to1/10.png"",""time"":999},{""stimulus"":""img/3to1/11.png"",""time"":1092},{""stimulus"":""img/3to1/12.png"",""time"":1204}]","[]",""
"image-keyboard-response","28","67237","0.0-5.0-1.12","63ed15bed4665c62d9e6dbb2","bdp_cybrbll","Fri Mar 24 2023 20:36:28 GMT-0400 (Eastern Daylight Time)","632115","3","1","","null","","","","observe","","img/1to3/1.png","null","213","1062","0.5","0.5","1","2","","",""
"animation","29","68538","0.0-5.0-2.12","63ed15bed4665c62d9e6dbb2","bdp_cybrbll","Fri Mar 24 2023 20:36:28 GMT-0400 (Eastern Daylight Time)","632115","3","1","","","","","","","","","","213","","","","1","2","[{""stimulus"":""img/1to2/1.png"",""time"":111},{""stimulus"":""img/1to2/2.png"",""time"":206},{""stimulus"":""img/1to2/3.png"",""time"":299},{""stimulus"":""img/1to2/4.png"",""time"":405},{""stimulus"":""img/1to2/5.png"",""time"":498},{""stimulus"":""img/1to2/6.png"",""time"":608},{""stimulus"":""img/1to2/7.png"",""time"":702},{""stimulus"":""img/1to2/8.png"",""time"":798},{""stimulus"":""img/1to2/9.png"",""time"":891},{""stimulus"":""img/1to2/10.png"",""time"":990},{""stimulus"":""img/1to2/11.png"",""time"":1098},{""stimulus"":""img/1to2/12.png"",""time"":1192}]","[]",""
"image-keyboard-response","30","69118","0.0-5.0-1.13","63ed15bed4665c62d9e6dbb2","bdp_cybrbll","Fri Mar 24 2023 20:36:28 GMT-0400 (Eastern Daylight Time)","632115","3","1","","579","","","","choice","","img/2to1/1.png","2","212","243","0.5","0.5","2","3","","",""
"animation","31","70408","0.0-5.0-2.13","63ed15bed4665c62d9e6dbb2","bdp_cybrbll","Fri Mar 24 2023 20:36:28 GMT-0400 (Eastern Daylight Time)","632115","3","1","","","","","","","","","","212","","","","2","3","[{""stimulus"":""img/2to3/1.png"",""time"":99},{""stimulus"":""img/2to3/2.png"",""time"":199},{""stimulus"":""img/2to3/3.png"",""time"":305},{""stimulus"":""img/2to3/4.png"",""time"":399},{""stimulus"":""img/2to3/5.png"",""time"":509},{""stimulus"":""img/2to3/6.png"",""time"":601},{""stimulus"":""img/2to3/7.png"",""time"":694},{""stimulus"":""img/2to3/8.png"",""time"":802},{""stimulus"":""img/2to3/9.png"",""time"":897},{""stimulus"":""img/2to3/10.png"",""time"":992},{""stimulus"":""img/2to3/11.png"",""time"":1102},{""stimulus"":""img/2to3/12.png"",""time"":1196}]","[]",""
"image-keyboard-response","32","70587","0.0-5.0-1.14","63ed15bed4665c62d9e6dbb2","bdp_cybrbll","Fri Mar 24 2023 20:36:28 GMT-0400 (Eastern Daylight Time)","632115","3","1","","null","","","","observe","","img/3to2/1.png","null","211","178","0.5","0.5","3","2","","",""
"animation","33","71879","0.0-5.0-2.14","63ed15bed4665c62d9e6dbb2","bdp_cybrbll","Fri Mar 24 2023 20:36:28 GMT-0400 (Eastern Daylight Time)","632115","3","1","","","","","","","","","","211","","","","3","2","[{""stimulus"":""img/3to2/1.png"",""time"":100},{""stimulus"":""img/3to2/2.png"",""time"":211},{""stimulus"":""img/3to2/3.png"",""time"":305},{""stimulus"":""img/3to2/4.png"",""time"":399},{""stimulus"":""img/3to2/5.png"",""time"":510},{""stimulus"":""img/3to2/6.png"",""time"":603},{""stimulus"":""img/3to2/7.png"",""time"":697},{""stimulus"":""img/3to2/8.png"",""time"":807},{""stimulus"":""img/3to2/9.png"",""time"":902},{""stimulus"":""img/3to2/10.png"",""time"":996},{""stimulus"":""img/3to2/11.png"",""time"":1090},{""stimulus"":""img/3to2/12.png"",""time"":1197}]","[]",""
"image-keyboard-response","34","72221","0.0-5.0-1.15","63ed15bed4665c62d9e6dbb2","bdp_cybrbll","Fri Mar 24 2023 20:36:28 GMT-0400 (Eastern Daylight Time)","632115","3","1","","342","","","","choice","","img/2to1/1.png","1","210","1108","0.5","0.5","2","1","","",""
"animation","35","73522","0.0-5.0-2.15","63ed15bed4665c62d9e6dbb2","bdp_cybrbll","Fri Mar 24 2023 20:36:28 GMT-0400 (Eastern Daylight Time)","632115","3","1","","","","","","","","","","210","","","","2","1","[{""stimulus"":""img/2to1/1.png"",""time"":100},{""stimulus"":""img/2to1/2.png"",""time"":204},{""stimulus"":""img/2to1/3.png"",""time"":312},{""stimulus"":""img/2to1/4.png"",""time"":407},{""stimulus"":""img/2to1/5.png"",""time"":501},{""stimulus"":""img/2to1/6.png"",""time"":595},{""stimulus"":""img/2to1/7.png"",""time"":704},{""stimulus"":""img/2to1/8.png"",""time"":797},{""stimulus"":""img/2to1/9.png"",""time"":892},{""stimulus"":""img/2to1/10.png"",""time"":1003},{""stimulus"":""img/2to1/11.png"",""time"":1096},{""stimulus"":""img/2to1/12.png"",""time"":1191}]","[]",""
"image-keyboard-response","36","73689","0.0-5.0-1.16","63ed15bed4665c62d9e6dbb2","bdp_cybrbll","Fri Mar 24 2023 20:36:28 GMT-0400 (Eastern Daylight Time)","632115","3","1","","null","","","","observe","","img/1to3/1.png","null","209","165","0.5","0.5","1","3","","",""
"animation","37","74979","0.0-5.0-2.16","63ed15bed4665c62d9e6dbb2","bdp_cybrbll","Fri Mar 24 2023 20:36:28 GMT-0400 (Eastern Daylight Time)","632115","3","1","","","","","","","","","","209","","","","1","3","[{""stimulus"":""img/1to3/1.png"",""time"":112},{""stimulus"":""img/1to3/2.png"",""time"":199},{""stimulus"":""img/1to3/3.png"",""time"":299},{""stimulus"":""img/1to3/4.png"",""time"":409},{""stimulus"":""img/1to3/5.png"",""time"":503},{""stimulus"":""img/1to3/6.png"",""time"":596},{""stimulus"":""img/1to3/7.png"",""time"":707},{""stimulus"":""img/1to3/8.png"",""time"":802},{""stimulus"":""img/1to3/9.png"",""time"":895},{""stimulus"":""img/1to3/10.png"",""time"":1006},{""stimulus"":""img/1to3/11.png"",""time"":1098},{""stimulus"":""img/1to3/12.png"",""time"":1196}]","[]",""
"image-keyboard-response","38","75142","0.0-5.0-1.17","63ed15bed4665c62d9e6dbb2","bdp_cybrbll","Fri Mar 24 2023 20:36:28 GMT-0400 (Eastern Daylight Time)","632115","3","1","","null","","","","observe","","img/3to2/1.png","null","208","162","0.5","0.5","3","2","","",""
"animation","39","76432","0.0-5.0-2.17","63ed15bed4665c62d9e6dbb2","bdp_cybrbll","Fri Mar 24 2023 20:36:28 GMT-0400 (Eastern Daylight Time)","632115","3","1","","","","","","","","","","208","","","","3","2","[{""stimulus"":""img/3to2/1.png"",""time"":102},{""stimulus"":""img/3to2/2.png"",""time"":199},{""stimulus"":""img/3to2/3.png"",""time"":306},{""stimulus"":""img/3to2/4.png"",""time"":401},{""stimulus"":""img/3to2/5.png"",""time"":510},{""stimulus"":""img/3to2/6.png"",""time"":603},{""stimulus"":""img/3to2/7.png"",""time"":696},{""stimulus"":""img/3to2/8.png"",""time"":805},{""stimulus"":""img/3to2/9.png"",""time"":891},{""stimulus"":""img/3to2/10.png"",""time"":990},{""stimulus"":""img/3to2/11.png"",""time"":1103},{""stimulus"":""img/3to2/12.png"",""time"":1197}]","[]",""
"image-keyboard-response","40","77452","0.0-5.0-1.18","63ed15bed4665c62d9e6dbb2","bdp_cybrbll","Fri Mar 24 2023 20:36:28 GMT-0400 (Eastern Daylight Time)","632115","3","1","","1020","","","","choice","","img/2to1/1.png","1","207","500","0.5","0.5","2","1","","",""
"animation","41","78747","0.0-5.0-2.18","63ed15bed4665c62d9e6dbb2","bdp_cybrbll","Fri Mar 24 2023 20:36:28 GMT-0400 (Eastern Daylight Time)","632115","3","1","","","","","","","","","","207","","","","2","1","[{""stimulus"":""img/2to1/1.png"",""time"":101},{""stimulus"":""img/2to1/2.png"",""time"":198},{""stimulus"":""img/2to1/3.png"",""time"":300},{""stimulus"":""img/2to1/4.png"",""time"":409},{""stimulus"":""img/2to1/5.png"",""time"":503},{""stimulus"":""img/2to1/6.png"",""time"":595},{""stimulus"":""img/2to1/7.png"",""time"":706},{""stimulus"":""img/2to1/8.png"",""time"":799},{""stimulus"":""img/2to1/9.png"",""time"":893},{""stimulus"":""img/2to1/10.png"",""time"":1003},{""stimulus"":""img/2to1/11.png"",""time"":1098},{""stimulus"":""img/2to1/12.png"",""time"":1192}]","[]",""
"image-keyboard-response","42","79645","0.0-5.0-1.19","63ed15bed4665c62d9e6dbb2","bdp_cybrbll","Fri Mar 24 2023 20:36:28 GMT-0400 (Eastern Daylight Time)","632115","3","1","","null","","","","observe","","img/1to3/1.png","null","206","888","0.5","0.5","1","2","","",""
"animation","43","80942","0.0-5.0-2.19","63ed15bed4665c62d9e6dbb2","bdp_cybrbll","Fri Mar 24 2023 20:36:28 GMT-0400 (Eastern Daylight Time)","632115","3","1","","","","","","","","","","206","","","","1","2","[{""stimulus"":""img/1to2/1.png"",""time"":108},{""stimulus"":""img/1to2/2.png"",""time"":199},{""stimulus"":""img/1to2/3.png"",""time"":310},{""stimulus"":""img/1to2/4.png"",""time"":405},{""stimulus"":""img/1to2/5.png"",""time"":499},{""stimulus"":""img/1to2/6.png"",""time"":608},{""stimulus"":""img/1to2/7.png"",""time"":701},{""stimulus"":""img/1to2/8.png"",""time"":794},{""stimulus"":""img/1to2/9.png"",""time"":903},{""stimulus"":""img/1to2/10.png"",""time"":998},{""stimulus"":""img/1to2/11.png"",""time"":1093},{""stimulus"":""img/1to2/12.png"",""time"":1189}]","[]",""
"image-keyboard-response","44","82427","0.0-5.0-1.20","63ed15bed4665c62d9e6dbb2","bdp_cybrbll","Fri Mar 24 2023 20:36:28 GMT-0400 (Eastern Daylight Time)","632115","3","1","","1485","","","","choice","","img/2to1/1.png","1","205","459","0.5","0.5","2","1","","",""
"animation","45","83725","0.0-5.0-2.20","63ed15bed4665c62d9e6dbb2","bdp_cybrbll","Fri Mar 24 2023 20:36:28 GMT-0400 (Eastern Daylight Time)","632115","3","1","","","","","","","","","","205","","","","2","1","[{""stimulus"":""img/2to1/1.png"",""time"":100},{""stimulus"":""img/2to1/2.png"",""time"":202},{""stimulus"":""img/2to1/3.png"",""time"":312},{""stimulus"":""img/2to1/4.png"",""time"":411},{""stimulus"":""img/2to1/5.png"",""time"":505},{""stimulus"":""img/2to1/6.png"",""time"":598},{""stimulus"":""img/2to1/7.png"",""time"":708},{""stimulus"":""img/2to1/8.png"",""time"":802},{""stimulus"":""img/2to1/9.png"",""time"":894},{""stimulus"":""img/2to1/10.png"",""time"":1004},{""stimulus"":""img/2to1/11.png"",""time"":1096},{""stimulus"":""img/2to1/12.png"",""time"":1205}]","[]",""
"image-keyboard-response","46","84099","0.0-5.0-1.21","63ed15bed4665c62d9e6dbb2","bdp_cybrbll","Fri Mar 24 2023 20:36:28 GMT-0400 (Eastern Daylight Time)","632115","3","1","","null","","","","observe","","img/1to3/1.png","null","204","373","0.5","0.5","1","2","","",""
"animation","47","85400","0.0-5.0-2.21","63ed15bed4665c62d9e6dbb2","bdp_cybrbll","Fri Mar 24 2023 20:36:28 GMT-0400 (Eastern Daylight Time)","632115","3","1","","","","","","","","","","204","","","","1","2","[{""stimulus"":""img/1to2/1.png"",""time"":111},{""stimulus"":""img/1to2/2.png"",""time"":198},{""stimulus"":""img/1to2/3.png"",""time"":313},{""stimulus"":""img/1to2/4.png"",""time"":407},{""stimulus"":""img/1to2/5.png"",""time"":501},{""stimulus"":""img/1to2/6.png"",""time"":595},{""stimulus"":""img/1to2/7.png"",""time"":703},{""stimulus"":""img/1to2/8.png"",""time"":803},{""stimulus"":""img/1to2/9.png"",""time"":897},{""stimulus"":""img/1to2/10.png"",""time"":991},{""stimulus"":""img/1to2/11.png"",""time"":1101},{""stimulus"":""img/1to2/12.png"",""time"":1195}]","[]",""
"image-keyboard-response","48","86911","0.0-5.0-1.22","63ed15bed4665c62d9e6dbb2","bdp_cybrbll","Fri Mar 24 2023 20:36:28 GMT-0400 (Eastern Daylight Time)","632115","3","1","","1511","","","","choice","","img/2to1/1.png","2","203","940","0.5","0.5","2","3","","",""
"animation","49","88199","0.0-5.0-2.22","63ed15bed4665c62d9e6dbb2","bdp_cybrbll","Fri Mar 24 2023 20:36:28 GMT-0400 (Eastern Daylight Time)","632115","3","1","","","","","","","","","","203","","","","2","3","[{""stimulus"":""img/2to3/1.png"",""time"":115},{""stimulus"":""img/2to3/2.png"",""time"":199},{""stimulus"":""img/2to3/3.png"",""time"":302},{""stimulus"":""img/2to3/4.png"",""time"":412},{""stimulus"":""img/2to3/5.png"",""time"":504},{""stimulus"":""img/2to3/6.png"",""time"":597},{""stimulus"":""img/2to3/7.png"",""time"":707},{""stimulus"":""img/2to3/8.png"",""time"":800},{""stimulus"":""img/2to3/9.png"",""time"":895},{""stimulus"":""img/2to3/10.png"",""time"":1004},{""stimulus"":""img/2to3/11.png"",""time"":1099},{""stimulus"":""img/2to3/12.png"",""time"":1194}]","[]",""
"image-keyboard-response","50","88419","0.0-5.0-1.23","63ed15bed4665c62d9e6dbb2","bdp_cybrbll","Fri Mar 24 2023 20:36:28 GMT-0400 (Eastern Daylight Time)","632115","3","1","","null","","","","observe","","img/3to2/1.png","null","202","219","0.5","0.5","3","2","","",""
"animation","51","89719","0.0-5.0-2.23","63ed15bed4665c62d9e6dbb2","bdp_cybrbll","Fri Mar 24 2023 20:36:28 GMT-0400 (Eastern Daylight Time)","632115","3","1","","","","","","","","","","202","","","","3","2","[{""stimulus"":""img/3to2/1.png"",""time"":114},{""stimulus"":""img/3to2/2.png"",""time"":209},{""stimulus"":""img/3to2/3.png"",""time"":304},{""stimulus"":""img/3to2/4.png"",""time"":398},{""stimulus"":""img/3to2/5.png"",""time"":508},{""stimulus"":""img/3to2/6.png"",""time"":596},{""stimulus"":""img/3to2/7.png"",""time"":695},{""stimulus"":""img/3to2/8.png"",""time"":806},{""stimulus"":""img/3to2/9.png"",""time"":900},{""stimulus"":""img/3to2/10.png"",""time"":995},{""stimulus"":""img/3to2/11.png"",""time"":1095},{""stimulus"":""img/3to2/12.png"",""time"":1190}]","[]",""
"image-keyboard-response","52","89749","0.0-5.0-1.24","63ed15bed4665c62d9e6dbb2","bdp_cybrbll","Fri Mar 24 2023 20:36:28 GMT-0400 (Eastern Daylight Time)","632115","3","1","","30","","","","choice","","img/2to1/1.png","1","201","302","0.5","0.5","2","1","","",""
"animation","53","91047","0.0-5.0-2.24","63ed15bed4665c62d9e6dbb2","bdp_cybrbll","Fri Mar 24 2023 20:36:28 GMT-0400 (Eastern Daylight Time)","632115","3","1","","","","","","","","","","201","","","","2","1","[{""stimulus"":""img/2to1/1.png"",""time"":111},{""stimulus"":""img/2to1/2.png"",""time"":198},{""stimulus"":""img/2to1/3.png"",""time"":309},{""stimulus"":""img/2to1/4.png"",""time"":404},{""stimulus"":""img/2to1/5.png"",""time"":499},{""stimulus"":""img/2to1/6.png"",""time"":608},{""stimulus"":""img/2to1/7.png"",""time"":701},{""stimulus"":""img/2to1/8.png"",""time"":793},{""stimulus"":""img/2to1/9.png"",""time"":896},{""stimulus"":""img/2to1/10.png"",""time"":1004},{""stimulus"":""img/2to1/11.png"",""time"":1100},{""stimulus"":""img/2to1/12.png"",""time"":1193}]","[]",""
"image-keyboard-response","54","91337","0.0-5.0-1.25","63ed15bed4665c62d9e6dbb2","bdp_cybrbll","Fri Mar 24 2023 20:36:28 GMT-0400 (Eastern Daylight Time)","632115","3","1","","null","","","","observe","","img/1to3/1.png","null","200","289","0.5","0.5","1","3","","",""
"animation","55","92630","0.0-5.0-2.25","63ed15bed4665c62d9e6dbb2","bdp_cybrbll","Fri Mar 24 2023 20:36:28 GMT-0400 (Eastern Daylight Time)","632115","3","1","","","","","","","","","","200","","","","1","3","[{""stimulus"":""img/1to3/1.png"",""time"":105},{""stimulus"":""img/1to3/2.png"",""time"":200},{""stimulus"":""img/1to3/3.png"",""time"":298},{""stimulus"":""img/1to3/4.png"",""time"":406},{""stimulus"":""img/1to3/5.png"",""time"":502},{""stimulus"":""img/1to3/6.png"",""time"":610},{""stimulus"":""img/1to3/7.png"",""time"":703},{""stimulus"":""img/1to3/8.png"",""time"":797},{""stimulus"":""img/1to3/9.png"",""time"":906},{""stimulus"":""img/1to3/10.png"",""time"":999},{""stimulus"":""img/1to3/11.png"",""time"":1090},{""stimulus"":""img/1to3/12.png"",""time"":1199}]","[]",""
"image-keyboard-response","56","93332","0.0-5.0-1.26","63ed15bed4665c62d9e6dbb2","bdp_cybrbll","Fri Mar 24 2023 20:36:28 GMT-0400 (Eastern Daylight Time)","632115","3","1","","null","","","","observe","","img/3to2/1.png","null","199","693","0.5","0.5","3","1","","",""
"animation","57","94631","0.0-5.0-2.26","63ed15bed4665c62d9e6dbb2","bdp_cybrbll","Fri Mar 24 2023 20:36:28 GMT-0400 (Eastern Daylight Time)","632115","3","1","","","","","","","","","","199","","","","3","1","[{""stimulus"":""img/3to1/1.png"",""time"":110},{""stimulus"":""img/3to1/2.png"",""time"":200},{""stimulus"":""img/3to1/3.png"",""time"":299},{""stimulus"":""img/3to1/4.png"",""time"":407},{""stimulus"":""img/3to1/5.png"",""time"":500},{""stimulus"":""img/3to1/6.png"",""time"":609},{""stimulus"":""img/3to1/7.png"",""time"":702},{""stimulus"":""img/3to1/8.png"",""time"":808},{""stimulus"":""img/3to1/9.png"",""time"":902},{""stimulus"":""img/3to1/10.png"",""time"":997},{""stimulus"":""img/3to1/11.png"",""time"":1090},{""stimulus"":""img/3to1/12.png"",""time"":1201}]","[]",""
"image-keyboard-response","58","95114","0.0-5.0-1.27","63ed15bed4665c62d9e6dbb2","bdp_cybrbll","Fri Mar 24 2023 20:36:28 GMT-0400 (Eastern Daylight Time)","632115","3","1","","null","","","","observe","","img/1to3/1.png","null","198","473","0.5","0.5","1","3","","",""
"animation","59","96416","0.0-5.0-2.27","63ed15bed4665c62d9e6dbb2","bdp_cybrbll","Fri Mar 24 2023 20:36:28 GMT-0400 (Eastern Daylight Time)","632115","3","1","","","","","","","","","","198","","","","1","3","[{""stimulus"":""img/1to3/1.png"",""time"":108},{""stimulus"":""img/1to3/2.png"",""time"":199},{""stimulus"":""img/1to3/3.png"",""time"":311},{""stimulus"":""img/1to3/4.png"",""time"":397},{""stimulus"":""img/1to3/5.png"",""time"":509},{""stimulus"":""img/1to3/6.png"",""time"":595},{""stimulus"":""img/1to3/7.png"",""time"":696},{""stimulus"":""img/1to3/8.png"",""time"":805},{""stimulus"":""img/1to3/9.png"",""time"":896},{""stimulus"":""img/1to3/10.png"",""time"":1006},{""stimulus"":""img/1to3/11.png"",""time"":1090},{""stimulus"":""img/1to3/12.png"",""time"":1193}]","[]",""
"image-keyboard-response","60","97783","0.0-5.0-1.28","63ed15bed4665c62d9e6dbb2","bdp_cybrbll","Fri Mar 24 2023 20:36:28 GMT-0400 (Eastern Daylight Time)","632115","3","1","","null","","","","observe","","img/3to2/1.png","null","197","1353","0.5","0.5","3","1","","",""
"animation","61","99078","0.0-5.0-2.28","63ed15bed4665c62d9e6dbb2","bdp_cybrbll","Fri Mar 24 2023 20:36:28 GMT-0400 (Eastern Daylight Time)","632115","3","1","","","","","","","","","","197","","","","3","1","[{""stimulus"":""img/3to1/1.png"",""time"":110},{""stimulus"":""img/3to1/2.png"",""time"":204},{""stimulus"":""img/3to1/3.png"",""time"":306},{""stimulus"":""img/3to1/4.png"",""time"":400},{""stimulus"":""img/3to1/5.png"",""time"":510},{""stimulus"":""img/3to1/6.png"",""time"":605},{""stimulus"":""img/3to1/7.png"",""time"":698},{""stimulus"":""img/3to1/8.png"",""time"":805},{""stimulus"":""img/3to1/9.png"",""time"":898},{""stimulus"":""img/3to1/10.png"",""time"":993},{""stimulus"":""img/3to1/11.png"",""time"":1102},{""stimulus"":""img/3to1/12.png"",""time"":1196}]","[]",""
"image-keyboard-response","62","99642","0.0-5.0-1.29","63ed15bed4665c62d9e6dbb2","bdp_cybrbll","Fri Mar 24 2023 20:36:28 GMT-0400 (Eastern Daylight Time)","632115","3","1","","null","","","","observe","","img/1to3/1.png","null","196","548","0.5","0.5","1","3","","",""
"animation","63","100931","0.0-5.0-2.29","63ed15bed4665c62d9e6dbb2","bdp_cybrbll","Fri Mar 24 2023 20:36:28 GMT-0400 (Eastern Daylight Time)","632115","3","1","","","","","","","","","","196","","","","1","3","[{""stimulus"":""img/1to3/1.png"",""time"":109},{""stimulus"":""img/1to3/2.png"",""time"":198},{""stimulus"":""img/1to3/3.png"",""time"":297},{""stimulus"":""img/1to3/4.png"",""time"":407},{""stimulus"":""img/1to3/5.png"",""time"":511},{""stimulus"":""img/1to3/6.png"",""time"":606},{""stimulus"":""img/1to3/7.png"",""time"":701},{""stimulus"":""img/1to3/8.png"",""time"":792},{""stimulus"":""img/1to3/9.png"",""time"":905},{""stimulus"":""img/1to3/10.png"",""time"":994},{""stimulus"":""img/1to3/11.png"",""time"":1102},{""stimulus"":""img/1to3/12.png"",""time"":1196}]","[]",""
"image-keyboard-response","64","101345","0.0-5.0-1.30","63ed15bed4665c62d9e6dbb2","bdp_cybrbll","Fri Mar 24 2023 20:36:28 GMT-0400 (Eastern Daylight Time)","632115","3","1","","null","","","","observe","","img/3to2/1.png","null","195","408","0.5","0.5","3","2","","",""
"animation","65","102646","0.0-5.0-2.30","63ed15bed4665c62d9e6dbb2","bdp_cybrbll","Fri Mar 24 2023 20:36:28 GMT-0400 (Eastern Daylight Time)","632115","3","1","","","","","","","","","","195","","","","3","2","[{""stimulus"":""img/3to2/1.png"",""time"":111},{""stimulus"":""img/3to2/2.png"",""time"":205},{""stimulus"":""img/3to2/3.png"",""time"":299},{""stimulus"":""img/3to2/4.png"",""time"":408},{""stimulus"":""img/3to2/5.png"",""time"":502},{""stimulus"":""img/3to2/6.png"",""time"":595},{""stimulus"":""img/3to2/7.png"",""time"":705},{""stimulus"":""img/3to2/8.png"",""time"":795},{""stimulus"":""img/3to2/9.png"",""time"":904},{""stimulus"":""img/3to2/10.png"",""time"":998},{""stimulus"":""img/3to2/11.png"",""time"":1091},{""stimulus"":""img/3to2/12.png"",""time"":1199}]","[]",""
"image-keyboard-response","66","103099","0.0-5.0-1.31","63ed15bed4665c62d9e6dbb2","bdp_cybrbll","Fri Mar 24 2023 20:36:28 GMT-0400 (Eastern Daylight Time)","632115","3","1","","452","","","","choice","","img/2to1/1.png","1","194","400","0.5","0.5","2","1","","",""
"animation","67","104391","0.0-5.0-2.31","63ed15bed4665c62d9e6dbb2","bdp_cybrbll","Fri Mar 24 2023 20:36:28 GMT-0400 (Eastern Daylight Time)","632115","3","1","","","","","","","","","","194","","","","2","1","[{""stimulus"":""img/2to1/1.png"",""time"":100},{""stimulus"":""img/2to1/2.png"",""time"":199},{""stimulus"":""img/2to1/3.png"",""time"":310},{""stimulus"":""img/2to1/4.png"",""time"":403},{""stimulus"":""img/2to1/5.png"",""time"":498},{""stimulus"":""img/2to1/6.png"",""time"":607},{""stimulus"":""img/2to1/7.png"",""time"":694},{""stimulus"":""img/2to1/8.png"",""time"":793},{""stimulus"":""img/2to1/9.png"",""time"":902},{""stimulus"":""img/2to1/10.png"",""time"":996},{""stimulus"":""img/2to1/11.png"",""time"":1104},{""stimulus"":""img/2to1/12.png"",""time"":1198}]","[]",""
"image-keyboard-response","68","104570","0.0-5.0-1.32","63ed15bed4665c62d9e6dbb2","bdp_cybrbll","Fri Mar 24 2023 20:36:28 GMT-0400 (Eastern Daylight Time)","632115","3","1","","null","","","","observe","","img/1to3/1.png","null","193","177","0.5","0.5","1","2","","",""
"animation","69","105865","0.0-5.0-2.32","63ed15bed4665c62d9e6dbb2","bdp_cybrbll","Fri Mar 24 2023 20:36:28 GMT-0400 (Eastern Daylight Time)","632115","3","1","","","","","","","","","","193","","","","1","2","[{""stimulus"":""img/1to2/1.png"",""time"":104},{""stimulus"":""img/1to2/2.png"",""time"":199},{""stimulus"":""img/1to2/3.png"",""time"":308},{""stimulus"":""img/1to2/4.png"",""time"":401},{""stimulus"":""img/1to2/5.png"",""time"":496},{""stimulus"":""img/1to2/6.png"",""time"":604},{""stimulus"":""img/1to2/7.png"",""time"":703},{""stimulus"":""img/1to2/8.png"",""time"":793},{""stimulus"":""img/1to2/9.png"",""time"":892},{""stimulus"":""img/1to2/10.png"",""time"":1000},{""stimulus"":""img/1to2/11.png"",""time"":1094},{""stimulus"":""img/1to2/12.png"",""time"":1201}]","[]",""
"image-keyboard-response","70","105892","0.0-5.0-1.33","63ed15bed4665c62d9e6dbb2","bdp_cybrbll","Fri Mar 24 2023 20:36:28 GMT-0400 (Eastern Daylight Time)","632115","3","1","","27","","","","choice","","img/2to1/1.png","2","192","343","0.5","0.5","2","3","","",""
"animation","71","107184","0.0-5.0-2.33","63ed15bed4665c62d9e6dbb2","bdp_cybrbll","Fri Mar 24 2023 20:36:28 GMT-0400 (Eastern Daylight Time)","632115","3","1","","","","","","","","","","192","","","","2","3","[{""stimulus"":""img/2to3/1.png"",""time"":100},{""stimulus"":""img/2to3/2.png"",""time"":199},{""stimulus"":""img/2to3/3.png"",""time"":301},{""stimulus"":""img/2to3/4.png"",""time"":408},{""stimulus"":""img/2to3/5.png"",""time"":502},{""stimulus"":""img/2to3/6.png"",""time"":596},{""stimulus"":""img/2to3/7.png"",""time"":705},{""stimulus"":""img/2to3/8.png"",""time"":799},{""stimulus"":""img/2to3/9.png"",""time"":901},{""stimulus"":""img/2to3/10.png"",""time"":994},{""stimulus"":""img/2to3/11.png"",""time"":1103},{""stimulus"":""img/2to3/12.png"",""time"":1198}]","[]",""
"image-keyboard-response","72","107404","0.0-5.0-1.34","63ed15bed4665c62d9e6dbb2","bdp_cybrbll","Fri Mar 24 2023 20:36:28 GMT-0400 (Eastern Daylight Time)","632115","3","1","","null","","","","observe","","img/3to2/1.png","null","191","219","0.5","0.5","3","1","","",""
"animation","73","108697","0.0-5.0-2.34","63ed15bed4665c62d9e6dbb2","bdp_cybrbll","Fri Mar 24 2023 20:36:28 GMT-0400 (Eastern Daylight Time)","632115","3","1","","","","","","","","","","191","","","","3","1","[{""stimulus"":""img/3to1/1.png"",""time"":103},{""stimulus"":""img/3to1/2.png"",""time"":199},{""stimulus"":""img/3to1/3.png"",""time"":307},{""stimulus"":""img/3to1/4.png"",""time"":400},{""stimulus"":""img/3to1/5.png"",""time"":510},{""stimulus"":""img/3to1/6.png"",""time"":595},{""stimulus"":""img/3to1/7.png"",""time"":697},{""stimulus"":""img/3to1/8.png"",""time"":806},{""stimulus"":""img/3to1/9.png"",""time"":905},{""stimulus"":""img/3to1/10.png"",""time"":998},{""stimulus"":""img/3to1/11.png"",""time"":1092},{""stimulus"":""img/3to1/12.png"",""time"":1200}]","[]",""
"image-keyboard-response","74","108910","0.0-5.0-1.35","63ed15bed4665c62d9e6dbb2","bdp_cybrbll","Fri Mar 24 2023 20:36:28 GMT-0400 (Eastern Daylight Time)","632115","3","1","","null","","","","observe","","img/1to3/1.png","null","190","212","0.5","0.5","1","3","","",""
"animation","75","110211","0.0-5.0-2.35","63ed15bed4665c62d9e6dbb2","bdp_cybrbll","Fri Mar 24 2023 20:36:28 GMT-0400 (Eastern Daylight Time)","632115","3","1","","","","","","","","","","190","","","","1","3","[{""stimulus"":""img/1to3/1.png"",""time"":104},{""stimulus"":""img/1to3/2.png"",""time"":212},{""stimulus"":""img/1to3/3.png"",""time"":307},{""stimulus"":""img/1to3/4.png"",""time"":411},{""stimulus"":""img/1to3/5.png"",""time"":506},{""stimulus"":""img/1to3/6.png"",""time"":600},{""stimulus"":""img/1to3/7.png"",""time"":708},{""stimulus"":""img/1to3/8.png"",""time"":801},{""stimulus"":""img/1to3/9.png"",""time"":895},{""stimulus"":""img/1to3/10.png"",""time"":1004},{""stimulus"":""img/1to3/11.png"",""time"":1098},{""stimulus"":""img/1to3/12.png"",""time"":1191}]","[]",""
"image-keyboard-response","76","112027","0.0-5.0-1.36","63ed15bed4665c62d9e6dbb2","bdp_cybrbll","Fri Mar 24 2023 20:36:28 GMT-0400 (Eastern Daylight Time)","632115","3","1","","null","","","","observe","","img/3to2/1.png","null","189","1805","0.5","0.5","3","1","","",""
"animation","77","113328","0.0-5.0-2.36","63ed15bed4665c62d9e6dbb2","bdp_cybrbll","Fri Mar 24 2023 20:36:28 GMT-0400 (Eastern Daylight Time)","632115","3","1","","","","","","","","","","189","","","","3","1","[{""stimulus"":""img/3to1/1.png"",""time"":109},{""stimulus"":""img/3to1/2.png"",""time"":203},{""stimulus"":""img/3to1/3.png"",""time"":312},{""stimulus"":""img/3to1/4.png"",""time"":412},{""stimulus"":""img/3to1/5.png"",""time"":504},{""stimulus"":""img/3to1/6.png"",""time"":599},{""stimulus"":""img/3to1/7.png"",""time"":708},{""stimulus"":""img/3to1/8.png"",""time"":803},{""stimulus"":""img/3to1/9.png"",""time"":892},{""stimulus"":""img/3to1/10.png"",""time"":990},{""stimulus"":""img/3to1/11.png"",""time"":1096},{""stimulus"":""img/3to1/12.png"",""time"":1191}]","[]",""
"image-keyboard-response","78","113639","0.0-5.0-1.37","63ed15bed4665c62d9e6dbb2","bdp_cybrbll","Fri Mar 24 2023 20:36:28 GMT-0400 (Eastern Daylight Time)","632115","3","1","","null","","","","observe","","img/1to3/1.png","null","188","297","0.5","0.5","1","3","","",""
"animation","79","114927","0.0-5.0-2.37","63ed15bed4665c62d9e6dbb2","bdp_cybrbll","Fri Mar 24 2023 20:36:28 GMT-0400 (Eastern Daylight Time)","632115","3","1","","","","","","","","","","188","","","","1","3","[{""stimulus"":""img/1to3/1.png"",""time"":110},{""stimulus"":""img/1to3/2.png"",""time"":199},{""stimulus"":""img/1to3/3.png"",""time"":305},{""stimulus"":""img/1to3/4.png"",""time"":398},{""stimulus"":""img/1to3/5.png"",""time"":507},{""stimulus"":""img/1to3/6.png"",""time"":601},{""stimulus"":""img/1to3/7.png"",""time"":693},{""stimulus"":""img/1to3/8.png"",""time"":793},{""stimulus"":""img/1to3/9.png"",""time"":897},{""stimulus"":""img/1to3/10.png"",""time"":1005},{""stimulus"":""img/1to3/11.png"",""time"":1100},{""stimulus"":""img/1to3/12.png"",""time"":1193}]","[]",""
"image-keyboard-response","80","116119","0.0-5.0-1.38","63ed15bed4665c62d9e6dbb2","bdp_cybrbll","Fri Mar 24 2023 20:36:28 GMT-0400 (Eastern Daylight Time)","632115","3","1","","null","","","","observe","","img/3to2/1.png","null","187","1188","0.5","0.5","3","2","","",""
"animation","81","117407","0.0-5.0-2.38","63ed15bed4665c62d9e6dbb2","bdp_cybrbll","Fri Mar 24 2023 20:36:28 GMT-0400 (Eastern Daylight Time)","632115","3","1","","","","","","","","","","187","","","","3","2","[{""stimulus"":""img/3to2/1.png"",""time"":109},{""stimulus"":""img/3to2/2.png"",""time"":199},{""stimulus"":""img/3to2/3.png"",""time"":300},{""stimulus"":""img/3to2/4.png"",""time"":410},{""stimulus"":""img/3to2/5.png"",""time"":496},{""stimulus"":""img/3to2/6.png"",""time"":597},{""stimulus"":""img/3to2/7.png"",""time"":705},{""stimulus"":""img/3to2/8.png"",""time"":798},{""stimulus"":""img/3to2/9.png"",""time"":892},{""stimulus"":""img/3to2/10.png"",""time"":1001},{""stimulus"":""img/3to2/11.png"",""time"":1095},{""stimulus"":""img/3to2/12.png"",""time"":1203}]","[]",""
"image-keyboard-response","82","117703","0.0-5.0-1.39","63ed15bed4665c62d9e6dbb2","bdp_cybrbll","Fri Mar 24 2023 20:36:28 GMT-0400 (Eastern Daylight Time)","632115","3","1","","295","","","","choice","","img/2to1/1.png","1","186","300","0.5","0.5","2","1","","",""
"animation","83","118996","0.0-5.0-2.39","63ed15bed4665c62d9e6dbb2","bdp_cybrbll","Fri Mar 24 2023 20:36:28 GMT-0400 (Eastern Daylight Time)","632115","3","1","","","","","","","","","","186","","","","2","1","[{""stimulus"":""img/2to1/1.png"",""time"":102},{""stimulus"":""img/2to1/2.png"",""time"":211},{""stimulus"":""img/2to1/3.png"",""time"":306},{""stimulus"":""img/2to1/4.png"",""time"":400},{""stimulus"":""img/2to1/5.png"",""time"":496},{""stimulus"":""img/2to1/6.png"",""time"":603},{""stimulus"":""img/2to1/7.png"",""time"":702},{""stimulus"":""img/2to1/8.png"",""time"":796},{""stimulus"":""img/2to1/9.png"",""time"":905},{""stimulus"":""img/2to1/10.png"",""time"":999},{""stimulus"":""img/2to1/11.png"",""time"":1094},{""stimulus"":""img/2to1/12.png"",""time"":1200}]","[]",""
"image-keyboard-response","84","119339","0.0-5.0-1.40","63ed15bed4665c62d9e6dbb2","bdp_cybrbll","Fri Mar 24 2023 20:36:28 GMT-0400 (Eastern Daylight Time)","632115","3","1","","null","","","","observe","","img/1to3/1.png","null","185","341","0.5","0.5","1","2","","",""
"animation","85","120636","0.0-5.0-2.40","63ed15bed4665c62d9e6dbb2","bdp_cybrbll","Fri Mar 24 2023 20:36:28 GMT-0400 (Eastern Daylight Time)","632115","3","1","","","","","","","","","","185","","","","1","2","[{""stimulus"":""img/1to2/1.png"",""time"":109},{""stimulus"":""img/1to2/2.png"",""time"":203},{""stimulus"":""img/1to2/3.png"",""time"":312},{""stimulus"":""img/1to2/4.png"",""time"":406},{""stimulus"":""img/1to2/5.png"",""time"":500},{""stimulus"":""img/1to2/6.png"",""time"":595},{""stimulus"":""img/1to2/7.png"",""time"":703},{""stimulus"":""img/1to2/8.png"",""time"":796},{""stimulus"":""img/1to2/9.png"",""time"":891},{""stimulus"":""img/1to2/10.png"",""time"":1003},{""stimulus"":""img/1to2/11.png"",""time"":1095},{""stimulus"":""img/1to2/12.png"",""time"":1189}]","[]",""
"image-keyboard-response","86","120754","0.0-5.0-1.41","63ed15bed4665c62d9e6dbb2","bdp_cybrbll","Fri Mar 24 2023 20:36:28 GMT-0400 (Eastern Daylight Time)","632115","3","1","","116","","","","choice","","img/2to1/1.png","2","184","280","0.5","0.5","2","3","","",""
"animation","87","122041","0.0-5.0-2.41","63ed15bed4665c62d9e6dbb2","bdp_cybrbll","Fri Mar 24 2023 20:36:28 GMT-0400 (Eastern Daylight Time)","632115","3","1","","","","","","","","","","184","","","","2","3","[{""stimulus"":""img/2to3/1.png"",""time"":100},{""stimulus"":""img/2to3/2.png"",""time"":209},{""stimulus"":""img/2to3/3.png"",""time"":303},{""stimulus"":""img/2to3/4.png"",""time"":411},{""stimulus"":""img/2to3/5.png"",""time"":504},{""stimulus"":""img/2to3/6.png"",""time"":598},{""stimulus"":""img/2to3/7.png"",""time"":707},{""stimulus"":""img/2to3/8.png"",""time"":801},{""stimulus"":""img/2to3/9.png"",""time"":894},{""stimulus"":""img/2to3/10.png"",""time"":1003},{""stimulus"":""img/2to3/11.png"",""time"":1096},{""stimulus"":""img/2to3/12.png"",""time"":1194}]","[]",""
"image-keyboard-response","88","122549","0.0-5.0-1.42","63ed15bed4665c62d9e6dbb2","bdp_cybrbll","Fri Mar 24 2023 20:36:28 GMT-0400 (Eastern Daylight Time)","632115","3","1","","null","","","","observe","","img/3to2/1.png","null","183","499","0.5","0.5","3","2","","",""
"animation","89","123841","0.0-5.0-2.42","63ed15bed4665c62d9e6dbb2","bdp_cybrbll","Fri Mar 24 2023 20:36:28 GMT-0400 (Eastern Daylight Time)","632115","3","1","","","","","","","","","","183","","","","3","2","[{""stimulus"":""img/3to2/1.png"",""time"":109},{""stimulus"":""img/3to2/2.png"",""time"":199},{""stimulus"":""img/3to2/3.png"",""time"":300},{""stimulus"":""img/3to2/4.png"",""time"":397},{""stimulus"":""img/3to2/5.png"",""time"":498},{""stimulus"":""img/3to2/6.png"",""time"":608},{""stimulus"":""img/3to2/7.png"",""time"":702},{""stimulus"":""img/3to2/8.png"",""time"":797},{""stimulus"":""img/3to2/9.png"",""time"":903},{""stimulus"":""img/3to2/10.png"",""time"":997},{""stimulus"":""img/3to2/11.png"",""time"":1091},{""stimulus"":""img/3to2/12.png"",""time"":1189}]","[]",""
"image-keyboard-response","90","124216","0.0-5.0-1.43","63ed15bed4665c62d9e6dbb2","bdp_cybrbll","Fri Mar 24 2023 20:36:28 GMT-0400 (Eastern Daylight Time)","632115","3","1","","375","","","","choice","","img/2to1/1.png","1","182","144","0.5","0.5","2","1","","",""
"animation","91","125504","0.0-5.0-2.43","63ed15bed4665c62d9e6dbb2","bdp_cybrbll","Fri Mar 24 2023 20:36:28 GMT-0400 (Eastern Daylight Time)","632115","3","1","","","","","","","","","","182","","","","2","1","[{""stimulus"":""img/2to1/1.png"",""time"":106},{""stimulus"":""img/2to1/2.png"",""time"":199},{""stimulus"":""img/2to1/3.png"",""time"":304},{""stimulus"":""img/2to1/4.png"",""time"":412},{""stimulus"":""img/2to1/5.png"",""time"":506},{""stimulus"":""img/2to1/6.png"",""time"":601},{""stimulus"":""img/2to1/7.png"",""time"":696},{""stimulus"":""img/2to1/8.png"",""time"":803},{""stimulus"":""img/2to1/9.png"",""time"":898},{""stimulus"":""img/2to1/10.png"",""time"":993},{""stimulus"":""img/2to1/11.png"",""time"":1103},{""stimulus"":""img/2to1/12.png"",""time"":1197}]","[]",""
"image-keyboard-response","92","127192","0.0-5.0-1.44","63ed15bed4665c62d9e6dbb2","bdp_cybrbll","Fri Mar 24 2023 20:36:28 GMT-0400 (Eastern Daylight Time)","632115","3","1","","null","","","","observe","","img/1to3/1.png","null","181","1685","0.5","0.5","1","3","","",""
"animation","93","128482","0.0-5.0-2.44","63ed15bed4665c62d9e6dbb2","bdp_cybrbll","Fri Mar 24 2023 20:36:28 GMT-0400 (Eastern Daylight Time)","632115","3","1","","","","","","","","","","181","","","","1","3","[{""stimulus"":""img/1to3/1.png"",""time"":110},{""stimulus"":""img/1to3/2.png"",""time"":205},{""stimulus"":""img/1to3/3.png"",""time"":299},{""stimulus"":""img/1to3/4.png"",""time"":403},{""stimulus"":""img/1to3/5.png"",""time"":499},{""stimulus"":""img/1to3/6.png"",""time"":607},{""stimulus"":""img/1to3/7.png"",""time"":701},{""stimulus"":""img/1to3/8.png"",""time"":795},{""stimulus"":""img/1to3/9.png"",""time"":897},{""stimulus"":""img/1to3/10.png"",""time"":991},{""stimulus"":""img/1to3/11.png"",""time"":1102},{""stimulus"":""img/1to3/12.png"",""time"":1196}]","[]",""
"image-keyboard-response","94","128992","0.0-5.0-1.45","63ed15bed4665c62d9e6dbb2","bdp_cybrbll","Fri Mar 24 2023 20:36:28 GMT-0400 (Eastern Daylight Time)","632115","3","1","","null","","","","observe","","img/3to2/1.png","null","180","509","0.5","0.5","3","2","","",""
"animation","95","130294","0.0-5.0-2.45","63ed15bed4665c62d9e6dbb2","bdp_cybrbll","Fri Mar 24 2023 20:36:28 GMT-0400 (Eastern Daylight Time)","632115","3","1","","","","","","","","","","180","","","","3","2","[{""stimulus"":""img/3to2/1.png"",""time"":108},{""stimulus"":""img/3to2/2.png"",""time"":199},{""stimulus"":""img/3to2/3.png"",""time"":312},{""stimulus"":""img/3to2/4.png"",""time"":407},{""stimulus"":""img/3to2/5.png"",""time"":500},{""stimulus"":""img/3to2/6.png"",""time"":605},{""stimulus"":""img/3to2/7.png"",""time"":699},{""stimulus"":""img/3to2/8.png"",""time"":794},{""stimulus"":""img/3to2/9.png"",""time"":902},{""stimulus"":""img/3to2/10.png"",""time"":996},{""stimulus"":""img/3to2/11.png"",""time"":1097},{""stimulus"":""img/3to2/12.png"",""time"":1193}]","[]",""
"image-keyboard-response","96","131264","0.0-5.0-1.46","63ed15bed4665c62d9e6dbb2","bdp_cybrbll","Fri Mar 24 2023 20:36:28 GMT-0400 (Eastern Daylight Time)","632115","3","1","","970","","","","choice","","img/2to1/1.png","1","179","543","0.5","0.5","2","1","","",""
"animation","97","132562","0.0-5.0-2.46","63ed15bed4665c62d9e6dbb2","bdp_cybrbll","Fri Mar 24 2023 20:36:28 GMT-0400 (Eastern Daylight Time)","632115","3","1","","","","","","","","","","179","","","","2","1","[{""stimulus"":""img/2to1/1.png"",""time"":103},{""stimulus"":""img/2to1/2.png"",""time"":212},{""stimulus"":""img/2to1/3.png"",""time"":306},{""stimulus"":""img/2to1/4.png"",""time"":407},{""stimulus"":""img/2to1/5.png"",""time"":500},{""stimulus"":""img/2to1/6.png"",""time"":594},{""stimulus"":""img/2to1/7.png"",""time"":693},{""stimulus"":""img/2to1/8.png"",""time"":796},{""stimulus"":""img/2to1/9.png"",""time"":905},{""stimulus"":""img/2to1/10.png"",""time"":991},{""stimulus"":""img/2to1/11.png"",""time"":1093},{""stimulus"":""img/2to1/12.png"",""time"":1204}]","[]",""
"image-keyboard-response","98","133228","0.0-5.0-1.47","63ed15bed4665c62d9e6dbb2","bdp_cybrbll","Fri Mar 24 2023 20:36:28 GMT-0400 (Eastern Daylight Time)","632115","3","1","","null","","","","observe","","img/1to3/1.png","null","178","660","0.5","0.5","1","2","","",""
"animation","99","134517","0.0-5.0-2.47","63ed15bed4665c62d9e6dbb2","bdp_cybrbll","Fri Mar 24 2023 20:36:28 GMT-0400 (Eastern Daylight Time)","632115","3","1","","","","","","","","","","178","","","","1","2","[{""stimulus"":""img/1to2/1.png"",""time"":110},{""stimulus"":""img/1to2/2.png"",""time"":204},{""stimulus"":""img/1to2/3.png"",""time"":298},{""stimulus"":""img/1to2/4.png"",""time"":406},{""stimulus"":""img/1to2/5.png"",""time"":507},{""stimulus"":""img/1to2/6.png"",""time"":602},{""stimulus"":""img/1to2/7.png"",""time"":696},{""stimulus"":""img/1to2/8.png"",""time"":804},{""stimulus"":""img/1to2/9.png"",""time"":898},{""stimulus"":""img/1to2/10.png"",""time"":1005},{""stimulus"":""img/1to2/11.png"",""time"":1099},{""stimulus"":""img/1to2/12.png"",""time"":1194}]","[]",""
"image-keyboard-response","100","134992","0.0-5.0-1.48","63ed15bed4665c62d9e6dbb2","bdp_cybrbll","Fri Mar 24 2023 20:36:28 GMT-0400 (Eastern Daylight Time)","632115","3","1","","475","","","","choice","","img/2to1/1.png","1","177","254","0.5","0.5","2","1","","",""
"animation","101","136284","0.0-5.0-2.48","63ed15bed4665c62d9e6dbb2","bdp_cybrbll","Fri Mar 24 2023 20:36:28 GMT-0400 (Eastern Daylight Time)","632115","3","1","","","","","","","","","","177","","","","2","1","[{""stimulus"":""img/2to1/1.png"",""time"":101},{""stimulus"":""img/2to1/2.png"",""time"":210},{""stimulus"":""img/2to1/3.png"",""time"":303},{""stimulus"":""img/2to1/4.png"",""time"":401},{""stimulus"":""img/2to1/5.png"",""time"":496},{""stimulus"":""img/2to1/6.png"",""time"":605},{""stimulus"":""img/2to1/7.png"",""time"":700},{""stimulus"":""img/2to1/8.png"",""time"":807},{""stimulus"":""img/2to1/9.png"",""time"":900},{""stimulus"":""img/2to1/10.png"",""time"":995},{""stimulus"":""img/2to1/11.png"",""time"":1095},{""stimulus"":""img/2to1/12.png"",""time"":1189}]","[]",""
"image-keyboard-response","102","136756","0.0-5.0-1.49","63ed15bed4665c62d9e6dbb2","bdp_cybrbll","Fri Mar 24 2023 20:36:28 GMT-0400 (Eastern Daylight Time)","632115","3","1","","null","","","","observe","","img/1to3/1.png","null","176","457","0.5","0.5","1","3","","",""
"animation","103","138048","0.0-5.0-2.49","63ed15bed4665c62d9e6dbb2","bdp_cybrbll","Fri Mar 24 2023 20:36:28 GMT-0400 (Eastern Daylight Time)","632115","3","1","","","","","","","","","","176","","","","1","3","[{""stimulus"":""img/1to3/1.png"",""time"":110},{""stimulus"":""img/1to3/2.png"",""time"":204},{""stimulus"":""img/1to3/3.png"",""time"":312},{""stimulus"":""img/1to3/4.png"",""time"":405},{""stimulus"":""img/1to3/5.png"",""time"":500},{""stimulus"":""img/1to3/6.png"",""time"":609},{""stimulus"":""img/1to3/7.png"",""time"":704},{""stimulus"":""img/1to3/8.png"",""time"":797},{""stimulus"":""img/1to3/9.png"",""time"":904},{""stimulus"":""img/1to3/10.png"",""time"":996},{""stimulus"":""img/1to3/11.png"",""time"":1090},{""stimulus"":""img/1to3/12.png"",""time"":1199}]","[]",""
"image-keyboard-response","104","138536","0.0-5.0-1.50","63ed15bed4665c62d9e6dbb2","bdp_cybrbll","Fri Mar 24 2023 20:36:28 GMT-0400 (Eastern Daylight Time)","632115","3","1","","null","","","","observe","","img/3to2/1.png","null","175","483","0.5","0.5","3","2","","",""
"animation","105","139836","0.0-5.0-2.50","63ed15bed4665c62d9e6dbb2","bdp_cybrbll","Fri Mar 24 2023 20:36:28 GMT-0400 (Eastern Daylight Time)","632115","3","1","","","","","","","","","","175","","","","3","2","[{""stimulus"":""img/3to2/1.png"",""time"":111},{""stimulus"":""img/3to2/2.png"",""time"":204},{""stimulus"":""img/3to2/3.png"",""time"":297},{""stimulus"":""img/3to2/4.png"",""time"":406},{""stimulus"":""img/3to2/5.png"",""time"":501},{""stimulus"":""img/3to2/6.png"",""time"":595},{""stimulus"":""img/3to2/7.png"",""time"":704},{""stimulus"":""img/3to2/8.png"",""time"":797},{""stimulus"":""img/3to2/9.png"",""time"":907},{""stimulus"":""img/3to2/10.png"",""time"":1001},{""stimulus"":""img/3to2/11.png"",""time"":1095},{""stimulus"":""img/3to2/12.png"",""time"":1190}]","[]",""
"image-keyboard-response","106","140295","0.0-5.0-1.51","63ed15bed4665c62d9e6dbb2","bdp_cybrbll","Fri Mar 24 2023 20:36:28 GMT-0400 (Eastern Daylight Time)","632115","3","1","","459","","","","choice","","img/2to1/1.png","1","174","549","0.5","0.5","2","1","","",""
"animation","107","141588","0.0-5.0-2.51","63ed15bed4665c62d9e6dbb2","bdp_cybrbll","Fri Mar 24 2023 20:36:28 GMT-0400 (Eastern Daylight Time)","632115","3","1","","","","","","","","","","174","","","","2","1","[{""stimulus"":""img/2to1/1.png"",""time"":100},{""stimulus"":""img/2to1/2.png"",""time"":207},{""stimulus"":""img/2to1/3.png"",""time"":300},{""stimulus"":""img/2to1/4.png"",""time"":403},{""stimulus"":""img/2to1/5.png"",""time"":498},{""stimulus"":""img/2to1/6.png"",""time"":607},{""stimulus"":""img/2to1/7.png"",""time"":701},{""stimulus"":""img/2to1/8.png"",""time"":796},{""stimulus"":""img/2to1/9.png"",""time"":903},{""stimulus"":""img/2to1/10.png"",""time"":997},{""stimulus"":""img/2to1/11.png"",""time"":1091},{""stimulus"":""img/2to1/12.png"",""time"":1200}]","[]",""
"image-keyboard-response","108","141830","0.0-5.0-1.52","63ed15bed4665c62d9e6dbb2","bdp_cybrbll","Fri Mar 24 2023 20:36:28 GMT-0400 (Eastern Daylight Time)","632115","3","1","","null","","","","observe","","img/1to3/1.png","null","173","241","0.5","0.5","1","2","","",""
"animation","109","143120","0.0-5.0-2.52","63ed15bed4665c62d9e6dbb2","bdp_cybrbll","Fri Mar 24 2023 20:36:28 GMT-0400 (Eastern Daylight Time)","632115","3","1","","","","","","","","","","173","","","","1","2","[{""stimulus"":""img/1to2/1.png"",""time"":101},{""stimulus"":""img/1to2/2.png"",""time"":210},{""stimulus"":""img/1to2/3.png"",""time"":304},{""stimulus"":""img/1to2/4.png"",""time"":403},{""stimulus"":""img/1to2/5.png"",""time"":496},{""stimulus"":""img/1to2/6.png"",""time"":608},{""stimulus"":""img/1to2/7.png"",""time"":694},{""stimulus"":""img/1to2/8.png"",""time"":797},{""stimulus"":""img/1to2/9.png"",""time"":901},{""stimulus"":""img/1to2/10.png"",""time"":994},{""stimulus"":""img/1to2/11.png"",""time"":1103},{""stimulus"":""img/1to2/12.png"",""time"":1197}]","[]",""
"image-keyboard-response","110","143194","0.0-5.0-1.53","63ed15bed4665c62d9e6dbb2","bdp_cybrbll","Fri Mar 24 2023 20:36:28 GMT-0400 (Eastern Daylight Time)","632115","3","1","","72","","","","choice","","img/2to1/1.png","2","172","1001","0.5","0.5","2","3","","",""
"animation","111","144496","0.0-5.0-2.53","63ed15bed4665c62d9e6dbb2","bdp_cybrbll","Fri Mar 24 2023 20:36:28 GMT-0400 (Eastern Daylight Time)","632115","3","1","","","","","","","","","","172","","","","2","3","[{""stimulus"":""img/2to3/1.png"",""time"":100},{""stimulus"":""img/2to3/2.png"",""time"":209},{""stimulus"":""img/2to3/3.png"",""time"":303},{""stimulus"":""img/2to3/4.png"",""time"":397},{""stimulus"":""img/2to3/5.png"",""time"":506},{""stimulus"":""img/2to3/6.png"",""time"":600},{""stimulus"":""img/2to3/7.png"",""time"":708},{""stimulus"":""img/2to3/8.png"",""time"":803},{""stimulus"":""img/2to3/9.png"",""time"":897},{""stimulus"":""img/2to3/10.png"",""time"":991},{""stimulus"":""img/2to3/11.png"",""time"":1100},{""stimulus"":""img/2to3/12.png"",""time"":1194}]","[]",""
"image-keyboard-response","112","144777","0.0-5.0-1.54","63ed15bed4665c62d9e6dbb2","bdp_cybrbll","Fri Mar 24 2023 20:36:28 GMT-0400 (Eastern Daylight Time)","632115","3","1","","null","","","","observe","","img/3to2/1.png","null","171","266","0.5","0.5","3","2","","",""
"animation","113","146070","0.0-5.0-2.54","63ed15bed4665c62d9e6dbb2","bdp_cybrbll","Fri Mar 24 2023 20:36:28 GMT-0400 (Eastern Daylight Time)","632115","3","1","","","","","","","","","","171","","","","3","2","[{""stimulus"":""img/3to2/1.png"",""time"":111},{""stimulus"":""img/3to2/2.png"",""time"":199},{""stimulus"":""img/3to2/3.png"",""time"":298},{""stimulus"":""img/3to2/4.png"",""time"":406},{""stimulus"":""img/3to2/5.png"",""time"":510},{""stimulus"":""img/3to2/6.png"",""time"":603},{""stimulus"":""img/3to2/7.png"",""time"":696},{""stimulus"":""img/3to2/8.png"",""time"":806},{""stimulus"":""img/3to2/9.png"",""time"":900},{""stimulus"":""img/3to2/10.png"",""time"":990},{""stimulus"":""img/3to2/11.png"",""time"":1103},{""stimulus"":""img/3to2/12.png"",""time"":1189}]","[]",""
"image-keyboard-response","114","146089","0.0-5.0-1.55","63ed15bed4665c62d9e6dbb2","bdp_cybrbll","Fri Mar 24 2023 20:36:28 GMT-0400 (Eastern Daylight Time)","632115","3","1","","19","","","","choice","","img/2to1/1.png","1","170","337","0.5","0.5","2","1","","",""
"animation","115","147379","0.0-5.0-2.55","63ed15bed4665c62d9e6dbb2","bdp_cybrbll","Fri Mar 24 2023 20:36:28 GMT-0400 (Eastern Daylight Time)","632115","3","1","","","","","","","","","","170","","","","2","1","[{""stimulus"":""img/2to1/1.png"",""time"":100},{""stimulus"":""img/2to1/2.png"",""time"":211},{""stimulus"":""img/2to1/3.png"",""time"":305},{""stimulus"":""img/2to1/4.png"",""time"":399},{""stimulus"":""img/2to1/5.png"",""time"":508},{""stimulus"":""img/2to1/6.png"",""time"":602},{""stimulus"":""img/2to1/7.png"",""time"":697},{""stimulus"":""img/2to1/8.png"",""time"":807},{""stimulus"":""img/2to1/9.png"",""time"":901},{""stimulus"":""img/2to1/10.png"",""time"":994},{""stimulus"":""img/2to1/11.png"",""time"":1103},{""stimulus"":""img/2to1/12.png"",""time"":1198}]","[]",""
"image-keyboard-response","116","147596","0.0-5.0-1.56","63ed15bed4665c62d9e6dbb2","bdp_cybrbll","Fri Mar 24 2023 20:36:28 GMT-0400 (Eastern Daylight Time)","632115","3","1","","null","","","","observe","","img/1to3/1.png","null","169","206","0.5","0.5","1","3","","",""
"animation","117","148896","0.0-5.0-2.56","63ed15bed4665c62d9e6dbb2","bdp_cybrbll","Fri Mar 24 2023 20:36:28 GMT-0400 (Eastern Daylight Time)","632115","3","1","","","","","","","","","","169","","","","1","3","[{""stimulus"":""img/1to3/1.png"",""time"":110},{""stimulus"":""img/1to3/2.png"",""time"":199},{""stimulus"":""img/1to3/3.png"",""time"":300},{""stimulus"":""img/1to3/4.png"",""time"":408},{""stimulus"":""img/1to3/5.png"",""time"":503},{""stimulus"":""img/1to3/6.png"",""time"":595},{""stimulus"":""img/1to3/7.png"",""time"":706},{""stimulus"":""img/1to3/8.png"",""time"":793},{""stimulus"":""img/1to3/9.png"",""time"":893},{""stimulus"":""img/1to3/10.png"",""time"":1003},{""stimulus"":""img/1to3/11.png"",""time"":1098},{""stimulus"":""img/1to3/12.png"",""time"":1192}]","[]",""
"image-keyboard-response","118","149480","0.0-5.0-1.57","63ed15bed4665c62d9e6dbb2","bdp_cybrbll","Fri Mar 24 2023 20:36:28 GMT-0400 (Eastern Daylight Time)","632115","3","1","","null","","","","observe","","img/3to2/1.png","null","168","581","0.5","0.5","3","2","","",""
"animation","119","150777","0.0-5.0-2.57","63ed15bed4665c62d9e6dbb2","bdp_cybrbll","Fri Mar 24 2023 20:36:28 GMT-0400 (Eastern Daylight Time)","632115","3","1","","","","","","","","","","168","","","","3","2","[{""stimulus"":""img/3to2/1.png"",""time"":111},{""stimulus"":""img/3to2/2.png"",""time"":206},{""stimulus"":""img/3to2/3.png"",""time"":299},{""stimulus"":""img/3to2/4.png"",""time"":402},{""stimulus"":""img/3to2/5.png"",""time"":496},{""stimulus"":""img/3to2/6.png"",""time"":606},{""stimulus"":""img/3to2/7.png"",""time"":694},{""stimulus"":""img/3to2/8.png"",""time"":795},{""stimulus"":""img/3to2/9.png"",""time"":902},{""stimulus"":""img/3to2/10.png"",""time"":990},{""stimulus"":""img/3to2/11.png"",""time"":1093},{""stimulus"":""img/3to2/12.png"",""time"":1204}]","[]",""
"image-keyboard-response","120","150868","0.0-5.0-1.58","63ed15bed4665c62d9e6dbb2","bdp_cybrbll","Fri Mar 24 2023 20:36:28 GMT-0400 (Eastern Daylight Time)","632115","3","1","","90","","","","choice","","img/2to1/1.png","1","167","248","0.5","0.5","2","1","","",""
"animation","121","152168","0.0-5.0-2.58","63ed15bed4665c62d9e6dbb2","bdp_cybrbll","Fri Mar 24 2023 20:36:28 GMT-0400 (Eastern Daylight Time)","632115","3","1","","","","","","","","","","167","","","","2","1","[{""stimulus"":""img/2to1/1.png"",""time"":101},{""stimulus"":""img/2to1/2.png"",""time"":208},{""stimulus"":""img/2to1/3.png"",""time"":304},{""stimulus"":""img/2to1/4.png"",""time"":400},{""stimulus"":""img/2to1/5.png"",""time"":511},{""stimulus"":""img/2to1/6.png"",""time"":595},{""stimulus"":""img/2to1/7.png"",""time"":708},{""stimulus"":""img/2to1/8.png"",""time"":802},{""stimulus"":""img/2to1/9.png"",""time"":897},{""stimulus"":""img/2to1/10.png"",""time"":1007},{""stimulus"":""img/2to1/11.png"",""time"":1096},{""stimulus"":""img/2to1/12.png"",""time"":1191}]","[]",""
"image-keyboard-response","122","153638","0.0-5.0-1.59","63ed15bed4665c62d9e6dbb2","bdp_cybrbll","Fri Mar 24 2023 20:36:28 GMT-0400 (Eastern Daylight Time)","632115","3","1","","null","","","","observe","","img/1to3/1.png","null","166","1466","0.5","0.5","1","2","","",""
"animation","123","154941","0.0-5.0-2.59","63ed15bed4665c62d9e6dbb2","bdp_cybrbll","Fri Mar 24 2023 20:36:28 GMT-0400 (Eastern Daylight Time)","632115","3","1","","","","","","","","","","166","","","","1","2","[{""stimulus"":""img/1to2/1.png"",""time"":110},{""stimulus"":""img/1to2/2.png"",""time"":198},{""stimulus"":""img/1to2/3.png"",""time"":298},{""stimulus"":""img/1to2/4.png"",""time"":403},{""stimulus"":""img/1to2/5.png"",""time"":497},{""stimulus"":""img/1to2/6.png"",""time"":607},{""stimulus"":""img/1to2/7.png"",""time"":700},{""stimulus"":""img/1to2/8.png"",""time"":794},{""stimulus"":""img/1to2/9.png"",""time"":896},{""stimulus"":""img/1to2/10.png"",""time"":991},{""stimulus"":""img/1to2/11.png"",""time"":1099},{""stimulus"":""img/1to2/12.png"",""time"":1193}]","[]",""
"image-keyboard-response","124","155316","0.0-5.0-1.60","63ed15bed4665c62d9e6dbb2","bdp_cybrbll","Fri Mar 24 2023 20:36:28 GMT-0400 (Eastern Daylight Time)","632115","3","1","","375","","","","choice","","img/2to1/1.png","2","165","616","0.5","0.5","2","3","","",""
"animation","125","156619","0.0-5.0-2.60","63ed15bed4665c62d9e6dbb2","bdp_cybrbll","Fri Mar 24 2023 20:36:28 GMT-0400 (Eastern Daylight Time)","632115","3","1","","","","","","","","","","165","","","","2","3","[{""stimulus"":""img/2to3/1.png"",""time"":106},{""stimulus"":""img/2to3/2.png"",""time"":214},{""stimulus"":""img/2to3/3.png"",""time"":309},{""stimulus"":""img/2to3/4.png"",""time"":404},{""stimulus"":""img/2to3/5.png"",""time"":498},{""stimulus"":""img/2to3/6.png"",""time"":609},{""stimulus"":""img/2to3/7.png"",""time"":696},{""stimulus"":""img/2to3/8.png"",""time"":806},{""stimulus"":""img/2to3/9.png"",""time"":902},{""stimulus"":""img/2to3/10.png"",""time"":997},{""stimulus"":""img/2to3/11.png"",""time"":1090},{""stimulus"":""img/2to3/12.png"",""time"":1193}]","[]",""
"image-keyboard-response","126","157297","0.0-5.0-1.61","63ed15bed4665c62d9e6dbb2","bdp_cybrbll","Fri Mar 24 2023 20:36:28 GMT-0400 (Eastern Daylight Time)","632115","3","1","","null","","","","observe","","img/3to2/1.png","null","164","675","0.5","0.5","3","1","","",""
"animation","127","158587","0.0-5.0-2.61","63ed15bed4665c62d9e6dbb2","bdp_cybrbll","Fri Mar 24 2023 20:36:28 GMT-0400 (Eastern Daylight Time)","632115","3","1","","","","","","","","","","164","","","","3","1","[{""stimulus"":""img/3to1/1.png"",""time"":104},{""stimulus"":""img/3to1/2.png"",""time"":199},{""stimulus"":""img/3to1/3.png"",""time"":311},{""stimulus"":""img/3to1/4.png"",""time"":405},{""stimulus"":""img/3to1/5.png"",""time"":497},{""stimulus"":""img/3to1/6.png"",""time"":595},{""stimulus"":""img/3to1/7.png"",""time"":700},{""stimulus"":""img/3to1/8.png"",""time"":808},{""stimulus"":""img/3to1/9.png"",""time"":900},{""stimulus"":""img/3to1/10.png"",""time"":993},{""stimulus"":""img/3to1/11.png"",""time"":1103},{""stimulus"":""img/3to1/12.png"",""time"":1195}]","[]",""
"image-keyboard-response","128","159016","0.0-5.0-1.62","63ed15bed4665c62d9e6dbb2","bdp_cybrbll","Fri Mar 24 2023 20:36:28 GMT-0400 (Eastern Daylight Time)","632115","3","1","","null","","","","observe","","img/1to3/1.png","null","163","424","0.5","0.5","1","3","","",""
"animation","129","160308","0.0-5.0-2.62","63ed15bed4665c62d9e6dbb2","bdp_cybrbll","Fri Mar 24 2023 20:36:28 GMT-0400 (Eastern Daylight Time)","632115","3","1","","","","","","","","","","163","","","","1","3","[{""stimulus"":""img/1to3/1.png"",""time"":111},{""stimulus"":""img/1to3/2.png"",""time"":205},{""stimulus"":""img/1to3/3.png"",""time"":298},{""stimulus"":""img/1to3/4.png"",""time"":407},{""stimulus"":""img/1to3/5.png"",""time"":501},{""stimulus"":""img/1to3/6.png"",""time"":594},{""stimulus"":""img/1to3/7.png"",""time"":705},{""stimulus"":""img/1to3/8.png"",""time"":800},{""stimulus"":""img/1to3/9.png"",""time"":894},{""stimulus"":""img/1to3/10.png"",""time"":996},{""stimulus"":""img/1to3/11.png"",""time"":1104},{""stimulus"":""img/1to3/12.png"",""time"":1198}]","[]",""
"image-keyboard-response","130","160882","0.0-5.0-1.63","63ed15bed4665c62d9e6dbb2","bdp_cybrbll","Fri Mar 24 2023 20:36:28 GMT-0400 (Eastern Daylight Time)","632115","3","1","","null","","","","observe","","img/3to2/1.png","null","162","563","0.5","0.5","3","1","","",""
"animation","131","162179","0.0-5.0-2.63","63ed15bed4665c62d9e6dbb2","bdp_cybrbll","Fri Mar 24 2023 20:36:28 GMT-0400 (Eastern Daylight Time)","632115","3","1","","","","","","","","","","162","","","","3","1","[{""stimulus"":""img/3to1/1.png"",""time"":104},{""stimulus"":""img/3to1/2.png"",""time"":199},{""stimulus"":""img/3to1/3.png"",""time"":309},{""stimulus"":""img/3to1/4.png"",""time"":401},{""stimulus"":""img/3to1/5.png"",""time"":496},{""stimulus"":""img/3to1/6.png"",""time"":603},{""stimulus"":""img/3to1/7.png"",""time"":698},{""stimulus"":""img/3to1/8.png"",""time"":809},{""stimulus"":""img/3to1/9.png"",""time"":903},{""stimulus"":""img/3to1/10.png"",""time"":995},{""stimulus"":""img/3to1/11.png"",""time"":1104},{""stimulus"":""img/3to1/12.png"",""time"":1189}]","[]",""
"image-keyboard-response","132","162552","0.0-5.0-1.64","63ed15bed4665c62d9e6dbb2","bdp_cybrbll","Fri Mar 24 2023 20:36:28 GMT-0400 (Eastern Daylight Time)","632115","3","1","","null","","","","observe","","img/1to3/1.png","null","161","359","0.5","0.5","1","2","","",""
"animation","133","163845","0.0-5.0-2.64","63ed15bed4665c62d9e6dbb2","bdp_cybrbll","Fri Mar 24 2023 20:36:28 GMT-0400 (Eastern Daylight Time)","632115","3","1","","","","","","","","","","161","","","","1","2","[{""stimulus"":""img/1to2/1.png"",""time"":109},{""stimulus"":""img/1to2/2.png"",""time"":199},{""stimulus"":""img/1to2/3.png"",""time"":312},{""stimulus"":""img/1to2/4.png"",""time"":406},{""stimulus"":""img/1to2/5.png"",""time"":497},{""stimulus"":""img/1to2/6.png"",""time"":595},{""stimulus"":""img/1to2/7.png"",""time"":701},{""stimulus"":""img/1to2/8.png"",""time"":795},{""stimulus"":""img/1to2/9.png"",""time"":904},{""stimulus"":""img/1to2/10.png"",""time"":997},{""stimulus"":""img/1to2/11.png"",""time"":1090},{""stimulus"":""img/1to2/12.png"",""time"":1200}]","[]",""
"image-keyboard-response","134","164025","0.0-5.0-1.65","63ed15bed4665c62d9e6dbb2","bdp_cybrbll","Fri Mar 24 2023 20:36:28 GMT-0400 (Eastern Daylight Time)","632115","3","1","","180","","","","choice","","img/2to1/1.png","2","160","363","0.5","0.5","2","3","","",""
"animation","135","165314","0.0-5.0-2.65","63ed15bed4665c62d9e6dbb2","bdp_cybrbll","Fri Mar 24 2023 20:36:28 GMT-0400 (Eastern Daylight Time)","632115","3","1","","","","","","","","","","160","","","","2","3","[{""stimulus"":""img/2to3/1.png"",""time"":99},{""stimulus"":""img/2to3/2.png"",""time"":199},{""stimulus"":""img/2to3/3.png"",""time"":308},{""stimulus"":""img/2to3/4.png"",""time"":401},{""stimulus"":""img/2to3/5.png"",""time"":510},{""stimulus"":""img/2to3/6.png"",""time"":604},{""stimulus"":""img/2to3/7.png"",""time"":697},{""stimulus"":""img/2to3/8.png"",""time"":807},{""stimulus"":""img/2to3/9.png"",""time"":901},{""stimulus"":""img/2to3/10.png"",""time"":995},{""stimulus"":""img/2to3/11.png"",""time"":1103},{""stimulus"":""img/2to3/12.png"",""time"":1197}]","[]",""
"image-keyboard-response","136","166104","0.0-5.0-1.66","63ed15bed4665c62d9e6dbb2","bdp_cybrbll","Fri Mar 24 2023 20:36:28 GMT-0400 (Eastern Daylight Time)","632115","3","1","","null","","","","observe","","img/3to2/1.png","null","159","783","0.5","0.5","3","2","","",""
"animation","137","167399","0.0-5.0-2.66","63ed15bed4665c62d9e6dbb2","bdp_cybrbll","Fri Mar 24 2023 20:36:28 GMT-0400 (Eastern Daylight Time)","632115","3","1","","","","","","","","","","159","","","","3","2","[{""stimulus"":""img/3to2/1.png"",""time"":110},{""stimulus"":""img/3to2/2.png"",""time"":203},{""stimulus"":""img/3to2/3.png"",""time"":298},{""stimulus"":""img/3to2/4.png"",""time"":408},{""stimulus"":""img/3to2/5.png"",""time"":499},{""stimulus"":""img/3to2/6.png"",""time"":609},{""stimulus"":""img/3to2/7.png"",""time"":704},{""stimulus"":""img/3to2/8.png"",""time"":797},{""stimulus"":""img/3to2/9.png"",""time"":905},{""stimulus"":""img/3to2/10.png"",""time"":1000},{""stimulus"":""img/3to2/11.png"",""time"":1093},{""stimulus"":""img/3to2/12.png"",""time"":1202}]","[]",""
"image-keyboard-response","138","167524","0.0-5.0-1.67","63ed15bed4665c62d9e6dbb2","bdp_cybrbll","Fri Mar 24 2023 20:36:28 GMT-0400 (Eastern Daylight Time)","632115","3","1","","125","","","","choice","","img/2to1/1.png","1","158","416","0.5","0.5","2","1","","",""
"animation","139","168820","0.0-5.0-2.67","63ed15bed4665c62d9e6dbb2","bdp_cybrbll","Fri Mar 24 2023 20:36:28 GMT-0400 (Eastern Daylight Time)","632115","3","1","","","","","","","","","","158","","","","2","1","[{""stimulus"":""img/2to1/1.png"",""time"":100},{""stimulus"":""img/2to1/2.png"",""time"":205},{""stimulus"":""img/2to1/3.png"",""time"":299},{""stimulus"":""img/2to1/4.png"",""time"":403},{""stimulus"":""img/2to1/5.png"",""time"":496},{""stimulus"":""img/2to1/6.png"",""time"":606},{""stimulus"":""img/2to1/7.png"",""time"":700},{""stimulus"":""img/2to1/8.png"",""time"":794},{""stimulus"":""img/2to1/9.png"",""time"":905},{""stimulus"":""img/2to1/10.png"",""time"":999},{""stimulus"":""img/2to1/11.png"",""time"":1092},{""stimulus"":""img/2to1/12.png"",""time"":1203}]","[]",""
"image-keyboard-response","140","169321","0.0-5.0-1.68","63ed15bed4665c62d9e6dbb2","bdp_cybrbll","Fri Mar 24 2023 20:36:28 GMT-0400 (Eastern Daylight Time)","632115","3","1","","null","","","","observe","","img/1to3/1.png","null","157","496","0.5","0.5","1","2","","",""
"animation","141","170609","0.0-5.0-2.68","63ed15bed4665c62d9e6dbb2","bdp_cybrbll","Fri Mar 24 2023 20:36:28 GMT-0400 (Eastern Daylight Time)","632115","3","1","","","","","","","","","","157","","","","1","2","[{""stimulus"":""img/1to2/1.png"",""time"":109},{""stimulus"":""img/1to2/2.png"",""time"":204},{""stimulus"":""img/1to2/3.png"",""time"":298},{""stimulus"":""img/1to2/4.png"",""time"":399},{""stimulus"":""img/1to2/5.png"",""time"":510},{""stimulus"":""img/1to2/6.png"",""time"":605},{""stimulus"":""img/1to2/7.png"",""time"":699},{""stimulus"":""img/1to2/8.png"",""time"":808},{""stimulus"":""img/1to2/9.png"",""time"":891},{""stimulus"":""img/1to2/10.png"",""time"":992},{""stimulus"":""img/1to2/11.png"",""time"":1102},{""stimulus"":""img/1to2/12.png"",""time"":1194}]","[]",""
"image-keyboard-response","142","170703","0.0-5.0-1.69","63ed15bed4665c62d9e6dbb2","bdp_cybrbll","Fri Mar 24 2023 20:36:28 GMT-0400 (Eastern Daylight Time)","632115","3","1","","94","","","","choice","","img/2to1/1.png","1","156","488","0.5","0.5","2","1","","",""
"animation","143","172004","0.0-5.0-2.69","63ed15bed4665c62d9e6dbb2","bdp_cybrbll","Fri Mar 24 2023 20:36:28 GMT-0400 (Eastern Daylight Time)","632115","3","1","","","","","","","","","","156","","","","2","1","[{""stimulus"":""img/2to1/1.png"",""time"":100},{""stimulus"":""img/2to1/2.png"",""time"":213},{""stimulus"":""img/2to1/3.png"",""time"":308},{""stimulus"":""img/2to1/4.png"",""time"":402},{""stimulus"":""img/2to1/5.png"",""time"":497},{""stimulus"":""img/2to1/6.png"",""time"":606},{""stimulus"":""img/2to1/7.png"",""time"":699},{""stimulus"":""img/2to1/8.png"",""time"":793},{""stimulus"":""img/2to1/9.png"",""time"":902},{""stimulus"":""img/2to1/10.png"",""time"":997},{""stimulus"":""img/2to1/11.png"",""time"":1097},{""stimulus"":""img/2to1/12.png"",""time"":1193}]","[]",""
"image-keyboard-response","144","173216","0.0-5.0-1.70","63ed15bed4665c62d9e6dbb2","bdp_cybrbll","Fri Mar 24 2023 20:36:28 GMT-0400 (Eastern Daylight Time)","632115","3","1","","null","","","","observe","","img/1to3/1.png","null","155","1199","0.5","0.5","1","2","","",""
"animation","145","174517","0.0-5.0-2.70","63ed15bed4665c62d9e6dbb2","bdp_cybrbll","Fri Mar 24 2023 20:36:28 GMT-0400 (Eastern Daylight Time)","632115","3","1","","","","","","","","","","155","","","","1","2","[{""stimulus"":""img/1to2/1.png"",""time"":102},{""stimulus"":""img/1to2/2.png"",""time"":211},{""stimulus"":""img/1to2/3.png"",""time"":304},{""stimulus"":""img/1to2/4.png"",""time"":399},{""stimulus"":""img/1to2/5.png"",""time"":509},{""stimulus"":""img/1to2/6.png"",""time"":595},{""stimulus"":""img/1to2/7.png"",""time"":694},{""stimulus"":""img/1to2/8.png"",""time"":804},{""stimulus"":""img/1to2/9.png"",""time"":897},{""stimulus"":""img/1to2/10.png"",""time"":991},{""stimulus"":""img/1to2/11.png"",""time"":1097},{""stimulus"":""img/1to2/12.png"",""time"":1192}]","[]",""
"image-keyboard-response","146","174755","0.0-5.0-1.71","63ed15bed4665c62d9e6dbb2","bdp_cybrbll","Fri Mar 24 2023 20:36:28 GMT-0400 (Eastern Daylight Time)","632115","3","1","","238","","","","choice","","img/2to1/1.png","2","154","480","0.5","0.5","2","3","","",""
"animation","147","176053","0.0-5.0-2.71","63ed15bed4665c62d9e6dbb2","bdp_cybrbll","Fri Mar 24 2023 20:36:28 GMT-0400 (Eastern Daylight Time)","632115","3","1","","","","","","","","","","154","","","","2","3","[{""stimulus"":""img/2to3/1.png"",""time"":100},{""stimulus"":""img/2to3/2.png"",""time"":213},{""stimulus"":""img/2to3/3.png"",""time"":306},{""stimulus"":""img/2to3/4.png"",""time"":401},{""stimulus"":""img/2to3/5.png"",""time"":495},{""stimulus"":""img/2to3/6.png"",""time"":605},{""stimulus"":""img/2to3/7.png"",""time"":699},{""stimulus"":""img/2to3/8.png"",""time"":793},{""stimulus"":""img/2to3/9.png"",""time"":903},{""stimulus"":""img/2to3/10.png"",""time"":998},{""stimulus"":""img/2to3/11.png"",""time"":1093},{""stimulus"":""img/2to3/12.png"",""time"":1189}]","[]",""
"image-keyboard-response","148","176910","0.0-5.0-1.72","63ed15bed4665c62d9e6dbb2","bdp_cybrbll","Fri Mar 24 2023 20:36:28 GMT-0400 (Eastern Daylight Time)","632115","3","1","","null","","","","observe","","img/3to2/1.png","null","153","843","0.5","0.5","3","2","","",""
"animation","149","178197","0.0-5.0-2.72","63ed15bed4665c62d9e6dbb2","bdp_cybrbll","Fri Mar 24 2023 20:36:28 GMT-0400 (Eastern Daylight Time)","632115","3","1","","","","","","","","","","153","","","","3","2","[{""stimulus"":""img/3to2/1.png"",""time"":110},{""stimulus"":""img/3to2/2.png"",""time"":202},{""stimulus"":""img/3to2/3.png"",""time"":313},{""stimulus"":""img/3to2/4.png"",""time"":408},{""stimulus"":""img/3to2/5.png"",""time"":502},{""stimulus"":""img/3to2/6.png"",""time"":597},{""stimulus"":""img/3to2/7.png"",""time"":694},{""stimulus"":""img/3to2/8.png"",""time"":796},{""stimulus"":""img/3to2/9.png"",""time"":905},{""stimulus"":""img/3to2/10.png"",""time"":999},{""stimulus"":""img/3to2/11.png"",""time"":1094},{""stimulus"":""img/3to2/12.png"",""time"":1190}]","[]",""
"image-keyboard-response","150","178233","0.0-5.0-1.73","63ed15bed4665c62d9e6dbb2","bdp_cybrbll","Fri Mar 24 2023 20:36:28 GMT-0400 (Eastern Daylight Time)","632115","3","1","","35","","","","choice","","img/2to1/1.png","1","152","131","0.5","0.5","2","1","","",""
"animation","151","179521","0.0-5.0-2.73","63ed15bed4665c62d9e6dbb2","bdp_cybrbll","Fri Mar 24 2023 20:36:28 GMT-0400 (Eastern Daylight Time)","632115","3","1","","","","","","","","","","152","","","","2","1","[{""stimulus"":""img/2to1/1.png"",""time"":100},{""stimulus"":""img/2to1/2.png"",""time"":199},{""stimulus"":""img/2to1/3.png"",""time"":305},{""stimulus"":""img/2to1/4.png"",""time"":399},{""stimulus"":""img/2to1/5.png"",""time"":508},{""stimulus"":""img/2to1/6.png"",""time"":600},{""stimulus"":""img/2to1/7.png"",""time"":695},{""stimulus"":""img/2to1/8.png"",""time"":804},{""stimulus"":""img/2to1/9.png"",""time"":897},{""stimulus"":""img/2to1/10.png"",""time"":991},{""stimulus"":""img/2to1/11.png"",""time"":1100},{""stimulus"":""img/2to1/12.png"",""time"":1194}]","[]",""
"image-keyboard-response","152","180040","0.0-5.0-1.74","63ed15bed4665c62d9e6dbb2","bdp_cybrbll","Fri Mar 24 2023 20:36:28 GMT-0400 (Eastern Daylight Time)","632115","3","1","","null","","","","observe","","img/1to3/1.png","null","151","514","0.5","0.5","1","3","","",""
"animation","153","181329","0.0-5.0-2.74","63ed15bed4665c62d9e6dbb2","bdp_cybrbll","Fri Mar 24 2023 20:36:28 GMT-0400 (Eastern Daylight Time)","632115","3","1","","","","","","","","","","151","","","","1","3","[{""stimulus"":""img/1to3/1.png"",""time"":110},{""stimulus"":""img/1to3/2.png"",""time"":213},{""stimulus"":""img/1to3/3.png"",""time"":307},{""stimulus"":""img/1to3/4.png"",""time"":401},{""stimulus"":""img/1to3/5.png"",""time"":496},{""stimulus"":""img/1to3/6.png"",""time"":609},{""stimulus"":""img/1to3/7.png"",""time"":703},{""stimulus"":""img/1to3/8.png"",""time"":797},{""stimulus"":""img/1to3/9.png"",""time"":906},{""stimulus"":""img/1to3/10.png"",""time"":1000},{""stimulus"":""img/1to3/11.png"",""time"":1095},{""stimulus"":""img/1to3/12.png"",""time"":1191}]","[]",""
"image-keyboard-response","154","181975","0.0-5.0-1.75","63ed15bed4665c62d9e6dbb2","bdp_cybrbll","Fri Mar 24 2023 20:36:28 GMT-0400 (Eastern Daylight Time)","632115","3","1","","null","","","","observe","","img/3to2/1.png","null","150","642","0.5","0.5","3","1","","",""
"animation","155","183263","0.0-5.0-2.75","63ed15bed4665c62d9e6dbb2","bdp_cybrbll","Fri Mar 24 2023 20:36:28 GMT-0400 (Eastern Daylight Time)","632115","3","1","","","","","","","","","","150","","","","3","1","[{""stimulus"":""img/3to1/1.png"",""time"":110},{""stimulus"":""img/3to1/2.png"",""time"":199},{""stimulus"":""img/3to1/3.png"",""time"":304},{""stimulus"":""img/3to1/4.png"",""time"":397},{""stimulus"":""img/3to1/5.png"",""time"":508},{""stimulus"":""img/3to1/6.png"",""time"":596},{""stimulus"":""img/3to1/7.png"",""time"":696},{""stimulus"":""img/3to1/8.png"",""time"":793},{""stimulus"":""img/3to1/9.png"",""time"":901},{""stimulus"":""img/3to1/10.png"",""time"":993},{""stimulus"":""img/3to1/11.png"",""time"":1102},{""stimulus"":""img/3to1/12.png"",""time"":1195}]","[]",""
"image-keyboard-response","156","183869","0.0-5.0-1.76","63ed15bed4665c62d9e6dbb2","bdp_cybrbll","Fri Mar 24 2023 20:36:28 GMT-0400 (Eastern Daylight Time)","632115","3","1","","null","","","","observe","","img/1to3/1.png","null","149","599","0.5","0.1","1","3","","",""
"animation","157","185167","0.0-5.0-2.76","63ed15bed4665c62d9e6dbb2","bdp_cybrbll","Fri Mar 24 2023 20:36:28 GMT-0400 (Eastern Daylight Time)","632115","3","1","","","","","","","","","","149","","","","1","3","[{""stimulus"":""img/1to3/1.png"",""time"":111},{""stimulus"":""img/1to3/2.png"",""time"":206},{""stimulus"":""img/1to3/3.png"",""time"":300},{""stimulus"":""img/1to3/4.png"",""time"":411},{""stimulus"":""img/1to3/5.png"",""time"":503},{""stimulus"":""img/1to3/6.png"",""time"":596},{""stimulus"":""img/1to3/7.png"",""time"":705},{""stimulus"":""img/1to3/8.png"",""time"":799},{""stimulus"":""img/1to3/9.png"",""time"":892},{""stimulus"":""img/1to3/10.png"",""time"":1002},{""stimulus"":""img/1to3/11.png"",""time"":1090},{""stimulus"":""img/1to3/12.png"",""time"":1189}]","[]",""
"image-keyboard-response","158","185576","0.0-5.0-1.77","63ed15bed4665c62d9e6dbb2","bdp_cybrbll","Fri Mar 24 2023 20:36:28 GMT-0400 (Eastern Daylight Time)","632115","3","1","","null","","","","observe","","img/3to2/1.png","null","148","409","0.5","0.1","3","2","","",""
"animation","159","186875","0.0-5.0-2.77","63ed15bed4665c62d9e6dbb2","bdp_cybrbll","Fri Mar 24 2023 20:36:28 GMT-0400 (Eastern Daylight Time)","632115","3","1","","","","","","","","","","148","","","","3","2","[{""stimulus"":""img/3to2/1.png"",""time"":107},{""stimulus"":""img/3to2/2.png"",""time"":199},{""stimulus"":""img/3to2/3.png"",""time"":304},{""stimulus"":""img/3to2/4.png"",""time"":398},{""stimulus"":""img/3to2/5.png"",""time"":507},{""stimulus"":""img/3to2/6.png"",""time"":601},{""stimulus"":""img/3to2/7.png"",""time"":695},{""stimulus"":""img/3to2/8.png"",""time"":799},{""stimulus"":""img/3to2/9.png"",""time"":892},{""stimulus"":""img/3to2/10.png"",""time"":1003},{""stimulus"":""img/3to2/11.png"",""time"":1098},{""stimulus"":""img/3to2/12.png"",""time"":1189}]","[]",""
"image-keyboard-response","160","190704","0.0-5.0-1.78","63ed15bed4665c62d9e6dbb2","bdp_cybrbll","Fri Mar 24 2023 20:36:28 GMT-0400 (Eastern Daylight Time)","632115","3","1","","3829","","","","choice","","img/2to1/1.png","1","147","761","0.5","0.1","2","1","","",""
"animation","161","191992","0.0-5.0-2.78","63ed15bed4665c62d9e6dbb2","bdp_cybrbll","Fri Mar 24 2023 20:36:28 GMT-0400 (Eastern Daylight Time)","632115","3","1","","","","","","","","","","147","","","","2","1","[{""stimulus"":""img/2to1/1.png"",""time"":101},{""stimulus"":""img/2to1/2.png"",""time"":209},{""stimulus"":""img/2to1/3.png"",""time"":299},{""stimulus"":""img/2to1/4.png"",""time"":408},{""stimulus"":""img/2to1/5.png"",""time"":503},{""stimulus"":""img/2to1/6.png"",""time"":596},{""stimulus"":""img/2to1/7.png"",""time"":705},{""stimulus"":""img/2to1/8.png"",""time"":797},{""stimulus"":""img/2to1/9.png"",""time"":905},{""stimulus"":""img/2to1/10.png"",""time"":999},{""stimulus"":""img/2to1/11.png"",""time"":1094},{""stimulus"":""img/2to1/12.png"",""time"":1203}]","[]",""
"image-keyboard-response","162","192206","0.0-5.0-1.79","63ed15bed4665c62d9e6dbb2","bdp_cybrbll","Fri Mar 24 2023 20:36:28 GMT-0400 (Eastern Daylight Time)","632115","3","1","","null","","","","observe","","img/1to3/1.png","null","146","213","0.5","0.1","1","3","","",""
"animation","163","193501","0.0-5.0-2.79","63ed15bed4665c62d9e6dbb2","bdp_cybrbll","Fri Mar 24 2023 20:36:28 GMT-0400 (Eastern Daylight Time)","632115","3","1","","","","","","","","","","146","","","","1","3","[{""stimulus"":""img/1to3/1.png"",""time"":115},{""stimulus"":""img/1to3/2.png"",""time"":209},{""stimulus"":""img/1to3/3.png"",""time"":300},{""stimulus"":""img/1to3/4.png"",""time"":410},{""stimulus"":""img/1to3/5.png"",""time"":504},{""stimulus"":""img/1to3/6.png"",""time"":597},{""stimulus"":""img/1to3/7.png"",""time"":707},{""stimulus"":""img/1to3/8.png"",""time"":793},{""stimulus"":""img/1to3/9.png"",""time"":904},{""stimulus"":""img/1to3/10.png"",""time"":1000},{""stimulus"":""img/1to3/11.png"",""time"":1092},{""stimulus"":""img/1to3/12.png"",""time"":1202}]","[]",""
"image-keyboard-response","164","193750","0.0-5.0-1.80","63ed15bed4665c62d9e6dbb2","bdp_cybrbll","Fri Mar 24 2023 20:36:28 GMT-0400 (Eastern Daylight Time)","632115","3","1","","null","","","","observe","","img/3to2/1.png","null","145","238","0.5","0.1","3","2","","",""
"animation","165","195053","0.0-5.0-2.80","63ed15bed4665c62d9e6dbb2","bdp_cybrbll","Fri Mar 24 2023 20:36:28 GMT-0400 (Eastern Daylight Time)","632115","3","1","","","","","","","","","","145","","","","3","2","[{""stimulus"":""img/3to2/1.png"",""time"":112},{""stimulus"":""img/3to2/2.png"",""time"":199},{""stimulus"":""img/3to2/3.png"",""time"":307},{""stimulus"":""img/3to2/4.png"",""time"":401},{""stimulus"":""img/3to2/5.png"",""time"":511},{""stimulus"":""img/3to2/6.png"",""time"":605},{""stimulus"":""img/3to2/7.png"",""time"":699},{""stimulus"":""img/3to2/8.png"",""time"":805},{""stimulus"":""img/3to2/9.png"",""time"":898},{""stimulus"":""img/3to2/10.png"",""time"":991},{""stimulus"":""img/3to2/11.png"",""time"":1100},{""stimulus"":""img/3to2/12.png"",""time"":1194}]","[]",""
"image-keyboard-response","166","195709","0.0-5.0-1.81","63ed15bed4665c62d9e6dbb2","bdp_cybrbll","Fri Mar 24 2023 20:36:28 GMT-0400 (Eastern Daylight Time)","632115","3","1","","656","","","","choice","","img/2to1/1.png","2","144","347","0.5","0.1","2","3","","",""
"animation","167","197010","0.0-5.0-2.81","63ed15bed4665c62d9e6dbb2","bdp_cybrbll","Fri Mar 24 2023 20:36:28 GMT-0400 (Eastern Daylight Time)","632115","3","1","","","","","","","","","","144","","","","2","3","[{""stimulus"":""img/2to3/1.png"",""time"":103},{""stimulus"":""img/2to3/2.png"",""time"":212},{""stimulus"":""img/2to3/3.png"",""time"":306},{""stimulus"":""img/2to3/4.png"",""time"":412},{""stimulus"":""img/2to3/5.png"",""time"":507},{""stimulus"":""img/2to3/6.png"",""time"":601},{""stimulus"":""img/2to3/7.png"",""time"":696},{""stimulus"":""img/2to3/8.png"",""time"":806},{""stimulus"":""img/2to3/9.png"",""time"":895},{""stimulus"":""img/2to3/10.png"",""time"":992},{""stimulus"":""img/2to3/11.png"",""time"":1097},{""stimulus"":""img/2to3/12.png"",""time"":1191}]","[]",""
"image-keyboard-response","168","197496","0.0-5.0-1.82","63ed15bed4665c62d9e6dbb2","bdp_cybrbll","Fri Mar 24 2023 20:36:28 GMT-0400 (Eastern Daylight Time)","632115","3","1","","null","","","","observe","","img/3to2/1.png","null","143","481","0.5","0.1","3","1","","",""
"animation","169","198786","0.0-5.0-2.82","63ed15bed4665c62d9e6dbb2","bdp_cybrbll","Fri Mar 24 2023 20:36:28 GMT-0400 (Eastern Daylight Time)","632115","3","1","","","","","","","","","","143","","","","3","1","[{""stimulus"":""img/3to1/1.png"",""time"":111},{""stimulus"":""img/3to1/2.png"",""time"":205},{""stimulus"":""img/3to1/3.png"",""time"":299},{""stimulus"":""img/3to1/4.png"",""time"":410},{""stimulus"":""img/3to1/5.png"",""time"":509},{""stimulus"":""img/3to1/6.png"",""time"":603},{""stimulus"":""img/3to1/7.png"",""time"":696},{""stimulus"":""img/3to1/8.png"",""time"":805},{""stimulus"":""img/3to1/9.png"",""time"":899},{""stimulus"":""img/3to1/10.png"",""time"":991},{""stimulus"":""img/3to1/11.png"",""time"":1101},{""stimulus"":""img/3to1/12.png"",""time"":1193}]","[]",""
"image-keyboard-response","170","199096","0.0-5.0-1.83","63ed15bed4665c62d9e6dbb2","bdp_cybrbll","Fri Mar 24 2023 20:36:28 GMT-0400 (Eastern Daylight Time)","632115","3","1","","null","","","","observe","","img/1to3/1.png","null","142","310","0.5","0.1","1","3","","",""
"animation","171","200391","0.0-5.0-2.83","63ed15bed4665c62d9e6dbb2","bdp_cybrbll","Fri Mar 24 2023 20:36:28 GMT-0400 (Eastern Daylight Time)","632115","3","1","","","","","","","","","","142","","","","1","3","[{""stimulus"":""img/1to3/1.png"",""time"":109},{""stimulus"":""img/1to3/2.png"",""time"":198},{""stimulus"":""img/1to3/3.png"",""time"":302},{""stimulus"":""img/1to3/4.png"",""time"":404},{""stimulus"":""img/1to3/5.png"",""time"":498},{""stimulus"":""img/1to3/6.png"",""time"":607},{""stimulus"":""img/1to3/7.png"",""time"":701},{""stimulus"":""img/1to3/8.png"",""time"":795},{""stimulus"":""img/1to3/9.png"",""time"":904},{""stimulus"":""img/1to3/10.png"",""time"":998},{""stimulus"":""img/1to3/11.png"",""time"":1092},{""stimulus"":""img/1to3/12.png"",""time"":1201}]","[]",""
"image-keyboard-response","172","201207","0.0-5.0-1.84","63ed15bed4665c62d9e6dbb2","bdp_cybrbll","Fri Mar 24 2023 20:36:28 GMT-0400 (Eastern Daylight Time)","632115","3","1","","null","","","","observe","","img/3to2/1.png","null","141","807","0.5","0.1","3","2","","",""
"animation","173","202495","0.0-5.0-2.84","63ed15bed4665c62d9e6dbb2","bdp_cybrbll","Fri Mar 24 2023 20:36:28 GMT-0400 (Eastern Daylight Time)","632115","3","1","","","","","","","","","","141","","","","3","2","[{""stimulus"":""img/3to2/1.png"",""time"":109},{""stimulus"":""img/3to2/2.png"",""time"":200},{""stimulus"":""img/3to2/3.png"",""time"":305},{""stimulus"":""img/3to2/4.png"",""time"":399},{""stimulus"":""img/3to2/5.png"",""time"":509},{""stimulus"":""img/3to2/6.png"",""time"":603},{""stimulus"":""img/3to2/7.png"",""time"":697},{""stimulus"":""img/3to2/8.png"",""time"":806},{""stimulus"":""img/3to2/9.png"",""time"":901},{""stimulus"":""img/3to2/10.png"",""time"":994},{""stimulus"":""img/3to2/11.png"",""time"":1104},{""stimulus"":""img/3to2/12.png"",""time"":1198}]","[]",""
"","","","","63ed15bed4665c62d9e6dbb2","bdp_cybrbll","Fri Mar 24 2023 20:36:28 GMT-0400 (Eastern Daylight Time)","632115","3","1","","","blur","174","204159","blurevent","","","","","","","","","","","","1"
"","","","","63ed15bed4665c62d9e6dbb2","bdp_cybrbll","Fri Mar 24 2023 20:36:28 GMT-0400 (Eastern Daylight Time)","632115","3","1","","","focus","174","328178","focusevent","","","","","","","","","","","",""
"image-keyboard-response","174","328954","0.0-5.0-1.85","63ed15bed4665c62d9e6dbb2","bdp_cybrbll","Fri Mar 24 2023 20:36:28 GMT-0400 (Eastern Daylight Time)","632115","3","1","","126459","blur","174","204159","choice","","img/2to1/1.png","1","140","1163","0.5","0.1","2","1","","","1"
"animation","175","330249","0.0-5.0-2.85","63ed15bed4665c62d9e6dbb2","bdp_cybrbll","Fri Mar 24 2023 20:36:28 GMT-0400 (Eastern Daylight Time)","632115","3","1","","","blur","174","204159","","","","","140","","","","2","1","[{""stimulus"":""img/2to1/1.png"",""time"":104},{""stimulus"":""img/2to1/2.png"",""time"":205},{""stimulus"":""img/2to1/3.png"",""time"":305},{""stimulus"":""img/2to1/4.png"",""time"":408},{""stimulus"":""img/2to1/5.png"",""time"":506},{""stimulus"":""img/2to1/6.png"",""time"":603},{""stimulus"":""img/2to1/7.png"",""time"":701},{""stimulus"":""img/2to1/8.png"",""time"":797},{""stimulus"":""img/2to1/9.png"",""time"":903},{""stimulus"":""img/2to1/10.png"",""time"":990},{""stimulus"":""img/2to1/11.png"",""time"":1094},{""stimulus"":""img/2to1/12.png"",""time"":1199}]","[]","1"
"image-keyboard-response","176","330429","0.0-5.0-0.86-0.86","63ed15bed4665c62d9e6dbb2","bdp_cybrbll","Fri Mar 24 2023 20:36:28 GMT-0400 (Eastern Daylight Time)","632115","3","1","","180","","","","blurwarn","","","49","","","","","","","","","1"
"image-keyboard-response","177","331671","0.0-5.0-1.86","63ed15bed4665c62d9e6dbb2","bdp_cybrbll","Fri Mar 24 2023 20:36:28 GMT-0400 (Eastern Daylight Time)","632115","3","1","","null","","","","observe","","img/1to3/1.png","null","139","979","0.5","0.1","1","3","","",""
"animation","178","332959","0.0-5.0-2.86","63ed15bed4665c62d9e6dbb2","bdp_cybrbll","Fri Mar 24 2023 20:36:28 GMT-0400 (Eastern Daylight Time)","632115","3","1","","","","","","","","","","139","","","","1","3","[{""stimulus"":""img/1to3/1.png"",""time"":113},{""stimulus"":""img/1to3/2.png"",""time"":200},{""stimulus"":""img/1to3/3.png"",""time"":304},{""stimulus"":""img/1to3/4.png"",""time"":401},{""stimulus"":""img/1to3/5.png"",""time"":498},{""stimulus"":""img/1to3/6.png"",""time"":596},{""stimulus"":""img/1to3/7.png"",""time"":707},{""stimulus"":""img/1to3/8.png"",""time"":804},{""stimulus"":""img/1to3/9.png"",""time"":899},{""stimulus"":""img/1to3/10.png"",""time"":998},{""stimulus"":""img/1to3/11.png"",""time"":1091},{""stimulus"":""img/1to3/12.png"",""time"":1192}]","[]",""
"image-keyboard-response","179","333173","0.0-5.0-1.87","63ed15bed4665c62d9e6dbb2","bdp_cybrbll","Fri Mar 24 2023 20:36:28 GMT-0400 (Eastern Daylight Time)","632115","3","1","","null","","","","observe","","img/3to2/1.png","null","138","202","0.5","0.1","3","1","","",""
"animation","180","334473","0.0-5.0-2.87","63ed15bed4665c62d9e6dbb2","bdp_cybrbll","Fri Mar 24 2023 20:36:28 GMT-0400 (Eastern Daylight Time)","632115","3","1","","","","","","","","","","138","","","","3","1","[{""stimulus"":""img/3to1/1.png"",""time"":109},{""stimulus"":""img/3to1/2.png"",""time"":201},{""stimulus"":""img/3to1/3.png"",""time"":300},{""stimulus"":""img/3to1/4.png"",""time"":398},{""stimulus"":""img/3to1/5.png"",""time"":510},{""stimulus"":""img/3to1/6.png"",""time"":606},{""stimulus"":""img/3to1/7.png"",""time"":703},{""stimulus"":""img/3to1/8.png"",""time"":801},{""stimulus"":""img/3to1/9.png"",""time"":898},{""stimulus"":""img/3to1/10.png"",""time"":995},{""stimulus"":""img/3to1/11.png"",""time"":1092},{""stimulus"":""img/3to1/12.png"",""time"":1204}]","[]",""
"image-keyboard-response","181","334858","0.0-5.0-1.88","63ed15bed4665c62d9e6dbb2","bdp_cybrbll","Fri Mar 24 2023 20:36:28 GMT-0400 (Eastern Daylight Time)","632115","3","1","","null","","","","observe","","img/1to3/1.png","null","137","382","0.5","0.1","1","3","","",""
"animation","182","336148","0.0-5.0-2.88","63ed15bed4665c62d9e6dbb2","bdp_cybrbll","Fri Mar 24 2023 20:36:28 GMT-0400 (Eastern Daylight Time)","632115","3","1","","","","","","","","","","137","","","","1","3","[{""stimulus"":""img/1to3/1.png"",""time"":110},{""stimulus"":""img/1to3/2.png"",""time"":212},{""stimulus"":""img/1to3/3.png"",""time"":309},{""stimulus"":""img/1to3/4.png"",""time"":407},{""stimulus"":""img/1to3/5.png"",""time"":505},{""stimulus"":""img/1to3/6.png"",""time"":602},{""stimulus"":""img/1to3/7.png"",""time"":698},{""stimulus"":""img/1to3/8.png"",""time"":796},{""stimulus"":""img/1to3/9.png"",""time"":894},{""stimulus"":""img/1to3/10.png"",""time"":1006},{""stimulus"":""img/1to3/11.png"",""time"":1094},{""stimulus"":""img/1to3/12.png"",""time"":1192}]","[]",""
"image-keyboard-response","183","336407","0.0-5.0-1.89","63ed15bed4665c62d9e6dbb2","bdp_cybrbll","Fri Mar 24 2023 20:36:28 GMT-0400 (Eastern Daylight Time)","632115","3","1","","null","","","","observe","","img/3to2/1.png","null","136","245","0.5","0.1","3","1","","",""
"animation","184","337696","0.0-5.0-2.89","63ed15bed4665c62d9e6dbb2","bdp_cybrbll","Fri Mar 24 2023 20:36:28 GMT-0400 (Eastern Daylight Time)","632115","3","1","","","","","","","","","","136","","","","3","1","[{""stimulus"":""img/3to1/1.png"",""time"":110},{""stimulus"":""img/3to1/2.png"",""time"":213},{""stimulus"":""img/3to1/3.png"",""time"":309},{""stimulus"":""img/3to1/4.png"",""time"":407},{""stimulus"":""img/3to1/5.png"",""time"":503},{""stimulus"":""img/3to1/6.png"",""time"":602},{""stimulus"":""img/3to1/7.png"",""time"":698},{""stimulus"":""img/3to1/8.png"",""time"":796},{""stimulus"":""img/3to1/9.png"",""time"":893},{""stimulus"":""img/3to1/10.png"",""time"":1006},{""stimulus"":""img/3to1/11.png"",""time"":1094},{""stimulus"":""img/3to1/12.png"",""time"":1191}]","[]",""
"image-keyboard-response","185","338112","0.0-5.0-1.90","63ed15bed4665c62d9e6dbb2","bdp_cybrbll","Fri Mar 24 2023 20:36:28 GMT-0400 (Eastern Daylight Time)","632115","3","1","","null","","","","observe","","img/1to3/1.png","null","135","408","0.5","0.1","1","3","","",""
"animation","186","339413","0.0-5.0-2.90","63ed15bed4665c62d9e6dbb2","bdp_cybrbll","Fri Mar 24 2023 20:36:28 GMT-0400 (Eastern Daylight Time)","632115","3","1","","","","","","","","","","135","","","","1","3","[{""stimulus"":""img/1to3/1.png"",""time"":109},{""stimulus"":""img/1to3/2.png"",""time"":200},{""stimulus"":""img/1to3/3.png"",""time"":299},{""stimulus"":""img/1to3/4.png"",""time"":411},{""stimulus"":""img/1to3/5.png"",""time"":509},{""stimulus"":""img/1to3/6.png"",""time"":604},{""stimulus"":""img/1to3/7.png"",""time"":701},{""stimulus"":""img/1to3/8.png"",""time"":799},{""stimulus"":""img/1to3/9.png"",""time"":896},{""stimulus"":""img/1to3/10.png"",""time"":993},{""stimulus"":""img/1to3/11.png"",""time"":1091},{""stimulus"":""img/1to3/12.png"",""time"":1188}]","[]",""
"image-keyboard-response","187","339747","0.0-5.0-1.91","63ed15bed4665c62d9e6dbb2","bdp_cybrbll","Fri Mar 24 2023 20:36:28 GMT-0400 (Eastern Daylight Time)","632115","3","1","","null","","","","observe","","img/3to2/1.png","null","134","330","0.5","0.1","3","1","","",""
"animation","188","341036","0.0-5.0-2.91","63ed15bed4665c62d9e6dbb2","bdp_cybrbll","Fri Mar 24 2023 20:36:28 GMT-0400 (Eastern Daylight Time)","632115","3","1","","","","","","","","","","134","","","","3","1","[{""stimulus"":""img/3to1/1.png"",""time"":109},{""stimulus"":""img/3to1/2.png"",""time"":199},{""stimulus"":""img/3to1/3.png"",""time"":300},{""stimulus"":""img/3to1/4.png"",""time"":400},{""stimulus"":""img/3to1/5.png"",""time"":498},{""stimulus"":""img/3to1/6.png"",""time"":610},{""stimulus"":""img/3to1/7.png"",""time"":706},{""stimulus"":""img/3to1/8.png"",""time"":803},{""stimulus"":""img/3to1/9.png"",""time"":900},{""stimulus"":""img/3to1/10.png"",""time"":997},{""stimulus"":""img/3to1/11.png"",""time"":1095},{""stimulus"":""img/3to1/12.png"",""time"":1191}]","[]",""
"image-keyboard-response","189","341383","0.0-5.0-1.92","63ed15bed4665c62d9e6dbb2","bdp_cybrbll","Fri Mar 24 2023 20:36:28 GMT-0400 (Eastern Daylight Time)","632115","3","1","","null","","","","observe","","img/1to3/1.png","null","133","336","0.5","0.1","1","3","","",""
