"event","trial","time","trialtype","subject_id","task","startTime","totalTime","fairPartner","unfairPartner","trial_type","trial_index","time_elapsed","internal_node_id","view_history","rt","success","stimulus","key_press","throwsLeft","rtDur","pFair","pUnfair","holder","receiver","animation_sequence","responses"
"focus","0","0","focusevent","63cedc8a97a0bb604736baea","bdp_cybrbll","Sun Mar 26 2023 10:26:34 GMT-0600 (Mountain Daylight Time)","443899","1","3","","","","","","","","","","","","","","","","",""
"focus","0","0","focusevent","63cedc8a97a0bb604736baea","bdp_cybrbll","Sun Mar 26 2023 10:26:34 GMT-0600 (Mountain Daylight Time)","443899","1","3","","","","","","","","","","","","","","","","",""
"","","","","63cedc8a97a0bb604736baea","bdp_cybrbll","Sun Mar 26 2023 10:26:34 GMT-0600 (Mountain Daylight Time)","443899","1","3","pavlovia","0","4","0.0-0.0","","","","","","","","","","","","",""
"","","","","63cedc8a97a0bb604736baea","bdp_cybrbll","Sun Mar 26 2023 10:26:34 GMT-0600 (Mountain Daylight Time)","443899","1","3","instructions","1","4820","0.0-1.0","[{""page_index"":0,""viewing_time"":4815}]","4816","","","","","","","","","","",""
"fullscreenenter","2","7618","fullscreenenter","63cedc8a97a0bb604736baea","bdp_cybrbll","Sun Mar 26 2023 10:26:34 GMT-0600 (Mountain Daylight Time)","443899","1","3","","","","","","","","","","","","","","","","",""
"","","","","63cedc8a97a0bb604736baea","bdp_cybrbll","Sun Mar 26 2023 10:26:34 GMT-0600 (Mountain Daylight Time)","443899","1","3","fullscreen","2","8605","0.0-2.0","","","true","","","","","","","","","",""
"","","","","63cedc8a97a0bb604736baea","bdp_cybrbll","Sun Mar 26 2023 10:26:34 GMT-0600 (Mountain Daylight Time)","443899","1","3","instructions","3","34644","0.0-4.0","[{""page_index"":0,""viewing_time"":26038}]","26038","","","","","","","","","","",""
"","","","choice","63cedc8a97a0bb604736baea","bdp_cybrbll","Sun Mar 26 2023 10:26:34 GMT-0600 (Mountain Daylight Time)","443899","1","3","image-keyboard-response","4","36886","0.0-5.0-1.0","","2241","","img/2to1/1.png","1","225","1236","0.5","0.5","2","1","",""
"","","","","63cedc8a97a0bb604736baea","bdp_cybrbll","Sun Mar 26 2023 10:26:34 GMT-0600 (Mountain Daylight Time)","443899","1","3","animation","5","38182","0.0-5.0-2.0","","","","","","225","","","","2","1","[{""stimulus"":""img/2to1/1.png"",""time"":108},{""stimulus"":""img/2to1/2.png"",""time"":201},{""stimulus"":""img/2to1/3.png"",""time"":307},{""stimulus"":""img/2to1/4.png"",""time"":402},{""stimulus"":""img/2to1/5.png"",""time"":503},{""stimulus"":""img/2to1/6.png"",""time"":604},{""stimulus"":""img/2to1/7.png"",""time"":697},{""stimulus"":""img/2to1/8.png"",""time"":804},{""stimulus"":""img/2to1/9.png"",""time"":896},{""stimulus"":""img/2to1/10.png"",""time"":992},{""stimulus"":""img/2to1/11.png"",""time"":1097},{""stimulus"":""img/2to1/12.png"",""time"":1195}]","[]"
"","","","observe","63cedc8a97a0bb604736baea","bdp_cybrbll","Sun Mar 26 2023 10:26:34 GMT-0600 (Mountain Daylight Time)","443899","1","3","image-keyboard-response","6","38406","0.0-5.0-1.1","","null","","img/1to3/1.png","null","224","218","0.5","0.5","1","3","",""
"","","","","63cedc8a97a0bb604736baea","bdp_cybrbll","Sun Mar 26 2023 10:26:34 GMT-0600 (Mountain Daylight Time)","443899","1","3","animation","7","39705","0.0-5.0-2.1","","","","","","224","","","","1","3","[{""stimulus"":""img/1to3/1.png"",""time"":103},{""stimulus"":""img/1to3/2.png"",""time"":199},{""stimulus"":""img/1to3/3.png"",""time"":308},{""stimulus"":""img/1to3/4.png"",""time"":401},{""stimulus"":""img/1to3/5.png"",""time"":506},{""stimulus"":""img/1to3/6.png"",""time"":602},{""stimulus"":""img/1to3/7.png"",""time"":695},{""stimulus"":""img/1to3/8.png"",""time"":799},{""stimulus"":""img/1to3/9.png"",""time"":895},{""stimulus"":""img/1to3/10.png"",""time"":991},{""stimulus"":""img/1to3/11.png"",""time"":1099},{""stimulus"":""img/1to3/12.png"",""time"":1192}]","[]"
"","","","observe","63cedc8a97a0bb604736baea","bdp_cybrbll","Sun Mar 26 2023 10:26:34 GMT-0600 (Mountain Daylight Time)","443899","1","3","image-keyboard-response","8","40128","0.0-5.0-1.2","","null","","img/3to2/1.png","null","223","418","0.5","0.5","3","1","",""
"","","","","63cedc8a97a0bb604736baea","bdp_cybrbll","Sun Mar 26 2023 10:26:34 GMT-0600 (Mountain Daylight Time)","443899","1","3","animation","9","41422","0.0-5.0-2.2","","","","","","223","","","","3","1","[{""stimulus"":""img/3to1/1.png"",""time"":103},{""stimulus"":""img/3to1/2.png"",""time"":209},{""stimulus"":""img/3to1/3.png"",""time"":303},{""stimulus"":""img/3to1/4.png"",""time"":398},{""stimulus"":""img/3to1/5.png"",""time"":503},{""stimulus"":""img/3to1/6.png"",""time"":598},{""stimulus"":""img/3to1/7.png"",""time"":698},{""stimulus"":""img/3to1/8.png"",""time"":800},{""stimulus"":""img/3to1/9.png"",""time"":894},{""stimulus"":""img/3to1/10.png"",""time"":1002},{""stimulus"":""img/3to1/11.png"",""time"":1094},{""stimulus"":""img/3to1/12.png"",""time"":1190}]","[]"
"","","","observe","63cedc8a97a0bb604736baea","bdp_cybrbll","Sun Mar 26 2023 10:26:34 GMT-0600 (Mountain Daylight Time)","443899","1","3","image-keyboard-response","10","41631","0.0-5.0-1.3","","null","","img/1to3/1.png","null","222","199","0.5","0.5","1","3","",""
"","","","","63cedc8a97a0bb604736baea","bdp_cybrbll","Sun Mar 26 2023 10:26:34 GMT-0600 (Mountain Daylight Time)","443899","1","3","animation","11","42930","0.0-5.0-2.3","","","","","","222","","","","1","3","[{""stimulus"":""img/1to3/1.png"",""time"":106},{""stimulus"":""img/1to3/2.png"",""time"":200},{""stimulus"":""img/1to3/3.png"",""time"":307},{""stimulus"":""img/1to3/4.png"",""time"":401},{""stimulus"":""img/1to3/5.png"",""time"":503},{""stimulus"":""img/1to3/6.png"",""time"":601},{""stimulus"":""img/1to3/7.png"",""time"":695},{""stimulus"":""img/1to3/8.png"",""time"":801},{""stimulus"":""img/1to3/9.png"",""time"":898},{""stimulus"":""img/1to3/10.png"",""time"":996},{""stimulus"":""img/1to3/11.png"",""time"":1096},{""stimulus"":""img/1to3/12.png"",""time"":1194}]","[]"
"","","","observe","63cedc8a97a0bb604736baea","bdp_cybrbll","Sun Mar 26 2023 10:26:34 GMT-0600 (Mountain Daylight Time)","443899","1","3","image-keyboard-response","12","44497","0.0-5.0-1.4","","null","","img/3to2/1.png","null","221","1562","0.5","0.5","3","1","",""
"","","","","63cedc8a97a0bb604736baea","bdp_cybrbll","Sun Mar 26 2023 10:26:34 GMT-0600 (Mountain Daylight Time)","443899","1","3","animation","13","45791","0.0-5.0-2.4","","","","","","221","","","","3","1","[{""stimulus"":""img/3to1/1.png"",""time"":105},{""stimulus"":""img/3to1/2.png"",""time"":206},{""stimulus"":""img/3to1/3.png"",""time"":306},{""stimulus"":""img/3to1/4.png"",""time"":397},{""stimulus"":""img/3to1/5.png"",""time"":503},{""stimulus"":""img/3to1/6.png"",""time"":601},{""stimulus"":""img/3to1/7.png"",""time"":703},{""stimulus"":""img/3to1/8.png"",""time"":801},{""stimulus"":""img/3to1/9.png"",""time"":894},{""stimulus"":""img/3to1/10.png"",""time"":999},{""stimulus"":""img/3to1/11.png"",""time"":1093},{""stimulus"":""img/3to1/12.png"",""time"":1202}]","[]"
"","","","observe","63cedc8a97a0bb604736baea","bdp_cybrbll","Sun Mar 26 2023 10:26:34 GMT-0600 (Mountain Daylight Time)","443899","1","3","image-keyboard-response","14","46297","0.0-5.0-1.5","","null","","img/1to3/1.png","null","220","500","0.5","0.5","1","3","",""
"","","","","63cedc8a97a0bb604736baea","bdp_cybrbll","Sun Mar 26 2023 10:26:34 GMT-0600 (Mountain Daylight Time)","443899","1","3","animation","15","47595","0.0-5.0-2.5","","","","","","220","","","","1","3","[{""stimulus"":""img/1to3/1.png"",""time"":105},{""stimulus"":""img/1to3/2.png"",""time"":208},{""stimulus"":""img/1to3/3.png"",""time"":305},{""stimulus"":""img/1to3/4.png"",""time"":402},{""stimulus"":""img/1to3/5.png"",""time"":503},{""stimulus"":""img/1to3/6.png"",""time"":601},{""stimulus"":""img/1to3/7.png"",""time"":706},{""stimulus"":""img/1to3/8.png"",""time"":801},{""stimulus"":""img/1to3/9.png"",""time"":894},{""stimulus"":""img/1to3/10.png"",""time"":999},{""stimulus"":""img/1to3/11.png"",""time"":1098},{""stimulus"":""img/1to3/12.png"",""time"":1190}]","[]"
"","","","observe","63cedc8a97a0bb604736baea","bdp_cybrbll","Sun Mar 26 2023 10:26:34 GMT-0600 (Mountain Daylight Time)","443899","1","3","image-keyboard-response","16","47878","0.0-5.0-1.6","","null","","img/3to2/1.png","null","219","276","0.5","0.5","3","2","",""
"","","","","63cedc8a97a0bb604736baea","bdp_cybrbll","Sun Mar 26 2023 10:26:34 GMT-0600 (Mountain Daylight Time)","443899","1","3","animation","17","49171","0.0-5.0-2.6","","","","","","219","","","","3","2","[{""stimulus"":""img/3to2/1.png"",""time"":109},{""stimulus"":""img/3to2/2.png"",""time"":201},{""stimulus"":""img/3to2/3.png"",""time"":305},{""stimulus"":""img/3to2/4.png"",""time"":400},{""stimulus"":""img/3to2/5.png"",""time"":497},{""stimulus"":""img/3to2/6.png"",""time"":601},{""stimulus"":""img/3to2/7.png"",""time"":701},{""stimulus"":""img/3to2/8.png"",""time"":801},{""stimulus"":""img/3to2/9.png"",""time"":900},{""stimulus"":""img/3to2/10.png"",""time"":995},{""stimulus"":""img/3to2/11.png"",""time"":1101},{""stimulus"":""img/3to2/12.png"",""time"":1194}]","[]"
"","","","choice","63cedc8a97a0bb604736baea","bdp_cybrbll","Sun Mar 26 2023 10:26:34 GMT-0600 (Mountain Daylight Time)","443899","1","3","image-keyboard-response","18","49831","0.0-5.0-1.7","","660","","img/2to1/1.png","1","218","293","0.5","0.5","2","1","",""
"","","","","63cedc8a97a0bb604736baea","bdp_cybrbll","Sun Mar 26 2023 10:26:34 GMT-0600 (Mountain Daylight Time)","443899","1","3","animation","19","51128","0.0-5.0-2.7","","","","","","218","","","","2","1","[{""stimulus"":""img/2to1/1.png"",""time"":104},{""stimulus"":""img/2to1/2.png"",""time"":211},{""stimulus"":""img/2to1/3.png"",""time"":307},{""stimulus"":""img/2to1/4.png"",""time"":400},{""stimulus"":""img/2to1/5.png"",""time"":503},{""stimulus"":""img/2to1/6.png"",""time"":600},{""stimulus"":""img/2to1/7.png"",""time"":699},{""stimulus"":""img/2to1/8.png"",""time"":800},{""stimulus"":""img/2to1/9.png"",""time"":899},{""stimulus"":""img/2to1/10.png"",""time"":1000},{""stimulus"":""img/2to1/11.png"",""time"":1099},{""stimulus"":""img/2to1/12.png"",""time"":1190}]","[]"
"","","","observe","63cedc8a97a0bb604736baea","bdp_cybrbll","Sun Mar 26 2023 10:26:34 GMT-0600 (Mountain Daylight Time)","443899","1","3","image-keyboard-response","20","51602","0.0-5.0-1.8","","null","","img/1to3/1.png","null","217","463","0.5","0.5","1","3","",""
"","","","","63cedc8a97a0bb604736baea","bdp_cybrbll","Sun Mar 26 2023 10:26:34 GMT-0600 (Mountain Daylight Time)","443899","1","3","animation","21","52897","0.0-5.0-2.8","","","","","","217","","","","1","3","[{""stimulus"":""img/1to3/1.png"",""time"":105},{""stimulus"":""img/1to3/2.png"",""time"":205},{""stimulus"":""img/1to3/3.png"",""time"":300},{""stimulus"":""img/1to3/4.png"",""time"":409},{""stimulus"":""img/1to3/5.png"",""time"":504},{""stimulus"":""img/1to3/6.png"",""time"":601},{""stimulus"":""img/1to3/7.png"",""time"":702},{""stimulus"":""img/1to3/8.png"",""time"":801},{""stimulus"":""img/1to3/9.png"",""time"":895},{""stimulus"":""img/1to3/10.png"",""time"":999},{""stimulus"":""img/1to3/11.png"",""time"":1092},{""stimulus"":""img/1to3/12.png"",""time"":1197}]","[]"
"","","","observe","63cedc8a97a0bb604736baea","bdp_cybrbll","Sun Mar 26 2023 10:26:34 GMT-0600 (Mountain Daylight Time)","443899","1","3","image-keyboard-response","22","53178","0.0-5.0-1.9","","null","","img/3to2/1.png","null","216","272","0.5","0.5","3","1","",""
"","","","","63cedc8a97a0bb604736baea","bdp_cybrbll","Sun Mar 26 2023 10:26:34 GMT-0600 (Mountain Daylight Time)","443899","1","3","animation","23","54475","0.0-5.0-2.9","","","","","","216","","","","3","1","[{""stimulus"":""img/3to1/1.png"",""time"":110},{""stimulus"":""img/3to1/2.png"",""time"":208},{""stimulus"":""img/3to1/3.png"",""time"":304},{""stimulus"":""img/3to1/4.png"",""time"":405},{""stimulus"":""img/3to1/5.png"",""time"":500},{""stimulus"":""img/3to1/6.png"",""time"":600},{""stimulus"":""img/3to1/7.png"",""time"":701},{""stimulus"":""img/3to1/8.png"",""time"":798},{""stimulus"":""img/3to1/9.png"",""time"":899},{""stimulus"":""img/3to1/10.png"",""time"":1000},{""stimulus"":""img/3to1/11.png"",""time"":1092},{""stimulus"":""img/3to1/12.png"",""time"":1200}]","[]"
"","","","observe","63cedc8a97a0bb604736baea","bdp_cybrbll","Sun Mar 26 2023 10:26:34 GMT-0600 (Mountain Daylight Time)","443899","1","3","image-keyboard-response","24","54824","0.0-5.0-1.10","","null","","img/1to3/1.png","null","215","343","0.5","0.5","1","2","",""
"","","","","63cedc8a97a0bb604736baea","bdp_cybrbll","Sun Mar 26 2023 10:26:34 GMT-0600 (Mountain Daylight Time)","443899","1","3","animation","25","56118","0.0-5.0-2.10","","","","","","215","","","","1","2","[{""stimulus"":""img/1to2/1.png"",""time"":105},{""stimulus"":""img/1to2/2.png"",""time"":208},{""stimulus"":""img/1to2/3.png"",""time"":307},{""stimulus"":""img/1to2/4.png"",""time"":402},{""stimulus"":""img/1to2/5.png"",""time"":505},{""stimulus"":""img/1to2/6.png"",""time"":603},{""stimulus"":""img/1to2/7.png"",""time"":698},{""stimulus"":""img/1to2/8.png"",""time"":803},{""stimulus"":""img/1to2/9.png"",""time"":897},{""stimulus"":""img/1to2/10.png"",""time"":1001},{""stimulus"":""img/1to2/11.png"",""time"":1099},{""stimulus"":""img/1to2/12.png"",""time"":1195}]","[]"
"","","","choice","63cedc8a97a0bb604736baea","bdp_cybrbll","Sun Mar 26 2023 10:26:34 GMT-0600 (Mountain Daylight Time)","443899","1","3","image-keyboard-response","26","56548","0.0-5.0-1.11","","429","","img/2to1/1.png","2","214","178","0.5","0.5","2","3","",""
"","","","","63cedc8a97a0bb604736baea","bdp_cybrbll","Sun Mar 26 2023 10:26:34 GMT-0600 (Mountain Daylight Time)","443899","1","3","animation","27","57842","0.0-5.0-2.11","","","","","","214","","","","2","3","[{""stimulus"":""img/2to3/1.png"",""time"":110},{""stimulus"":""img/2to3/2.png"",""time"":205},{""stimulus"":""img/2to3/3.png"",""time"":301},{""stimulus"":""img/2to3/4.png"",""time"":405},{""stimulus"":""img/2to3/5.png"",""time"":500},{""stimulus"":""img/2to3/6.png"",""time"":602},{""stimulus"":""img/2to3/7.png"",""time"":698},{""stimulus"":""img/2to3/8.png"",""time"":794},{""stimulus"":""img/2to3/9.png"",""time"":898},{""stimulus"":""img/2to3/10.png"",""time"":997},{""stimulus"":""img/2to3/11.png"",""time"":1090},{""stimulus"":""img/2to3/12.png"",""time"":1195}]","[]"
"","","","observe","63cedc8a97a0bb604736baea","bdp_cybrbll","Sun Mar 26 2023 10:26:34 GMT-0600 (Mountain Daylight Time)","443899","1","3","image-keyboard-response","28","58017","0.0-5.0-1.12","","null","","img/3to2/1.png","null","213","168","0.5","0.5","3","1","",""
"","","","","63cedc8a97a0bb604736baea","bdp_cybrbll","Sun Mar 26 2023 10:26:34 GMT-0600 (Mountain Daylight Time)","443899","1","3","animation","29","59315","0.0-5.0-2.12","","","","","","213","","","","3","1","[{""stimulus"":""img/3to1/1.png"",""time"":104},{""stimulus"":""img/3to1/2.png"",""time"":209},{""stimulus"":""img/3to1/3.png"",""time"":306},{""stimulus"":""img/3to1/4.png"",""time"":397},{""stimulus"":""img/3to1/5.png"",""time"":505},{""stimulus"":""img/3to1/6.png"",""time"":600},{""stimulus"":""img/3to1/7.png"",""time"":698},{""stimulus"":""img/3to1/8.png"",""time"":801},{""stimulus"":""img/3to1/9.png"",""time"":893},{""stimulus"":""img/3to1/10.png"",""time"":1000},{""stimulus"":""img/3to1/11.png"",""time"":1094},{""stimulus"":""img/3to1/12.png"",""time"":1189}]","[]"
"","","","observe","63cedc8a97a0bb604736baea","bdp_cybrbll","Sun Mar 26 2023 10:26:34 GMT-0600 (Mountain Daylight Time)","443899","1","3","image-keyboard-response","30","59824","0.0-5.0-1.13","","null","","img/1to3/1.png","null","212","500","0.5","0.5","1","2","",""
"","","","","63cedc8a97a0bb604736baea","bdp_cybrbll","Sun Mar 26 2023 10:26:34 GMT-0600 (Mountain Daylight Time)","443899","1","3","animation","31","61122","0.0-5.0-2.13","","","","","","212","","","","1","2","[{""stimulus"":""img/1to2/1.png"",""time"":105},{""stimulus"":""img/1to2/2.png"",""time"":209},{""stimulus"":""img/1to2/3.png"",""time"":307},{""stimulus"":""img/1to2/4.png"",""time"":403},{""stimulus"":""img/1to2/5.png"",""time"":506},{""stimulus"":""img/1to2/6.png"",""time"":602},{""stimulus"":""img/1to2/7.png"",""time"":694},{""stimulus"":""img/1to2/8.png"",""time"":803},{""stimulus"":""img/1to2/9.png"",""time"":895},{""stimulus"":""img/1to2/10.png"",""time"":1003},{""stimulus"":""img/1to2/11.png"",""time"":1099},{""stimulus"":""img/1to2/12.png"",""time"":1194}]","[]"
"","","","choice","63cedc8a97a0bb604736baea","bdp_cybrbll","Sun Mar 26 2023 10:26:34 GMT-0600 (Mountain Daylight Time)","443899","1","3","image-keyboard-response","32","61373","0.0-5.0-1.14","","250","","img/2to1/1.png","2","211","336","0.5","0.5","2","3","",""
"","","","","63cedc8a97a0bb604736baea","bdp_cybrbll","Sun Mar 26 2023 10:26:34 GMT-0600 (Mountain Daylight Time)","443899","1","3","animation","33","62666","0.0-5.0-2.14","","","","","","211","","","","2","3","[{""stimulus"":""img/2to3/1.png"",""time"":108},{""stimulus"":""img/2to3/2.png"",""time"":202},{""stimulus"":""img/2to3/3.png"",""time"":309},{""stimulus"":""img/2to3/4.png"",""time"":404},{""stimulus"":""img/2to3/5.png"",""time"":501},{""stimulus"":""img/2to3/6.png"",""time"":602},{""stimulus"":""img/2to3/7.png"",""time"":698},{""stimulus"":""img/2to3/8.png"",""time"":794},{""stimulus"":""img/2to3/9.png"",""time"":898},{""stimulus"":""img/2to3/10.png"",""time"":996},{""stimulus"":""img/2to3/11.png"",""time"":1093},{""stimulus"":""img/2to3/12.png"",""time"":1195}]","[]"
"","","","observe","63cedc8a97a0bb604736baea","bdp_cybrbll","Sun Mar 26 2023 10:26:34 GMT-0600 (Mountain Daylight Time)","443899","1","3","image-keyboard-response","34","62970","0.0-5.0-1.15","","null","","img/3to2/1.png","null","210","293","0.5","0.5","3","1","",""
"","","","","63cedc8a97a0bb604736baea","bdp_cybrbll","Sun Mar 26 2023 10:26:34 GMT-0600 (Mountain Daylight Time)","443899","1","3","animation","35","64267","0.0-5.0-2.15","","","","","","210","","","","3","1","[{""stimulus"":""img/3to1/1.png"",""time"":102},{""stimulus"":""img/3to1/2.png"",""time"":208},{""stimulus"":""img/3to1/3.png"",""time"":301},{""stimulus"":""img/3to1/4.png"",""time"":404},{""stimulus"":""img/3to1/5.png"",""time"":501},{""stimulus"":""img/3to1/6.png"",""time"":600},{""stimulus"":""img/3to1/7.png"",""time"":705},{""stimulus"":""img/3to1/8.png"",""time"":796},{""stimulus"":""img/3to1/9.png"",""time"":895},{""stimulus"":""img/3to1/10.png"",""time"":996},{""stimulus"":""img/3to1/11.png"",""time"":1093},{""stimulus"":""img/3to1/12.png"",""time"":1201}]","[]"
"","","","observe","63cedc8a97a0bb604736baea","bdp_cybrbll","Sun Mar 26 2023 10:26:34 GMT-0600 (Mountain Daylight Time)","443899","1","3","image-keyboard-response","36","64587","0.0-5.0-1.16","","null","","img/1to3/1.png","null","209","312","0.5","0.5","1","2","",""
"","","","","63cedc8a97a0bb604736baea","bdp_cybrbll","Sun Mar 26 2023 10:26:34 GMT-0600 (Mountain Daylight Time)","443899","1","3","animation","37","65879","0.0-5.0-2.16","","","","","","209","","","","1","2","[{""stimulus"":""img/1to2/1.png"",""time"":110},{""stimulus"":""img/1to2/2.png"",""time"":203},{""stimulus"":""img/1to2/3.png"",""time"":302},{""stimulus"":""img/1to2/4.png"",""time"":403},{""stimulus"":""img/1to2/5.png"",""time"":504},{""stimulus"":""img/1to2/6.png"",""time"":596},{""stimulus"":""img/1to2/7.png"",""time"":702},{""stimulus"":""img/1to2/8.png"",""time"":795},{""stimulus"":""img/1to2/9.png"",""time"":902},{""stimulus"":""img/1to2/10.png"",""time"":1000},{""stimulus"":""img/1to2/11.png"",""time"":1091},{""stimulus"":""img/1to2/12.png"",""time"":1196}]","[]"
"","","","choice","63cedc8a97a0bb604736baea","bdp_cybrbll","Sun Mar 26 2023 10:26:34 GMT-0600 (Mountain Daylight Time)","443899","1","3","image-keyboard-response","38","66180","0.0-5.0-1.17","","299","","img/2to1/1.png","1","208","292","0.5","0.5","2","1","",""
"","","","","63cedc8a97a0bb604736baea","bdp_cybrbll","Sun Mar 26 2023 10:26:34 GMT-0600 (Mountain Daylight Time)","443899","1","3","animation","39","67473","0.0-5.0-2.17","","","","","","208","","","","2","1","[{""stimulus"":""img/2to1/1.png"",""time"":109},{""stimulus"":""img/2to1/2.png"",""time"":204},{""stimulus"":""img/2to1/3.png"",""time"":301},{""stimulus"":""img/2to1/4.png"",""time"":407},{""stimulus"":""img/2to1/5.png"",""time"":504},{""stimulus"":""img/2to1/6.png"",""time"":596},{""stimulus"":""img/2to1/7.png"",""time"":701},{""stimulus"":""img/2to1/8.png"",""time"":800},{""stimulus"":""img/2to1/9.png"",""time"":899},{""stimulus"":""img/2to1/10.png"",""time"":999},{""stimulus"":""img/2to1/11.png"",""time"":1091},{""stimulus"":""img/2to1/12.png"",""time"":1199}]","[]"
"","","","observe","63cedc8a97a0bb604736baea","bdp_cybrbll","Sun Mar 26 2023 10:26:34 GMT-0600 (Mountain Daylight Time)","443899","1","3","image-keyboard-response","40","68194","0.0-5.0-1.18","","null","","img/1to3/1.png","null","207","716","0.5","0.5","1","2","",""
"","","","","63cedc8a97a0bb604736baea","bdp_cybrbll","Sun Mar 26 2023 10:26:34 GMT-0600 (Mountain Daylight Time)","443899","1","3","animation","41","69491","0.0-5.0-2.18","","","","","","207","","","","1","2","[{""stimulus"":""img/1to2/1.png"",""time"":106},{""stimulus"":""img/1to2/2.png"",""time"":208},{""stimulus"":""img/1to2/3.png"",""time"":301},{""stimulus"":""img/1to2/4.png"",""time"":405},{""stimulus"":""img/1to2/5.png"",""time"":506},{""stimulus"":""img/1to2/6.png"",""time"":598},{""stimulus"":""img/1to2/7.png"",""time"":702},{""stimulus"":""img/1to2/8.png"",""time"":800},{""stimulus"":""img/1to2/9.png"",""time"":893},{""stimulus"":""img/1to2/10.png"",""time"":999},{""stimulus"":""img/1to2/11.png"",""time"":1096},{""stimulus"":""img/1to2/12.png"",""time"":1199}]","[]"
"","","","choice","63cedc8a97a0bb604736baea","bdp_cybrbll","Sun Mar 26 2023 10:26:34 GMT-0600 (Mountain Daylight Time)","443899","1","3","image-keyboard-response","42","69579","0.0-5.0-1.19","","87","","img/2to1/1.png","2","206","731","0.5","0.5","2","3","",""
"","","","","63cedc8a97a0bb604736baea","bdp_cybrbll","Sun Mar 26 2023 10:26:34 GMT-0600 (Mountain Daylight Time)","443899","1","3","animation","43","70870","0.0-5.0-2.19","","","","","","206","","","","2","3","[{""stimulus"":""img/2to3/1.png"",""time"":112},{""stimulus"":""img/2to3/2.png"",""time"":204},{""stimulus"":""img/2to3/3.png"",""time"":301},{""stimulus"":""img/2to3/4.png"",""time"":408},{""stimulus"":""img/2to3/5.png"",""time"":500},{""stimulus"":""img/2to3/6.png"",""time"":599},{""stimulus"":""img/2to3/7.png"",""time"":704},{""stimulus"":""img/2to3/8.png"",""time"":795},{""stimulus"":""img/2to3/9.png"",""time"":904},{""stimulus"":""img/2to3/10.png"",""time"":1001},{""stimulus"":""img/2to3/11.png"",""time"":1097},{""stimulus"":""img/2to3/12.png"",""time"":1199}]","[]"
"","","","observe","63cedc8a97a0bb604736baea","bdp_cybrbll","Sun Mar 26 2023 10:26:34 GMT-0600 (Mountain Daylight Time)","443899","1","3","image-keyboard-response","44","71091","0.0-5.0-1.20","","null","","img/3to2/1.png","null","205","209","0.5","0.5","3","1","",""
"","","","","63cedc8a97a0bb604736baea","bdp_cybrbll","Sun Mar 26 2023 10:26:34 GMT-0600 (Mountain Daylight Time)","443899","1","3","animation","45","72387","0.0-5.0-2.20","","","","","","205","","","","3","1","[{""stimulus"":""img/3to1/1.png"",""time"":108},{""stimulus"":""img/3to1/2.png"",""time"":208},{""stimulus"":""img/3to1/3.png"",""time"":299},{""stimulus"":""img/3to1/4.png"",""time"":404},{""stimulus"":""img/3to1/5.png"",""time"":503},{""stimulus"":""img/3to1/6.png"",""time"":598},{""stimulus"":""img/3to1/7.png"",""time"":700},{""stimulus"":""img/3to1/8.png"",""time"":800},{""stimulus"":""img/3to1/9.png"",""time"":902},{""stimulus"":""img/3to1/10.png"",""time"":1000},{""stimulus"":""img/3to1/11.png"",""time"":1095},{""stimulus"":""img/3to1/12.png"",""time"":1199}]","[]"
"","","","observe","63cedc8a97a0bb604736baea","bdp_cybrbll","Sun Mar 26 2023 10:26:34 GMT-0600 (Mountain Daylight Time)","443899","1","3","image-keyboard-response","46","73243","0.0-5.0-1.21","","null","","img/1to3/1.png","null","204","843","0.5","0.5","1","3","",""
"","","","","63cedc8a97a0bb604736baea","bdp_cybrbll","Sun Mar 26 2023 10:26:34 GMT-0600 (Mountain Daylight Time)","443899","1","3","animation","47","74540","0.0-5.0-2.21","","","","","","204","","","","1","3","[{""stimulus"":""img/1to3/1.png"",""time"":113},{""stimulus"":""img/1to3/2.png"",""time"":205},{""stimulus"":""img/1to3/3.png"",""time"":302},{""stimulus"":""img/1to3/4.png"",""time"":404},{""stimulus"":""img/1to3/5.png"",""time"":500},{""stimulus"":""img/1to3/6.png"",""time"":597},{""stimulus"":""img/1to3/7.png"",""time"":703},{""stimulus"":""img/1to3/8.png"",""time"":801},{""stimulus"":""img/1to3/9.png"",""time"":905},{""stimulus"":""img/1to3/10.png"",""time"":999},{""stimulus"":""img/1to3/11.png"",""time"":1092},{""stimulus"":""img/1to3/12.png"",""time"":1201}]","[]"
"","","","observe","63cedc8a97a0bb604736baea","bdp_cybrbll","Sun Mar 26 2023 10:26:34 GMT-0600 (Mountain Daylight Time)","443899","1","3","image-keyboard-response","48","74729","0.0-5.0-1.22","","null","","img/3to2/1.png","null","203","185","0.5","0.5","3","2","",""
"","","","","63cedc8a97a0bb604736baea","bdp_cybrbll","Sun Mar 26 2023 10:26:34 GMT-0600 (Mountain Daylight Time)","443899","1","3","animation","49","76027","0.0-5.0-2.22","","","","","","203","","","","3","2","[{""stimulus"":""img/3to2/1.png"",""time"":104},{""stimulus"":""img/3to2/2.png"",""time"":210},{""stimulus"":""img/3to2/3.png"",""time"":304},{""stimulus"":""img/3to2/4.png"",""time"":402},{""stimulus"":""img/3to2/5.png"",""time"":504},{""stimulus"":""img/3to2/6.png"",""time"":599},{""stimulus"":""img/3to2/7.png"",""time"":704},{""stimulus"":""img/3to2/8.png"",""time"":798},{""stimulus"":""img/3to2/9.png"",""time"":894},{""stimulus"":""img/3to2/10.png"",""time"":1002},{""stimulus"":""img/3to2/11.png"",""time"":1099},{""stimulus"":""img/3to2/12.png"",""time"":1195}]","[]"
"","","","choice","63cedc8a97a0bb604736baea","bdp_cybrbll","Sun Mar 26 2023 10:26:34 GMT-0600 (Mountain Daylight Time)","443899","1","3","image-keyboard-response","50","76055","0.0-5.0-1.23","","28","","img/2to1/1.png","1","202","730","0.5","0.5","2","1","",""
"","","","","63cedc8a97a0bb604736baea","bdp_cybrbll","Sun Mar 26 2023 10:26:34 GMT-0600 (Mountain Daylight Time)","443899","1","3","animation","51","77347","0.0-5.0-2.23","","","","","","202","","","","2","1","[{""stimulus"":""img/2to1/1.png"",""time"":108},{""stimulus"":""img/2to1/2.png"",""time"":203},{""stimulus"":""img/2to1/3.png"",""time"":308},{""stimulus"":""img/2to1/4.png"",""time"":400},{""stimulus"":""img/2to1/5.png"",""time"":499},{""stimulus"":""img/2to1/6.png"",""time"":604},{""stimulus"":""img/2to1/7.png"",""time"":700},{""stimulus"":""img/2to1/8.png"",""time"":800},{""stimulus"":""img/2to1/9.png"",""time"":898},{""stimulus"":""img/2to1/10.png"",""time"":997},{""stimulus"":""img/2to1/11.png"",""time"":1100},{""stimulus"":""img/2to1/12.png"",""time"":1193}]","[]"
"","","","observe","63cedc8a97a0bb604736baea","bdp_cybrbll","Sun Mar 26 2023 10:26:34 GMT-0600 (Mountain Daylight Time)","443899","1","3","image-keyboard-response","52","77801","0.0-5.0-1.24","","null","","img/1to3/1.png","null","201","450","0.5","0.5","1","3","",""
"","","","","63cedc8a97a0bb604736baea","bdp_cybrbll","Sun Mar 26 2023 10:26:34 GMT-0600 (Mountain Daylight Time)","443899","1","3","animation","53","79095","0.0-5.0-2.24","","","","","","201","","","","1","3","[{""stimulus"":""img/1to3/1.png"",""time"":106},{""stimulus"":""img/1to3/2.png"",""time"":207},{""stimulus"":""img/1to3/3.png"",""time"":305},{""stimulus"":""img/1to3/4.png"",""time"":400},{""stimulus"":""img/1to3/5.png"",""time"":504},{""stimulus"":""img/1to3/6.png"",""time"":599},{""stimulus"":""img/1to3/7.png"",""time"":694},{""stimulus"":""img/1to3/8.png"",""time"":801},{""stimulus"":""img/1to3/9.png"",""time"":897},{""stimulus"":""img/1to3/10.png"",""time"":999},{""stimulus"":""img/1to3/11.png"",""time"":1096},{""stimulus"":""img/1to3/12.png"",""time"":1191}]","[]"
"","","","observe","63cedc8a97a0bb604736baea","bdp_cybrbll","Sun Mar 26 2023 10:26:34 GMT-0600 (Mountain Daylight Time)","443899","1","3","image-keyboard-response","54","79684","0.0-5.0-1.25","","null","","img/3to2/1.png","null","200","581","0.5","0.5","3","2","",""
"","","","","63cedc8a97a0bb604736baea","bdp_cybrbll","Sun Mar 26 2023 10:26:34 GMT-0600 (Mountain Daylight Time)","443899","1","3","animation","55","80976","0.0-5.0-2.25","","","","","","200","","","","3","2","[{""stimulus"":""img/3to2/1.png"",""time"":111},{""stimulus"":""img/3to2/2.png"",""time"":208},{""stimulus"":""img/3to2/3.png"",""time"":300},{""stimulus"":""img/3to2/4.png"",""time"":407},{""stimulus"":""img/3to2/5.png"",""time"":502},{""stimulus"":""img/3to2/6.png"",""time"":607},{""stimulus"":""img/3to2/7.png"",""time"":699},{""stimulus"":""img/3to2/8.png"",""time"":800},{""stimulus"":""img/3to2/9.png"",""time"":904},{""stimulus"":""img/3to2/10.png"",""time"":995},{""stimulus"":""img/3to2/11.png"",""time"":1094},{""stimulus"":""img/3to2/12.png"",""time"":1197}]","[]"
"","","","choice","63cedc8a97a0bb604736baea","bdp_cybrbll","Sun Mar 26 2023 10:26:34 GMT-0600 (Mountain Daylight Time)","443899","1","3","image-keyboard-response","56","81101","0.0-5.0-1.26","","125","","img/2to1/1.png","2","199","410","0.5","0.5","2","3","",""
"","","","","63cedc8a97a0bb604736baea","bdp_cybrbll","Sun Mar 26 2023 10:26:34 GMT-0600 (Mountain Daylight Time)","443899","1","3","animation","57","82392","0.0-5.0-2.26","","","","","","199","","","","2","3","[{""stimulus"":""img/2to3/1.png"",""time"":107},{""stimulus"":""img/2to3/2.png"",""time"":203},{""stimulus"":""img/2to3/3.png"",""time"":301},{""stimulus"":""img/2to3/4.png"",""time"":406},{""stimulus"":""img/2to3/5.png"",""time"":502},{""stimulus"":""img/2to3/6.png"",""time"":606},{""stimulus"":""img/2to3/7.png"",""time"":700},{""stimulus"":""img/2to3/8.png"",""time"":795},{""stimulus"":""img/2to3/9.png"",""time"":898},{""stimulus"":""img/2to3/10.png"",""time"":999},{""stimulus"":""img/2to3/11.png"",""time"":1094},{""stimulus"":""img/2to3/12.png"",""time"":1198}]","[]"
"","","","observe","63cedc8a97a0bb604736baea","bdp_cybrbll","Sun Mar 26 2023 10:26:34 GMT-0600 (Mountain Daylight Time)","443899","1","3","image-keyboard-response","58","82724","0.0-5.0-1.27","","null","","img/3to2/1.png","null","198","325","0.5","0.5","3","1","",""
"","","","","63cedc8a97a0bb604736baea","bdp_cybrbll","Sun Mar 26 2023 10:26:34 GMT-0600 (Mountain Daylight Time)","443899","1","3","animation","59","84018","0.0-5.0-2.27","","","","","","198","","","","3","1","[{""stimulus"":""img/3to1/1.png"",""time"":109},{""stimulus"":""img/3to1/2.png"",""time"":205},{""stimulus"":""img/3to1/3.png"",""time"":303},{""stimulus"":""img/3to1/4.png"",""time"":404},{""stimulus"":""img/3to1/5.png"",""time"":502},{""stimulus"":""img/3to1/6.png"",""time"":597},{""stimulus"":""img/3to1/7.png"",""time"":700},{""stimulus"":""img/3to1/8.png"",""time"":800},{""stimulus"":""img/3to1/9.png"",""time"":902},{""stimulus"":""img/3to1/10.png"",""time"":999},{""stimulus"":""img/3to1/11.png"",""time"":1092},{""stimulus"":""img/3to1/12.png"",""time"":1196}]","[]"
"","","","observe","63cedc8a97a0bb604736baea","bdp_cybrbll","Sun Mar 26 2023 10:26:34 GMT-0600 (Mountain Daylight Time)","443899","1","3","image-keyboard-response","60","84329","0.0-5.0-1.28","","null","","img/1to3/1.png","null","197","303","0.5","0.5","1","3","",""
"","","","","63cedc8a97a0bb604736baea","bdp_cybrbll","Sun Mar 26 2023 10:26:34 GMT-0600 (Mountain Daylight Time)","443899","1","3","animation","61","85627","0.0-5.0-2.28","","","","","","197","","","","1","3","[{""stimulus"":""img/1to3/1.png"",""time"":103},{""stimulus"":""img/1to3/2.png"",""time"":205},{""stimulus"":""img/1to3/3.png"",""time"":303},{""stimulus"":""img/1to3/4.png"",""time"":399},{""stimulus"":""img/1to3/5.png"",""time"":503},{""stimulus"":""img/1to3/6.png"",""time"":600},{""stimulus"":""img/1to3/7.png"",""time"":703},{""stimulus"":""img/1to3/8.png"",""time"":797},{""stimulus"":""img/1to3/9.png"",""time"":898},{""stimulus"":""img/1to3/10.png"",""time"":1001},{""stimulus"":""img/1to3/11.png"",""time"":1093},{""stimulus"":""img/1to3/12.png"",""time"":1192}]","[]"
"","","","observe","63cedc8a97a0bb604736baea","bdp_cybrbll","Sun Mar 26 2023 10:26:34 GMT-0600 (Mountain Daylight Time)","443899","1","3","image-keyboard-response","62","86137","0.0-5.0-1.29","","null","","img/3to2/1.png","null","196","507","0.5","0.5","3","1","",""
"","","","","63cedc8a97a0bb604736baea","bdp_cybrbll","Sun Mar 26 2023 10:26:34 GMT-0600 (Mountain Daylight Time)","443899","1","3","animation","63","87433","0.0-5.0-2.29","","","","","","196","","","","3","1","[{""stimulus"":""img/3to1/1.png"",""time"":103},{""stimulus"":""img/3to1/2.png"",""time"":209},{""stimulus"":""img/3to1/3.png"",""time"":302},{""stimulus"":""img/3to1/4.png"",""time"":401},{""stimulus"":""img/3to1/5.png"",""time"":506},{""stimulus"":""img/3to1/6.png"",""time"":601},{""stimulus"":""img/3to1/7.png"",""time"":706},{""stimulus"":""img/3to1/8.png"",""time"":800},{""stimulus"":""img/3to1/9.png"",""time"":895},{""stimulus"":""img/3to1/10.png"",""time"":998},{""stimulus"":""img/3to1/11.png"",""time"":1095},{""stimulus"":""img/3to1/12.png"",""time"":1194}]","[]"
"","","","observe","63cedc8a97a0bb604736baea","bdp_cybrbll","Sun Mar 26 2023 10:26:34 GMT-0600 (Mountain Daylight Time)","443899","1","3","image-keyboard-response","64","87987","0.0-5.0-1.30","","null","","img/1to3/1.png","null","195","545","0.5","0.5","1","3","",""
"","","","","63cedc8a97a0bb604736baea","bdp_cybrbll","Sun Mar 26 2023 10:26:34 GMT-0600 (Mountain Daylight Time)","443899","1","3","animation","65","89284","0.0-5.0-2.30","","","","","","195","","","","1","3","[{""stimulus"":""img/1to3/1.png"",""time"":101},{""stimulus"":""img/1to3/2.png"",""time"":206},{""stimulus"":""img/1to3/3.png"",""time"":304},{""stimulus"":""img/1to3/4.png"",""time"":404},{""stimulus"":""img/1to3/5.png"",""time"":503},{""stimulus"":""img/1to3/6.png"",""time"":600},{""stimulus"":""img/1to3/7.png"",""time"":705},{""stimulus"":""img/1to3/8.png"",""time"":798},{""stimulus"":""img/1to3/9.png"",""time"":893},{""stimulus"":""img/1to3/10.png"",""time"":997},{""stimulus"":""img/1to3/11.png"",""time"":1094},{""stimulus"":""img/1to3/12.png"",""time"":1201}]","[]"
"","","","observe","63cedc8a97a0bb604736baea","bdp_cybrbll","Sun Mar 26 2023 10:26:34 GMT-0600 (Mountain Daylight Time)","443899","1","3","image-keyboard-response","66","90004","0.0-5.0-1.31","","null","","img/3to2/1.png","null","194","707","0.5","0.5","3","2","",""
"","","","","63cedc8a97a0bb604736baea","bdp_cybrbll","Sun Mar 26 2023 10:26:34 GMT-0600 (Mountain Daylight Time)","443899","1","3","animation","67","91299","0.0-5.0-2.31","","","","","","194","","","","3","2","[{""stimulus"":""img/3to2/1.png"",""time"":112},{""stimulus"":""img/3to2/2.png"",""time"":204},{""stimulus"":""img/3to2/3.png"",""time"":302},{""stimulus"":""img/3to2/4.png"",""time"":403},{""stimulus"":""img/3to2/5.png"",""time"":504},{""stimulus"":""img/3to2/6.png"",""time"":600},{""stimulus"":""img/3to2/7.png"",""time"":704},{""stimulus"":""img/3to2/8.png"",""time"":795},{""stimulus"":""img/3to2/9.png"",""time"":903},{""stimulus"":""img/3to2/10.png"",""time"":996},{""stimulus"":""img/3to2/11.png"",""time"":1091},{""stimulus"":""img/3to2/12.png"",""time"":1196}]","[]"
"","","","choice","63cedc8a97a0bb604736baea","bdp_cybrbll","Sun Mar 26 2023 10:26:34 GMT-0600 (Mountain Daylight Time)","443899","1","3","image-keyboard-response","68","96261","0.0-5.0-1.32","","4961","","img/2to1/1.png","2","193","530","0.5","0.5","2","3","",""
"","","","","63cedc8a97a0bb604736baea","bdp_cybrbll","Sun Mar 26 2023 10:26:34 GMT-0600 (Mountain Daylight Time)","443899","1","3","animation","69","97555","0.0-5.0-2.32","","","","","","193","","","","2","3","[{""stimulus"":""img/2to3/1.png"",""time"":108},{""stimulus"":""img/2to3/2.png"",""time"":207},{""stimulus"":""img/2to3/3.png"",""time"":301},{""stimulus"":""img/2to3/4.png"",""time"":407},{""stimulus"":""img/2to3/5.png"",""time"":500},{""stimulus"":""img/2to3/6.png"",""time"":605},{""stimulus"":""img/2to3/7.png"",""time"":703},{""stimulus"":""img/2to3/8.png"",""time"":800},{""stimulus"":""img/2to3/9.png"",""time"":902},{""stimulus"":""img/2to3/10.png"",""time"":999},{""stimulus"":""img/2to3/11.png"",""time"":1092},{""stimulus"":""img/2to3/12.png"",""time"":1198}]","[]"
"","","","observe","63cedc8a97a0bb604736baea","bdp_cybrbll","Sun Mar 26 2023 10:26:34 GMT-0600 (Mountain Daylight Time)","443899","1","3","image-keyboard-response","70","97899","0.0-5.0-1.33","","null","","img/3to2/1.png","null","192","335","0.5","0.5","3","2","",""
"","","","","63cedc8a97a0bb604736baea","bdp_cybrbll","Sun Mar 26 2023 10:26:34 GMT-0600 (Mountain Daylight Time)","443899","1","3","animation","71","99194","0.0-5.0-2.33","","","","","","192","","","","3","2","[{""stimulus"":""img/3to2/1.png"",""time"":104},{""stimulus"":""img/3to2/2.png"",""time"":209},{""stimulus"":""img/3to2/3.png"",""time"":302},{""stimulus"":""img/3to2/4.png"",""time"":402},{""stimulus"":""img/3to2/5.png"",""time"":501},{""stimulus"":""img/3to2/6.png"",""time"":598},{""stimulus"":""img/3to2/7.png"",""time"":706},{""stimulus"":""img/3to2/8.png"",""time"":798},{""stimulus"":""img/3to2/9.png"",""time"":894},{""stimulus"":""img/3to2/10.png"",""time"":1000},{""stimulus"":""img/3to2/11.png"",""time"":1098},{""stimulus"":""img/3to2/12.png"",""time"":1193}]","[]"
"","","","choice","63cedc8a97a0bb604736baea","bdp_cybrbll","Sun Mar 26 2023 10:26:34 GMT-0600 (Mountain Daylight Time)","443899","1","3","image-keyboard-response","72","99756","0.0-5.0-1.34","","561","","img/2to1/1.png","1","191","488","0.5","0.5","2","1","",""
"","","","","63cedc8a97a0bb604736baea","bdp_cybrbll","Sun Mar 26 2023 10:26:34 GMT-0600 (Mountain Daylight Time)","443899","1","3","animation","73","101052","0.0-5.0-2.34","","","","","","191","","","","2","1","[{""stimulus"":""img/2to1/1.png"",""time"":112},{""stimulus"":""img/2to1/2.png"",""time"":206},{""stimulus"":""img/2to1/3.png"",""time"":302},{""stimulus"":""img/2to1/4.png"",""time"":406},{""stimulus"":""img/2to1/5.png"",""time"":499},{""stimulus"":""img/2to1/6.png"",""time"":596},{""stimulus"":""img/2to1/7.png"",""time"":700},{""stimulus"":""img/2to1/8.png"",""time"":798},{""stimulus"":""img/2to1/9.png"",""time"":903},{""stimulus"":""img/2to1/10.png"",""time"":998},{""stimulus"":""img/2to1/11.png"",""time"":1091},{""stimulus"":""img/2to1/12.png"",""time"":1195}]","[]"
"","","","observe","63cedc8a97a0bb604736baea","bdp_cybrbll","Sun Mar 26 2023 10:26:34 GMT-0600 (Mountain Daylight Time)","443899","1","3","image-keyboard-response","74","101234","0.0-5.0-1.35","","null","","img/1to3/1.png","null","190","175","0.5","0.5","1","2","",""
"","","","","63cedc8a97a0bb604736baea","bdp_cybrbll","Sun Mar 26 2023 10:26:34 GMT-0600 (Mountain Daylight Time)","443899","1","3","animation","75","102531","0.0-5.0-2.35","","","","","","190","","","","1","2","[{""stimulus"":""img/1to2/1.png"",""time"":105},{""stimulus"":""img/1to2/2.png"",""time"":206},{""stimulus"":""img/1to2/3.png"",""time"":306},{""stimulus"":""img/1to2/4.png"",""time"":400},{""stimulus"":""img/1to2/5.png"",""time"":504},{""stimulus"":""img/1to2/6.png"",""time"":598},{""stimulus"":""img/1to2/7.png"",""time"":696},{""stimulus"":""img/1to2/8.png"",""time"":800},{""stimulus"":""img/1to2/9.png"",""time"":895},{""stimulus"":""img/1to2/10.png"",""time"":1000},{""stimulus"":""img/1to2/11.png"",""time"":1099},{""stimulus"":""img/1to2/12.png"",""time"":1193}]","[]"
"","","","choice","63cedc8a97a0bb604736baea","bdp_cybrbll","Sun Mar 26 2023 10:26:34 GMT-0600 (Mountain Daylight Time)","443899","1","3","image-keyboard-response","76","103506","0.0-5.0-1.36","","974","","img/2to1/1.png","2","189","1564","0.5","0.5","2","3","",""
"","","","","63cedc8a97a0bb604736baea","bdp_cybrbll","Sun Mar 26 2023 10:26:34 GMT-0600 (Mountain Daylight Time)","443899","1","3","animation","77","104803","0.0-5.0-2.36","","","","","","189","","","","2","3","[{""stimulus"":""img/2to3/1.png"",""time"":105},{""stimulus"":""img/2to3/2.png"",""time"":210},{""stimulus"":""img/2to3/3.png"",""time"":303},{""stimulus"":""img/2to3/4.png"",""time"":402},{""stimulus"":""img/2to3/5.png"",""time"":503},{""stimulus"":""img/2to3/6.png"",""time"":603},{""stimulus"":""img/2to3/7.png"",""time"":704},{""stimulus"":""img/2to3/8.png"",""time"":799},{""stimulus"":""img/2to3/9.png"",""time"":895},{""stimulus"":""img/2to3/10.png"",""time"":999},{""stimulus"":""img/2to3/11.png"",""time"":1098},{""stimulus"":""img/2to3/12.png"",""time"":1191}]","[]"
"","","","observe","63cedc8a97a0bb604736baea","bdp_cybrbll","Sun Mar 26 2023 10:26:34 GMT-0600 (Mountain Daylight Time)","443899","1","3","image-keyboard-response","78","105572","0.0-5.0-1.37","","null","","img/3to2/1.png","null","188","761","0.5","0.5","3","2","",""
"","","","","63cedc8a97a0bb604736baea","bdp_cybrbll","Sun Mar 26 2023 10:26:34 GMT-0600 (Mountain Daylight Time)","443899","1","3","animation","79","106865","0.0-5.0-2.37","","","","","","188","","","","3","2","[{""stimulus"":""img/3to2/1.png"",""time"":110},{""stimulus"":""img/3to2/2.png"",""time"":208},{""stimulus"":""img/3to2/3.png"",""time"":302},{""stimulus"":""img/3to2/4.png"",""time"":406},{""stimulus"":""img/3to2/5.png"",""time"":500},{""stimulus"":""img/3to2/6.png"",""time"":595},{""stimulus"":""img/3to2/7.png"",""time"":702},{""stimulus"":""img/3to2/8.png"",""time"":797},{""stimulus"":""img/3to2/9.png"",""time"":901},{""stimulus"":""img/3to2/10.png"",""time"":996},{""stimulus"":""img/3to2/11.png"",""time"":1092},{""stimulus"":""img/3to2/12.png"",""time"":1199}]","[]"
"","","","choice","63cedc8a97a0bb604736baea","bdp_cybrbll","Sun Mar 26 2023 10:26:34 GMT-0600 (Mountain Daylight Time)","443899","1","3","image-keyboard-response","80","107340","0.0-5.0-1.38","","474","","img/2to1/1.png","1","187","549","0.5","0.5","2","1","",""
"","","","","63cedc8a97a0bb604736baea","bdp_cybrbll","Sun Mar 26 2023 10:26:34 GMT-0600 (Mountain Daylight Time)","443899","1","3","animation","81","108633","0.0-5.0-2.38","","","","","","187","","","","2","1","[{""stimulus"":""img/2to1/1.png"",""time"":103},{""stimulus"":""img/2to1/2.png"",""time"":206},{""stimulus"":""img/2to1/3.png"",""time"":303},{""stimulus"":""img/2to1/4.png"",""time"":404},{""stimulus"":""img/2to1/5.png"",""time"":505},{""stimulus"":""img/2to1/6.png"",""time"":600},{""stimulus"":""img/2to1/7.png"",""time"":705},{""stimulus"":""img/2to1/8.png"",""time"":799},{""stimulus"":""img/2to1/9.png"",""time"":894},{""stimulus"":""img/2to1/10.png"",""time"":997},{""stimulus"":""img/2to1/11.png"",""time"":1096},{""stimulus"":""img/2to1/12.png"",""time"":1198}]","[]"
"","","","observe","63cedc8a97a0bb604736baea","bdp_cybrbll","Sun Mar 26 2023 10:26:34 GMT-0600 (Mountain Daylight Time)","443899","1","3","image-keyboard-response","82","108930","0.0-5.0-1.39","","null","","img/1to3/1.png","null","186","289","0.5","0.5","1","3","",""
"","","","","63cedc8a97a0bb604736baea","bdp_cybrbll","Sun Mar 26 2023 10:26:34 GMT-0600 (Mountain Daylight Time)","443899","1","3","animation","83","110225","0.0-5.0-2.39","","","","","","186","","","","1","3","[{""stimulus"":""img/1to3/1.png"",""time"":103},{""stimulus"":""img/1to3/2.png"",""time"":208},{""stimulus"":""img/1to3/3.png"",""time"":304},{""stimulus"":""img/1to3/4.png"",""time"":398},{""stimulus"":""img/1to3/5.png"",""time"":504},{""stimulus"":""img/1to3/6.png"",""time"":602},{""stimulus"":""img/1to3/7.png"",""time"":704},{""stimulus"":""img/1to3/8.png"",""time"":799},{""stimulus"":""img/1to3/9.png"",""time"":898},{""stimulus"":""img/1to3/10.png"",""time"":1001},{""stimulus"":""img/1to3/11.png"",""time"":1098},{""stimulus"":""img/1to3/12.png"",""time"":1195}]","[]"
"","","","observe","63cedc8a97a0bb604736baea","bdp_cybrbll","Sun Mar 26 2023 10:26:34 GMT-0600 (Mountain Daylight Time)","443899","1","3","image-keyboard-response","84","110850","0.0-5.0-1.40","","null","","img/3to2/1.png","null","185","620","0.5","0.5","3","2","",""
"","","","","63cedc8a97a0bb604736baea","bdp_cybrbll","Sun Mar 26 2023 10:26:34 GMT-0600 (Mountain Daylight Time)","443899","1","3","animation","85","112144","0.0-5.0-2.40","","","","","","185","","","","3","2","[{""stimulus"":""img/3to2/1.png"",""time"":104},{""stimulus"":""img/3to2/2.png"",""time"":210},{""stimulus"":""img/3to2/3.png"",""time"":307},{""stimulus"":""img/3to2/4.png"",""time"":400},{""stimulus"":""img/3to2/5.png"",""time"":503},{""stimulus"":""img/3to2/6.png"",""time"":598},{""stimulus"":""img/3to2/7.png"",""time"":707},{""stimulus"":""img/3to2/8.png"",""time"":803},{""stimulus"":""img/3to2/9.png"",""time"":899},{""stimulus"":""img/3to2/10.png"",""time"":1001},{""stimulus"":""img/3to2/11.png"",""time"":1097},{""stimulus"":""img/3to2/12.png"",""time"":1194}]","[]"
"","","","choice","63cedc8a97a0bb604736baea","bdp_cybrbll","Sun Mar 26 2023 10:26:34 GMT-0600 (Mountain Daylight Time)","443899","1","3","image-keyboard-response","86","112447","0.0-5.0-1.41","","302","","img/2to1/1.png","2","184","265","0.5","0.5","2","3","",""
"","","","","63cedc8a97a0bb604736baea","bdp_cybrbll","Sun Mar 26 2023 10:26:34 GMT-0600 (Mountain Daylight Time)","443899","1","3","animation","87","113741","0.0-5.0-2.41","","","","","","184","","","","2","3","[{""stimulus"":""img/2to3/1.png"",""time"":109},{""stimulus"":""img/2to3/2.png"",""time"":205},{""stimulus"":""img/2to3/3.png"",""time"":310},{""stimulus"":""img/2to3/4.png"",""time"":406},{""stimulus"":""img/2to3/5.png"",""time"":501},{""stimulus"":""img/2to3/6.png"",""time"":603},{""stimulus"":""img/2to3/7.png"",""time"":702},{""stimulus"":""img/2to3/8.png"",""time"":798},{""stimulus"":""img/2to3/9.png"",""time"":902},{""stimulus"":""img/2to3/10.png"",""time"":994},{""stimulus"":""img/2to3/11.png"",""time"":1098},{""stimulus"":""img/2to3/12.png"",""time"":1197}]","[]"
"","","","observe","63cedc8a97a0bb604736baea","bdp_cybrbll","Sun Mar 26 2023 10:26:34 GMT-0600 (Mountain Daylight Time)","443899","1","3","image-keyboard-response","88","114041","0.0-5.0-1.42","","null","","img/3to2/1.png","null","183","292","0.5","0.5","3","2","",""
"","","","","63cedc8a97a0bb604736baea","bdp_cybrbll","Sun Mar 26 2023 10:26:34 GMT-0600 (Mountain Daylight Time)","443899","1","3","animation","89","115336","0.0-5.0-2.42","","","","","","183","","","","3","2","[{""stimulus"":""img/3to2/1.png"",""time"":108},{""stimulus"":""img/3to2/2.png"",""time"":204},{""stimulus"":""img/3to2/3.png"",""time"":308},{""stimulus"":""img/3to2/4.png"",""time"":399},{""stimulus"":""img/3to2/5.png"",""time"":505},{""stimulus"":""img/3to2/6.png"",""time"":603},{""stimulus"":""img/3to2/7.png"",""time"":695},{""stimulus"":""img/3to2/8.png"",""time"":800},{""stimulus"":""img/3to2/9.png"",""time"":900},{""stimulus"":""img/3to2/10.png"",""time"":993},{""stimulus"":""img/3to2/11.png"",""time"":1097},{""stimulus"":""img/3to2/12.png"",""time"":1193}]","[]"
"","","","choice","63cedc8a97a0bb604736baea","bdp_cybrbll","Sun Mar 26 2023 10:26:34 GMT-0600 (Mountain Daylight Time)","443899","1","3","image-keyboard-response","90","115390","0.0-5.0-1.43","","54","","img/2to1/1.png","1","182","305","0.5","0.5","2","1","",""
"","","","","63cedc8a97a0bb604736baea","bdp_cybrbll","Sun Mar 26 2023 10:26:34 GMT-0600 (Mountain Daylight Time)","443899","1","3","animation","91","116682","0.0-5.0-2.43","","","","","","182","","","","2","1","[{""stimulus"":""img/2to1/1.png"",""time"":107},{""stimulus"":""img/2to1/2.png"",""time"":202},{""stimulus"":""img/2to1/3.png"",""time"":303},{""stimulus"":""img/2to1/4.png"",""time"":405},{""stimulus"":""img/2to1/5.png"",""time"":503},{""stimulus"":""img/2to1/6.png"",""time"":604},{""stimulus"":""img/2to1/7.png"",""time"":700},{""stimulus"":""img/2to1/8.png"",""time"":799},{""stimulus"":""img/2to1/9.png"",""time"":898},{""stimulus"":""img/2to1/10.png"",""time"":996},{""stimulus"":""img/2to1/11.png"",""time"":1093},{""stimulus"":""img/2to1/12.png"",""time"":1199}]","[]"
"","","","observe","63cedc8a97a0bb604736baea","bdp_cybrbll","Sun Mar 26 2023 10:26:34 GMT-0600 (Mountain Daylight Time)","443899","1","3","image-keyboard-response","92","117045","0.0-5.0-1.44","","null","","img/1to3/1.png","null","181","356","0.5","0.5","1","2","",""
"","","","","63cedc8a97a0bb604736baea","bdp_cybrbll","Sun Mar 26 2023 10:26:34 GMT-0600 (Mountain Daylight Time)","443899","1","3","animation","93","118338","0.0-5.0-2.44","","","","","","181","","","","1","2","[{""stimulus"":""img/1to2/1.png"",""time"":108},{""stimulus"":""img/1to2/2.png"",""time"":207},{""stimulus"":""img/1to2/3.png"",""time"":304},{""stimulus"":""img/1to2/4.png"",""time"":404},{""stimulus"":""img/1to2/5.png"",""time"":502},{""stimulus"":""img/1to2/6.png"",""time"":600},{""stimulus"":""img/1to2/7.png"",""time"":699},{""stimulus"":""img/1to2/8.png"",""time"":799},{""stimulus"":""img/1to2/9.png"",""time"":903},{""stimulus"":""img/1to2/10.png"",""time"":996},{""stimulus"":""img/1to2/11.png"",""time"":1092},{""stimulus"":""img/1to2/12.png"",""time"":1200}]","[]"
"","","","choice","63cedc8a97a0bb604736baea","bdp_cybrbll","Sun Mar 26 2023 10:26:34 GMT-0600 (Mountain Daylight Time)","443899","1","3","image-keyboard-response","94","118420","0.0-5.0-1.45","","82","","img/2to1/1.png","2","180","604","0.5","0.5","2","3","",""
"","","","","63cedc8a97a0bb604736baea","bdp_cybrbll","Sun Mar 26 2023 10:26:34 GMT-0600 (Mountain Daylight Time)","443899","1","3","animation","95","119712","0.0-5.0-2.45","","","","","","180","","","","2","3","[{""stimulus"":""img/2to3/1.png"",""time"":103},{""stimulus"":""img/2to3/2.png"",""time"":206},{""stimulus"":""img/2to3/3.png"",""time"":303},{""stimulus"":""img/2to3/4.png"",""time"":408},{""stimulus"":""img/2to3/5.png"",""time"":499},{""stimulus"":""img/2to3/6.png"",""time"":598},{""stimulus"":""img/2to3/7.png"",""time"":700},{""stimulus"":""img/2to3/8.png"",""time"":795},{""stimulus"":""img/2to3/9.png"",""time"":904},{""stimulus"":""img/2to3/10.png"",""time"":995},{""stimulus"":""img/2to3/11.png"",""time"":1095},{""stimulus"":""img/2to3/12.png"",""time"":1199}]","[]"
"","","","observe","63cedc8a97a0bb604736baea","bdp_cybrbll","Sun Mar 26 2023 10:26:34 GMT-0600 (Mountain Daylight Time)","443899","1","3","image-keyboard-response","96","120003","0.0-5.0-1.46","","null","","img/3to2/1.png","null","179","281","0.5","0.5","3","2","",""
"","","","","63cedc8a97a0bb604736baea","bdp_cybrbll","Sun Mar 26 2023 10:26:34 GMT-0600 (Mountain Daylight Time)","443899","1","3","animation","97","121300","0.0-5.0-2.46","","","","","","179","","","","3","2","[{""stimulus"":""img/3to2/1.png"",""time"":101},{""stimulus"":""img/3to2/2.png"",""time"":209},{""stimulus"":""img/3to2/3.png"",""time"":302},{""stimulus"":""img/3to2/4.png"",""time"":400},{""stimulus"":""img/3to2/5.png"",""time"":506},{""stimulus"":""img/3to2/6.png"",""time"":599},{""stimulus"":""img/3to2/7.png"",""time"":706},{""stimulus"":""img/3to2/8.png"",""time"":801},{""stimulus"":""img/3to2/9.png"",""time"":894},{""stimulus"":""img/3to2/10.png"",""time"":997},{""stimulus"":""img/3to2/11.png"",""time"":1098},{""stimulus"":""img/3to2/12.png"",""time"":1194}]","[]"
"","","","choice","63cedc8a97a0bb604736baea","bdp_cybrbll","Sun Mar 26 2023 10:26:34 GMT-0600 (Mountain Daylight Time)","443899","1","3","image-keyboard-response","98","121712","0.0-5.0-1.47","","410","","img/2to1/1.png","1","178","432","0.5","0.5","2","1","",""
"","","","","63cedc8a97a0bb604736baea","bdp_cybrbll","Sun Mar 26 2023 10:26:34 GMT-0600 (Mountain Daylight Time)","443899","1","3","animation","99","123005","0.0-5.0-2.47","","","","","","178","","","","2","1","[{""stimulus"":""img/2to1/1.png"",""time"":107},{""stimulus"":""img/2to1/2.png"",""time"":203},{""stimulus"":""img/2to1/3.png"",""time"":308},{""stimulus"":""img/2to1/4.png"",""time"":401},{""stimulus"":""img/2to1/5.png"",""time"":500},{""stimulus"":""img/2to1/6.png"",""time"":602},{""stimulus"":""img/2to1/7.png"",""time"":698},{""stimulus"":""img/2to1/8.png"",""time"":796},{""stimulus"":""img/2to1/9.png"",""time"":901},{""stimulus"":""img/2to1/10.png"",""time"":994},{""stimulus"":""img/2to1/11.png"",""time"":1101},{""stimulus"":""img/2to1/12.png"",""time"":1193}]","[]"
"","","","observe","63cedc8a97a0bb604736baea","bdp_cybrbll","Sun Mar 26 2023 10:26:34 GMT-0600 (Mountain Daylight Time)","443899","1","3","image-keyboard-response","100","123393","0.0-5.0-1.48","","null","","img/1to3/1.png","null","177","379","0.5","0.5","1","3","",""
"","","","","63cedc8a97a0bb604736baea","bdp_cybrbll","Sun Mar 26 2023 10:26:34 GMT-0600 (Mountain Daylight Time)","443899","1","3","animation","101","124693","0.0-5.0-2.48","","","","","","177","","","","1","3","[{""stimulus"":""img/1to3/1.png"",""time"":108},{""stimulus"":""img/1to3/2.png"",""time"":204},{""stimulus"":""img/1to3/3.png"",""time"":306},{""stimulus"":""img/1to3/4.png"",""time"":401},{""stimulus"":""img/1to3/5.png"",""time"":506},{""stimulus"":""img/1to3/6.png"",""time"":600},{""stimulus"":""img/1to3/7.png"",""time"":699},{""stimulus"":""img/1to3/8.png"",""time"":802},{""stimulus"":""img/1to3/9.png"",""time"":897},{""stimulus"":""img/1to3/10.png"",""time"":995},{""stimulus"":""img/1to3/11.png"",""time"":1100},{""stimulus"":""img/1to3/12.png"",""time"":1193}]","[]"
"","","","observe","63cedc8a97a0bb604736baea","bdp_cybrbll","Sun Mar 26 2023 10:26:34 GMT-0600 (Mountain Daylight Time)","443899","1","3","image-keyboard-response","102","125396","0.0-5.0-1.49","","null","","img/3to2/1.png","null","176","694","0.5","0.5","3","2","",""
"","","","","63cedc8a97a0bb604736baea","bdp_cybrbll","Sun Mar 26 2023 10:26:34 GMT-0600 (Mountain Daylight Time)","443899","1","3","animation","103","126690","0.0-5.0-2.49","","","","","","176","","","","3","2","[{""stimulus"":""img/3to2/1.png"",""time"":104},{""stimulus"":""img/3to2/2.png"",""time"":204},{""stimulus"":""img/3to2/3.png"",""time"":303},{""stimulus"":""img/3to2/4.png"",""time"":408},{""stimulus"":""img/3to2/5.png"",""time"":504},{""stimulus"":""img/3to2/6.png"",""time"":597},{""stimulus"":""img/3to2/7.png"",""time"":702},{""stimulus"":""img/3to2/8.png"",""time"":798},{""stimulus"":""img/3to2/9.png"",""time"":896},{""stimulus"":""img/3to2/10.png"",""time"":999},{""stimulus"":""img/3to2/11.png"",""time"":1096},{""stimulus"":""img/3to2/12.png"",""time"":1189}]","[]"
"","","","choice","63cedc8a97a0bb604736baea","bdp_cybrbll","Sun Mar 26 2023 10:26:34 GMT-0600 (Mountain Daylight Time)","443899","1","3","image-keyboard-response","104","126737","0.0-5.0-1.50","","46","","img/2to1/1.png","2","175","337","0.5","0.5","2","3","",""
"","","","","63cedc8a97a0bb604736baea","bdp_cybrbll","Sun Mar 26 2023 10:26:34 GMT-0600 (Mountain Daylight Time)","443899","1","3","animation","105","128026","0.0-5.0-2.50","","","","","","175","","","","2","3","[{""stimulus"":""img/2to3/1.png"",""time"":107},{""stimulus"":""img/2to3/2.png"",""time"":202},{""stimulus"":""img/2to3/3.png"",""time"":308},{""stimulus"":""img/2to3/4.png"",""time"":400},{""stimulus"":""img/2to3/5.png"",""time"":498},{""stimulus"":""img/2to3/6.png"",""time"":604},{""stimulus"":""img/2to3/7.png"",""time"":696},{""stimulus"":""img/2to3/8.png"",""time"":801},{""stimulus"":""img/2to3/9.png"",""time"":898},{""stimulus"":""img/2to3/10.png"",""time"":996},{""stimulus"":""img/2to3/11.png"",""time"":1097},{""stimulus"":""img/2to3/12.png"",""time"":1196}]","[]"
"","","","observe","63cedc8a97a0bb604736baea","bdp_cybrbll","Sun Mar 26 2023 10:26:34 GMT-0600 (Mountain Daylight Time)","443899","1","3","image-keyboard-response","106","128529","0.0-5.0-1.51","","null","","img/3to2/1.png","null","174","501","0.5","0.5","3","1","",""
"","","","","63cedc8a97a0bb604736baea","bdp_cybrbll","Sun Mar 26 2023 10:26:34 GMT-0600 (Mountain Daylight Time)","443899","1","3","animation","107","129827","0.0-5.0-2.51","","","","","","174","","","","3","1","[{""stimulus"":""img/3to1/1.png"",""time"":105},{""stimulus"":""img/3to1/2.png"",""time"":200},{""stimulus"":""img/3to1/3.png"",""time"":306},{""stimulus"":""img/3to1/4.png"",""time"":402},{""stimulus"":""img/3to1/5.png"",""time"":506},{""stimulus"":""img/3to1/6.png"",""time"":600},{""stimulus"":""img/3to1/7.png"",""time"":696},{""stimulus"":""img/3to1/8.png"",""time"":804},{""stimulus"":""img/3to1/9.png"",""time"":900},{""stimulus"":""img/3to1/10.png"",""time"":995},{""stimulus"":""img/3to1/11.png"",""time"":1099},{""stimulus"":""img/3to1/12.png"",""time"":1192}]","[]"
"","","","observe","63cedc8a97a0bb604736baea","bdp_cybrbll","Sun Mar 26 2023 10:26:34 GMT-0600 (Mountain Daylight Time)","443899","1","3","image-keyboard-response","108","130081","0.0-5.0-1.52","","null","","img/1to3/1.png","null","173","250","0.5","0.5","1","3","",""
"","","","","63cedc8a97a0bb604736baea","bdp_cybrbll","Sun Mar 26 2023 10:26:34 GMT-0600 (Mountain Daylight Time)","443899","1","3","animation","109","131381","0.0-5.0-2.52","","","","","","173","","","","1","3","[{""stimulus"":""img/1to3/1.png"",""time"":105},{""stimulus"":""img/1to3/2.png"",""time"":205},{""stimulus"":""img/1to3/3.png"",""time"":308},{""stimulus"":""img/1to3/4.png"",""time"":402},{""stimulus"":""img/1to3/5.png"",""time"":505},{""stimulus"":""img/1to3/6.png"",""time"":600},{""stimulus"":""img/1to3/7.png"",""time"":698},{""stimulus"":""img/1to3/8.png"",""time"":801},{""stimulus"":""img/1to3/9.png"",""time"":900},{""stimulus"":""img/1to3/10.png"",""time"":993},{""stimulus"":""img/1to3/11.png"",""time"":1098},{""stimulus"":""img/1to3/12.png"",""time"":1196}]","[]"
"","","","observe","63cedc8a97a0bb604736baea","bdp_cybrbll","Sun Mar 26 2023 10:26:34 GMT-0600 (Mountain Daylight Time)","443899","1","3","image-keyboard-response","110","131611","0.0-5.0-1.53","","null","","img/3to2/1.png","null","172","222","0.5","0.5","3","2","",""
"","","","","63cedc8a97a0bb604736baea","bdp_cybrbll","Sun Mar 26 2023 10:26:34 GMT-0600 (Mountain Daylight Time)","443899","1","3","animation","111","132908","0.0-5.0-2.53","","","","","","172","","","","3","2","[{""stimulus"":""img/3to2/1.png"",""time"":106},{""stimulus"":""img/3to2/2.png"",""time"":205},{""stimulus"":""img/3to2/3.png"",""time"":303},{""stimulus"":""img/3to2/4.png"",""time"":399},{""stimulus"":""img/3to2/5.png"",""time"":501},{""stimulus"":""img/3to2/6.png"",""time"":597},{""stimulus"":""img/3to2/7.png"",""time"":705},{""stimulus"":""img/3to2/8.png"",""time"":802},{""stimulus"":""img/3to2/9.png"",""time"":895},{""stimulus"":""img/3to2/10.png"",""time"":999},{""stimulus"":""img/3to2/11.png"",""time"":1093},{""stimulus"":""img/3to2/12.png"",""time"":1194}]","[]"
"","","","choice","63cedc8a97a0bb604736baea","bdp_cybrbll","Sun Mar 26 2023 10:26:34 GMT-0600 (Mountain Daylight Time)","443899","1","3","image-keyboard-response","112","133043","0.0-5.0-1.54","","135","","img/2to1/1.png","1","171","463","0.5","0.5","2","1","",""
"","","","","63cedc8a97a0bb604736baea","bdp_cybrbll","Sun Mar 26 2023 10:26:34 GMT-0600 (Mountain Daylight Time)","443899","1","3","animation","113","134341","0.0-5.0-2.54","","","","","","171","","","","2","1","[{""stimulus"":""img/2to1/1.png"",""time"":104},{""stimulus"":""img/2to1/2.png"",""time"":208},{""stimulus"":""img/2to1/3.png"",""time"":303},{""stimulus"":""img/2to1/4.png"",""time"":403},{""stimulus"":""img/2to1/5.png"",""time"":507},{""stimulus"":""img/2to1/6.png"",""time"":599},{""stimulus"":""img/2to1/7.png"",""time"":695},{""stimulus"":""img/2to1/8.png"",""time"":801},{""stimulus"":""img/2to1/9.png"",""time"":898},{""stimulus"":""img/2to1/10.png"",""time"":1002},{""stimulus"":""img/2to1/11.png"",""time"":1096},{""stimulus"":""img/2to1/12.png"",""time"":1193}]","[]"
"","","","observe","63cedc8a97a0bb604736baea","bdp_cybrbll","Sun Mar 26 2023 10:26:34 GMT-0600 (Mountain Daylight Time)","443899","1","3","image-keyboard-response","114","135913","0.0-5.0-1.55","","null","","img/1to3/1.png","null","170","1567","0.5","0.5","1","3","",""
"","","","","63cedc8a97a0bb604736baea","bdp_cybrbll","Sun Mar 26 2023 10:26:34 GMT-0600 (Mountain Daylight Time)","443899","1","3","animation","115","137212","0.0-5.0-2.55","","","","","","170","","","","1","3","[{""stimulus"":""img/1to3/1.png"",""time"":104},{""stimulus"":""img/1to3/2.png"",""time"":203},{""stimulus"":""img/1to3/3.png"",""time"":306},{""stimulus"":""img/1to3/4.png"",""time"":402},{""stimulus"":""img/1to3/5.png"",""time"":506},{""stimulus"":""img/1to3/6.png"",""time"":601},{""stimulus"":""img/1to3/7.png"",""time"":700},{""stimulus"":""img/1to3/8.png"",""time"":800},{""stimulus"":""img/1to3/9.png"",""time"":896},{""stimulus"":""img/1to3/10.png"",""time"":994},{""stimulus"":""img/1to3/11.png"",""time"":1098},{""stimulus"":""img/1to3/12.png"",""time"":1191}]","[]"
"","","","observe","63cedc8a97a0bb604736baea","bdp_cybrbll","Sun Mar 26 2023 10:26:34 GMT-0600 (Mountain Daylight Time)","443899","1","3","image-keyboard-response","116","137793","0.0-5.0-1.56","","null","","img/3to2/1.png","null","169","573","0.5","0.5","3","2","",""
"","","","","63cedc8a97a0bb604736baea","bdp_cybrbll","Sun Mar 26 2023 10:26:34 GMT-0600 (Mountain Daylight Time)","443899","1","3","animation","117","139092","0.0-5.0-2.56","","","","","","169","","","","3","2","[{""stimulus"":""img/3to2/1.png"",""time"":104},{""stimulus"":""img/3to2/2.png"",""time"":201},{""stimulus"":""img/3to2/3.png"",""time"":307},{""stimulus"":""img/3to2/4.png"",""time"":403},{""stimulus"":""img/3to2/5.png"",""time"":507},{""stimulus"":""img/3to2/6.png"",""time"":600},{""stimulus"":""img/3to2/7.png"",""time"":699},{""stimulus"":""img/3to2/8.png"",""time"":799},{""stimulus"":""img/3to2/9.png"",""time"":900},{""stimulus"":""img/3to2/10.png"",""time"":995},{""stimulus"":""img/3to2/11.png"",""time"":1099},{""stimulus"":""img/3to2/12.png"",""time"":1192}]","[]"
"","","","choice","63cedc8a97a0bb604736baea","bdp_cybrbll","Sun Mar 26 2023 10:26:34 GMT-0600 (Mountain Daylight Time)","443899","1","3","image-keyboard-response","118","139435","0.0-5.0-1.57","","342","","img/2to1/1.png","2","168","1257","0.5","0.5","2","3","",""
"","","","","63cedc8a97a0bb604736baea","bdp_cybrbll","Sun Mar 26 2023 10:26:34 GMT-0600 (Mountain Daylight Time)","443899","1","3","animation","119","140734","0.0-5.0-2.57","","","","","","168","","","","2","3","[{""stimulus"":""img/2to3/1.png"",""time"":107},{""stimulus"":""img/2to3/2.png"",""time"":210},{""stimulus"":""img/2to3/3.png"",""time"":306},{""stimulus"":""img/2to3/4.png"",""time"":400},{""stimulus"":""img/2to3/5.png"",""time"":504},{""stimulus"":""img/2to3/6.png"",""time"":600},{""stimulus"":""img/2to3/7.png"",""time"":707},{""stimulus"":""img/2to3/8.png"",""time"":800},{""stimulus"":""img/2to3/9.png"",""time"":896},{""stimulus"":""img/2to3/10.png"",""time"":999},{""stimulus"":""img/2to3/11.png"",""time"":1095},{""stimulus"":""img/2to3/12.png"",""time"":1192}]","[]"
"","","","observe","63cedc8a97a0bb604736baea","bdp_cybrbll","Sun Mar 26 2023 10:26:34 GMT-0600 (Mountain Daylight Time)","443899","1","3","image-keyboard-response","120","140965","0.0-5.0-1.58","","null","","img/3to2/1.png","null","167","222","0.5","0.5","3","2","",""
"","","","","63cedc8a97a0bb604736baea","bdp_cybrbll","Sun Mar 26 2023 10:26:34 GMT-0600 (Mountain Daylight Time)","443899","1","3","animation","121","142260","0.0-5.0-2.58","","","","","","167","","","","3","2","[{""stimulus"":""img/3to2/1.png"",""time"":103},{""stimulus"":""img/3to2/2.png"",""time"":208},{""stimulus"":""img/3to2/3.png"",""time"":300},{""stimulus"":""img/3to2/4.png"",""time"":405},{""stimulus"":""img/3to2/5.png"",""time"":504},{""stimulus"":""img/3to2/6.png"",""time"":598},{""stimulus"":""img/3to2/7.png"",""time"":703},{""stimulus"":""img/3to2/8.png"",""time"":796},{""stimulus"":""img/3to2/9.png"",""time"":897},{""stimulus"":""img/3to2/10.png"",""time"":1000},{""stimulus"":""img/3to2/11.png"",""time"":1093},{""stimulus"":""img/3to2/12.png"",""time"":1197}]","[]"
"","","","choice","63cedc8a97a0bb604736baea","bdp_cybrbll","Sun Mar 26 2023 10:26:34 GMT-0600 (Mountain Daylight Time)","443899","1","3","image-keyboard-response","122","142925","0.0-5.0-1.59","","664","","img/2to1/1.png","1","166","556","0.5","0.5","2","1","",""
"","","","","63cedc8a97a0bb604736baea","bdp_cybrbll","Sun Mar 26 2023 10:26:34 GMT-0600 (Mountain Daylight Time)","443899","1","3","animation","123","144218","0.0-5.0-2.59","","","","","","166","","","","2","1","[{""stimulus"":""img/2to1/1.png"",""time"":102},{""stimulus"":""img/2to1/2.png"",""time"":206},{""stimulus"":""img/2to1/3.png"",""time"":303},{""stimulus"":""img/2to1/4.png"",""time"":409},{""stimulus"":""img/2to1/5.png"",""time"":501},{""stimulus"":""img/2to1/6.png"",""time"":599},{""stimulus"":""img/2to1/7.png"",""time"":705},{""stimulus"":""img/2to1/8.png"",""time"":798},{""stimulus"":""img/2to1/9.png"",""time"":893},{""stimulus"":""img/2to1/10.png"",""time"":1001},{""stimulus"":""img/2to1/11.png"",""time"":1094},{""stimulus"":""img/2to1/12.png"",""time"":1200}]","[]"
"","","","observe","63cedc8a97a0bb604736baea","bdp_cybrbll","Sun Mar 26 2023 10:26:34 GMT-0600 (Mountain Daylight Time)","443899","1","3","image-keyboard-response","124","144702","0.0-5.0-1.60","","null","","img/1to3/1.png","null","165","471","0.5","0.5","1","3","",""
"","","","","63cedc8a97a0bb604736baea","bdp_cybrbll","Sun Mar 26 2023 10:26:34 GMT-0600 (Mountain Daylight Time)","443899","1","3","animation","125","145998","0.0-5.0-2.60","","","","","","165","","","","1","3","[{""stimulus"":""img/1to3/1.png"",""time"":112},{""stimulus"":""img/1to3/2.png"",""time"":203},{""stimulus"":""img/1to3/3.png"",""time"":304},{""stimulus"":""img/1to3/4.png"",""time"":408},{""stimulus"":""img/1to3/5.png"",""time"":501},{""stimulus"":""img/1to3/6.png"",""time"":596},{""stimulus"":""img/1to3/7.png"",""time"":704},{""stimulus"":""img/1to3/8.png"",""time"":796},{""stimulus"":""img/1to3/9.png"",""time"":901},{""stimulus"":""img/1to3/10.png"",""time"":998},{""stimulus"":""img/1to3/11.png"",""time"":1092},{""stimulus"":""img/1to3/12.png"",""time"":1199}]","[]"
"","","","observe","63cedc8a97a0bb604736baea","bdp_cybrbll","Sun Mar 26 2023 10:26:34 GMT-0600 (Mountain Daylight Time)","443899","1","3","image-keyboard-response","126","146517","0.0-5.0-1.61","","null","","img/3to2/1.png","null","164","510","0.5","0.5","3","2","",""
"","","","","63cedc8a97a0bb604736baea","bdp_cybrbll","Sun Mar 26 2023 10:26:34 GMT-0600 (Mountain Daylight Time)","443899","1","3","animation","127","147809","0.0-5.0-2.61","","","","","","164","","","","3","2","[{""stimulus"":""img/3to2/1.png"",""time"":103},{""stimulus"":""img/3to2/2.png"",""time"":207},{""stimulus"":""img/3to2/3.png"",""time"":300},{""stimulus"":""img/3to2/4.png"",""time"":405},{""stimulus"":""img/3to2/5.png"",""time"":502},{""stimulus"":""img/3to2/6.png"",""time"":596},{""stimulus"":""img/3to2/7.png"",""time"":701},{""stimulus"":""img/3to2/8.png"",""time"":801},{""stimulus"":""img/3to2/9.png"",""time"":892},{""stimulus"":""img/3to2/10.png"",""time"":997},{""stimulus"":""img/3to2/11.png"",""time"":1092},{""stimulus"":""img/3to2/12.png"",""time"":1201}]","[]"
"","","","choice","63cedc8a97a0bb604736baea","bdp_cybrbll","Sun Mar 26 2023 10:26:34 GMT-0600 (Mountain Daylight Time)","443899","1","3","image-keyboard-response","128","148181","0.0-5.0-1.62","","372","","img/2to1/1.png","1","163","589","0.5","0.5","2","1","",""
"","","","","63cedc8a97a0bb604736baea","bdp_cybrbll","Sun Mar 26 2023 10:26:34 GMT-0600 (Mountain Daylight Time)","443899","1","3","animation","129","149474","0.0-5.0-2.62","","","","","","163","","","","2","1","[{""stimulus"":""img/2to1/1.png"",""time"":103},{""stimulus"":""img/2to1/2.png"",""time"":205},{""stimulus"":""img/2to1/3.png"",""time"":305},{""stimulus"":""img/2to1/4.png"",""time"":407},{""stimulus"":""img/2to1/5.png"",""time"":504},{""stimulus"":""img/2to1/6.png"",""time"":598},{""stimulus"":""img/2to1/7.png"",""time"":700},{""stimulus"":""img/2to1/8.png"",""time"":799},{""stimulus"":""img/2to1/9.png"",""time"":897},{""stimulus"":""img/2to1/10.png"",""time"":1001},{""stimulus"":""img/2to1/11.png"",""time"":1094},{""stimulus"":""img/2to1/12.png"",""time"":1201}]","[]"
"","","","observe","63cedc8a97a0bb604736baea","bdp_cybrbll","Sun Mar 26 2023 10:26:34 GMT-0600 (Mountain Daylight Time)","443899","1","3","image-keyboard-response","130","149986","0.0-5.0-1.63","","null","","img/1to3/1.png","null","162","509","0.5","0.5","1","3","",""
"","","","","63cedc8a97a0bb604736baea","bdp_cybrbll","Sun Mar 26 2023 10:26:34 GMT-0600 (Mountain Daylight Time)","443899","1","3","animation","131","151283","0.0-5.0-2.63","","","","","","162","","","","1","3","[{""stimulus"":""img/1to3/1.png"",""time"":104},{""stimulus"":""img/1to3/2.png"",""time"":209},{""stimulus"":""img/1to3/3.png"",""time"":307},{""stimulus"":""img/1to3/4.png"",""time"":399},{""stimulus"":""img/1to3/5.png"",""time"":503},{""stimulus"":""img/1to3/6.png"",""time"":602},{""stimulus"":""img/1to3/7.png"",""time"":695},{""stimulus"":""img/1to3/8.png"",""time"":801},{""stimulus"":""img/1to3/9.png"",""time"":898},{""stimulus"":""img/1to3/10.png"",""time"":999},{""stimulus"":""img/1to3/11.png"",""time"":1098},{""stimulus"":""img/1to3/12.png"",""time"":1193}]","[]"
"","","","observe","63cedc8a97a0bb604736baea","bdp_cybrbll","Sun Mar 26 2023 10:26:34 GMT-0600 (Mountain Daylight Time)","443899","1","3","image-keyboard-response","132","151995","0.0-5.0-1.64","","null","","img/3to2/1.png","null","161","707","0.5","0.5","3","2","",""
"","","","","63cedc8a97a0bb604736baea","bdp_cybrbll","Sun Mar 26 2023 10:26:34 GMT-0600 (Mountain Daylight Time)","443899","1","3","animation","133","153289","0.0-5.0-2.64","","","","","","161","","","","3","2","[{""stimulus"":""img/3to2/1.png"",""time"":105},{""stimulus"":""img/3to2/2.png"",""time"":209},{""stimulus"":""img/3to2/3.png"",""time"":302},{""stimulus"":""img/3to2/4.png"",""time"":399},{""stimulus"":""img/3to2/5.png"",""time"":499},{""stimulus"":""img/3to2/6.png"",""time"":598},{""stimulus"":""img/3to2/7.png"",""time"":697},{""stimulus"":""img/3to2/8.png"",""time"":801},{""stimulus"":""img/3to2/9.png"",""time"":896},{""stimulus"":""img/3to2/10.png"",""time"":1001},{""stimulus"":""img/3to2/11.png"",""time"":1095},{""stimulus"":""img/3to2/12.png"",""time"":1192}]","[]"
"","","","choice","63cedc8a97a0bb604736baea","bdp_cybrbll","Sun Mar 26 2023 10:26:34 GMT-0600 (Mountain Daylight Time)","443899","1","3","image-keyboard-response","134","153388","0.0-5.0-1.65","","99","","img/2to1/1.png","2","160","265","0.5","0.5","2","3","",""
"","","","","63cedc8a97a0bb604736baea","bdp_cybrbll","Sun Mar 26 2023 10:26:34 GMT-0600 (Mountain Daylight Time)","443899","1","3","animation","135","154682","0.0-5.0-2.65","","","","","","160","","","","2","3","[{""stimulus"":""img/2to3/1.png"",""time"":105},{""stimulus"":""img/2to3/2.png"",""time"":205},{""stimulus"":""img/2to3/3.png"",""time"":302},{""stimulus"":""img/2to3/4.png"",""time"":402},{""stimulus"":""img/2to3/5.png"",""time"":506},{""stimulus"":""img/2to3/6.png"",""time"":597},{""stimulus"":""img/2to3/7.png"",""time"":704},{""stimulus"":""img/2to3/8.png"",""time"":798},{""stimulus"":""img/2to3/9.png"",""time"":896},{""stimulus"":""img/2to3/10.png"",""time"":999},{""stimulus"":""img/2to3/11.png"",""time"":1098},{""stimulus"":""img/2to3/12.png"",""time"":1193}]","[]"
"","","","observe","63cedc8a97a0bb604736baea","bdp_cybrbll","Sun Mar 26 2023 10:26:34 GMT-0600 (Mountain Daylight Time)","443899","1","3","image-keyboard-response","136","155690","0.0-5.0-1.66","","null","","img/3to2/1.png","null","159","1001","0.5","0.5","3","2","",""
"","","","","63cedc8a97a0bb604736baea","bdp_cybrbll","Sun Mar 26 2023 10:26:34 GMT-0600 (Mountain Daylight Time)","443899","1","3","animation","137","156987","0.0-5.0-2.66","","","","","","159","","","","3","2","[{""stimulus"":""img/3to2/1.png"",""time"":104},{""stimulus"":""img/3to2/2.png"",""time"":201},{""stimulus"":""img/3to2/3.png"",""time"":305},{""stimulus"":""img/3to2/4.png"",""time"":403},{""stimulus"":""img/3to2/5.png"",""time"":508},{""stimulus"":""img/3to2/6.png"",""time"":600},{""stimulus"":""img/3to2/7.png"",""time"":700},{""stimulus"":""img/3to2/8.png"",""time"":804},{""stimulus"":""img/3to2/9.png"",""time"":896},{""stimulus"":""img/3to2/10.png"",""time"":996},{""stimulus"":""img/3to2/11.png"",""time"":1100},{""stimulus"":""img/3to2/12.png"",""time"":1193}]","[]"
"","","","choice","63cedc8a97a0bb604736baea","bdp_cybrbll","Sun Mar 26 2023 10:26:34 GMT-0600 (Mountain Daylight Time)","443899","1","3","image-keyboard-response","138","157513","0.0-5.0-1.67","","525","","img/2to1/1.png","1","158","144","0.5","0.5","2","1","",""
"","","","","63cedc8a97a0bb604736baea","bdp_cybrbll","Sun Mar 26 2023 10:26:34 GMT-0600 (Mountain Daylight Time)","443899","1","3","animation","139","158802","0.0-5.0-2.67","","","","","","158","","","","2","1","[{""stimulus"":""img/2to1/1.png"",""time"":108},{""stimulus"":""img/2to1/2.png"",""time"":200},{""stimulus"":""img/2to1/3.png"",""time"":305},{""stimulus"":""img/2to1/4.png"",""time"":404},{""stimulus"":""img/2to1/5.png"",""time"":496},{""stimulus"":""img/2to1/6.png"",""time"":601},{""stimulus"":""img/2to1/7.png"",""time"":701},{""stimulus"":""img/2to1/8.png"",""time"":805},{""stimulus"":""img/2to1/9.png"",""time"":901},{""stimulus"":""img/2to1/10.png"",""time"":995},{""stimulus"":""img/2to1/11.png"",""time"":1097},{""stimulus"":""img/2to1/12.png"",""time"":1193}]","[]"
"","","","observe","63cedc8a97a0bb604736baea","bdp_cybrbll","Sun Mar 26 2023 10:26:34 GMT-0600 (Mountain Daylight Time)","443899","1","3","image-keyboard-response","140","159156","0.0-5.0-1.68","","null","","img/1to3/1.png","null","157","350","0.5","0.5","1","3","",""
"","","","","63cedc8a97a0bb604736baea","bdp_cybrbll","Sun Mar 26 2023 10:26:34 GMT-0600 (Mountain Daylight Time)","443899","1","3","animation","141","160451","0.0-5.0-2.68","","","","","","157","","","","1","3","[{""stimulus"":""img/1to3/1.png"",""time"":106},{""stimulus"":""img/1to3/2.png"",""time"":208},{""stimulus"":""img/1to3/3.png"",""time"":305},{""stimulus"":""img/1to3/4.png"",""time"":401},{""stimulus"":""img/1to3/5.png"",""time"":502},{""stimulus"":""img/1to3/6.png"",""time"":600},{""stimulus"":""img/1to3/7.png"",""time"":702},{""stimulus"":""img/1to3/8.png"",""time"":798},{""stimulus"":""img/1to3/9.png"",""time"":897},{""stimulus"":""img/1to3/10.png"",""time"":1001},{""stimulus"":""img/1to3/11.png"",""time"":1094},{""stimulus"":""img/1to3/12.png"",""time"":1193}]","[]"
"","","","observe","63cedc8a97a0bb604736baea","bdp_cybrbll","Sun Mar 26 2023 10:26:34 GMT-0600 (Mountain Daylight Time)","443899","1","3","image-keyboard-response","142","160850","0.0-5.0-1.69","","null","","img/3to2/1.png","null","156","393","0.5","0.5","3","1","",""
"","","","","63cedc8a97a0bb604736baea","bdp_cybrbll","Sun Mar 26 2023 10:26:34 GMT-0600 (Mountain Daylight Time)","443899","1","3","animation","143","162146","0.0-5.0-2.69","","","","","","156","","","","3","1","[{""stimulus"":""img/3to1/1.png"",""time"":109},{""stimulus"":""img/3to1/2.png"",""time"":201},{""stimulus"":""img/3to1/3.png"",""time"":306},{""stimulus"":""img/3to1/4.png"",""time"":404},{""stimulus"":""img/3to1/5.png"",""time"":504},{""stimulus"":""img/3to1/6.png"",""time"":601},{""stimulus"":""img/3to1/7.png"",""time"":699},{""stimulus"":""img/3to1/8.png"",""time"":804},{""stimulus"":""img/3to1/9.png"",""time"":898},{""stimulus"":""img/3to1/10.png"",""time"":991},{""stimulus"":""img/3to1/11.png"",""time"":1095},{""stimulus"":""img/3to1/12.png"",""time"":1193}]","[]"
"","","","observe","63cedc8a97a0bb604736baea","bdp_cybrbll","Sun Mar 26 2023 10:26:34 GMT-0600 (Mountain Daylight Time)","443899","1","3","image-keyboard-response","144","163254","0.0-5.0-1.70","","null","","img/1to3/1.png","null","155","1098","0.5","0.5","1","3","",""
"","","","","63cedc8a97a0bb604736baea","bdp_cybrbll","Sun Mar 26 2023 10:26:34 GMT-0600 (Mountain Daylight Time)","443899","1","3","animation","145","164546","0.0-5.0-2.70","","","","","","155","","","","1","3","[{""stimulus"":""img/1to3/1.png"",""time"":112},{""stimulus"":""img/1to3/2.png"",""time"":207},{""stimulus"":""img/1to3/3.png"",""time"":303},{""stimulus"":""img/1to3/4.png"",""time"":409},{""stimulus"":""img/1to3/5.png"",""time"":503},{""stimulus"":""img/1to3/6.png"",""time"":600},{""stimulus"":""img/1to3/7.png"",""time"":700},{""stimulus"":""img/1to3/8.png"",""time"":801},{""stimulus"":""img/1to3/9.png"",""time"":905},{""stimulus"":""img/1to3/10.png"",""time"":996},{""stimulus"":""img/1to3/11.png"",""time"":1095},{""stimulus"":""img/1to3/12.png"",""time"":1200}]","[]"
"","","","observe","63cedc8a97a0bb604736baea","bdp_cybrbll","Sun Mar 26 2023 10:26:34 GMT-0600 (Mountain Daylight Time)","443899","1","3","image-keyboard-response","146","165293","0.0-5.0-1.71","","null","","img/3to2/1.png","null","154","736","0.5","0.5","3","2","",""
"","","","","63cedc8a97a0bb604736baea","bdp_cybrbll","Sun Mar 26 2023 10:26:34 GMT-0600 (Mountain Daylight Time)","443899","1","3","animation","147","166585","0.0-5.0-2.71","","","","","","154","","","","3","2","[{""stimulus"":""img/3to2/1.png"",""time"":103},{""stimulus"":""img/3to2/2.png"",""time"":205},{""stimulus"":""img/3to2/3.png"",""time"":305},{""stimulus"":""img/3to2/4.png"",""time"":405},{""stimulus"":""img/3to2/5.png"",""time"":504},{""stimulus"":""img/3to2/6.png"",""time"":596},{""stimulus"":""img/3to2/7.png"",""time"":702},{""stimulus"":""img/3to2/8.png"",""time"":801},{""stimulus"":""img/3to2/9.png"",""time"":895},{""stimulus"":""img/3to2/10.png"",""time"":1002},{""stimulus"":""img/3to2/11.png"",""time"":1098},{""stimulus"":""img/3to2/12.png"",""time"":1202}]","[]"
"","","","choice","63cedc8a97a0bb604736baea","bdp_cybrbll","Sun Mar 26 2023 10:26:34 GMT-0600 (Mountain Daylight Time)","443899","1","3","image-keyboard-response","148","167167","0.0-5.0-1.72","","581","","img/2to1/1.png","2","153","236","0.5","0.5","2","3","",""
"","","","","63cedc8a97a0bb604736baea","bdp_cybrbll","Sun Mar 26 2023 10:26:34 GMT-0600 (Mountain Daylight Time)","443899","1","3","animation","149","168458","0.0-5.0-2.72","","","","","","153","","","","2","3","[{""stimulus"":""img/2to3/1.png"",""time"":111},{""stimulus"":""img/2to3/2.png"",""time"":207},{""stimulus"":""img/2to3/3.png"",""time"":302},{""stimulus"":""img/2to3/4.png"",""time"":404},{""stimulus"":""img/2to3/5.png"",""time"":502},{""stimulus"":""img/2to3/6.png"",""time"":605},{""stimulus"":""img/2to3/7.png"",""time"":700},{""stimulus"":""img/2to3/8.png"",""time"":798},{""stimulus"":""img/2to3/9.png"",""time"":904},{""stimulus"":""img/2to3/10.png"",""time"":996},{""stimulus"":""img/2to3/11.png"",""time"":1093},{""stimulus"":""img/2to3/12.png"",""time"":1197}]","[]"
"","","","observe","63cedc8a97a0bb604736baea","bdp_cybrbll","Sun Mar 26 2023 10:26:34 GMT-0600 (Mountain Daylight Time)","443899","1","3","image-keyboard-response","150","168917","0.0-5.0-1.73","","null","","img/3to2/1.png","null","152","449","0.5","0.5","3","1","",""
"","","","","63cedc8a97a0bb604736baea","bdp_cybrbll","Sun Mar 26 2023 10:26:34 GMT-0600 (Mountain Daylight Time)","443899","1","3","animation","151","170212","0.0-5.0-2.73","","","","","","152","","","","3","1","[{""stimulus"":""img/3to1/1.png"",""time"":104},{""stimulus"":""img/3to1/2.png"",""time"":204},{""stimulus"":""img/3to1/3.png"",""time"":301},{""stimulus"":""img/3to1/4.png"",""time"":405},{""stimulus"":""img/3to1/5.png"",""time"":503},{""stimulus"":""img/3to1/6.png"",""time"":599},{""stimulus"":""img/3to1/7.png"",""time"":702},{""stimulus"":""img/3to1/8.png"",""time"":796},{""stimulus"":""img/3to1/9.png"",""time"":893},{""stimulus"":""img/3to1/10.png"",""time"":997},{""stimulus"":""img/3to1/11.png"",""time"":1096},{""stimulus"":""img/3to1/12.png"",""time"":1199}]","[]"
"","","","observe","63cedc8a97a0bb604736baea","bdp_cybrbll","Sun Mar 26 2023 10:26:34 GMT-0600 (Mountain Daylight Time)","443899","1","3","image-keyboard-response","152","170578","0.0-5.0-1.74","","null","","img/1to3/1.png","null","151","363","0.5","0.5","1","3","",""
"","","","","63cedc8a97a0bb604736baea","bdp_cybrbll","Sun Mar 26 2023 10:26:34 GMT-0600 (Mountain Daylight Time)","443899","1","3","animation","153","171874","0.0-5.0-2.74","","","","","","151","","","","1","3","[{""stimulus"":""img/1to3/1.png"",""time"":105},{""stimulus"":""img/1to3/2.png"",""time"":200},{""stimulus"":""img/1to3/3.png"",""time"":305},{""stimulus"":""img/1to3/4.png"",""time"":400},{""stimulus"":""img/1to3/5.png"",""time"":504},{""stimulus"":""img/1to3/6.png"",""time"":602},{""stimulus"":""img/1to3/7.png"",""time"":701},{""stimulus"":""img/1to3/8.png"",""time"":804},{""stimulus"":""img/1to3/9.png"",""time"":898},{""stimulus"":""img/1to3/10.png"",""time"":992},{""stimulus"":""img/1to3/11.png"",""time"":1097},{""stimulus"":""img/1to3/12.png"",""time"":1197}]","[]"
"","","","observe","63cedc8a97a0bb604736baea","bdp_cybrbll","Sun Mar 26 2023 10:26:34 GMT-0600 (Mountain Daylight Time)","443899","1","3","image-keyboard-response","154","172187","0.0-5.0-1.75","","null","","img/3to2/1.png","null","150","309","0.5","0.5","3","2","",""
"","","","","63cedc8a97a0bb604736baea","bdp_cybrbll","Sun Mar 26 2023 10:26:34 GMT-0600 (Mountain Daylight Time)","443899","1","3","animation","155","173483","0.0-5.0-2.75","","","","","","150","","","","3","2","[{""stimulus"":""img/3to2/1.png"",""time"":104},{""stimulus"":""img/3to2/2.png"",""time"":207},{""stimulus"":""img/3to2/3.png"",""time"":307},{""stimulus"":""img/3to2/4.png"",""time"":399},{""stimulus"":""img/3to2/5.png"",""time"":505},{""stimulus"":""img/3to2/6.png"",""time"":599},{""stimulus"":""img/3to2/7.png"",""time"":694},{""stimulus"":""img/3to2/8.png"",""time"":799},{""stimulus"":""img/3to2/9.png"",""time"":895},{""stimulus"":""img/3to2/10.png"",""time"":1003},{""stimulus"":""img/3to2/11.png"",""time"":1097},{""stimulus"":""img/3to2/12.png"",""time"":1191}]","[]"
"","","","choice","63cedc8a97a0bb604736baea","bdp_cybrbll","Sun Mar 26 2023 10:26:34 GMT-0600 (Mountain Daylight Time)","443899","1","3","image-keyboard-response","156","175841","0.0-5.0-1.76","","2358","","img/2to1/1.png","2","149","778","0.5","0.1","2","3","",""
"","","","","63cedc8a97a0bb604736baea","bdp_cybrbll","Sun Mar 26 2023 10:26:34 GMT-0600 (Mountain Daylight Time)","443899","1","3","animation","157","177132","0.0-5.0-2.76","","","","","","149","","","","2","3","[{""stimulus"":""img/2to3/1.png"",""time"":107},{""stimulus"":""img/2to3/2.png"",""time"":204},{""stimulus"":""img/2to3/3.png"",""time"":305},{""stimulus"":""img/2to3/4.png"",""time"":405},{""stimulus"":""img/2to3/5.png"",""time"":498},{""stimulus"":""img/2to3/6.png"",""time"":602},{""stimulus"":""img/2to3/7.png"",""time"":702},{""stimulus"":""img/2to3/8.png"",""time"":801},{""stimulus"":""img/2to3/9.png"",""time"":902},{""stimulus"":""img/2to3/10.png"",""time"":995},{""stimulus"":""img/2to3/11.png"",""time"":1099},{""stimulus"":""img/2to3/12.png"",""time"":1194}]","[]"
"","","","observe","63cedc8a97a0bb604736baea","bdp_cybrbll","Sun Mar 26 2023 10:26:34 GMT-0600 (Mountain Daylight Time)","443899","1","3","image-keyboard-response","158","177412","0.0-5.0-1.77","","null","","img/3to2/1.png","null","148","274","0.5","0.1","3","1","",""
"","","","","63cedc8a97a0bb604736baea","bdp_cybrbll","Sun Mar 26 2023 10:26:34 GMT-0600 (Mountain Daylight Time)","443899","1","3","animation","159","178708","0.0-5.0-2.77","","","","","","148","","","","3","1","[{""stimulus"":""img/3to1/1.png"",""time"":105},{""stimulus"":""img/3to1/2.png"",""time"":209},{""stimulus"":""img/3to1/3.png"",""time"":306},{""stimulus"":""img/3to1/4.png"",""time"":397},{""stimulus"":""img/3to1/5.png"",""time"":505},{""stimulus"":""img/3to1/6.png"",""time"":599},{""stimulus"":""img/3to1/7.png"",""time"":702},{""stimulus"":""img/3to1/8.png"",""time"":802},{""stimulus"":""img/3to1/9.png"",""time"":893},{""stimulus"":""img/3to1/10.png"",""time"":998},{""stimulus"":""img/3to1/11.png"",""time"":1097},{""stimulus"":""img/3to1/12.png"",""time"":1190}]","[]"
"","","","observe","63cedc8a97a0bb604736baea","bdp_cybrbll","Sun Mar 26 2023 10:26:34 GMT-0600 (Mountain Daylight Time)","443899","1","3","image-keyboard-response","160","178974","0.0-5.0-1.78","","null","","img/1to3/1.png","null","147","264","0.5","0.1","1","2","",""
"","","","","63cedc8a97a0bb604736baea","bdp_cybrbll","Sun Mar 26 2023 10:26:34 GMT-0600 (Mountain Daylight Time)","443899","1","3","animation","161","180271","0.0-5.0-2.78","","","","","","147","","","","1","2","[{""stimulus"":""img/1to2/1.png"",""time"":110},{""stimulus"":""img/1to2/2.png"",""time"":208},{""stimulus"":""img/1to2/3.png"",""time"":303},{""stimulus"":""img/1to2/4.png"",""time"":407},{""stimulus"":""img/1to2/5.png"",""time"":499},{""stimulus"":""img/1to2/6.png"",""time"":600},{""stimulus"":""img/1to2/7.png"",""time"":704},{""stimulus"":""img/1to2/8.png"",""time"":796},{""stimulus"":""img/1to2/9.png"",""time"":900},{""stimulus"":""img/1to2/10.png"",""time"":998},{""stimulus"":""img/1to2/11.png"",""time"":1094},{""stimulus"":""img/1to2/12.png"",""time"":1200}]","[]"
"","","","choice","63cedc8a97a0bb604736baea","bdp_cybrbll","Sun Mar 26 2023 10:26:34 GMT-0600 (Mountain Daylight Time)","443899","1","3","image-keyboard-response","162","180383","0.0-5.0-1.79","","112","","img/2to1/1.png","1","146","409","0.5","0.1","2","1","",""
"","","","","63cedc8a97a0bb604736baea","bdp_cybrbll","Sun Mar 26 2023 10:26:34 GMT-0600 (Mountain Daylight Time)","443899","1","3","animation","163","181677","0.0-5.0-2.79","","","","","","146","","","","2","1","[{""stimulus"":""img/2to1/1.png"",""time"":112},{""stimulus"":""img/2to1/2.png"",""time"":205},{""stimulus"":""img/2to1/3.png"",""time"":299},{""stimulus"":""img/2to1/4.png"",""time"":407},{""stimulus"":""img/2to1/5.png"",""time"":499},{""stimulus"":""img/2to1/6.png"",""time"":600},{""stimulus"":""img/2to1/7.png"",""time"":703},{""stimulus"":""img/2to1/8.png"",""time"":798},{""stimulus"":""img/2to1/9.png"",""time"":900},{""stimulus"":""img/2to1/10.png"",""time"":999},{""stimulus"":""img/2to1/11.png"",""time"":1094},{""stimulus"":""img/2to1/12.png"",""time"":1195}]","[]"
"","","","observe","63cedc8a97a0bb604736baea","bdp_cybrbll","Sun Mar 26 2023 10:26:34 GMT-0600 (Mountain Daylight Time)","443899","1","3","image-keyboard-response","164","182308","0.0-5.0-1.80","","null","","img/1to3/1.png","null","145","620","0.5","0.1","1","3","",""
"","","","","63cedc8a97a0bb604736baea","bdp_cybrbll","Sun Mar 26 2023 10:26:34 GMT-0600 (Mountain Daylight Time)","443899","1","3","animation","165","183607","0.0-5.0-2.80","","","","","","145","","","","1","3","[{""stimulus"":""img/1to3/1.png"",""time"":104},{""stimulus"":""img/1to3/2.png"",""time"":208},{""stimulus"":""img/1to3/3.png"",""time"":307},{""stimulus"":""img/1to3/4.png"",""time"":403},{""stimulus"":""img/1to3/5.png"",""time"":505},{""stimulus"":""img/1to3/6.png"",""time"":602},{""stimulus"":""img/1to3/7.png"",""time"":695},{""stimulus"":""img/1to3/8.png"",""time"":802},{""stimulus"":""img/1to3/9.png"",""time"":899},{""stimulus"":""img/1to3/10.png"",""time"":1000},{""stimulus"":""img/1to3/11.png"",""time"":1095},{""stimulus"":""img/1to3/12.png"",""time"":1192}]","[]"
"","","","observe","63cedc8a97a0bb604736baea","bdp_cybrbll","Sun Mar 26 2023 10:26:34 GMT-0600 (Mountain Daylight Time)","443899","1","3","image-keyboard-response","166","183836","0.0-5.0-1.81","","null","","img/3to2/1.png","null","144","225","0.5","0.1","3","1","",""
"","","","","63cedc8a97a0bb604736baea","bdp_cybrbll","Sun Mar 26 2023 10:26:34 GMT-0600 (Mountain Daylight Time)","443899","1","3","animation","167","185131","0.0-5.0-2.81","","","","","","144","","","","3","1","[{""stimulus"":""img/3to1/1.png"",""time"":105},{""stimulus"":""img/3to1/2.png"",""time"":208},{""stimulus"":""img/3to1/3.png"",""time"":305},{""stimulus"":""img/3to1/4.png"",""time"":400},{""stimulus"":""img/3to1/5.png"",""time"":503},{""stimulus"":""img/3to1/6.png"",""time"":600},{""stimulus"":""img/3to1/7.png"",""time"":696},{""stimulus"":""img/3to1/8.png"",""time"":800},{""stimulus"":""img/3to1/9.png"",""time"":897},{""stimulus"":""img/3to1/10.png"",""time"":999},{""stimulus"":""img/3to1/11.png"",""time"":1095},{""stimulus"":""img/3to1/12.png"",""time"":1194}]","[]"
"","","","observe","63cedc8a97a0bb604736baea","bdp_cybrbll","Sun Mar 26 2023 10:26:34 GMT-0600 (Mountain Daylight Time)","443899","1","3","image-keyboard-response","168","185346","0.0-5.0-1.82","","null","","img/1to3/1.png","null","143","213","0.5","0.1","1","2","",""
"","","","","63cedc8a97a0bb604736baea","bdp_cybrbll","Sun Mar 26 2023 10:26:34 GMT-0600 (Mountain Daylight Time)","443899","1","3","animation","169","186635","0.0-5.0-2.82","","","","","","143","","","","1","2","[{""stimulus"":""img/1to2/1.png"",""time"":105},{""stimulus"":""img/1to2/2.png"",""time"":205},{""stimulus"":""img/1to2/3.png"",""time"":305},{""stimulus"":""img/1to2/4.png"",""time"":405},{""stimulus"":""img/1to2/5.png"",""time"":498},{""stimulus"":""img/1to2/6.png"",""time"":605},{""stimulus"":""img/1to2/7.png"",""time"":700},{""stimulus"":""img/1to2/8.png"",""time"":804},{""stimulus"":""img/1to2/9.png"",""time"":900},{""stimulus"":""img/1to2/10.png"",""time"":992},{""stimulus"":""img/1to2/11.png"",""time"":1097},{""stimulus"":""img/1to2/12.png"",""time"":1197}]","[]"
"","","","choice","63cedc8a97a0bb604736baea","bdp_cybrbll","Sun Mar 26 2023 10:26:34 GMT-0600 (Mountain Daylight Time)","443899","1","3","image-keyboard-response","170","186920","0.0-5.0-1.83","","285","","img/2to1/1.png","2","142","246","0.5","0.1","2","3","",""
"","","","","63cedc8a97a0bb604736baea","bdp_cybrbll","Sun Mar 26 2023 10:26:34 GMT-0600 (Mountain Daylight Time)","443899","1","3","animation","171","188213","0.0-5.0-2.83","","","","","","142","","","","2","3","[{""stimulus"":""img/2to3/1.png"",""time"":111},{""stimulus"":""img/2to3/2.png"",""time"":205},{""stimulus"":""img/2to3/3.png"",""time"":298},{""stimulus"":""img/2to3/4.png"",""time"":403},{""stimulus"":""img/2to3/5.png"",""time"":500},{""stimulus"":""img/2to3/6.png"",""time"":603},{""stimulus"":""img/2to3/7.png"",""time"":702},{""stimulus"":""img/2to3/8.png"",""time"":799},{""stimulus"":""img/2to3/9.png"",""time"":902},{""stimulus"":""img/2to3/10.png"",""time"":997},{""stimulus"":""img/2to3/11.png"",""time"":1095},{""stimulus"":""img/2to3/12.png"",""time"":1198}]","[]"
"","","","observe","63cedc8a97a0bb604736baea","bdp_cybrbll","Sun Mar 26 2023 10:26:34 GMT-0600 (Mountain Daylight Time)","443899","1","3","image-keyboard-response","172","188445","0.0-5.0-1.84","","null","","img/3to2/1.png","null","141","224","0.5","0.1","3","1","",""
"","","","","63cedc8a97a0bb604736baea","bdp_cybrbll","Sun Mar 26 2023 10:26:34 GMT-0600 (Mountain Daylight Time)","443899","1","3","animation","173","189742","0.0-5.0-2.84","","","","","","141","","","","3","1","[{""stimulus"":""img/3to1/1.png"",""time"":106},{""stimulus"":""img/3to1/2.png"",""time"":207},{""stimulus"":""img/3to1/3.png"",""time"":303},{""stimulus"":""img/3to1/4.png"",""time"":397},{""stimulus"":""img/3to1/5.png"",""time"":503},{""stimulus"":""img/3to1/6.png"",""time"":599},{""stimulus"":""img/3to1/7.png"",""time"":705},{""stimulus"":""img/3to1/8.png"",""time"":797},{""stimulus"":""img/3to1/9.png"",""time"":894},{""stimulus"":""img/3to1/10.png"",""time"":1002},{""stimulus"":""img/3to1/11.png"",""time"":1093},{""stimulus"":""img/3to1/12.png"",""time"":1191}]","[]"
"","","","observe","63cedc8a97a0bb604736baea","bdp_cybrbll","Sun Mar 26 2023 10:26:34 GMT-0600 (Mountain Daylight Time)","443899","1","3","image-keyboard-response","174","190636","0.0-5.0-1.85","","null","","img/1to3/1.png","null","140","888","0.5","0.1","1","2","",""
"","","","","63cedc8a97a0bb604736baea","bdp_cybrbll","Sun Mar 26 2023 10:26:34 GMT-0600 (Mountain Daylight Time)","443899","1","3","animation","175","191932","0.0-5.0-2.85","","","","","","140","","","","1","2","[{""stimulus"":""img/1to2/1.png"",""time"":107},{""stimulus"":""img/1to2/2.png"",""time"":211},{""stimulus"":""img/1to2/3.png"",""time"":304},{""stimulus"":""img/1to2/4.png"",""time"":402},{""stimulus"":""img/1to2/5.png"",""time"":506},{""stimulus"":""img/1to2/6.png"",""time"":599},{""stimulus"":""img/1to2/7.png"",""time"":698},{""stimulus"":""img/1to2/8.png"",""time"":801},{""stimulus"":""img/1to2/9.png"",""time"":899},{""stimulus"":""img/1to2/10.png"",""time"":1000},{""stimulus"":""img/1to2/11.png"",""time"":1099},{""stimulus"":""img/1to2/12.png"",""time"":1191}]","[]"
"","","","choice","63cedc8a97a0bb604736baea","bdp_cybrbll","Sun Mar 26 2023 10:26:34 GMT-0600 (Mountain Daylight Time)","443899","1","3","image-keyboard-response","176","192083","0.0-5.0-1.86","","151","","img/2to1/1.png","1","139","196","0.5","0.1","2","1","",""
"","","","","63cedc8a97a0bb604736baea","bdp_cybrbll","Sun Mar 26 2023 10:26:34 GMT-0600 (Mountain Daylight Time)","443899","1","3","animation","177","193383","0.0-5.0-2.86","","","","","","139","","","","2","1","[{""stimulus"":""img/2to1/1.png"",""time"":105},{""stimulus"":""img/2to1/2.png"",""time"":200},{""stimulus"":""img/2to1/3.png"",""time"":305},{""stimulus"":""img/2to1/4.png"",""time"":403},{""stimulus"":""img/2to1/5.png"",""time"":508},{""stimulus"":""img/2to1/6.png"",""time"":604},{""stimulus"":""img/2to1/7.png"",""time"":699},{""stimulus"":""img/2to1/8.png"",""time"":801},{""stimulus"":""img/2to1/9.png"",""time"":896},{""stimulus"":""img/2to1/10.png"",""time"":994},{""stimulus"":""img/2to1/11.png"",""time"":1100},{""stimulus"":""img/2to1/12.png"",""time"":1192}]","[]"
"","","","observe","63cedc8a97a0bb604736baea","bdp_cybrbll","Sun Mar 26 2023 10:26:34 GMT-0600 (Mountain Daylight Time)","443899","1","3","image-keyboard-response","178","194134","0.0-5.0-1.87","","null","","img/1to3/1.png","null","138","741","0.5","0.1","1","3","",""
"","","","","63cedc8a97a0bb604736baea","bdp_cybrbll","Sun Mar 26 2023 10:26:34 GMT-0600 (Mountain Daylight Time)","443899","1","3","animation","179","195426","0.0-5.0-2.87","","","","","","138","","","","1","3","[{""stimulus"":""img/1to3/1.png"",""time"":103},{""stimulus"":""img/1to3/2.png"",""time"":206},{""stimulus"":""img/1to3/3.png"",""time"":302},{""stimulus"":""img/1to3/4.png"",""time"":409},{""stimulus"":""img/1to3/5.png"",""time"":503},{""stimulus"":""img/1to3/6.png"",""time"":600},{""stimulus"":""img/1to3/7.png"",""time"":703},{""stimulus"":""img/1to3/8.png"",""time"":799},{""stimulus"":""img/1to3/9.png"",""time"":896},{""stimulus"":""img/1to3/10.png"",""time"":997},{""stimulus"":""img/1to3/11.png"",""time"":1093},{""stimulus"":""img/1to3/12.png"",""time"":1198}]","[]"
"","","","observe","63cedc8a97a0bb604736baea","bdp_cybrbll","Sun Mar 26 2023 10:26:34 GMT-0600 (Mountain Daylight Time)","443899","1","3","image-keyboard-response","180","196295","0.0-5.0-1.88","","null","","img/3to2/1.png","null","137","862","0.5","0.1","3","1","",""
"","","","","63cedc8a97a0bb604736baea","bdp_cybrbll","Sun Mar 26 2023 10:26:34 GMT-0600 (Mountain Daylight Time)","443899","1","3","animation","181","197590","0.0-5.0-2.88","","","","","","137","","","","3","1","[{""stimulus"":""img/3to1/1.png"",""time"":111},{""stimulus"":""img/3to1/2.png"",""time"":205},{""stimulus"":""img/3to1/3.png"",""time"":304},{""stimulus"":""img/3to1/4.png"",""time"":409},{""stimulus"":""img/3to1/5.png"",""time"":502},{""stimulus"":""img/3to1/6.png"",""time"":596},{""stimulus"":""img/3to1/7.png"",""time"":701},{""stimulus"":""img/3to1/8.png"",""time"":801},{""stimulus"":""img/3to1/9.png"",""time"":900},{""stimulus"":""img/3to1/10.png"",""time"":1001},{""stimulus"":""img/3to1/11.png"",""time"":1094},{""stimulus"":""img/3to1/12.png"",""time"":1196}]","[]"
"","","","observe","63cedc8a97a0bb604736baea","bdp_cybrbll","Sun Mar 26 2023 10:26:34 GMT-0600 (Mountain Daylight Time)","443899","1","3","image-keyboard-response","182","197843","0.0-5.0-1.89","","null","","img/1to3/1.png","null","136","247","0.5","0.1","1","3","",""
"","","","","63cedc8a97a0bb604736baea","bdp_cybrbll","Sun Mar 26 2023 10:26:34 GMT-0600 (Mountain Daylight Time)","443899","1","3","animation","183","199142","0.0-5.0-2.89","","","","","","136","","","","1","3","[{""stimulus"":""img/1to3/1.png"",""time"":103},{""stimulus"":""img/1to3/2.png"",""time"":199},{""stimulus"":""img/1to3/3.png"",""time"":307},{""stimulus"":""img/1to3/4.png"",""time"":400},{""stimulus"":""img/1to3/5.png"",""time"":504},{""stimulus"":""img/1to3/6.png"",""time"":601},{""stimulus"":""img/1to3/7.png"",""time"":697},{""stimulus"":""img/1to3/8.png"",""time"":799},{""stimulus"":""img/1to3/9.png"",""time"":896},{""stimulus"":""img/1to3/10.png"",""time"":993},{""stimulus"":""img/1to3/11.png"",""time"":1100},{""stimulus"":""img/1to3/12.png"",""time"":1193}]","[]"
"","","","observe","63cedc8a97a0bb604736baea","bdp_cybrbll","Sun Mar 26 2023 10:26:34 GMT-0600 (Mountain Daylight Time)","443899","1","3","image-keyboard-response","184","200837","0.0-5.0-1.90","","null","","img/3to2/1.png","null","135","1685","0.5","0.1","3","1","",""
"","","","","63cedc8a97a0bb604736baea","bdp_cybrbll","Sun Mar 26 2023 10:26:34 GMT-0600 (Mountain Daylight Time)","443899","1","3","animation","185","202135","0.0-5.0-2.90","","","","","","135","","","","3","1","[{""stimulus"":""img/3to1/1.png"",""time"":103},{""stimulus"":""img/3to1/2.png"",""time"":209},{""stimulus"":""img/3to1/3.png"",""time"":302},{""stimulus"":""img/3to1/4.png"",""time"":399},{""stimulus"":""img/3to1/5.png"",""time"":504},{""stimulus"":""img/3to1/6.png"",""time"":600},{""stimulus"":""img/3to1/7.png"",""time"":697},{""stimulus"":""img/3to1/8.png"",""time"":800},{""stimulus"":""img/3to1/9.png"",""time"":894},{""stimulus"":""img/3to1/10.png"",""time"":999},{""stimulus"":""img/3to1/11.png"",""time"":1096},{""stimulus"":""img/3to1/12.png"",""time"":1194}]","[]"
"","","","observe","63cedc8a97a0bb604736baea","bdp_cybrbll","Sun Mar 26 2023 10:26:34 GMT-0600 (Mountain Daylight Time)","443899","1","3","image-keyboard-response","186","202598","0.0-5.0-1.91","","null","","img/1to3/1.png","null","134","458","0.5","0.1","1","3","",""
"","","","","63cedc8a97a0bb604736baea","bdp_cybrbll","Sun Mar 26 2023 10:26:34 GMT-0600 (Mountain Daylight Time)","443899","1","3","animation","187","203895","0.0-5.0-2.91","","","","","","134","","","","1","3","[{""stimulus"":""img/1to3/1.png"",""time"":104},{""stimulus"":""img/1to3/2.png"",""time"":208},{""stimulus"":""img/1to3/3.png"",""time"":300},{""stimulus"":""img/1to3/4.png"",""time"":398},{""stimulus"":""img/1to3/5.png"",""time"":503},{""stimulus"":""img/1to3/6.png"",""time"":596},{""stimulus"":""img/1to3/7.png"",""time"":701},{""stimulus"":""img/1to3/8.png"",""time"":798},{""stimulus"":""img/1to3/9.png"",""time"":898},{""stimulus"":""img/1to3/10.png"",""time"":1002},{""stimulus"":""img/1to3/11.png"",""time"":1095},{""stimulus"":""img/1to3/12.png"",""time"":1191}]","[]"
"","","","observe","63cedc8a97a0bb604736baea","bdp_cybrbll","Sun Mar 26 2023 10:26:34 GMT-0600 (Mountain Daylight Time)","443899","1","3","image-keyboard-response","188","204733","0.0-5.0-1.92","","null","","img/3to2/1.png","null","133","833","0.5","0.1","3","2","",""
"","","","","63cedc8a97a0bb604736baea","bdp_cybrbll","Sun Mar 26 2023 10:26:34 GMT-0600 (Mountain Daylight Time)","443899","1","3","animation","189","206029","0.0-5.0-2.92","","","","","","133","","","","3","2","[{""stimulus"":""img/3to2/1.png"",""time"":104},{""stimulus"":""img/3to2/2.png"",""time"":208},{""stimulus"":""img/3to2/3.png"",""time"":304},{""stimulus"":""img/3to2/4.png"",""time"":397},{""stimulus"":""img/3to2/5.png"",""time"":503},{""stimulus"":""img/3to2/6.png"",""time"":599},{""stimulus"":""img/3to2/7.png"",""time"":696},{""stimulus"":""img/3to2/8.png"",""time"":803},{""stimulus"":""img/3to2/9.png"",""time"":894},{""stimulus"":""img/3to2/10.png"",""time"":998},{""stimulus"":""img/3to2/11.png"",""time"":1099},{""stimulus"":""img/3to2/12.png"",""time"":1192}]","[]"
