"event","trial","time","trialtype","subject_id","task","startTime","totalTime","fairPartner","unfairPartner","trial_type","trial_index","time_elapsed","internal_node_id","view_history","rt","success","stimulus","key_press","throwsLeft","rtDur","pFair","pUnfair","holder","receiver","animation_sequence","responses"
"focus","0","0","focusevent","5f721a81ee2a860fe028a8a4","bdp_cybrbll","Sun Apr 09 2023 16:28:04 GMT-0700 (Pacific Daylight Time)","532840","3","1","","","","","","","","","","","","","","","","",""
"","","","","5f721a81ee2a860fe028a8a4","bdp_cybrbll","Sun Apr 09 2023 16:28:04 GMT-0700 (Pacific Daylight Time)","532840","3","1","pavlovia","0","7","0.0-0.0","","","","","","","","","","","","",""
"","","","","5f721a81ee2a860fe028a8a4","bdp_cybrbll","Sun Apr 09 2023 16:28:04 GMT-0700 (Pacific Daylight Time)","532840","3","1","instructions","1","4103","0.0-1.0","[{""page_index"":0,""viewing_time"":4095}]","4095","","","","","","","","","","",""
"fullscreenexit","2","6578","fullscreenexit","5f721a81ee2a860fe028a8a4","bdp_cybrbll","Sun Apr 09 2023 16:28:04 GMT-0700 (Pacific Daylight Time)","532840","3","1","","","","","","","","","","","","","","","","",""
"","","","","5f721a81ee2a860fe028a8a4","bdp_cybrbll","Sun Apr 09 2023 16:28:04 GMT-0700 (Pacific Daylight Time)","532840","3","1","fullscreen","2","7131","0.0-2.0","","","true","","","","","","","","","",""
"","","","fullscreenfail","5f721a81ee2a860fe028a8a4","bdp_cybrbll","Sun Apr 09 2023 16:28:04 GMT-0700 (Pacific Daylight Time)","532840","3","1","image-keyboard-response","3","10759","0.0-3.0-0.0","","3626","","","32","","","","","","","",""
"","","","","5f721a81ee2a860fe028a8a4","bdp_cybrbll","Sun Apr 09 2023 16:28:04 GMT-0700 (Pacific Daylight Time)","532840","3","1","instructions","4","86857","0.0-4.0","[{""page_index"":0,""viewing_time"":75845}]","75846","","","","","","","","","","",""
"","","","choice","5f721a81ee2a860fe028a8a4","bdp_cybrbll","Sun Apr 09 2023 16:28:04 GMT-0700 (Pacific Daylight Time)","532840","3","1","image-keyboard-response","5","89991","0.0-5.0-1.0","","3133","","img/2to1/1.png","1","225","344","0.5","0.5","2","1","",""
"","","","","5f721a81ee2a860fe028a8a4","bdp_cybrbll","Sun Apr 09 2023 16:28:04 GMT-0700 (Pacific Daylight Time)","532840","3","1","animation","6","91407","0.0-5.0-2.0","","","","","","225","","","","2","1","[{""stimulus"":""img/2to1/1.png"",""time"":105},{""stimulus"":""img/2to1/2.png"",""time"":215},{""stimulus"":""img/2to1/3.png"",""time"":325},{""stimulus"":""img/2to1/4.png"",""time"":437},{""stimulus"":""img/2to1/5.png"",""time"":547},{""stimulus"":""img/2to1/6.png"",""time"":656},{""stimulus"":""img/2to1/7.png"",""time"":765},{""stimulus"":""img/2to1/8.png"",""time"":877},{""stimulus"":""img/2to1/9.png"",""time"":986},{""stimulus"":""img/2to1/10.png"",""time"":1093},{""stimulus"":""img/2to1/11.png"",""time"":1200},{""stimulus"":""img/2to1/12.png"",""time"":1308}]","[]"
"","","","observe","5f721a81ee2a860fe028a8a4","bdp_cybrbll","Sun Apr 09 2023 16:28:04 GMT-0700 (Pacific Daylight Time)","532840","3","1","image-keyboard-response","7","92513","0.0-5.0-1.1","","null","","img/1to3/1.png","null","224","1092","0.5","0.5","1","2","",""
"","","","","5f721a81ee2a860fe028a8a4","bdp_cybrbll","Sun Apr 09 2023 16:28:04 GMT-0700 (Pacific Daylight Time)","532840","3","1","animation","8","93928","0.0-5.0-2.1","","","","","","224","","","","1","2","[{""stimulus"":""img/1to2/1.png"",""time"":109},{""stimulus"":""img/1to2/2.png"",""time"":218},{""stimulus"":""img/1to2/3.png"",""time"":328},{""stimulus"":""img/1to2/4.png"",""time"":438},{""stimulus"":""img/1to2/5.png"",""time"":546},{""stimulus"":""img/1to2/6.png"",""time"":654},{""stimulus"":""img/1to2/7.png"",""time"":764},{""stimulus"":""img/1to2/8.png"",""time"":872},{""stimulus"":""img/1to2/9.png"",""time"":982},{""stimulus"":""img/1to2/10.png"",""time"":1088},{""stimulus"":""img/1to2/11.png"",""time"":1198},{""stimulus"":""img/1to2/12.png"",""time"":1306}]","[]"
"","","","choice","5f721a81ee2a860fe028a8a4","bdp_cybrbll","Sun Apr 09 2023 16:28:04 GMT-0700 (Pacific Daylight Time)","532840","3","1","image-keyboard-response","9","94950","0.0-5.0-1.2","","1022","","img/2to1/1.png","2","223","483","0.5","0.5","2","3","",""
"","","","","5f721a81ee2a860fe028a8a4","bdp_cybrbll","Sun Apr 09 2023 16:28:04 GMT-0700 (Pacific Daylight Time)","532840","3","1","animation","10","96364","0.0-5.0-2.2","","","","","","223","","","","2","3","[{""stimulus"":""img/2to3/1.png"",""time"":101},{""stimulus"":""img/2to3/2.png"",""time"":209},{""stimulus"":""img/2to3/3.png"",""time"":316},{""stimulus"":""img/2to3/4.png"",""time"":427},{""stimulus"":""img/2to3/5.png"",""time"":537},{""stimulus"":""img/2to3/6.png"",""time"":644},{""stimulus"":""img/2to3/7.png"",""time"":753},{""stimulus"":""img/2to3/8.png"",""time"":861},{""stimulus"":""img/2to3/9.png"",""time"":972},{""stimulus"":""img/2to3/10.png"",""time"":1082},{""stimulus"":""img/2to3/11.png"",""time"":1191},{""stimulus"":""img/2to3/12.png"",""time"":1302}]","[]"
"","","","observe","5f721a81ee2a860fe028a8a4","bdp_cybrbll","Sun Apr 09 2023 16:28:04 GMT-0700 (Pacific Daylight Time)","532840","3","1","image-keyboard-response","11","96643","0.0-5.0-1.3","","null","","img/3to2/1.png","null","222","266","0.5","0.5","3","2","",""
"","","","","5f721a81ee2a860fe028a8a4","bdp_cybrbll","Sun Apr 09 2023 16:28:04 GMT-0700 (Pacific Daylight Time)","532840","3","1","animation","12","98062","0.0-5.0-2.3","","","","","","222","","","","3","2","[{""stimulus"":""img/3to2/1.png"",""time"":108},{""stimulus"":""img/3to2/2.png"",""time"":216},{""stimulus"":""img/3to2/3.png"",""time"":324},{""stimulus"":""img/3to2/4.png"",""time"":432},{""stimulus"":""img/3to2/5.png"",""time"":541},{""stimulus"":""img/3to2/6.png"",""time"":650},{""stimulus"":""img/3to2/7.png"",""time"":758},{""stimulus"":""img/3to2/8.png"",""time"":868},{""stimulus"":""img/3to2/9.png"",""time"":978},{""stimulus"":""img/3to2/10.png"",""time"":1087},{""stimulus"":""img/3to2/11.png"",""time"":1197},{""stimulus"":""img/3to2/12.png"",""time"":1309}]","[]"
"","","","choice","5f721a81ee2a860fe028a8a4","bdp_cybrbll","Sun Apr 09 2023 16:28:04 GMT-0700 (Pacific Daylight Time)","532840","3","1","image-keyboard-response","13","99304","0.0-5.0-1.4","","1240","","img/2to1/1.png","1","221","1088","0.5","0.5","2","1","",""
"","","","","5f721a81ee2a860fe028a8a4","bdp_cybrbll","Sun Apr 09 2023 16:28:04 GMT-0700 (Pacific Daylight Time)","532840","3","1","animation","14","100735","0.0-5.0-2.4","","","","","","221","","","","2","1","[{""stimulus"":""img/2to1/1.png"",""time"":108},{""stimulus"":""img/2to1/2.png"",""time"":217},{""stimulus"":""img/2to1/3.png"",""time"":329},{""stimulus"":""img/2to1/4.png"",""time"":439},{""stimulus"":""img/2to1/5.png"",""time"":550},{""stimulus"":""img/2to1/6.png"",""time"":662},{""stimulus"":""img/2to1/7.png"",""time"":774},{""stimulus"":""img/2to1/8.png"",""time"":881},{""stimulus"":""img/2to1/9.png"",""time"":990},{""stimulus"":""img/2to1/10.png"",""time"":1100},{""stimulus"":""img/2to1/11.png"",""time"":1213},{""stimulus"":""img/2to1/12.png"",""time"":1323}]","[]"
"","","","observe","5f721a81ee2a860fe028a8a4","bdp_cybrbll","Sun Apr 09 2023 16:28:04 GMT-0700 (Pacific Daylight Time)","532840","3","1","image-keyboard-response","15","100939","0.0-5.0-1.5","","null","","img/1to3/1.png","null","220","198","0.5","0.5","1","3","",""
"","","","","5f721a81ee2a860fe028a8a4","bdp_cybrbll","Sun Apr 09 2023 16:28:04 GMT-0700 (Pacific Daylight Time)","532840","3","1","animation","16","102360","0.0-5.0-2.5","","","","","","220","","","","1","3","[{""stimulus"":""img/1to3/1.png"",""time"":110},{""stimulus"":""img/1to3/2.png"",""time"":218},{""stimulus"":""img/1to3/3.png"",""time"":330},{""stimulus"":""img/1to3/4.png"",""time"":440},{""stimulus"":""img/1to3/5.png"",""time"":548},{""stimulus"":""img/1to3/6.png"",""time"":658},{""stimulus"":""img/1to3/7.png"",""time"":770},{""stimulus"":""img/1to3/8.png"",""time"":878},{""stimulus"":""img/1to3/9.png"",""time"":988},{""stimulus"":""img/1to3/10.png"",""time"":1096},{""stimulus"":""img/1to3/11.png"",""time"":1204},{""stimulus"":""img/1to3/12.png"",""time"":1311}]","[]"
"","","","observe","5f721a81ee2a860fe028a8a4","bdp_cybrbll","Sun Apr 09 2023 16:28:04 GMT-0700 (Pacific Daylight Time)","532840","3","1","image-keyboard-response","17","102595","0.0-5.0-1.6","","null","","img/3to2/1.png","null","219","222","0.5","0.5","3","2","",""
"","","","","5f721a81ee2a860fe028a8a4","bdp_cybrbll","Sun Apr 09 2023 16:28:04 GMT-0700 (Pacific Daylight Time)","532840","3","1","animation","18","104009","0.0-5.0-2.6","","","","","","219","","","","3","2","[{""stimulus"":""img/3to2/1.png"",""time"":110},{""stimulus"":""img/3to2/2.png"",""time"":218},{""stimulus"":""img/3to2/3.png"",""time"":325},{""stimulus"":""img/3to2/4.png"",""time"":433},{""stimulus"":""img/3to2/5.png"",""time"":542},{""stimulus"":""img/3to2/6.png"",""time"":650},{""stimulus"":""img/3to2/7.png"",""time"":758},{""stimulus"":""img/3to2/8.png"",""time"":865},{""stimulus"":""img/3to2/9.png"",""time"":972},{""stimulus"":""img/3to2/10.png"",""time"":1084},{""stimulus"":""img/3to2/11.png"",""time"":1192},{""stimulus"":""img/3to2/12.png"",""time"":1304}]","[]"
"","","","choice","5f721a81ee2a860fe028a8a4","bdp_cybrbll","Sun Apr 09 2023 16:28:04 GMT-0700 (Pacific Daylight Time)","532840","3","1","image-keyboard-response","19","104518","0.0-5.0-1.7","","509","","img/2to1/1.png","1","218","616","0.5","0.5","2","1","",""
"","","","","5f721a81ee2a860fe028a8a4","bdp_cybrbll","Sun Apr 09 2023 16:28:04 GMT-0700 (Pacific Daylight Time)","532840","3","1","animation","20","105939","0.0-5.0-2.7","","","","","","218","","","","2","1","[{""stimulus"":""img/2to1/1.png"",""time"":103},{""stimulus"":""img/2to1/2.png"",""time"":213},{""stimulus"":""img/2to1/3.png"",""time"":322},{""stimulus"":""img/2to1/4.png"",""time"":432},{""stimulus"":""img/2to1/5.png"",""time"":540},{""stimulus"":""img/2to1/6.png"",""time"":650},{""stimulus"":""img/2to1/7.png"",""time"":760},{""stimulus"":""img/2to1/8.png"",""time"":873},{""stimulus"":""img/2to1/9.png"",""time"":981},{""stimulus"":""img/2to1/10.png"",""time"":1091},{""stimulus"":""img/2to1/11.png"",""time"":1200},{""stimulus"":""img/2to1/12.png"",""time"":1312}]","[]"
"","","","observe","5f721a81ee2a860fe028a8a4","bdp_cybrbll","Sun Apr 09 2023 16:28:04 GMT-0700 (Pacific Daylight Time)","532840","3","1","image-keyboard-response","21","106778","0.0-5.0-1.8","","null","","img/1to3/1.png","null","217","833","0.5","0.5","1","2","",""
"","","","","5f721a81ee2a860fe028a8a4","bdp_cybrbll","Sun Apr 09 2023 16:28:04 GMT-0700 (Pacific Daylight Time)","532840","3","1","animation","22","108198","0.0-5.0-2.8","","","","","","217","","","","1","2","[{""stimulus"":""img/1to2/1.png"",""time"":108},{""stimulus"":""img/1to2/2.png"",""time"":219},{""stimulus"":""img/1to2/3.png"",""time"":329},{""stimulus"":""img/1to2/4.png"",""time"":439},{""stimulus"":""img/1to2/5.png"",""time"":547},{""stimulus"":""img/1to2/6.png"",""time"":655},{""stimulus"":""img/1to2/7.png"",""time"":763},{""stimulus"":""img/1to2/8.png"",""time"":871},{""stimulus"":""img/1to2/9.png"",""time"":981},{""stimulus"":""img/1to2/10.png"",""time"":1091},{""stimulus"":""img/1to2/11.png"",""time"":1202},{""stimulus"":""img/1to2/12.png"",""time"":1311}]","[]"
"","","","choice","5f721a81ee2a860fe028a8a4","bdp_cybrbll","Sun Apr 09 2023 16:28:04 GMT-0700 (Pacific Daylight Time)","532840","3","1","image-keyboard-response","23","108646","0.0-5.0-1.9","","448","","img/2to1/1.png","2","216","292","0.5","0.5","2","3","",""
"","","","","5f721a81ee2a860fe028a8a4","bdp_cybrbll","Sun Apr 09 2023 16:28:04 GMT-0700 (Pacific Daylight Time)","532840","3","1","animation","24","110069","0.0-5.0-2.9","","","","","","216","","","","2","3","[{""stimulus"":""img/2to3/1.png"",""time"":112},{""stimulus"":""img/2to3/2.png"",""time"":220},{""stimulus"":""img/2to3/3.png"",""time"":330},{""stimulus"":""img/2to3/4.png"",""time"":440},{""stimulus"":""img/2to3/5.png"",""time"":550},{""stimulus"":""img/2to3/6.png"",""time"":657},{""stimulus"":""img/2to3/7.png"",""time"":768},{""stimulus"":""img/2to3/8.png"",""time"":878},{""stimulus"":""img/2to3/9.png"",""time"":986},{""stimulus"":""img/2to3/10.png"",""time"":1093},{""stimulus"":""img/2to3/11.png"",""time"":1201},{""stimulus"":""img/2to3/12.png"",""time"":1311}]","[]"
"","","","observe","5f721a81ee2a860fe028a8a4","bdp_cybrbll","Sun Apr 09 2023 16:28:04 GMT-0700 (Pacific Daylight Time)","532840","3","1","image-keyboard-response","25","110879","0.0-5.0-1.10","","null","","img/3to2/1.png","null","215","803","0.5","0.5","3","2","",""
"","","","","5f721a81ee2a860fe028a8a4","bdp_cybrbll","Sun Apr 09 2023 16:28:04 GMT-0700 (Pacific Daylight Time)","532840","3","1","animation","26","112292","0.0-5.0-2.10","","","","","","215","","","","3","2","[{""stimulus"":""img/3to2/1.png"",""time"":110},{""stimulus"":""img/3to2/2.png"",""time"":220},{""stimulus"":""img/3to2/3.png"",""time"":329},{""stimulus"":""img/3to2/4.png"",""time"":438},{""stimulus"":""img/3to2/5.png"",""time"":545},{""stimulus"":""img/3to2/6.png"",""time"":654},{""stimulus"":""img/3to2/7.png"",""time"":762},{""stimulus"":""img/3to2/8.png"",""time"":872},{""stimulus"":""img/3to2/9.png"",""time"":980},{""stimulus"":""img/3to2/10.png"",""time"":1087},{""stimulus"":""img/3to2/11.png"",""time"":1196},{""stimulus"":""img/3to2/12.png"",""time"":1306}]","[]"
"","","","choice","5f721a81ee2a860fe028a8a4","bdp_cybrbll","Sun Apr 09 2023 16:28:04 GMT-0700 (Pacific Daylight Time)","532840","3","1","image-keyboard-response","27","112727","0.0-5.0-1.11","","435","","img/2to1/1.png","1","214","413","0.5","0.5","2","1","",""
"","","","","5f721a81ee2a860fe028a8a4","bdp_cybrbll","Sun Apr 09 2023 16:28:04 GMT-0700 (Pacific Daylight Time)","532840","3","1","animation","28","114144","0.0-5.0-2.11","","","","","","214","","","","2","1","[{""stimulus"":""img/2to1/1.png"",""time"":111},{""stimulus"":""img/2to1/2.png"",""time"":223},{""stimulus"":""img/2to1/3.png"",""time"":333},{""stimulus"":""img/2to1/4.png"",""time"":439},{""stimulus"":""img/2to1/5.png"",""time"":550},{""stimulus"":""img/2to1/6.png"",""time"":658},{""stimulus"":""img/2to1/7.png"",""time"":767},{""stimulus"":""img/2to1/8.png"",""time"":876},{""stimulus"":""img/2to1/9.png"",""time"":984},{""stimulus"":""img/2to1/10.png"",""time"":1091},{""stimulus"":""img/2to1/11.png"",""time"":1201},{""stimulus"":""img/2to1/12.png"",""time"":1309}]","[]"
"","","","observe","5f721a81ee2a860fe028a8a4","bdp_cybrbll","Sun Apr 09 2023 16:28:04 GMT-0700 (Pacific Daylight Time)","532840","3","1","image-keyboard-response","29","115089","0.0-5.0-1.12","","null","","img/1to3/1.png","null","213","928","0.5","0.5","1","3","",""
"","","","","5f721a81ee2a860fe028a8a4","bdp_cybrbll","Sun Apr 09 2023 16:28:04 GMT-0700 (Pacific Daylight Time)","532840","3","1","animation","30","116510","0.0-5.0-2.12","","","","","","213","","","","1","3","[{""stimulus"":""img/1to3/1.png"",""time"":109},{""stimulus"":""img/1to3/2.png"",""time"":218},{""stimulus"":""img/1to3/3.png"",""time"":330},{""stimulus"":""img/1to3/4.png"",""time"":440},{""stimulus"":""img/1to3/5.png"",""time"":551},{""stimulus"":""img/1to3/6.png"",""time"":661},{""stimulus"":""img/1to3/7.png"",""time"":772},{""stimulus"":""img/1to3/8.png"",""time"":880},{""stimulus"":""img/1to3/9.png"",""time"":988},{""stimulus"":""img/1to3/10.png"",""time"":1096},{""stimulus"":""img/1to3/11.png"",""time"":1205},{""stimulus"":""img/1to3/12.png"",""time"":1314}]","[]"
"","","","observe","5f721a81ee2a860fe028a8a4","bdp_cybrbll","Sun Apr 09 2023 16:28:04 GMT-0700 (Pacific Daylight Time)","532840","3","1","image-keyboard-response","31","116744","0.0-5.0-1.13","","null","","img/3to2/1.png","null","212","224","0.5","0.5","3","2","",""
"","","","","5f721a81ee2a860fe028a8a4","bdp_cybrbll","Sun Apr 09 2023 16:28:04 GMT-0700 (Pacific Daylight Time)","532840","3","1","animation","32","118162","0.0-5.0-2.13","","","","","","212","","","","3","2","[{""stimulus"":""img/3to2/1.png"",""time"":108},{""stimulus"":""img/3to2/2.png"",""time"":218},{""stimulus"":""img/3to2/3.png"",""time"":326},{""stimulus"":""img/3to2/4.png"",""time"":434},{""stimulus"":""img/3to2/5.png"",""time"":543},{""stimulus"":""img/3to2/6.png"",""time"":654},{""stimulus"":""img/3to2/7.png"",""time"":763},{""stimulus"":""img/3to2/8.png"",""time"":873},{""stimulus"":""img/3to2/9.png"",""time"":982},{""stimulus"":""img/3to2/10.png"",""time"":1092},{""stimulus"":""img/3to2/11.png"",""time"":1201},{""stimulus"":""img/3to2/12.png"",""time"":1310}]","[]"
"","","","choice","5f721a81ee2a860fe028a8a4","bdp_cybrbll","Sun Apr 09 2023 16:28:04 GMT-0700 (Pacific Daylight Time)","532840","3","1","image-keyboard-response","33","118951","0.0-5.0-1.14","","789","","img/2to1/1.png","1","211","322","0.5","0.5","2","1","",""
"","","","","5f721a81ee2a860fe028a8a4","bdp_cybrbll","Sun Apr 09 2023 16:28:04 GMT-0700 (Pacific Daylight Time)","532840","3","1","animation","34","120361","0.0-5.0-2.14","","","","","","211","","","","2","1","[{""stimulus"":""img/2to1/1.png"",""time"":100},{""stimulus"":""img/2to1/2.png"",""time"":209},{""stimulus"":""img/2to1/3.png"",""time"":318},{""stimulus"":""img/2to1/4.png"",""time"":427},{""stimulus"":""img/2to1/5.png"",""time"":538},{""stimulus"":""img/2to1/6.png"",""time"":648},{""stimulus"":""img/2to1/7.png"",""time"":756},{""stimulus"":""img/2to1/8.png"",""time"":863},{""stimulus"":""img/2to1/9.png"",""time"":973},{""stimulus"":""img/2to1/10.png"",""time"":1080},{""stimulus"":""img/2to1/11.png"",""time"":1189},{""stimulus"":""img/2to1/12.png"",""time"":1300}]","[]"
"","","","observe","5f721a81ee2a860fe028a8a4","bdp_cybrbll","Sun Apr 09 2023 16:28:04 GMT-0700 (Pacific Daylight Time)","532840","3","1","image-keyboard-response","35","120721","0.0-5.0-1.15","","null","","img/1to3/1.png","null","210","348","0.5","0.5","1","3","",""
"","","","","5f721a81ee2a860fe028a8a4","bdp_cybrbll","Sun Apr 09 2023 16:28:04 GMT-0700 (Pacific Daylight Time)","532840","3","1","animation","36","122140","0.0-5.0-2.15","","","","","","210","","","","1","3","[{""stimulus"":""img/1to3/1.png"",""time"":112},{""stimulus"":""img/1to3/2.png"",""time"":220},{""stimulus"":""img/1to3/3.png"",""time"":328},{""stimulus"":""img/1to3/4.png"",""time"":438},{""stimulus"":""img/1to3/5.png"",""time"":548},{""stimulus"":""img/1to3/6.png"",""time"":657},{""stimulus"":""img/1to3/7.png"",""time"":763},{""stimulus"":""img/1to3/8.png"",""time"":871},{""stimulus"":""img/1to3/9.png"",""time"":981},{""stimulus"":""img/1to3/10.png"",""time"":1092},{""stimulus"":""img/1to3/11.png"",""time"":1204},{""stimulus"":""img/1to3/12.png"",""time"":1312}]","[]"
"","","","observe","5f721a81ee2a860fe028a8a4","bdp_cybrbll","Sun Apr 09 2023 16:28:04 GMT-0700 (Pacific Daylight Time)","532840","3","1","image-keyboard-response","37","122341","0.0-5.0-1.16","","null","","img/3to2/1.png","null","209","187","0.5","0.5","3","1","",""
"","","","","5f721a81ee2a860fe028a8a4","bdp_cybrbll","Sun Apr 09 2023 16:28:04 GMT-0700 (Pacific Daylight Time)","532840","3","1","animation","38","123761","0.0-5.0-2.16","","","","","","209","","","","3","1","[{""stimulus"":""img/3to1/1.png"",""time"":110},{""stimulus"":""img/3to1/2.png"",""time"":219},{""stimulus"":""img/3to1/3.png"",""time"":328},{""stimulus"":""img/3to1/4.png"",""time"":438},{""stimulus"":""img/3to1/5.png"",""time"":547},{""stimulus"":""img/3to1/6.png"",""time"":656},{""stimulus"":""img/3to1/7.png"",""time"":768},{""stimulus"":""img/3to1/8.png"",""time"":877},{""stimulus"":""img/3to1/9.png"",""time"":988},{""stimulus"":""img/3to1/10.png"",""time"":1097},{""stimulus"":""img/3to1/11.png"",""time"":1207},{""stimulus"":""img/3to1/12.png"",""time"":1313}]","[]"
"","","","observe","5f721a81ee2a860fe028a8a4","bdp_cybrbll","Sun Apr 09 2023 16:28:04 GMT-0700 (Pacific Daylight Time)","532840","3","1","image-keyboard-response","39","124435","0.0-5.0-1.17","","null","","img/1to3/1.png","null","208","672","0.5","0.5","1","3","",""
"","","","","5f721a81ee2a860fe028a8a4","bdp_cybrbll","Sun Apr 09 2023 16:28:04 GMT-0700 (Pacific Daylight Time)","532840","3","1","animation","40","125867","0.0-5.0-2.17","","","","","","208","","","","1","3","[{""stimulus"":""img/1to3/1.png"",""time"":112},{""stimulus"":""img/1to3/2.png"",""time"":220},{""stimulus"":""img/1to3/3.png"",""time"":332},{""stimulus"":""img/1to3/4.png"",""time"":443},{""stimulus"":""img/1to3/5.png"",""time"":553},{""stimulus"":""img/1to3/6.png"",""time"":665},{""stimulus"":""img/1to3/7.png"",""time"":776},{""stimulus"":""img/1to3/8.png"",""time"":886},{""stimulus"":""img/1to3/9.png"",""time"":994},{""stimulus"":""img/1to3/10.png"",""time"":1106},{""stimulus"":""img/1to3/11.png"",""time"":1215},{""stimulus"":""img/1to3/12.png"",""time"":1323}]","[]"
"","","","observe","5f721a81ee2a860fe028a8a4","bdp_cybrbll","Sun Apr 09 2023 16:28:04 GMT-0700 (Pacific Daylight Time)","532840","3","1","image-keyboard-response","41","126542","0.0-5.0-1.18","","null","","img/3to2/1.png","null","207","668","0.5","0.5","3","1","",""
"","","","","5f721a81ee2a860fe028a8a4","bdp_cybrbll","Sun Apr 09 2023 16:28:04 GMT-0700 (Pacific Daylight Time)","532840","3","1","animation","42","127956","0.0-5.0-2.18","","","","","","207","","","","3","1","[{""stimulus"":""img/3to1/1.png"",""time"":111},{""stimulus"":""img/3to1/2.png"",""time"":222},{""stimulus"":""img/3to1/3.png"",""time"":328},{""stimulus"":""img/3to1/4.png"",""time"":437},{""stimulus"":""img/3to1/5.png"",""time"":548},{""stimulus"":""img/3to1/6.png"",""time"":657},{""stimulus"":""img/3to1/7.png"",""time"":764},{""stimulus"":""img/3to1/8.png"",""time"":871},{""stimulus"":""img/3to1/9.png"",""time"":978},{""stimulus"":""img/3to1/10.png"",""time"":1087},{""stimulus"":""img/3to1/11.png"",""time"":1196},{""stimulus"":""img/3to1/12.png"",""time"":1305}]","[]"
"","","","observe","5f721a81ee2a860fe028a8a4","bdp_cybrbll","Sun Apr 09 2023 16:28:04 GMT-0700 (Pacific Daylight Time)","532840","3","1","image-keyboard-response","43","128315","0.0-5.0-1.19","","null","","img/1to3/1.png","null","206","349","0.5","0.5","1","3","",""
"","","","","5f721a81ee2a860fe028a8a4","bdp_cybrbll","Sun Apr 09 2023 16:28:04 GMT-0700 (Pacific Daylight Time)","532840","3","1","animation","44","129750","0.0-5.0-2.19","","","","","","206","","","","1","3","[{""stimulus"":""img/1to3/1.png"",""time"":112},{""stimulus"":""img/1to3/2.png"",""time"":220},{""stimulus"":""img/1to3/3.png"",""time"":330},{""stimulus"":""img/1to3/4.png"",""time"":439},{""stimulus"":""img/1to3/5.png"",""time"":550},{""stimulus"":""img/1to3/6.png"",""time"":661},{""stimulus"":""img/1to3/7.png"",""time"":772},{""stimulus"":""img/1to3/8.png"",""time"":882},{""stimulus"":""img/1to3/9.png"",""time"":992},{""stimulus"":""img/1to3/10.png"",""time"":1104},{""stimulus"":""img/1to3/11.png"",""time"":1216},{""stimulus"":""img/1to3/12.png"",""time"":1327}]","[]"
"","","","observe","5f721a81ee2a860fe028a8a4","bdp_cybrbll","Sun Apr 09 2023 16:28:04 GMT-0700 (Pacific Daylight Time)","532840","3","1","image-keyboard-response","45","129981","0.0-5.0-1.20","","null","","img/3to2/1.png","null","205","218","0.5","0.5","3","1","",""
"","","","","5f721a81ee2a860fe028a8a4","bdp_cybrbll","Sun Apr 09 2023 16:28:04 GMT-0700 (Pacific Daylight Time)","532840","3","1","animation","46","131404","0.0-5.0-2.20","","","","","","205","","","","3","1","[{""stimulus"":""img/3to1/1.png"",""time"":112},{""stimulus"":""img/3to1/2.png"",""time"":220},{""stimulus"":""img/3to1/3.png"",""time"":329},{""stimulus"":""img/3to1/4.png"",""time"":440},{""stimulus"":""img/3to1/5.png"",""time"":548},{""stimulus"":""img/3to1/6.png"",""time"":658},{""stimulus"":""img/3to1/7.png"",""time"":768},{""stimulus"":""img/3to1/8.png"",""time"":876},{""stimulus"":""img/3to1/9.png"",""time"":984},{""stimulus"":""img/3to1/10.png"",""time"":1096},{""stimulus"":""img/3to1/11.png"",""time"":1204},{""stimulus"":""img/3to1/12.png"",""time"":1314}]","[]"
"","","","observe","5f721a81ee2a860fe028a8a4","bdp_cybrbll","Sun Apr 09 2023 16:28:04 GMT-0700 (Pacific Daylight Time)","532840","3","1","image-keyboard-response","47","132275","0.0-5.0-1.21","","null","","img/1to3/1.png","null","204","859","0.5","0.5","1","3","",""
"","","","","5f721a81ee2a860fe028a8a4","bdp_cybrbll","Sun Apr 09 2023 16:28:04 GMT-0700 (Pacific Daylight Time)","532840","3","1","animation","48","133708","0.0-5.0-2.21","","","","","","204","","","","1","3","[{""stimulus"":""img/1to3/1.png"",""time"":110},{""stimulus"":""img/1to3/2.png"",""time"":220},{""stimulus"":""img/1to3/3.png"",""time"":329},{""stimulus"":""img/1to3/4.png"",""time"":441},{""stimulus"":""img/1to3/5.png"",""time"":552},{""stimulus"":""img/1to3/6.png"",""time"":662},{""stimulus"":""img/1to3/7.png"",""time"":770},{""stimulus"":""img/1to3/8.png"",""time"":879},{""stimulus"":""img/1to3/9.png"",""time"":988},{""stimulus"":""img/1to3/10.png"",""time"":1100},{""stimulus"":""img/1to3/11.png"",""time"":1210},{""stimulus"":""img/1to3/12.png"",""time"":1321}]","[]"
"","","","observe","5f721a81ee2a860fe028a8a4","bdp_cybrbll","Sun Apr 09 2023 16:28:04 GMT-0700 (Pacific Daylight Time)","532840","3","1","image-keyboard-response","49","134107","0.0-5.0-1.22","","null","","img/3to2/1.png","null","203","390","0.5","0.5","3","1","",""
"","","","","5f721a81ee2a860fe028a8a4","bdp_cybrbll","Sun Apr 09 2023 16:28:04 GMT-0700 (Pacific Daylight Time)","532840","3","1","animation","50","135529","0.0-5.0-2.22","","","","","","203","","","","3","1","[{""stimulus"":""img/3to1/1.png"",""time"":110},{""stimulus"":""img/3to1/2.png"",""time"":216},{""stimulus"":""img/3to1/3.png"",""time"":327},{""stimulus"":""img/3to1/4.png"",""time"":438},{""stimulus"":""img/3to1/5.png"",""time"":548},{""stimulus"":""img/3to1/6.png"",""time"":660},{""stimulus"":""img/3to1/7.png"",""time"":769},{""stimulus"":""img/3to1/8.png"",""time"":876},{""stimulus"":""img/3to1/9.png"",""time"":985},{""stimulus"":""img/3to1/10.png"",""time"":1095},{""stimulus"":""img/3to1/11.png"",""time"":1205},{""stimulus"":""img/3to1/12.png"",""time"":1312}]","[]"
"","","","observe","5f721a81ee2a860fe028a8a4","bdp_cybrbll","Sun Apr 09 2023 16:28:04 GMT-0700 (Pacific Daylight Time)","532840","3","1","image-keyboard-response","51","136013","0.0-5.0-1.23","","null","","img/1to3/1.png","null","202","472","0.5","0.5","1","2","",""
"","","","","5f721a81ee2a860fe028a8a4","bdp_cybrbll","Sun Apr 09 2023 16:28:04 GMT-0700 (Pacific Daylight Time)","532840","3","1","animation","52","137444","0.0-5.0-2.23","","","","","","202","","","","1","2","[{""stimulus"":""img/1to2/1.png"",""time"":109},{""stimulus"":""img/1to2/2.png"",""time"":217},{""stimulus"":""img/1to2/3.png"",""time"":327},{""stimulus"":""img/1to2/4.png"",""time"":438},{""stimulus"":""img/1to2/5.png"",""time"":548},{""stimulus"":""img/1to2/6.png"",""time"":655},{""stimulus"":""img/1to2/7.png"",""time"":766},{""stimulus"":""img/1to2/8.png"",""time"":878},{""stimulus"":""img/1to2/9.png"",""time"":990},{""stimulus"":""img/1to2/10.png"",""time"":1102},{""stimulus"":""img/1to2/11.png"",""time"":1212},{""stimulus"":""img/1to2/12.png"",""time"":1322}]","[]"
"","","","choice","5f721a81ee2a860fe028a8a4","bdp_cybrbll","Sun Apr 09 2023 16:28:04 GMT-0700 (Pacific Daylight Time)","532840","3","1","image-keyboard-response","53","138103","0.0-5.0-1.24","","659","","img/2to1/1.png","2","201","940","0.5","0.5","2","3","",""
"","","","","5f721a81ee2a860fe028a8a4","bdp_cybrbll","Sun Apr 09 2023 16:28:04 GMT-0700 (Pacific Daylight Time)","532840","3","1","animation","54","139522","0.0-5.0-2.24","","","","","","201","","","","2","3","[{""stimulus"":""img/2to3/1.png"",""time"":114},{""stimulus"":""img/2to3/2.png"",""time"":222},{""stimulus"":""img/2to3/3.png"",""time"":331},{""stimulus"":""img/2to3/4.png"",""time"":440},{""stimulus"":""img/2to3/5.png"",""time"":547},{""stimulus"":""img/2to3/6.png"",""time"":658},{""stimulus"":""img/2to3/7.png"",""time"":767},{""stimulus"":""img/2to3/8.png"",""time"":874},{""stimulus"":""img/2to3/9.png"",""time"":984},{""stimulus"":""img/2to3/10.png"",""time"":1091},{""stimulus"":""img/2to3/11.png"",""time"":1199},{""stimulus"":""img/2to3/12.png"",""time"":1309}]","[]"
"","","","observe","5f721a81ee2a860fe028a8a4","bdp_cybrbll","Sun Apr 09 2023 16:28:04 GMT-0700 (Pacific Daylight Time)","532840","3","1","image-keyboard-response","55","140115","0.0-5.0-1.25","","null","","img/3to2/1.png","null","200","585","0.5","0.5","3","1","",""
"","","","","5f721a81ee2a860fe028a8a4","bdp_cybrbll","Sun Apr 09 2023 16:28:04 GMT-0700 (Pacific Daylight Time)","532840","3","1","animation","56","141530","0.0-5.0-2.25","","","","","","200","","","","3","1","[{""stimulus"":""img/3to1/1.png"",""time"":110},{""stimulus"":""img/3to1/2.png"",""time"":221},{""stimulus"":""img/3to1/3.png"",""time"":329},{""stimulus"":""img/3to1/4.png"",""time"":436},{""stimulus"":""img/3to1/5.png"",""time"":545},{""stimulus"":""img/3to1/6.png"",""time"":655},{""stimulus"":""img/3to1/7.png"",""time"":764},{""stimulus"":""img/3to1/8.png"",""time"":871},{""stimulus"":""img/3to1/9.png"",""time"":980},{""stimulus"":""img/3to1/10.png"",""time"":1092},{""stimulus"":""img/3to1/11.png"",""time"":1200},{""stimulus"":""img/3to1/12.png"",""time"":1308}]","[]"
"","","","observe","5f721a81ee2a860fe028a8a4","bdp_cybrbll","Sun Apr 09 2023 16:28:04 GMT-0700 (Pacific Daylight Time)","532840","3","1","image-keyboard-response","57","141781","0.0-5.0-1.26","","null","","img/1to3/1.png","null","199","236","0.5","0.5","1","3","",""
"","","","","5f721a81ee2a860fe028a8a4","bdp_cybrbll","Sun Apr 09 2023 16:28:04 GMT-0700 (Pacific Daylight Time)","532840","3","1","animation","58","143197","0.0-5.0-2.26","","","","","","199","","","","1","3","[{""stimulus"":""img/1to3/1.png"",""time"":109},{""stimulus"":""img/1to3/2.png"",""time"":219},{""stimulus"":""img/1to3/3.png"",""time"":329},{""stimulus"":""img/1to3/4.png"",""time"":439},{""stimulus"":""img/1to3/5.png"",""time"":548},{""stimulus"":""img/1to3/6.png"",""time"":658},{""stimulus"":""img/1to3/7.png"",""time"":765},{""stimulus"":""img/1to3/8.png"",""time"":873},{""stimulus"":""img/1to3/9.png"",""time"":983},{""stimulus"":""img/1to3/10.png"",""time"":1091},{""stimulus"":""img/1to3/11.png"",""time"":1200},{""stimulus"":""img/1to3/12.png"",""time"":1309}]","[]"
"","","","observe","5f721a81ee2a860fe028a8a4","bdp_cybrbll","Sun Apr 09 2023 16:28:04 GMT-0700 (Pacific Daylight Time)","532840","3","1","image-keyboard-response","59","143777","0.0-5.0-1.27","","null","","img/3to2/1.png","null","198","575","0.5","0.5","3","2","",""
"","","","","5f721a81ee2a860fe028a8a4","bdp_cybrbll","Sun Apr 09 2023 16:28:04 GMT-0700 (Pacific Daylight Time)","532840","3","1","animation","60","145204","0.0-5.0-2.27","","","","","","198","","","","3","2","[{""stimulus"":""img/3to2/1.png"",""time"":110},{""stimulus"":""img/3to2/2.png"",""time"":218},{""stimulus"":""img/3to2/3.png"",""time"":328},{""stimulus"":""img/3to2/4.png"",""time"":438},{""stimulus"":""img/3to2/5.png"",""time"":550},{""stimulus"":""img/3to2/6.png"",""time"":658},{""stimulus"":""img/3to2/7.png"",""time"":767},{""stimulus"":""img/3to2/8.png"",""time"":876},{""stimulus"":""img/3to2/9.png"",""time"":986},{""stimulus"":""img/3to2/10.png"",""time"":1097},{""stimulus"":""img/3to2/11.png"",""time"":1207},{""stimulus"":""img/3to2/12.png"",""time"":1317}]","[]"
"","","","choice","5f721a81ee2a860fe028a8a4","bdp_cybrbll","Sun Apr 09 2023 16:28:04 GMT-0700 (Pacific Daylight Time)","532840","3","1","image-keyboard-response","61","145782","0.0-5.0-1.28","","576","","img/2to1/1.png","1","197","399","0.5","0.5","2","1","",""
"","","","","5f721a81ee2a860fe028a8a4","bdp_cybrbll","Sun Apr 09 2023 16:28:04 GMT-0700 (Pacific Daylight Time)","532840","3","1","animation","62","147196","0.0-5.0-2.28","","","","","","197","","","","2","1","[{""stimulus"":""img/2to1/1.png"",""time"":108},{""stimulus"":""img/2to1/2.png"",""time"":217},{""stimulus"":""img/2to1/3.png"",""time"":324},{""stimulus"":""img/2to1/4.png"",""time"":434},{""stimulus"":""img/2to1/5.png"",""time"":545},{""stimulus"":""img/2to1/6.png"",""time"":655},{""stimulus"":""img/2to1/7.png"",""time"":765},{""stimulus"":""img/2to1/8.png"",""time"":875},{""stimulus"":""img/2to1/9.png"",""time"":981},{""stimulus"":""img/2to1/10.png"",""time"":1089},{""stimulus"":""img/2to1/11.png"",""time"":1199},{""stimulus"":""img/2to1/12.png"",""time"":1305}]","[]"
"","","","observe","5f721a81ee2a860fe028a8a4","bdp_cybrbll","Sun Apr 09 2023 16:28:04 GMT-0700 (Pacific Daylight Time)","532840","3","1","image-keyboard-response","63","147544","0.0-5.0-1.29","","null","","img/1to3/1.png","null","196","335","0.5","0.5","1","3","",""
"","","","","5f721a81ee2a860fe028a8a4","bdp_cybrbll","Sun Apr 09 2023 16:28:04 GMT-0700 (Pacific Daylight Time)","532840","3","1","animation","64","148965","0.0-5.0-2.29","","","","","","196","","","","1","3","[{""stimulus"":""img/1to3/1.png"",""time"":109},{""stimulus"":""img/1to3/2.png"",""time"":217},{""stimulus"":""img/1to3/3.png"",""time"":325},{""stimulus"":""img/1to3/4.png"",""time"":434},{""stimulus"":""img/1to3/5.png"",""time"":543},{""stimulus"":""img/1to3/6.png"",""time"":653},{""stimulus"":""img/1to3/7.png"",""time"":761},{""stimulus"":""img/1to3/8.png"",""time"":871},{""stimulus"":""img/1to3/9.png"",""time"":979},{""stimulus"":""img/1to3/10.png"",""time"":1088},{""stimulus"":""img/1to3/11.png"",""time"":1198},{""stimulus"":""img/1to3/12.png"",""time"":1309}]","[]"
"","","","observe","5f721a81ee2a860fe028a8a4","bdp_cybrbll","Sun Apr 09 2023 16:28:04 GMT-0700 (Pacific Daylight Time)","532840","3","1","image-keyboard-response","65","149360","0.0-5.0-1.30","","null","","img/3to2/1.png","null","195","384","0.5","0.5","3","2","",""
"","","","","5f721a81ee2a860fe028a8a4","bdp_cybrbll","Sun Apr 09 2023 16:28:04 GMT-0700 (Pacific Daylight Time)","532840","3","1","animation","66","150776","0.0-5.0-2.30","","","","","","195","","","","3","2","[{""stimulus"":""img/3to2/1.png"",""time"":113},{""stimulus"":""img/3to2/2.png"",""time"":222},{""stimulus"":""img/3to2/3.png"",""time"":330},{""stimulus"":""img/3to2/4.png"",""time"":439},{""stimulus"":""img/3to2/5.png"",""time"":547},{""stimulus"":""img/3to2/6.png"",""time"":655},{""stimulus"":""img/3to2/7.png"",""time"":765},{""stimulus"":""img/3to2/8.png"",""time"":871},{""stimulus"":""img/3to2/9.png"",""time"":980},{""stimulus"":""img/3to2/10.png"",""time"":1088},{""stimulus"":""img/3to2/11.png"",""time"":1199},{""stimulus"":""img/3to2/12.png"",""time"":1309}]","[]"
"","","","choice","5f721a81ee2a860fe028a8a4","bdp_cybrbll","Sun Apr 09 2023 16:28:04 GMT-0700 (Pacific Daylight Time)","532840","3","1","image-keyboard-response","67","151511","0.0-5.0-1.31","","734","","img/2to1/1.png","1","194","484","0.5","0.5","2","1","",""
"","","","","5f721a81ee2a860fe028a8a4","bdp_cybrbll","Sun Apr 09 2023 16:28:04 GMT-0700 (Pacific Daylight Time)","532840","3","1","animation","68","152925","0.0-5.0-2.31","","","","","","194","","","","2","1","[{""stimulus"":""img/2to1/1.png"",""time"":102},{""stimulus"":""img/2to1/2.png"",""time"":212},{""stimulus"":""img/2to1/3.png"",""time"":322},{""stimulus"":""img/2to1/4.png"",""time"":431},{""stimulus"":""img/2to1/5.png"",""time"":540},{""stimulus"":""img/2to1/6.png"",""time"":649},{""stimulus"":""img/2to1/7.png"",""time"":758},{""stimulus"":""img/2to1/8.png"",""time"":866},{""stimulus"":""img/2to1/9.png"",""time"":973},{""stimulus"":""img/2to1/10.png"",""time"":1082},{""stimulus"":""img/2to1/11.png"",""time"":1192},{""stimulus"":""img/2to1/12.png"",""time"":1305}]","[]"
"","","","observe","5f721a81ee2a860fe028a8a4","bdp_cybrbll","Sun Apr 09 2023 16:28:04 GMT-0700 (Pacific Daylight Time)","532840","3","1","image-keyboard-response","69","153427","0.0-5.0-1.32","","null","","img/1to3/1.png","null","193","487","0.5","0.5","1","3","",""
"","","","","5f721a81ee2a860fe028a8a4","bdp_cybrbll","Sun Apr 09 2023 16:28:04 GMT-0700 (Pacific Daylight Time)","532840","3","1","animation","70","154845","0.0-5.0-2.32","","","","","","193","","","","1","3","[{""stimulus"":""img/1to3/1.png"",""time"":110},{""stimulus"":""img/1to3/2.png"",""time"":218},{""stimulus"":""img/1to3/3.png"",""time"":325},{""stimulus"":""img/1to3/4.png"",""time"":436},{""stimulus"":""img/1to3/5.png"",""time"":545},{""stimulus"":""img/1to3/6.png"",""time"":654},{""stimulus"":""img/1to3/7.png"",""time"":763},{""stimulus"":""img/1to3/8.png"",""time"":870},{""stimulus"":""img/1to3/9.png"",""time"":979},{""stimulus"":""img/1to3/10.png"",""time"":1089},{""stimulus"":""img/1to3/11.png"",""time"":1199},{""stimulus"":""img/1to3/12.png"",""time"":1309}]","[]"
"","","","observe","5f721a81ee2a860fe028a8a4","bdp_cybrbll","Sun Apr 09 2023 16:28:04 GMT-0700 (Pacific Daylight Time)","532840","3","1","image-keyboard-response","71","155615","0.0-5.0-1.33","","null","","img/3to2/1.png","null","192","761","0.5","0.5","3","1","",""
"","","","","5f721a81ee2a860fe028a8a4","bdp_cybrbll","Sun Apr 09 2023 16:28:04 GMT-0700 (Pacific Daylight Time)","532840","3","1","animation","72","157043","0.0-5.0-2.33","","","","","","192","","","","3","1","[{""stimulus"":""img/3to1/1.png"",""time"":108},{""stimulus"":""img/3to1/2.png"",""time"":217},{""stimulus"":""img/3to1/3.png"",""time"":329},{""stimulus"":""img/3to1/4.png"",""time"":436},{""stimulus"":""img/3to1/5.png"",""time"":545},{""stimulus"":""img/3to1/6.png"",""time"":653},{""stimulus"":""img/3to1/7.png"",""time"":764},{""stimulus"":""img/3to1/8.png"",""time"":873},{""stimulus"":""img/3to1/9.png"",""time"":982},{""stimulus"":""img/3to1/10.png"",""time"":1094},{""stimulus"":""img/3to1/11.png"",""time"":1206},{""stimulus"":""img/3to1/12.png"",""time"":1317}]","[]"
"","","","observe","5f721a81ee2a860fe028a8a4","bdp_cybrbll","Sun Apr 09 2023 16:28:04 GMT-0700 (Pacific Daylight Time)","532840","3","1","image-keyboard-response","73","157924","0.0-5.0-1.34","","null","","img/1to3/1.png","null","191","871","0.5","0.5","1","2","",""
"","","","","5f721a81ee2a860fe028a8a4","bdp_cybrbll","Sun Apr 09 2023 16:28:04 GMT-0700 (Pacific Daylight Time)","532840","3","1","animation","74","159353","0.0-5.0-2.34","","","","","","191","","","","1","2","[{""stimulus"":""img/1to2/1.png"",""time"":112},{""stimulus"":""img/1to2/2.png"",""time"":223},{""stimulus"":""img/1to2/3.png"",""time"":333},{""stimulus"":""img/1to2/4.png"",""time"":442},{""stimulus"":""img/1to2/5.png"",""time"":553},{""stimulus"":""img/1to2/6.png"",""time"":661},{""stimulus"":""img/1to2/7.png"",""time"":773},{""stimulus"":""img/1to2/8.png"",""time"":880},{""stimulus"":""img/1to2/9.png"",""time"":989},{""stimulus"":""img/1to2/10.png"",""time"":1100},{""stimulus"":""img/1to2/11.png"",""time"":1209},{""stimulus"":""img/1to2/12.png"",""time"":1320}]","[]"
"","","","choice","5f721a81ee2a860fe028a8a4","bdp_cybrbll","Sun Apr 09 2023 16:28:04 GMT-0700 (Pacific Daylight Time)","532840","3","1","image-keyboard-response","75","160038","0.0-5.0-1.35","","685","","img/2to1/1.png","2","190","1175","0.5","0.5","2","3","",""
"","","","","5f721a81ee2a860fe028a8a4","bdp_cybrbll","Sun Apr 09 2023 16:28:04 GMT-0700 (Pacific Daylight Time)","532840","3","1","animation","76","161456","0.0-5.0-2.35","","","","","","190","","","","2","3","[{""stimulus"":""img/2to3/1.png"",""time"":108},{""stimulus"":""img/2to3/2.png"",""time"":216},{""stimulus"":""img/2to3/3.png"",""time"":329},{""stimulus"":""img/2to3/4.png"",""time"":440},{""stimulus"":""img/2to3/5.png"",""time"":547},{""stimulus"":""img/2to3/6.png"",""time"":655},{""stimulus"":""img/2to3/7.png"",""time"":765},{""stimulus"":""img/2to3/8.png"",""time"":873},{""stimulus"":""img/2to3/9.png"",""time"":980},{""stimulus"":""img/2to3/10.png"",""time"":1091},{""stimulus"":""img/2to3/11.png"",""time"":1200},{""stimulus"":""img/2to3/12.png"",""time"":1309}]","[]"
"","","","observe","5f721a81ee2a860fe028a8a4","bdp_cybrbll","Sun Apr 09 2023 16:28:04 GMT-0700 (Pacific Daylight Time)","532840","3","1","image-keyboard-response","77","161941","0.0-5.0-1.36","","null","","img/3to2/1.png","null","189","474","0.5","0.5","3","1","",""
"","","","","5f721a81ee2a860fe028a8a4","bdp_cybrbll","Sun Apr 09 2023 16:28:04 GMT-0700 (Pacific Daylight Time)","532840","3","1","animation","78","163362","0.0-5.0-2.36","","","","","","189","","","","3","1","[{""stimulus"":""img/3to1/1.png"",""time"":108},{""stimulus"":""img/3to1/2.png"",""time"":215},{""stimulus"":""img/3to1/3.png"",""time"":323},{""stimulus"":""img/3to1/4.png"",""time"":433},{""stimulus"":""img/3to1/5.png"",""time"":542},{""stimulus"":""img/3to1/6.png"",""time"":650},{""stimulus"":""img/3to1/7.png"",""time"":758},{""stimulus"":""img/3to1/8.png"",""time"":870},{""stimulus"":""img/3to1/9.png"",""time"":979},{""stimulus"":""img/3to1/10.png"",""time"":1090},{""stimulus"":""img/3to1/11.png"",""time"":1202},{""stimulus"":""img/3to1/12.png"",""time"":1310}]","[]"
"","","","observe","5f721a81ee2a860fe028a8a4","bdp_cybrbll","Sun Apr 09 2023 16:28:04 GMT-0700 (Pacific Daylight Time)","532840","3","1","image-keyboard-response","79","163598","0.0-5.0-1.37","","null","","img/1to3/1.png","null","188","228","0.5","0.5","1","2","",""
"","","","","5f721a81ee2a860fe028a8a4","bdp_cybrbll","Sun Apr 09 2023 16:28:04 GMT-0700 (Pacific Daylight Time)","532840","3","1","animation","80","165018","0.0-5.0-2.37","","","","","","188","","","","1","2","[{""stimulus"":""img/1to2/1.png"",""time"":109},{""stimulus"":""img/1to2/2.png"",""time"":220},{""stimulus"":""img/1to2/3.png"",""time"":330},{""stimulus"":""img/1to2/4.png"",""time"":440},{""stimulus"":""img/1to2/5.png"",""time"":549},{""stimulus"":""img/1to2/6.png"",""time"":659},{""stimulus"":""img/1to2/7.png"",""time"":767},{""stimulus"":""img/1to2/8.png"",""time"":876},{""stimulus"":""img/1to2/9.png"",""time"":987},{""stimulus"":""img/1to2/10.png"",""time"":1096},{""stimulus"":""img/1to2/11.png"",""time"":1206},{""stimulus"":""img/1to2/12.png"",""time"":1313}]","[]"
"","","","choice","5f721a81ee2a860fe028a8a4","bdp_cybrbll","Sun Apr 09 2023 16:28:04 GMT-0700 (Pacific Daylight Time)","532840","3","1","image-keyboard-response","81","165591","0.0-5.0-1.38","","572","","img/2to1/1.png","2","187","361","0.5","0.5","2","3","",""
"","","","","5f721a81ee2a860fe028a8a4","bdp_cybrbll","Sun Apr 09 2023 16:28:04 GMT-0700 (Pacific Daylight Time)","532840","3","1","animation","82","167000","0.0-5.0-2.38","","","","","","187","","","","2","3","[{""stimulus"":""img/2to3/1.png"",""time"":101},{""stimulus"":""img/2to3/2.png"",""time"":210},{""stimulus"":""img/2to3/3.png"",""time"":316},{""stimulus"":""img/2to3/4.png"",""time"":423},{""stimulus"":""img/2to3/5.png"",""time"":534},{""stimulus"":""img/2to3/6.png"",""time"":642},{""stimulus"":""img/2to3/7.png"",""time"":754},{""stimulus"":""img/2to3/8.png"",""time"":862},{""stimulus"":""img/2to3/9.png"",""time"":972},{""stimulus"":""img/2to3/10.png"",""time"":1081},{""stimulus"":""img/2to3/11.png"",""time"":1190},{""stimulus"":""img/2to3/12.png"",""time"":1300}]","[]"
"","","","observe","5f721a81ee2a860fe028a8a4","bdp_cybrbll","Sun Apr 09 2023 16:28:04 GMT-0700 (Pacific Daylight Time)","532840","3","1","image-keyboard-response","83","167719","0.0-5.0-1.39","","null","","img/3to2/1.png","null","186","704","0.5","0.5","3","2","",""
"","","","","5f721a81ee2a860fe028a8a4","bdp_cybrbll","Sun Apr 09 2023 16:28:04 GMT-0700 (Pacific Daylight Time)","532840","3","1","animation","84","169139","0.0-5.0-2.39","","","","","","186","","","","3","2","[{""stimulus"":""img/3to2/1.png"",""time"":110},{""stimulus"":""img/3to2/2.png"",""time"":220},{""stimulus"":""img/3to2/3.png"",""time"":328},{""stimulus"":""img/3to2/4.png"",""time"":436},{""stimulus"":""img/3to2/5.png"",""time"":546},{""stimulus"":""img/3to2/6.png"",""time"":656},{""stimulus"":""img/3to2/7.png"",""time"":766},{""stimulus"":""img/3to2/8.png"",""time"":876},{""stimulus"":""img/3to2/9.png"",""time"":984},{""stimulus"":""img/3to2/10.png"",""time"":1093},{""stimulus"":""img/3to2/11.png"",""time"":1203},{""stimulus"":""img/3to2/12.png"",""time"":1312}]","[]"
"","","","choice","5f721a81ee2a860fe028a8a4","bdp_cybrbll","Sun Apr 09 2023 16:28:04 GMT-0700 (Pacific Daylight Time)","532840","3","1","image-keyboard-response","85","169638","0.0-5.0-1.40","","499","","img/2to1/1.png","1","185","1444","0.5","0.5","2","1","",""
"","","","","5f721a81ee2a860fe028a8a4","bdp_cybrbll","Sun Apr 09 2023 16:28:04 GMT-0700 (Pacific Daylight Time)","532840","3","1","animation","86","171057","0.0-5.0-2.40","","","","","","185","","","","2","1","[{""stimulus"":""img/2to1/1.png"",""time"":108},{""stimulus"":""img/2to1/2.png"",""time"":218},{""stimulus"":""img/2to1/3.png"",""time"":329},{""stimulus"":""img/2to1/4.png"",""time"":439},{""stimulus"":""img/2to1/5.png"",""time"":546},{""stimulus"":""img/2to1/6.png"",""time"":655},{""stimulus"":""img/2to1/7.png"",""time"":763},{""stimulus"":""img/2to1/8.png"",""time"":872},{""stimulus"":""img/2to1/9.png"",""time"":980},{""stimulus"":""img/2to1/10.png"",""time"":1091},{""stimulus"":""img/2to1/11.png"",""time"":1200},{""stimulus"":""img/2to1/12.png"",""time"":1309}]","[]"
"","","","observe","5f721a81ee2a860fe028a8a4","bdp_cybrbll","Sun Apr 09 2023 16:28:04 GMT-0700 (Pacific Daylight Time)","532840","3","1","image-keyboard-response","87","171337","0.0-5.0-1.41","","null","","img/1to3/1.png","null","184","276","0.5","0.5","1","3","",""
"","","","","5f721a81ee2a860fe028a8a4","bdp_cybrbll","Sun Apr 09 2023 16:28:04 GMT-0700 (Pacific Daylight Time)","532840","3","1","animation","88","172752","0.0-5.0-2.41","","","","","","184","","","","1","3","[{""stimulus"":""img/1to3/1.png"",""time"":108},{""stimulus"":""img/1to3/2.png"",""time"":216},{""stimulus"":""img/1to3/3.png"",""time"":324},{""stimulus"":""img/1to3/4.png"",""time"":436},{""stimulus"":""img/1to3/5.png"",""time"":547},{""stimulus"":""img/1to3/6.png"",""time"":656},{""stimulus"":""img/1to3/7.png"",""time"":763},{""stimulus"":""img/1to3/8.png"",""time"":872},{""stimulus"":""img/1to3/9.png"",""time"":983},{""stimulus"":""img/1to3/10.png"",""time"":1090},{""stimulus"":""img/1to3/11.png"",""time"":1198},{""stimulus"":""img/1to3/12.png"",""time"":1308}]","[]"
"","","","observe","5f721a81ee2a860fe028a8a4","bdp_cybrbll","Sun Apr 09 2023 16:28:04 GMT-0700 (Pacific Daylight Time)","532840","3","1","image-keyboard-response","89","173124","0.0-5.0-1.42","","null","","img/3to2/1.png","null","183","362","0.5","0.5","3","2","",""
"","","","","5f721a81ee2a860fe028a8a4","bdp_cybrbll","Sun Apr 09 2023 16:28:04 GMT-0700 (Pacific Daylight Time)","532840","3","1","animation","90","174543","0.0-5.0-2.42","","","","","","183","","","","3","2","[{""stimulus"":""img/3to2/1.png"",""time"":108},{""stimulus"":""img/3to2/2.png"",""time"":216},{""stimulus"":""img/3to2/3.png"",""time"":327},{""stimulus"":""img/3to2/4.png"",""time"":436},{""stimulus"":""img/3to2/5.png"",""time"":541},{""stimulus"":""img/3to2/6.png"",""time"":650},{""stimulus"":""img/3to2/7.png"",""time"":758},{""stimulus"":""img/3to2/8.png"",""time"":869},{""stimulus"":""img/3to2/9.png"",""time"":979},{""stimulus"":""img/3to2/10.png"",""time"":1089},{""stimulus"":""img/3to2/11.png"",""time"":1199},{""stimulus"":""img/3to2/12.png"",""time"":1311}]","[]"
"","","","choice","5f721a81ee2a860fe028a8a4","bdp_cybrbll","Sun Apr 09 2023 16:28:04 GMT-0700 (Pacific Daylight Time)","532840","3","1","image-keyboard-response","91","174998","0.0-5.0-1.43","","454","","img/2to1/1.png","1","182","542","0.5","0.5","2","1","",""
"","","","","5f721a81ee2a860fe028a8a4","bdp_cybrbll","Sun Apr 09 2023 16:28:04 GMT-0700 (Pacific Daylight Time)","532840","3","1","animation","92","176412","0.0-5.0-2.43","","","","","","182","","","","2","1","[{""stimulus"":""img/2to1/1.png"",""time"":103},{""stimulus"":""img/2to1/2.png"",""time"":212},{""stimulus"":""img/2to1/3.png"",""time"":323},{""stimulus"":""img/2to1/4.png"",""time"":432},{""stimulus"":""img/2to1/5.png"",""time"":543},{""stimulus"":""img/2to1/6.png"",""time"":651},{""stimulus"":""img/2to1/7.png"",""time"":762},{""stimulus"":""img/2to1/8.png"",""time"":870},{""stimulus"":""img/2to1/9.png"",""time"":981},{""stimulus"":""img/2to1/10.png"",""time"":1087},{""stimulus"":""img/2to1/11.png"",""time"":1196},{""stimulus"":""img/2to1/12.png"",""time"":1306}]","[]"
"","","","observe","5f721a81ee2a860fe028a8a4","bdp_cybrbll","Sun Apr 09 2023 16:28:04 GMT-0700 (Pacific Daylight Time)","532840","3","1","image-keyboard-response","93","176790","0.0-5.0-1.44","","null","","img/1to3/1.png","null","181","363","0.5","0.5","1","2","",""
"","","","","5f721a81ee2a860fe028a8a4","bdp_cybrbll","Sun Apr 09 2023 16:28:04 GMT-0700 (Pacific Daylight Time)","532840","3","1","animation","94","178207","0.0-5.0-2.44","","","","","","181","","","","1","2","[{""stimulus"":""img/1to2/1.png"",""time"":108},{""stimulus"":""img/1to2/2.png"",""time"":218},{""stimulus"":""img/1to2/3.png"",""time"":325},{""stimulus"":""img/1to2/4.png"",""time"":433},{""stimulus"":""img/1to2/5.png"",""time"":543},{""stimulus"":""img/1to2/6.png"",""time"":651},{""stimulus"":""img/1to2/7.png"",""time"":762},{""stimulus"":""img/1to2/8.png"",""time"":868},{""stimulus"":""img/1to2/9.png"",""time"":977},{""stimulus"":""img/1to2/10.png"",""time"":1086},{""stimulus"":""img/1to2/11.png"",""time"":1197},{""stimulus"":""img/1to2/12.png"",""time"":1308}]","[]"
"","","","choice","5f721a81ee2a860fe028a8a4","bdp_cybrbll","Sun Apr 09 2023 16:28:04 GMT-0700 (Pacific Daylight Time)","532840","3","1","image-keyboard-response","95","178678","0.0-5.0-1.45","","470","","img/2to1/1.png","2","180","500","0.5","0.5","2","3","",""
"","","","","5f721a81ee2a860fe028a8a4","bdp_cybrbll","Sun Apr 09 2023 16:28:04 GMT-0700 (Pacific Daylight Time)","532840","3","1","animation","96","180097","0.0-5.0-2.45","","","","","","180","","","","2","3","[{""stimulus"":""img/2to3/1.png"",""time"":109},{""stimulus"":""img/2to3/2.png"",""time"":218},{""stimulus"":""img/2to3/3.png"",""time"":326},{""stimulus"":""img/2to3/4.png"",""time"":433},{""stimulus"":""img/2to3/5.png"",""time"":543},{""stimulus"":""img/2to3/6.png"",""time"":650},{""stimulus"":""img/2to3/7.png"",""time"":757},{""stimulus"":""img/2to3/8.png"",""time"":867},{""stimulus"":""img/2to3/9.png"",""time"":975},{""stimulus"":""img/2to3/10.png"",""time"":1087},{""stimulus"":""img/2to3/11.png"",""time"":1198},{""stimulus"":""img/2to3/12.png"",""time"":1307}]","[]"
"","","","observe","5f721a81ee2a860fe028a8a4","bdp_cybrbll","Sun Apr 09 2023 16:28:04 GMT-0700 (Pacific Daylight Time)","532840","3","1","image-keyboard-response","97","180401","0.0-5.0-1.46","","null","","img/3to2/1.png","null","179","303","0.5","0.5","3","2","",""
"","","","","5f721a81ee2a860fe028a8a4","bdp_cybrbll","Sun Apr 09 2023 16:28:04 GMT-0700 (Pacific Daylight Time)","532840","3","1","animation","98","181833","0.0-5.0-2.46","","","","","","179","","","","3","2","[{""stimulus"":""img/3to2/1.png"",""time"":112},{""stimulus"":""img/3to2/2.png"",""time"":222},{""stimulus"":""img/3to2/3.png"",""time"":328},{""stimulus"":""img/3to2/4.png"",""time"":437},{""stimulus"":""img/3to2/5.png"",""time"":550},{""stimulus"":""img/3to2/6.png"",""time"":660},{""stimulus"":""img/3to2/7.png"",""time"":772},{""stimulus"":""img/3to2/8.png"",""time"":881},{""stimulus"":""img/3to2/9.png"",""time"":994},{""stimulus"":""img/3to2/10.png"",""time"":1103},{""stimulus"":""img/3to2/11.png"",""time"":1212},{""stimulus"":""img/3to2/12.png"",""time"":1322}]","[]"
"","","","choice","5f721a81ee2a860fe028a8a4","bdp_cybrbll","Sun Apr 09 2023 16:28:04 GMT-0700 (Pacific Daylight Time)","532840","3","1","image-keyboard-response","99","182310","0.0-5.0-1.47","","477","","img/2to1/1.png","1","178","293","0.5","0.5","2","1","",""
"","","","","5f721a81ee2a860fe028a8a4","bdp_cybrbll","Sun Apr 09 2023 16:28:04 GMT-0700 (Pacific Daylight Time)","532840","3","1","animation","100","183725","0.0-5.0-2.47","","","","","","178","","","","2","1","[{""stimulus"":""img/2to1/1.png"",""time"":102},{""stimulus"":""img/2to1/2.png"",""time"":209},{""stimulus"":""img/2to1/3.png"",""time"":319},{""stimulus"":""img/2to1/4.png"",""time"":428},{""stimulus"":""img/2to1/5.png"",""time"":538},{""stimulus"":""img/2to1/6.png"",""time"":647},{""stimulus"":""img/2to1/7.png"",""time"":757},{""stimulus"":""img/2to1/8.png"",""time"":868},{""stimulus"":""img/2to1/9.png"",""time"":978},{""stimulus"":""img/2to1/10.png"",""time"":1089},{""stimulus"":""img/2to1/11.png"",""time"":1198},{""stimulus"":""img/2to1/12.png"",""time"":1307}]","[]"
"","","","observe","5f721a81ee2a860fe028a8a4","bdp_cybrbll","Sun Apr 09 2023 16:28:04 GMT-0700 (Pacific Daylight Time)","532840","3","1","image-keyboard-response","101","184119","0.0-5.0-1.48","","null","","img/1to3/1.png","null","177","380","0.5","0.5","1","2","",""
"","","","","5f721a81ee2a860fe028a8a4","bdp_cybrbll","Sun Apr 09 2023 16:28:04 GMT-0700 (Pacific Daylight Time)","532840","3","1","animation","102","185535","0.0-5.0-2.48","","","","","","177","","","","1","2","[{""stimulus"":""img/1to2/1.png"",""time"":109},{""stimulus"":""img/1to2/2.png"",""time"":220},{""stimulus"":""img/1to2/3.png"",""time"":328},{""stimulus"":""img/1to2/4.png"",""time"":437},{""stimulus"":""img/1to2/5.png"",""time"":547},{""stimulus"":""img/1to2/6.png"",""time"":659},{""stimulus"":""img/1to2/7.png"",""time"":767},{""stimulus"":""img/1to2/8.png"",""time"":875},{""stimulus"":""img/1to2/9.png"",""time"":984},{""stimulus"":""img/1to2/10.png"",""time"":1092},{""stimulus"":""img/1to2/11.png"",""time"":1202},{""stimulus"":""img/1to2/12.png"",""time"":1310}]","[]"
"","","","choice","5f721a81ee2a860fe028a8a4","bdp_cybrbll","Sun Apr 09 2023 16:28:04 GMT-0700 (Pacific Daylight Time)","532840","3","1","image-keyboard-response","103","186326","0.0-5.0-1.49","","790","","img/2to1/1.png","2","176","512","0.5","0.5","2","3","",""
"","","","","5f721a81ee2a860fe028a8a4","bdp_cybrbll","Sun Apr 09 2023 16:28:04 GMT-0700 (Pacific Daylight Time)","532840","3","1","animation","104","187735","0.0-5.0-2.49","","","","","","176","","","","2","3","[{""stimulus"":""img/2to3/1.png"",""time"":105},{""stimulus"":""img/2to3/2.png"",""time"":217},{""stimulus"":""img/2to3/3.png"",""time"":323},{""stimulus"":""img/2to3/4.png"",""time"":433},{""stimulus"":""img/2to3/5.png"",""time"":540},{""stimulus"":""img/2to3/6.png"",""time"":647},{""stimulus"":""img/2to3/7.png"",""time"":756},{""stimulus"":""img/2to3/8.png"",""time"":866},{""stimulus"":""img/2to3/9.png"",""time"":975},{""stimulus"":""img/2to3/10.png"",""time"":1084},{""stimulus"":""img/2to3/11.png"",""time"":1191},{""stimulus"":""img/2to3/12.png"",""time"":1299}]","[]"
"","","","observe","5f721a81ee2a860fe028a8a4","bdp_cybrbll","Sun Apr 09 2023 16:28:04 GMT-0700 (Pacific Daylight Time)","532840","3","1","image-keyboard-response","105","188064","0.0-5.0-1.50","","null","","img/3to2/1.png","null","175","325","0.5","0.5","3","1","",""
"","","","","5f721a81ee2a860fe028a8a4","bdp_cybrbll","Sun Apr 09 2023 16:28:04 GMT-0700 (Pacific Daylight Time)","532840","3","1","animation","106","189492","0.0-5.0-2.50","","","","","","175","","","","3","1","[{""stimulus"":""img/3to1/1.png"",""time"":111},{""stimulus"":""img/3to1/2.png"",""time"":219},{""stimulus"":""img/3to1/3.png"",""time"":328},{""stimulus"":""img/3to1/4.png"",""time"":439},{""stimulus"":""img/3to1/5.png"",""time"":547},{""stimulus"":""img/3to1/6.png"",""time"":657},{""stimulus"":""img/3to1/7.png"",""time"":766},{""stimulus"":""img/3to1/8.png"",""time"":878},{""stimulus"":""img/3to1/9.png"",""time"":988},{""stimulus"":""img/3to1/10.png"",""time"":1100},{""stimulus"":""img/3to1/11.png"",""time"":1211},{""stimulus"":""img/3to1/12.png"",""time"":1319}]","[]"
"","","","observe","5f721a81ee2a860fe028a8a4","bdp_cybrbll","Sun Apr 09 2023 16:28:04 GMT-0700 (Pacific Daylight Time)","532840","3","1","image-keyboard-response","107","190235","0.0-5.0-1.51","","null","","img/1to3/1.png","null","174","734","0.5","0.5","1","2","",""
"","","","","5f721a81ee2a860fe028a8a4","bdp_cybrbll","Sun Apr 09 2023 16:28:04 GMT-0700 (Pacific Daylight Time)","532840","3","1","animation","108","191665","0.0-5.0-2.51","","","","","","174","","","","1","2","[{""stimulus"":""img/1to2/1.png"",""time"":112},{""stimulus"":""img/1to2/2.png"",""time"":223},{""stimulus"":""img/1to2/3.png"",""time"":331},{""stimulus"":""img/1to2/4.png"",""time"":442},{""stimulus"":""img/1to2/5.png"",""time"":552},{""stimulus"":""img/1to2/6.png"",""time"":664},{""stimulus"":""img/1to2/7.png"",""time"":775},{""stimulus"":""img/1to2/8.png"",""time"":883},{""stimulus"":""img/1to2/9.png"",""time"":991},{""stimulus"":""img/1to2/10.png"",""time"":1099},{""stimulus"":""img/1to2/11.png"",""time"":1210},{""stimulus"":""img/1to2/12.png"",""time"":1318}]","[]"
"","","","choice","5f721a81ee2a860fe028a8a4","bdp_cybrbll","Sun Apr 09 2023 16:28:04 GMT-0700 (Pacific Daylight Time)","532840","3","1","image-keyboard-response","109","192407","0.0-5.0-1.52","","742","","img/2to1/1.png","2","173","771","0.5","0.5","2","3","",""
"","","","","5f721a81ee2a860fe028a8a4","bdp_cybrbll","Sun Apr 09 2023 16:28:04 GMT-0700 (Pacific Daylight Time)","532840","3","1","animation","110","193825","0.0-5.0-2.52","","","","","","173","","","","2","3","[{""stimulus"":""img/2to3/1.png"",""time"":102},{""stimulus"":""img/2to3/2.png"",""time"":211},{""stimulus"":""img/2to3/3.png"",""time"":319},{""stimulus"":""img/2to3/4.png"",""time"":430},{""stimulus"":""img/2to3/5.png"",""time"":540},{""stimulus"":""img/2to3/6.png"",""time"":649},{""stimulus"":""img/2to3/7.png"",""time"":759},{""stimulus"":""img/2to3/8.png"",""time"":867},{""stimulus"":""img/2to3/9.png"",""time"":976},{""stimulus"":""img/2to3/10.png"",""time"":1087},{""stimulus"":""img/2to3/11.png"",""time"":1195},{""stimulus"":""img/2to3/12.png"",""time"":1306}]","[]"
"","","","observe","5f721a81ee2a860fe028a8a4","bdp_cybrbll","Sun Apr 09 2023 16:28:04 GMT-0700 (Pacific Daylight Time)","532840","3","1","image-keyboard-response","111","194512","0.0-5.0-1.53","","null","","img/3to2/1.png","null","172","680","0.5","0.5","3","1","",""
"","","","","5f721a81ee2a860fe028a8a4","bdp_cybrbll","Sun Apr 09 2023 16:28:04 GMT-0700 (Pacific Daylight Time)","532840","3","1","animation","112","195928","0.0-5.0-2.53","","","","","","172","","","","3","1","[{""stimulus"":""img/3to1/1.png"",""time"":111},{""stimulus"":""img/3to1/2.png"",""time"":221},{""stimulus"":""img/3to1/3.png"",""time"":329},{""stimulus"":""img/3to1/4.png"",""time"":439},{""stimulus"":""img/3to1/5.png"",""time"":545},{""stimulus"":""img/3to1/6.png"",""time"":653},{""stimulus"":""img/3to1/7.png"",""time"":762},{""stimulus"":""img/3to1/8.png"",""time"":870},{""stimulus"":""img/3to1/9.png"",""time"":978},{""stimulus"":""img/3to1/10.png"",""time"":1090},{""stimulus"":""img/3to1/11.png"",""time"":1198},{""stimulus"":""img/3to1/12.png"",""time"":1306}]","[]"
"","","","observe","5f721a81ee2a860fe028a8a4","bdp_cybrbll","Sun Apr 09 2023 16:28:04 GMT-0700 (Pacific Daylight Time)","532840","3","1","image-keyboard-response","113","196817","0.0-5.0-1.54","","null","","img/1to3/1.png","null","171","880","0.5","0.5","1","3","",""
"","","","","5f721a81ee2a860fe028a8a4","bdp_cybrbll","Sun Apr 09 2023 16:28:04 GMT-0700 (Pacific Daylight Time)","532840","3","1","animation","114","198243","0.0-5.0-2.54","","","","","","171","","","","1","3","[{""stimulus"":""img/1to3/1.png"",""time"":111},{""stimulus"":""img/1to3/2.png"",""time"":220},{""stimulus"":""img/1to3/3.png"",""time"":329},{""stimulus"":""img/1to3/4.png"",""time"":439},{""stimulus"":""img/1to3/5.png"",""time"":549},{""stimulus"":""img/1to3/6.png"",""time"":660},{""stimulus"":""img/1to3/7.png"",""time"":769},{""stimulus"":""img/1to3/8.png"",""time"":878},{""stimulus"":""img/1to3/9.png"",""time"":988},{""stimulus"":""img/1to3/10.png"",""time"":1097},{""stimulus"":""img/1to3/11.png"",""time"":1206},{""stimulus"":""img/1to3/12.png"",""time"":1317}]","[]"
"","","","observe","5f721a81ee2a860fe028a8a4","bdp_cybrbll","Sun Apr 09 2023 16:28:04 GMT-0700 (Pacific Daylight Time)","532840","3","1","image-keyboard-response","115","198442","0.0-5.0-1.55","","null","","img/3to2/1.png","null","170","189","0.5","0.5","3","2","",""
"","","","","5f721a81ee2a860fe028a8a4","bdp_cybrbll","Sun Apr 09 2023 16:28:04 GMT-0700 (Pacific Daylight Time)","532840","3","1","animation","116","199865","0.0-5.0-2.55","","","","","","170","","","","3","2","[{""stimulus"":""img/3to2/1.png"",""time"":110},{""stimulus"":""img/3to2/2.png"",""time"":220},{""stimulus"":""img/3to2/3.png"",""time"":330},{""stimulus"":""img/3to2/4.png"",""time"":439},{""stimulus"":""img/3to2/5.png"",""time"":548},{""stimulus"":""img/3to2/6.png"",""time"":658},{""stimulus"":""img/3to2/7.png"",""time"":766},{""stimulus"":""img/3to2/8.png"",""time"":876},{""stimulus"":""img/3to2/9.png"",""time"":985},{""stimulus"":""img/3to2/10.png"",""time"":1092},{""stimulus"":""img/3to2/11.png"",""time"":1202},{""stimulus"":""img/3to2/12.png"",""time"":1314}]","[]"
"","","","choice","5f721a81ee2a860fe028a8a4","bdp_cybrbll","Sun Apr 09 2023 16:28:04 GMT-0700 (Pacific Daylight Time)","532840","3","1","image-keyboard-response","117","200215","0.0-5.0-1.56","","350","","img/2to1/1.png","1","169","916","0.5","0.5","2","1","",""
"","","","","5f721a81ee2a860fe028a8a4","bdp_cybrbll","Sun Apr 09 2023 16:28:04 GMT-0700 (Pacific Daylight Time)","532840","3","1","animation","118","201630","0.0-5.0-2.56","","","","","","169","","","","2","1","[{""stimulus"":""img/2to1/1.png"",""time"":100},{""stimulus"":""img/2to1/2.png"",""time"":210},{""stimulus"":""img/2to1/3.png"",""time"":318},{""stimulus"":""img/2to1/4.png"",""time"":428},{""stimulus"":""img/2to1/5.png"",""time"":538},{""stimulus"":""img/2to1/6.png"",""time"":650},{""stimulus"":""img/2to1/7.png"",""time"":759},{""stimulus"":""img/2to1/8.png"",""time"":871},{""stimulus"":""img/2to1/9.png"",""time"":981},{""stimulus"":""img/2to1/10.png"",""time"":1091},{""stimulus"":""img/2to1/11.png"",""time"":1198},{""stimulus"":""img/2to1/12.png"",""time"":1307}]","[]"
"","","","observe","5f721a81ee2a860fe028a8a4","bdp_cybrbll","Sun Apr 09 2023 16:28:04 GMT-0700 (Pacific Daylight Time)","532840","3","1","image-keyboard-response","119","202102","0.0-5.0-1.57","","null","","img/1to3/1.png","null","168","457","0.5","0.5","1","2","",""
"","","","","5f721a81ee2a860fe028a8a4","bdp_cybrbll","Sun Apr 09 2023 16:28:04 GMT-0700 (Pacific Daylight Time)","532840","3","1","animation","120","203533","0.0-5.0-2.57","","","","","","168","","","","1","2","[{""stimulus"":""img/1to2/1.png"",""time"":111},{""stimulus"":""img/1to2/2.png"",""time"":223},{""stimulus"":""img/1to2/3.png"",""time"":333},{""stimulus"":""img/1to2/4.png"",""time"":442},{""stimulus"":""img/1to2/5.png"",""time"":553},{""stimulus"":""img/1to2/6.png"",""time"":661},{""stimulus"":""img/1to2/7.png"",""time"":770},{""stimulus"":""img/1to2/8.png"",""time"":879},{""stimulus"":""img/1to2/9.png"",""time"":989},{""stimulus"":""img/1to2/10.png"",""time"":1101},{""stimulus"":""img/1to2/11.png"",""time"":1210},{""stimulus"":""img/1to2/12.png"",""time"":1320}]","[]"
"","","","choice","5f721a81ee2a860fe028a8a4","bdp_cybrbll","Sun Apr 09 2023 16:28:04 GMT-0700 (Pacific Daylight Time)","532840","3","1","image-keyboard-response","121","204071","0.0-5.0-1.58","","536","","img/2to1/1.png","2","167","682","0.5","0.5","2","3","",""
"","","","","5f721a81ee2a860fe028a8a4","bdp_cybrbll","Sun Apr 09 2023 16:28:04 GMT-0700 (Pacific Daylight Time)","532840","3","1","animation","122","205494","0.0-5.0-2.58","","","","","","167","","","","2","3","[{""stimulus"":""img/2to3/1.png"",""time"":104},{""stimulus"":""img/2to3/2.png"",""time"":214},{""stimulus"":""img/2to3/3.png"",""time"":326},{""stimulus"":""img/2to3/4.png"",""time"":436},{""stimulus"":""img/2to3/5.png"",""time"":543},{""stimulus"":""img/2to3/6.png"",""time"":652},{""stimulus"":""img/2to3/7.png"",""time"":763},{""stimulus"":""img/2to3/8.png"",""time"":872},{""stimulus"":""img/2to3/9.png"",""time"":983},{""stimulus"":""img/2to3/10.png"",""time"":1092},{""stimulus"":""img/2to3/11.png"",""time"":1204},{""stimulus"":""img/2to3/12.png"",""time"":1311}]","[]"
"","","","observe","5f721a81ee2a860fe028a8a4","bdp_cybrbll","Sun Apr 09 2023 16:28:04 GMT-0700 (Pacific Daylight Time)","532840","3","1","image-keyboard-response","123","205997","0.0-5.0-1.59","","null","","img/3to2/1.png","null","166","500","0.5","0.5","3","1","",""
"","","","","5f721a81ee2a860fe028a8a4","bdp_cybrbll","Sun Apr 09 2023 16:28:04 GMT-0700 (Pacific Daylight Time)","532840","3","1","animation","124","207420","0.0-5.0-2.59","","","","","","166","","","","3","1","[{""stimulus"":""img/3to1/1.png"",""time"":108},{""stimulus"":""img/3to1/2.png"",""time"":218},{""stimulus"":""img/3to1/3.png"",""time"":327},{""stimulus"":""img/3to1/4.png"",""time"":437},{""stimulus"":""img/3to1/5.png"",""time"":545},{""stimulus"":""img/3to1/6.png"",""time"":654},{""stimulus"":""img/3to1/7.png"",""time"":764},{""stimulus"":""img/3to1/8.png"",""time"":872},{""stimulus"":""img/3to1/9.png"",""time"":984},{""stimulus"":""img/3to1/10.png"",""time"":1092},{""stimulus"":""img/3to1/11.png"",""time"":1202},{""stimulus"":""img/3to1/12.png"",""time"":1314}]","[]"
"","","","observe","5f721a81ee2a860fe028a8a4","bdp_cybrbll","Sun Apr 09 2023 16:28:04 GMT-0700 (Pacific Daylight Time)","532840","3","1","image-keyboard-response","125","207753","0.0-5.0-1.60","","null","","img/1to3/1.png","null","165","321","0.5","0.5","1","3","",""
"","","","","5f721a81ee2a860fe028a8a4","bdp_cybrbll","Sun Apr 09 2023 16:28:04 GMT-0700 (Pacific Daylight Time)","532840","3","1","animation","126","209174","0.0-5.0-2.60","","","","","","165","","","","1","3","[{""stimulus"":""img/1to3/1.png"",""time"":110},{""stimulus"":""img/1to3/2.png"",""time"":222},{""stimulus"":""img/1to3/3.png"",""time"":330},{""stimulus"":""img/1to3/4.png"",""time"":439},{""stimulus"":""img/1to3/5.png"",""time"":547},{""stimulus"":""img/1to3/6.png"",""time"":655},{""stimulus"":""img/1to3/7.png"",""time"":765},{""stimulus"":""img/1to3/8.png"",""time"":876},{""stimulus"":""img/1to3/9.png"",""time"":985},{""stimulus"":""img/1to3/10.png"",""time"":1097},{""stimulus"":""img/1to3/11.png"",""time"":1205},{""stimulus"":""img/1to3/12.png"",""time"":1314}]","[]"
"","","","observe","5f721a81ee2a860fe028a8a4","bdp_cybrbll","Sun Apr 09 2023 16:28:04 GMT-0700 (Pacific Daylight Time)","532840","3","1","image-keyboard-response","127","209379","0.0-5.0-1.61","","null","","img/3to2/1.png","null","164","195","0.5","0.5","3","2","",""
"","","","","5f721a81ee2a860fe028a8a4","bdp_cybrbll","Sun Apr 09 2023 16:28:04 GMT-0700 (Pacific Daylight Time)","532840","3","1","animation","128","210794","0.0-5.0-2.61","","","","","","164","","","","3","2","[{""stimulus"":""img/3to2/1.png"",""time"":108},{""stimulus"":""img/3to2/2.png"",""time"":215},{""stimulus"":""img/3to2/3.png"",""time"":325},{""stimulus"":""img/3to2/4.png"",""time"":436},{""stimulus"":""img/3to2/5.png"",""time"":545},{""stimulus"":""img/3to2/6.png"",""time"":653},{""stimulus"":""img/3to2/7.png"",""time"":763},{""stimulus"":""img/3to2/8.png"",""time"":870},{""stimulus"":""img/3to2/9.png"",""time"":982},{""stimulus"":""img/3to2/10.png"",""time"":1089},{""stimulus"":""img/3to2/11.png"",""time"":1198},{""stimulus"":""img/3to2/12.png"",""time"":1305}]","[]"
"","","","choice","5f721a81ee2a860fe028a8a4","bdp_cybrbll","Sun Apr 09 2023 16:28:04 GMT-0700 (Pacific Daylight Time)","532840","3","1","image-keyboard-response","129","211319","0.0-5.0-1.62","","524","","img/2to1/1.png","1","163","157","0.5","0.5","2","1","",""
"","","","","5f721a81ee2a860fe028a8a4","bdp_cybrbll","Sun Apr 09 2023 16:28:04 GMT-0700 (Pacific Daylight Time)","532840","3","1","animation","130","212727","0.0-5.0-2.62","","","","","","163","","","","2","1","[{""stimulus"":""img/2to1/1.png"",""time"":101},{""stimulus"":""img/2to1/2.png"",""time"":210},{""stimulus"":""img/2to1/3.png"",""time"":319},{""stimulus"":""img/2to1/4.png"",""time"":429},{""stimulus"":""img/2to1/5.png"",""time"":537},{""stimulus"":""img/2to1/6.png"",""time"":644},{""stimulus"":""img/2to1/7.png"",""time"":753},{""stimulus"":""img/2to1/8.png"",""time"":864},{""stimulus"":""img/2to1/9.png"",""time"":974},{""stimulus"":""img/2to1/10.png"",""time"":1083},{""stimulus"":""img/2to1/11.png"",""time"":1192},{""stimulus"":""img/2to1/12.png"",""time"":1298}]","[]"
"","","","observe","5f721a81ee2a860fe028a8a4","bdp_cybrbll","Sun Apr 09 2023 16:28:04 GMT-0700 (Pacific Daylight Time)","532840","3","1","image-keyboard-response","131","213415","0.0-5.0-1.63","","null","","img/1to3/1.png","null","162","685","0.5","0.5","1","3","",""
"","","","","5f721a81ee2a860fe028a8a4","bdp_cybrbll","Sun Apr 09 2023 16:28:04 GMT-0700 (Pacific Daylight Time)","532840","3","1","animation","132","214836","0.0-5.0-2.63","","","","","","162","","","","1","3","[{""stimulus"":""img/1to3/1.png"",""time"":106},{""stimulus"":""img/1to3/2.png"",""time"":218},{""stimulus"":""img/1to3/3.png"",""time"":330},{""stimulus"":""img/1to3/4.png"",""time"":439},{""stimulus"":""img/1to3/5.png"",""time"":550},{""stimulus"":""img/1to3/6.png"",""time"":659},{""stimulus"":""img/1to3/7.png"",""time"":768},{""stimulus"":""img/1to3/8.png"",""time"":875},{""stimulus"":""img/1to3/9.png"",""time"":984},{""stimulus"":""img/1to3/10.png"",""time"":1093},{""stimulus"":""img/1to3/11.png"",""time"":1203},{""stimulus"":""img/1to3/12.png"",""time"":1310}]","[]"
"","","","observe","5f721a81ee2a860fe028a8a4","bdp_cybrbll","Sun Apr 09 2023 16:28:04 GMT-0700 (Pacific Daylight Time)","532840","3","1","image-keyboard-response","133","215428","0.0-5.0-1.64","","null","","img/3to2/1.png","null","161","589","0.5","0.5","3","1","",""
"","","","","5f721a81ee2a860fe028a8a4","bdp_cybrbll","Sun Apr 09 2023 16:28:04 GMT-0700 (Pacific Daylight Time)","532840","3","1","animation","134","216852","0.0-5.0-2.64","","","","","","161","","","","3","1","[{""stimulus"":""img/3to1/1.png"",""time"":109},{""stimulus"":""img/3to1/2.png"",""time"":219},{""stimulus"":""img/3to1/3.png"",""time"":329},{""stimulus"":""img/3to1/4.png"",""time"":439},{""stimulus"":""img/3to1/5.png"",""time"":549},{""stimulus"":""img/3to1/6.png"",""time"":657},{""stimulus"":""img/3to1/7.png"",""time"":768},{""stimulus"":""img/3to1/8.png"",""time"":878},{""stimulus"":""img/3to1/9.png"",""time"":988},{""stimulus"":""img/3to1/10.png"",""time"":1097},{""stimulus"":""img/3to1/11.png"",""time"":1207},{""stimulus"":""img/3to1/12.png"",""time"":1315}]","[]"
"","","","observe","5f721a81ee2a860fe028a8a4","bdp_cybrbll","Sun Apr 09 2023 16:28:04 GMT-0700 (Pacific Daylight Time)","532840","3","1","image-keyboard-response","135","217082","0.0-5.0-1.65","","null","","img/1to3/1.png","null","160","218","0.5","0.5","1","3","",""
"","","","","5f721a81ee2a860fe028a8a4","bdp_cybrbll","Sun Apr 09 2023 16:28:04 GMT-0700 (Pacific Daylight Time)","532840","3","1","animation","136","218511","0.0-5.0-2.65","","","","","","160","","","","1","3","[{""stimulus"":""img/1to3/1.png"",""time"":111},{""stimulus"":""img/1to3/2.png"",""time"":221},{""stimulus"":""img/1to3/3.png"",""time"":331},{""stimulus"":""img/1to3/4.png"",""time"":440},{""stimulus"":""img/1to3/5.png"",""time"":550},{""stimulus"":""img/1to3/6.png"",""time"":658},{""stimulus"":""img/1to3/7.png"",""time"":767},{""stimulus"":""img/1to3/8.png"",""time"":877},{""stimulus"":""img/1to3/9.png"",""time"":989},{""stimulus"":""img/1to3/10.png"",""time"":1098},{""stimulus"":""img/1to3/11.png"",""time"":1206},{""stimulus"":""img/1to3/12.png"",""time"":1317}]","[]"
"","","","observe","5f721a81ee2a860fe028a8a4","bdp_cybrbll","Sun Apr 09 2023 16:28:04 GMT-0700 (Pacific Daylight Time)","532840","3","1","image-keyboard-response","137","219477","0.0-5.0-1.66","","null","","img/3to2/1.png","null","159","953","0.5","0.5","3","2","",""
"","","","","5f721a81ee2a860fe028a8a4","bdp_cybrbll","Sun Apr 09 2023 16:28:04 GMT-0700 (Pacific Daylight Time)","532840","3","1","animation","138","220892","0.0-5.0-2.66","","","","","","159","","","","3","2","[{""stimulus"":""img/3to2/1.png"",""time"":109},{""stimulus"":""img/3to2/2.png"",""time"":215},{""stimulus"":""img/3to2/3.png"",""time"":326},{""stimulus"":""img/3to2/4.png"",""time"":436},{""stimulus"":""img/3to2/5.png"",""time"":543},{""stimulus"":""img/3to2/6.png"",""time"":651},{""stimulus"":""img/3to2/7.png"",""time"":759},{""stimulus"":""img/3to2/8.png"",""time"":870},{""stimulus"":""img/3to2/9.png"",""time"":979},{""stimulus"":""img/3to2/10.png"",""time"":1090},{""stimulus"":""img/3to2/11.png"",""time"":1199},{""stimulus"":""img/3to2/12.png"",""time"":1303}]","[]"
"","","","choice","5f721a81ee2a860fe028a8a4","bdp_cybrbll","Sun Apr 09 2023 16:28:04 GMT-0700 (Pacific Daylight Time)","532840","3","1","image-keyboard-response","139","221143","0.0-5.0-1.67","","250","","img/2to1/1.png","1","158","131","0.5","0.5","2","1","",""
"","","","","5f721a81ee2a860fe028a8a4","bdp_cybrbll","Sun Apr 09 2023 16:28:04 GMT-0700 (Pacific Daylight Time)","532840","3","1","animation","140","222563","0.0-5.0-2.67","","","","","","158","","","","2","1","[{""stimulus"":""img/2to1/1.png"",""time"":112},{""stimulus"":""img/2to1/2.png"",""time"":222},{""stimulus"":""img/2to1/3.png"",""time"":332},{""stimulus"":""img/2to1/4.png"",""time"":440},{""stimulus"":""img/2to1/5.png"",""time"":550},{""stimulus"":""img/2to1/6.png"",""time"":657},{""stimulus"":""img/2to1/7.png"",""time"":766},{""stimulus"":""img/2to1/8.png"",""time"":876},{""stimulus"":""img/2to1/9.png"",""time"":988},{""stimulus"":""img/2to1/10.png"",""time"":1098},{""stimulus"":""img/2to1/11.png"",""time"":1206},{""stimulus"":""img/2to1/12.png"",""time"":1312}]","[]"
"","","","observe","5f721a81ee2a860fe028a8a4","bdp_cybrbll","Sun Apr 09 2023 16:28:04 GMT-0700 (Pacific Daylight Time)","532840","3","1","image-keyboard-response","141","224431","0.0-5.0-1.68","","null","","img/1to3/1.png","null","157","1861","0.5","0.5","1","2","",""
"","","","","5f721a81ee2a860fe028a8a4","bdp_cybrbll","Sun Apr 09 2023 16:28:04 GMT-0700 (Pacific Daylight Time)","532840","3","1","animation","142","225851","0.0-5.0-2.68","","","","","","157","","","","1","2","[{""stimulus"":""img/1to2/1.png"",""time"":109},{""stimulus"":""img/1to2/2.png"",""time"":220},{""stimulus"":""img/1to2/3.png"",""time"":331},{""stimulus"":""img/1to2/4.png"",""time"":441},{""stimulus"":""img/1to2/5.png"",""time"":550},{""stimulus"":""img/1to2/6.png"",""time"":657},{""stimulus"":""img/1to2/7.png"",""time"":766},{""stimulus"":""img/1to2/8.png"",""time"":876},{""stimulus"":""img/1to2/9.png"",""time"":985},{""stimulus"":""img/1to2/10.png"",""time"":1093},{""stimulus"":""img/1to2/11.png"",""time"":1201},{""stimulus"":""img/1to2/12.png"",""time"":1310}]","[]"
"","","","choice","5f721a81ee2a860fe028a8a4","bdp_cybrbll","Sun Apr 09 2023 16:28:04 GMT-0700 (Pacific Daylight Time)","532840","3","1","image-keyboard-response","143","226167","0.0-5.0-1.69","","315","","img/2to1/1.png","2","156","638","0.5","0.5","2","3","",""
"","","","","5f721a81ee2a860fe028a8a4","bdp_cybrbll","Sun Apr 09 2023 16:28:04 GMT-0700 (Pacific Daylight Time)","532840","3","1","animation","144","227586","0.0-5.0-2.69","","","","","","156","","","","2","3","[{""stimulus"":""img/2to3/1.png"",""time"":106},{""stimulus"":""img/2to3/2.png"",""time"":215},{""stimulus"":""img/2to3/3.png"",""time"":324},{""stimulus"":""img/2to3/4.png"",""time"":434},{""stimulus"":""img/2to3/5.png"",""time"":540},{""stimulus"":""img/2to3/6.png"",""time"":650},{""stimulus"":""img/2to3/7.png"",""time"":762},{""stimulus"":""img/2to3/8.png"",""time"":872},{""stimulus"":""img/2to3/9.png"",""time"":983},{""stimulus"":""img/2to3/10.png"",""time"":1093},{""stimulus"":""img/2to3/11.png"",""time"":1203},{""stimulus"":""img/2to3/12.png"",""time"":1310}]","[]"
"","","","observe","5f721a81ee2a860fe028a8a4","bdp_cybrbll","Sun Apr 09 2023 16:28:04 GMT-0700 (Pacific Daylight Time)","532840","3","1","image-keyboard-response","145","228218","0.0-5.0-1.70","","null","","img/3to2/1.png","null","155","618","0.5","0.5","3","1","",""
"","","","","5f721a81ee2a860fe028a8a4","bdp_cybrbll","Sun Apr 09 2023 16:28:04 GMT-0700 (Pacific Daylight Time)","532840","3","1","animation","146","229645","0.0-5.0-2.70","","","","","","155","","","","3","1","[{""stimulus"":""img/3to1/1.png"",""time"":109},{""stimulus"":""img/3to1/2.png"",""time"":216},{""stimulus"":""img/3to1/3.png"",""time"":327},{""stimulus"":""img/3to1/4.png"",""time"":437},{""stimulus"":""img/3to1/5.png"",""time"":549},{""stimulus"":""img/3to1/6.png"",""time"":657},{""stimulus"":""img/3to1/7.png"",""time"":767},{""stimulus"":""img/3to1/8.png"",""time"":878},{""stimulus"":""img/3to1/9.png"",""time"":990},{""stimulus"":""img/3to1/10.png"",""time"":1101},{""stimulus"":""img/3to1/11.png"",""time"":1210},{""stimulus"":""img/3to1/12.png"",""time"":1319}]","[]"
"","","","observe","5f721a81ee2a860fe028a8a4","bdp_cybrbll","Sun Apr 09 2023 16:28:04 GMT-0700 (Pacific Daylight Time)","532840","3","1","image-keyboard-response","147","230129","0.0-5.0-1.71","","null","","img/1to3/1.png","null","154","474","0.5","0.5","1","3","",""
"","","","","5f721a81ee2a860fe028a8a4","bdp_cybrbll","Sun Apr 09 2023 16:28:04 GMT-0700 (Pacific Daylight Time)","532840","3","1","animation","148","231561","0.0-5.0-2.71","","","","","","154","","","","1","3","[{""stimulus"":""img/1to3/1.png"",""time"":109},{""stimulus"":""img/1to3/2.png"",""time"":218},{""stimulus"":""img/1to3/3.png"",""time"":327},{""stimulus"":""img/1to3/4.png"",""time"":437},{""stimulus"":""img/1to3/5.png"",""time"":546},{""stimulus"":""img/1to3/6.png"",""time"":658},{""stimulus"":""img/1to3/7.png"",""time"":769},{""stimulus"":""img/1to3/8.png"",""time"":882},{""stimulus"":""img/1to3/9.png"",""time"":991},{""stimulus"":""img/1to3/10.png"",""time"":1101},{""stimulus"":""img/1to3/11.png"",""time"":1212},{""stimulus"":""img/1to3/12.png"",""time"":1321}]","[]"
"","","","observe","5f721a81ee2a860fe028a8a4","bdp_cybrbll","Sun Apr 09 2023 16:28:04 GMT-0700 (Pacific Daylight Time)","532840","3","1","image-keyboard-response","149","231920","0.0-5.0-1.72","","null","","img/3to2/1.png","null","153","350","0.5","0.5","3","2","",""
"","","","","5f721a81ee2a860fe028a8a4","bdp_cybrbll","Sun Apr 09 2023 16:28:04 GMT-0700 (Pacific Daylight Time)","532840","3","1","animation","150","233352","0.0-5.0-2.72","","","","","","153","","","","3","2","[{""stimulus"":""img/3to2/1.png"",""time"":110},{""stimulus"":""img/3to2/2.png"",""time"":220},{""stimulus"":""img/3to2/3.png"",""time"":331},{""stimulus"":""img/3to2/4.png"",""time"":442},{""stimulus"":""img/3to2/5.png"",""time"":561},{""stimulus"":""img/3to2/6.png"",""time"":673},{""stimulus"":""img/3to2/7.png"",""time"":782},{""stimulus"":""img/3to2/8.png"",""time"":889},{""stimulus"":""img/3to2/9.png"",""time"":996},{""stimulus"":""img/3to2/10.png"",""time"":1104},{""stimulus"":""img/3to2/11.png"",""time"":1214},{""stimulus"":""img/3to2/12.png"",""time"":1322}]","[]"
"","","","choice","5f721a81ee2a860fe028a8a4","bdp_cybrbll","Sun Apr 09 2023 16:28:04 GMT-0700 (Pacific Daylight Time)","532840","3","1","image-keyboard-response","151","233735","0.0-5.0-1.73","","382","","img/2to1/1.png","1","152","371","0.5","0.5","2","1","",""
"","","","","5f721a81ee2a860fe028a8a4","bdp_cybrbll","Sun Apr 09 2023 16:28:04 GMT-0700 (Pacific Daylight Time)","532840","3","1","animation","152","235147","0.0-5.0-2.73","","","","","","152","","","","2","1","[{""stimulus"":""img/2to1/1.png"",""time"":104},{""stimulus"":""img/2to1/2.png"",""time"":210},{""stimulus"":""img/2to1/3.png"",""time"":319},{""stimulus"":""img/2to1/4.png"",""time"":430},{""stimulus"":""img/2to1/5.png"",""time"":542},{""stimulus"":""img/2to1/6.png"",""time"":652},{""stimulus"":""img/2to1/7.png"",""time"":762},{""stimulus"":""img/2to1/8.png"",""time"":868},{""stimulus"":""img/2to1/9.png"",""time"":976},{""stimulus"":""img/2to1/10.png"",""time"":1085},{""stimulus"":""img/2to1/11.png"",""time"":1192},{""stimulus"":""img/2to1/12.png"",""time"":1304}]","[]"
"","","","observe","5f721a81ee2a860fe028a8a4","bdp_cybrbll","Sun Apr 09 2023 16:28:04 GMT-0700 (Pacific Daylight Time)","532840","3","1","image-keyboard-response","153","235426","0.0-5.0-1.74","","null","","img/1to3/1.png","null","151","265","0.5","0.5","1","2","",""
"","","","","5f721a81ee2a860fe028a8a4","bdp_cybrbll","Sun Apr 09 2023 16:28:04 GMT-0700 (Pacific Daylight Time)","532840","3","1","animation","154","236846","0.0-5.0-2.74","","","","","","151","","","","1","2","[{""stimulus"":""img/1to2/1.png"",""time"":108},{""stimulus"":""img/1to2/2.png"",""time"":218},{""stimulus"":""img/1to2/3.png"",""time"":327},{""stimulus"":""img/1to2/4.png"",""time"":437},{""stimulus"":""img/1to2/5.png"",""time"":543},{""stimulus"":""img/1to2/6.png"",""time"":650},{""stimulus"":""img/1to2/7.png"",""time"":761},{""stimulus"":""img/1to2/8.png"",""time"":871},{""stimulus"":""img/1to2/9.png"",""time"":980},{""stimulus"":""img/1to2/10.png"",""time"":1090},{""stimulus"":""img/1to2/11.png"",""time"":1201},{""stimulus"":""img/1to2/12.png"",""time"":1310}]","[]"
"","","","choice","5f721a81ee2a860fe028a8a4","bdp_cybrbll","Sun Apr 09 2023 16:28:04 GMT-0700 (Pacific Daylight Time)","532840","3","1","image-keyboard-response","155","237222","0.0-5.0-1.75","","376","","img/2to1/1.png","2","150","689","0.5","0.5","2","3","",""
"","","","","5f721a81ee2a860fe028a8a4","bdp_cybrbll","Sun Apr 09 2023 16:28:04 GMT-0700 (Pacific Daylight Time)","532840","3","1","animation","156","238644","0.0-5.0-2.75","","","","","","150","","","","2","3","[{""stimulus"":""img/2to3/1.png"",""time"":108},{""stimulus"":""img/2to3/2.png"",""time"":218},{""stimulus"":""img/2to3/3.png"",""time"":328},{""stimulus"":""img/2to3/4.png"",""time"":438},{""stimulus"":""img/2to3/5.png"",""time"":546},{""stimulus"":""img/2to3/6.png"",""time"":655},{""stimulus"":""img/2to3/7.png"",""time"":764},{""stimulus"":""img/2to3/8.png"",""time"":874},{""stimulus"":""img/2to3/9.png"",""time"":983},{""stimulus"":""img/2to3/10.png"",""time"":1094},{""stimulus"":""img/2to3/11.png"",""time"":1203},{""stimulus"":""img/2to3/12.png"",""time"":1311}]","[]"
"","","","observe","5f721a81ee2a860fe028a8a4","bdp_cybrbll","Sun Apr 09 2023 16:28:04 GMT-0700 (Pacific Daylight Time)","532840","3","1","image-keyboard-response","157","238905","0.0-5.0-1.76","","null","","img/3to2/1.png","null","149","258","0.5","0.1","3","1","",""
"","","","","5f721a81ee2a860fe028a8a4","bdp_cybrbll","Sun Apr 09 2023 16:28:04 GMT-0700 (Pacific Daylight Time)","532840","3","1","animation","158","240332","0.0-5.0-2.76","","","","","","149","","","","3","1","[{""stimulus"":""img/3to1/1.png"",""time"":108},{""stimulus"":""img/3to1/2.png"",""time"":217},{""stimulus"":""img/3to1/3.png"",""time"":328},{""stimulus"":""img/3to1/4.png"",""time"":437},{""stimulus"":""img/3to1/5.png"",""time"":550},{""stimulus"":""img/3to1/6.png"",""time"":661},{""stimulus"":""img/3to1/7.png"",""time"":766},{""stimulus"":""img/3to1/8.png"",""time"":878},{""stimulus"":""img/3to1/9.png"",""time"":987},{""stimulus"":""img/3to1/10.png"",""time"":1098},{""stimulus"":""img/3to1/11.png"",""time"":1208},{""stimulus"":""img/3to1/12.png"",""time"":1319}]","[]"
"","","","observe","5f721a81ee2a860fe028a8a4","bdp_cybrbll","Sun Apr 09 2023 16:28:04 GMT-0700 (Pacific Daylight Time)","532840","3","1","image-keyboard-response","159","240800","0.0-5.0-1.77","","null","","img/1to3/1.png","null","148","459","0.5","0.1","1","3","",""
"","","","","5f721a81ee2a860fe028a8a4","bdp_cybrbll","Sun Apr 09 2023 16:28:04 GMT-0700 (Pacific Daylight Time)","532840","3","1","animation","160","242219","0.0-5.0-2.77","","","","","","148","","","","1","3","[{""stimulus"":""img/1to3/1.png"",""time"":109},{""stimulus"":""img/1to3/2.png"",""time"":220},{""stimulus"":""img/1to3/3.png"",""time"":331},{""stimulus"":""img/1to3/4.png"",""time"":441},{""stimulus"":""img/1to3/5.png"",""time"":548},{""stimulus"":""img/1to3/6.png"",""time"":656},{""stimulus"":""img/1to3/7.png"",""time"":765},{""stimulus"":""img/1to3/8.png"",""time"":875},{""stimulus"":""img/1to3/9.png"",""time"":986},{""stimulus"":""img/1to3/10.png"",""time"":1093},{""stimulus"":""img/1to3/11.png"",""time"":1202},{""stimulus"":""img/1to3/12.png"",""time"":1309}]","[]"
"","","","observe","5f721a81ee2a860fe028a8a4","bdp_cybrbll","Sun Apr 09 2023 16:28:04 GMT-0700 (Pacific Daylight Time)","532840","3","1","image-keyboard-response","161","242615","0.0-5.0-1.78","","null","","img/3to2/1.png","null","147","382","0.5","0.1","3","2","",""
"","","","","5f721a81ee2a860fe028a8a4","bdp_cybrbll","Sun Apr 09 2023 16:28:04 GMT-0700 (Pacific Daylight Time)","532840","3","1","animation","162","244044","0.0-5.0-2.78","","","","","","147","","","","3","2","[{""stimulus"":""img/3to2/1.png"",""time"":110},{""stimulus"":""img/3to2/2.png"",""time"":220},{""stimulus"":""img/3to2/3.png"",""time"":328},{""stimulus"":""img/3to2/4.png"",""time"":438},{""stimulus"":""img/3to2/5.png"",""time"":547},{""stimulus"":""img/3to2/6.png"",""time"":657},{""stimulus"":""img/3to2/7.png"",""time"":770},{""stimulus"":""img/3to2/8.png"",""time"":879},{""stimulus"":""img/3to2/9.png"",""time"":991},{""stimulus"":""img/3to2/10.png"",""time"":1102},{""stimulus"":""img/3to2/11.png"",""time"":1213},{""stimulus"":""img/3to2/12.png"",""time"":1321}]","[]"
"","","","choice","5f721a81ee2a860fe028a8a4","bdp_cybrbll","Sun Apr 09 2023 16:28:04 GMT-0700 (Pacific Daylight Time)","532840","3","1","image-keyboard-response","163","244439","0.0-5.0-1.79","","393","","img/2to1/1.png","1","146","888","0.5","0.1","2","1","",""
"","","","","5f721a81ee2a860fe028a8a4","bdp_cybrbll","Sun Apr 09 2023 16:28:04 GMT-0700 (Pacific Daylight Time)","532840","3","1","animation","164","245863","0.0-5.0-2.79","","","","","","146","","","","2","1","[{""stimulus"":""img/2to1/1.png"",""time"":111},{""stimulus"":""img/2to1/2.png"",""time"":219},{""stimulus"":""img/2to1/3.png"",""time"":330},{""stimulus"":""img/2to1/4.png"",""time"":440},{""stimulus"":""img/2to1/5.png"",""time"":550},{""stimulus"":""img/2to1/6.png"",""time"":660},{""stimulus"":""img/2to1/7.png"",""time"":772},{""stimulus"":""img/2to1/8.png"",""time"":882},{""stimulus"":""img/2to1/9.png"",""time"":991},{""stimulus"":""img/2to1/10.png"",""time"":1101},{""stimulus"":""img/2to1/11.png"",""time"":1209},{""stimulus"":""img/2to1/12.png"",""time"":1316}]","[]"
"","","","observe","5f721a81ee2a860fe028a8a4","bdp_cybrbll","Sun Apr 09 2023 16:28:04 GMT-0700 (Pacific Daylight Time)","532840","3","1","image-keyboard-response","165","246299","0.0-5.0-1.80","","null","","img/1to3/1.png","null","145","432","0.5","0.1","1","3","",""
"","","","","5f721a81ee2a860fe028a8a4","bdp_cybrbll","Sun Apr 09 2023 16:28:04 GMT-0700 (Pacific Daylight Time)","532840","3","1","animation","166","247720","0.0-5.0-2.80","","","","","","145","","","","1","3","[{""stimulus"":""img/1to3/1.png"",""time"":110},{""stimulus"":""img/1to3/2.png"",""time"":222},{""stimulus"":""img/1to3/3.png"",""time"":333},{""stimulus"":""img/1to3/4.png"",""time"":441},{""stimulus"":""img/1to3/5.png"",""time"":549},{""stimulus"":""img/1to3/6.png"",""time"":656},{""stimulus"":""img/1to3/7.png"",""time"":765},{""stimulus"":""img/1to3/8.png"",""time"":874},{""stimulus"":""img/1to3/9.png"",""time"":985},{""stimulus"":""img/1to3/10.png"",""time"":1092},{""stimulus"":""img/1to3/11.png"",""time"":1200},{""stimulus"":""img/1to3/12.png"",""time"":1312}]","[]"
"","","","observe","5f721a81ee2a860fe028a8a4","bdp_cybrbll","Sun Apr 09 2023 16:28:04 GMT-0700 (Pacific Daylight Time)","532840","3","1","image-keyboard-response","167","248342","0.0-5.0-1.81","","null","","img/3to2/1.png","null","144","620","0.5","0.1","3","2","",""
"","","","","5f721a81ee2a860fe028a8a4","bdp_cybrbll","Sun Apr 09 2023 16:28:04 GMT-0700 (Pacific Daylight Time)","532840","3","1","animation","168","249762","0.0-5.0-2.81","","","","","","144","","","","3","2","[{""stimulus"":""img/3to2/1.png"",""time"":109},{""stimulus"":""img/3to2/2.png"",""time"":220},{""stimulus"":""img/3to2/3.png"",""time"":329},{""stimulus"":""img/3to2/4.png"",""time"":437},{""stimulus"":""img/3to2/5.png"",""time"":548},{""stimulus"":""img/3to2/6.png"",""time"":657},{""stimulus"":""img/3to2/7.png"",""time"":767},{""stimulus"":""img/3to2/8.png"",""time"":876},{""stimulus"":""img/3to2/9.png"",""time"":985},{""stimulus"":""img/3to2/10.png"",""time"":1094},{""stimulus"":""img/3to2/11.png"",""time"":1202},{""stimulus"":""img/3to2/12.png"",""time"":1310}]","[]"
"","","","choice","5f721a81ee2a860fe028a8a4","bdp_cybrbll","Sun Apr 09 2023 16:28:04 GMT-0700 (Pacific Daylight Time)","532840","3","1","image-keyboard-response","169","250183","0.0-5.0-1.82","","420","","img/2to1/1.png","1","143","318","0.5","0.1","2","1","",""
"","","","","5f721a81ee2a860fe028a8a4","bdp_cybrbll","Sun Apr 09 2023 16:28:04 GMT-0700 (Pacific Daylight Time)","532840","3","1","animation","170","251603","0.0-5.0-2.82","","","","","","143","","","","2","1","[{""stimulus"":""img/2to1/1.png"",""time"":109},{""stimulus"":""img/2to1/2.png"",""time"":218},{""stimulus"":""img/2to1/3.png"",""time"":325},{""stimulus"":""img/2to1/4.png"",""time"":434},{""stimulus"":""img/2to1/5.png"",""time"":542},{""stimulus"":""img/2to1/6.png"",""time"":652},{""stimulus"":""img/2to1/7.png"",""time"":763},{""stimulus"":""img/2to1/8.png"",""time"":872},{""stimulus"":""img/2to1/9.png"",""time"":982},{""stimulus"":""img/2to1/10.png"",""time"":1092},{""stimulus"":""img/2to1/11.png"",""time"":1201},{""stimulus"":""img/2to1/12.png"",""time"":1311}]","[]"
"","","","observe","5f721a81ee2a860fe028a8a4","bdp_cybrbll","Sun Apr 09 2023 16:28:04 GMT-0700 (Pacific Daylight Time)","532840","3","1","image-keyboard-response","171","252883","0.0-5.0-1.83","","null","","img/1to3/1.png","null","142","1265","0.5","0.1","1","3","",""
"","","","","5f721a81ee2a860fe028a8a4","bdp_cybrbll","Sun Apr 09 2023 16:28:04 GMT-0700 (Pacific Daylight Time)","532840","3","1","animation","172","254303","0.0-5.0-2.83","","","","","","142","","","","1","3","[{""stimulus"":""img/1to3/1.png"",""time"":109},{""stimulus"":""img/1to3/2.png"",""time"":216},{""stimulus"":""img/1to3/3.png"",""time"":327},{""stimulus"":""img/1to3/4.png"",""time"":436},{""stimulus"":""img/1to3/5.png"",""time"":546},{""stimulus"":""img/1to3/6.png"",""time"":655},{""stimulus"":""img/1to3/7.png"",""time"":762},{""stimulus"":""img/1to3/8.png"",""time"":872},{""stimulus"":""img/1to3/9.png"",""time"":982},{""stimulus"":""img/1to3/10.png"",""time"":1092},{""stimulus"":""img/1to3/11.png"",""time"":1202},{""stimulus"":""img/1to3/12.png"",""time"":1309}]","[]"
"","","","observe","5f721a81ee2a860fe028a8a4","bdp_cybrbll","Sun Apr 09 2023 16:28:04 GMT-0700 (Pacific Daylight Time)","532840","3","1","image-keyboard-response","173","254753","0.0-5.0-1.84","","null","","img/3to2/1.png","null","141","442","0.5","0.1","3","1","",""
"","","","","5f721a81ee2a860fe028a8a4","bdp_cybrbll","Sun Apr 09 2023 16:28:04 GMT-0700 (Pacific Daylight Time)","532840","3","1","animation","174","256179","0.0-5.0-2.84","","","","","","141","","","","3","1","[{""stimulus"":""img/3to1/1.png"",""time"":110},{""stimulus"":""img/3to1/2.png"",""time"":218},{""stimulus"":""img/3to1/3.png"",""time"":326},{""stimulus"":""img/3to1/4.png"",""time"":437},{""stimulus"":""img/3to1/5.png"",""time"":547},{""stimulus"":""img/3to1/6.png"",""time"":657},{""stimulus"":""img/3to1/7.png"",""time"":769},{""stimulus"":""img/3to1/8.png"",""time"":877},{""stimulus"":""img/3to1/9.png"",""time"":989},{""stimulus"":""img/3to1/10.png"",""time"":1100},{""stimulus"":""img/3to1/11.png"",""time"":1208},{""stimulus"":""img/3to1/12.png"",""time"":1316}]","[]"
"","","","observe","5f721a81ee2a860fe028a8a4","bdp_cybrbll","Sun Apr 09 2023 16:28:04 GMT-0700 (Pacific Daylight Time)","532840","3","1","image-keyboard-response","175","256623","0.0-5.0-1.85","","null","","img/1to3/1.png","null","140","429","0.5","0.1","1","3","",""
"","","","","5f721a81ee2a860fe028a8a4","bdp_cybrbll","Sun Apr 09 2023 16:28:04 GMT-0700 (Pacific Daylight Time)","532840","3","1","animation","176","258056","0.0-5.0-2.85","","","","","","140","","","","1","3","[{""stimulus"":""img/1to3/1.png"",""time"":112},{""stimulus"":""img/1to3/2.png"",""time"":223},{""stimulus"":""img/1to3/3.png"",""time"":334},{""stimulus"":""img/1to3/4.png"",""time"":445},{""stimulus"":""img/1to3/5.png"",""time"":553},{""stimulus"":""img/1to3/6.png"",""time"":662},{""stimulus"":""img/1to3/7.png"",""time"":772},{""stimulus"":""img/1to3/8.png"",""time"":882},{""stimulus"":""img/1to3/9.png"",""time"":993},{""stimulus"":""img/1to3/10.png"",""time"":1103},{""stimulus"":""img/1to3/11.png"",""time"":1213},{""stimulus"":""img/1to3/12.png"",""time"":1325}]","[]"
"","","","observe","5f721a81ee2a860fe028a8a4","bdp_cybrbll","Sun Apr 09 2023 16:28:04 GMT-0700 (Pacific Daylight Time)","532840","3","1","image-keyboard-response","177","258587","0.0-5.0-1.86","","null","","img/3to2/1.png","null","139","526","0.5","0.1","3","2","",""
"","","","","5f721a81ee2a860fe028a8a4","bdp_cybrbll","Sun Apr 09 2023 16:28:04 GMT-0700 (Pacific Daylight Time)","532840","3","1","animation","178","260014","0.0-5.0-2.86","","","","","","139","","","","3","2","[{""stimulus"":""img/3to2/1.png"",""time"":110},{""stimulus"":""img/3to2/2.png"",""time"":220},{""stimulus"":""img/3to2/3.png"",""time"":332},{""stimulus"":""img/3to2/4.png"",""time"":440},{""stimulus"":""img/3to2/5.png"",""time"":547},{""stimulus"":""img/3to2/6.png"",""time"":657},{""stimulus"":""img/3to2/7.png"",""time"":768},{""stimulus"":""img/3to2/8.png"",""time"":878},{""stimulus"":""img/3to2/9.png"",""time"":987},{""stimulus"":""img/3to2/10.png"",""time"":1096},{""stimulus"":""img/3to2/11.png"",""time"":1207},{""stimulus"":""img/3to2/12.png"",""time"":1319}]","[]"
"","","","choice","5f721a81ee2a860fe028a8a4","bdp_cybrbll","Sun Apr 09 2023 16:28:04 GMT-0700 (Pacific Daylight Time)","532840","3","1","image-keyboard-response","179","260343","0.0-5.0-1.87","","329","","img/2to1/1.png","1","138","369","0.5","0.1","2","1","",""
"","","","","5f721a81ee2a860fe028a8a4","bdp_cybrbll","Sun Apr 09 2023 16:28:04 GMT-0700 (Pacific Daylight Time)","532840","3","1","animation","180","261774","0.0-5.0-2.87","","","","","","138","","","","2","1","[{""stimulus"":""img/2to1/1.png"",""time"":113},{""stimulus"":""img/2to1/2.png"",""time"":219},{""stimulus"":""img/2to1/3.png"",""time"":330},{""stimulus"":""img/2to1/4.png"",""time"":440},{""stimulus"":""img/2to1/5.png"",""time"":551},{""stimulus"":""img/2to1/6.png"",""time"":662},{""stimulus"":""img/2to1/7.png"",""time"":773},{""stimulus"":""img/2to1/8.png"",""time"":883},{""stimulus"":""img/2to1/9.png"",""time"":992},{""stimulus"":""img/2to1/10.png"",""time"":1102},{""stimulus"":""img/2to1/11.png"",""time"":1211},{""stimulus"":""img/2to1/12.png"",""time"":1320}]","[]"
"","","","observe","5f721a81ee2a860fe028a8a4","bdp_cybrbll","Sun Apr 09 2023 16:28:04 GMT-0700 (Pacific Daylight Time)","532840","3","1","image-keyboard-response","181","262215","0.0-5.0-1.88","","null","","img/1to3/1.png","null","137","440","0.5","0.1","1","3","",""
"","","","","5f721a81ee2a860fe028a8a4","bdp_cybrbll","Sun Apr 09 2023 16:28:04 GMT-0700 (Pacific Daylight Time)","532840","3","1","animation","182","263634","0.0-5.0-2.88","","","","","","137","","","","1","3","[{""stimulus"":""img/1to3/1.png"",""time"":109},{""stimulus"":""img/1to3/2.png"",""time"":216},{""stimulus"":""img/1to3/3.png"",""time"":326},{""stimulus"":""img/1to3/4.png"",""time"":434},{""stimulus"":""img/1to3/5.png"",""time"":542},{""stimulus"":""img/1to3/6.png"",""time"":651},{""stimulus"":""img/1to3/7.png"",""time"":759},{""stimulus"":""img/1to3/8.png"",""time"":870},{""stimulus"":""img/1to3/9.png"",""time"":978},{""stimulus"":""img/1to3/10.png"",""time"":1090},{""stimulus"":""img/1to3/11.png"",""time"":1202},{""stimulus"":""img/1to3/12.png"",""time"":1310}]","[]"
"","","","observe","5f721a81ee2a860fe028a8a4","bdp_cybrbll","Sun Apr 09 2023 16:28:04 GMT-0700 (Pacific Daylight Time)","532840","3","1","image-keyboard-response","183","264083","0.0-5.0-1.89","","null","","img/3to2/1.png","null","136","444","0.5","0.1","3","1","",""
"","","","","5f721a81ee2a860fe028a8a4","bdp_cybrbll","Sun Apr 09 2023 16:28:04 GMT-0700 (Pacific Daylight Time)","532840","3","1","animation","184","265500","0.0-5.0-2.89","","","","","","136","","","","3","1","[{""stimulus"":""img/3to1/1.png"",""time"":106},{""stimulus"":""img/3to1/2.png"",""time"":216},{""stimulus"":""img/3to1/3.png"",""time"":324},{""stimulus"":""img/3to1/4.png"",""time"":436},{""stimulus"":""img/3to1/5.png"",""time"":545},{""stimulus"":""img/3to1/6.png"",""time"":652},{""stimulus"":""img/3to1/7.png"",""time"":759},{""stimulus"":""img/3to1/8.png"",""time"":868},{""stimulus"":""img/3to1/9.png"",""time"":978},{""stimulus"":""img/3to1/10.png"",""time"":1087},{""stimulus"":""img/3to1/11.png"",""time"":1200},{""stimulus"":""img/3to1/12.png"",""time"":1309}]","[]"
"","","","observe","5f721a81ee2a860fe028a8a4","bdp_cybrbll","Sun Apr 09 2023 16:28:04 GMT-0700 (Pacific Daylight Time)","532840","3","1","image-keyboard-response","185","265810","0.0-5.0-1.90","","null","","img/1to3/1.png","null","135","300","0.5","0.1","1","3","",""
"","","","","5f721a81ee2a860fe028a8a4","bdp_cybrbll","Sun Apr 09 2023 16:28:04 GMT-0700 (Pacific Daylight Time)","532840","3","1","animation","186","267235","0.0-5.0-2.90","","","","","","135","","","","1","3","[{""stimulus"":""img/1to3/1.png"",""time"":109},{""stimulus"":""img/1to3/2.png"",""time"":215},{""stimulus"":""img/1to3/3.png"",""time"":326},{""stimulus"":""img/1to3/4.png"",""time"":435},{""stimulus"":""img/1to3/5.png"",""time"":543},{""stimulus"":""img/1to3/6.png"",""time"":654},{""stimulus"":""img/1to3/7.png"",""time"":764},{""stimulus"":""img/1to3/8.png"",""time"":871},{""stimulus"":""img/1to3/9.png"",""time"":982},{""stimulus"":""img/1to3/10.png"",""time"":1092},{""stimulus"":""img/1to3/11.png"",""time"":1204},{""stimulus"":""img/1to3/12.png"",""time"":1314}]","[]"
"","","","observe","5f721a81ee2a860fe028a8a4","bdp_cybrbll","Sun Apr 09 2023 16:28:04 GMT-0700 (Pacific Daylight Time)","532840","3","1","image-keyboard-response","187","267598","0.0-5.0-1.91","","null","","img/3to2/1.png","null","134","354","0.5","0.1","3","2","",""
"","","","","5f721a81ee2a860fe028a8a4","bdp_cybrbll","Sun Apr 09 2023 16:28:04 GMT-0700 (Pacific Daylight Time)","532840","3","1","animation","188","269018","0.0-5.0-2.91","","","","","","134","","","","3","2","[{""stimulus"":""img/3to2/1.png"",""time"":108},{""stimulus"":""img/3to2/2.png"",""time"":218},{""stimulus"":""img/3to2/3.png"",""time"":330},{""stimulus"":""img/3to2/4.png"",""time"":437},{""stimulus"":""img/3to2/5.png"",""time"":547},{""stimulus"":""img/3to2/6.png"",""time"":654},{""stimulus"":""img/3to2/7.png"",""time"":763},{""stimulus"":""img/3to2/8.png"",""time"":872},{""stimulus"":""img/3to2/9.png"",""time"":985},{""stimulus"":""img/3to2/10.png"",""time"":1092},{""stimulus"":""img/3to2/11.png"",""time"":1203},{""stimulus"":""img/3to2/12.png"",""time"":1313}]","[]"
"","","","choice","5f721a81ee2a860fe028a8a4","bdp_cybrbll","Sun Apr 09 2023 16:28:04 GMT-0700 (Pacific Daylight Time)","532840","3","1","image-keyboard-response","189","269449","0.0-5.0-1.92","","430","","img/2to1/1.png","1","133","840","0.5","0.1","2","1","",""
"","","","","5f721a81ee2a860fe028a8a4","bdp_cybrbll","Sun Apr 09 2023 16:28:04 GMT-0700 (Pacific Daylight Time)","532840","3","1","animation","190","270872","0.0-5.0-2.92","","","","","","133","","","","2","1","[{""stimulus"":""img/2to1/1.png"",""time"":114},{""stimulus"":""img/2to1/2.png"",""time"":226},{""stimulus"":""img/2to1/3.png"",""time"":335},{""stimulus"":""img/2to1/4.png"",""time"":444},{""stimulus"":""img/2to1/5.png"",""time"":552},{""stimulus"":""img/2to1/6.png"",""time"":659},{""stimulus"":""img/2to1/7.png"",""time"":767},{""stimulus"":""img/2to1/8.png"",""time"":877},{""stimulus"":""img/2to1/9.png"",""time"":987},{""stimulus"":""img/2to1/10.png"",""time"":1097},{""stimulus"":""img/2to1/11.png"",""time"":1206},{""stimulus"":""img/2to1/12.png"",""time"":1314}]","[]"
