"trial_type","trial_index","time_elapsed","internal_node_id","subject_id","task","startTime","totalTime","fairPartner","unfairPartner","view_history","rt","event","trial","time","trialtype","success","stimulus","key_press","throwsLeft","rtDur","pFair","pUnfair","holder","receiver","animation_sequence","responses"
"pavlovia","0","3","0.0-0.0","5edc0583f16dff0c806bdbb6","bdp_cybrbll","Tue Mar 28 2023 17:33:17 GMT-0400 (Eastern Daylight Time)","629993","1","3","","","","","","","","","","","","","","","","",""
"instructions","1","1874","0.0-1.0","5edc0583f16dff0c806bdbb6","bdp_cybrbll","Tue Mar 28 2023 17:33:17 GMT-0400 (Eastern Daylight Time)","629993","1","3","[{""page_index"":0,""viewing_time"":1870}]","1870","","","","","","","","","","","","","","",""
"","","","","5edc0583f16dff0c806bdbb6","bdp_cybrbll","Tue Mar 28 2023 17:33:17 GMT-0400 (Eastern Daylight Time)","629993","1","3","","","fullscreenenter","2","4369","fullscreenenter","","","","","","","","","","",""
"fullscreen","2","5302","0.0-2.0","5edc0583f16dff0c806bdbb6","bdp_cybrbll","Tue Mar 28 2023 17:33:17 GMT-0400 (Eastern Daylight Time)","629993","1","3","","","","","","","true","","","","","","","","","",""
"instructions","3","125955","0.0-4.0","5edc0583f16dff0c806bdbb6","bdp_cybrbll","Tue Mar 28 2023 17:33:17 GMT-0400 (Eastern Daylight Time)","629993","1","3","[{""page_index"":0,""viewing_time"":120650}]","120650","","","","","","","","","","","","","","",""
"image-keyboard-response","4","127632","0.0-5.0-1.0","5edc0583f16dff0c806bdbb6","bdp_cybrbll","Tue Mar 28 2023 17:33:17 GMT-0400 (Eastern Daylight Time)","629993","1","3","","1673","","","","choice","","img/2to1/1.png","2","225","819","0.5","0.5","2","3","",""
"animation","5","128927","0.0-5.0-2.0","5edc0583f16dff0c806bdbb6","bdp_cybrbll","Tue Mar 28 2023 17:33:17 GMT-0400 (Eastern Daylight Time)","629993","1","3","","","","","","","","","","225","","","","2","3","[{""stimulus"":""img/2to3/1.png"",""time"":102},{""stimulus"":""img/2to3/2.png"",""time"":200},{""stimulus"":""img/2to3/3.png"",""time"":299},{""stimulus"":""img/2to3/4.png"",""time"":399},{""stimulus"":""img/2to3/5.png"",""time"":498},{""stimulus"":""img/2to3/6.png"",""time"":597},{""stimulus"":""img/2to3/7.png"",""time"":696},{""stimulus"":""img/2to3/8.png"",""time"":798},{""stimulus"":""img/2to3/9.png"",""time"":896},{""stimulus"":""img/2to3/10.png"",""time"":996},{""stimulus"":""img/2to3/11.png"",""time"":1094},{""stimulus"":""img/2to3/12.png"",""time"":1194}]","[]"
"image-keyboard-response","6","129324","0.0-5.0-1.1","5edc0583f16dff0c806bdbb6","bdp_cybrbll","Tue Mar 28 2023 17:33:17 GMT-0400 (Eastern Daylight Time)","629993","1","3","","null","","","","observe","","img/3to2/1.png","null","224","388","0.5","0.5","3","2","",""
"animation","7","130613","0.0-5.0-2.1","5edc0583f16dff0c806bdbb6","bdp_cybrbll","Tue Mar 28 2023 17:33:17 GMT-0400 (Eastern Daylight Time)","629993","1","3","","","","","","","","","","224","","","","3","2","[{""stimulus"":""img/3to2/1.png"",""time"":102},{""stimulus"":""img/3to2/2.png"",""time"":204},{""stimulus"":""img/3to2/3.png"",""time"":311},{""stimulus"":""img/3to2/4.png"",""time"":401},{""stimulus"":""img/3to2/5.png"",""time"":500},{""stimulus"":""img/3to2/6.png"",""time"":602},{""stimulus"":""img/3to2/7.png"",""time"":700},{""stimulus"":""img/3to2/8.png"",""time"":800},{""stimulus"":""img/3to2/9.png"",""time"":908},{""stimulus"":""img/3to2/10.png"",""time"":992},{""stimulus"":""img/3to2/11.png"",""time"":1091},{""stimulus"":""img/3to2/12.png"",""time"":1190}]","[]"
"image-keyboard-response","8","130771","0.0-5.0-1.2","5edc0583f16dff0c806bdbb6","bdp_cybrbll","Tue Mar 28 2023 17:33:17 GMT-0400 (Eastern Daylight Time)","629993","1","3","","157","","","","choice","","img/2to1/1.png","1","223","410","0.5","0.5","2","1","",""
"animation","9","132060","0.0-5.0-2.2","5edc0583f16dff0c806bdbb6","bdp_cybrbll","Tue Mar 28 2023 17:33:17 GMT-0400 (Eastern Daylight Time)","629993","1","3","","","","","","","","","","223","","","","2","1","[{""stimulus"":""img/2to1/1.png"",""time"":107},{""stimulus"":""img/2to1/2.png"",""time"":206},{""stimulus"":""img/2to1/3.png"",""time"":315},{""stimulus"":""img/2to1/4.png"",""time"":397},{""stimulus"":""img/2to1/5.png"",""time"":504},{""stimulus"":""img/2to1/6.png"",""time"":596},{""stimulus"":""img/2to1/7.png"",""time"":702},{""stimulus"":""img/2to1/8.png"",""time"":793},{""stimulus"":""img/2to1/9.png"",""time"":892},{""stimulus"":""img/2to1/10.png"",""time"":991},{""stimulus"":""img/2to1/11.png"",""time"":1091},{""stimulus"":""img/2to1/12.png"",""time"":1191}]","[]"
"image-keyboard-response","10","132510","0.0-5.0-1.3","5edc0583f16dff0c806bdbb6","bdp_cybrbll","Tue Mar 28 2023 17:33:17 GMT-0400 (Eastern Daylight Time)","629993","1","3","","null","","","","observe","","img/1to3/1.png","null","222","443","0.5","0.5","1","3","",""
"animation","11","133799","0.0-5.0-2.3","5edc0583f16dff0c806bdbb6","bdp_cybrbll","Tue Mar 28 2023 17:33:17 GMT-0400 (Eastern Daylight Time)","629993","1","3","","","","","","","","","","222","","","","1","3","[{""stimulus"":""img/1to3/1.png"",""time"":101},{""stimulus"":""img/1to3/2.png"",""time"":199},{""stimulus"":""img/1to3/3.png"",""time"":298},{""stimulus"":""img/1to3/4.png"",""time"":404},{""stimulus"":""img/1to3/5.png"",""time"":497},{""stimulus"":""img/1to3/6.png"",""time"":596},{""stimulus"":""img/1to3/7.png"",""time"":695},{""stimulus"":""img/1to3/8.png"",""time"":794},{""stimulus"":""img/1to3/9.png"",""time"":893},{""stimulus"":""img/1to3/10.png"",""time"":992},{""stimulus"":""img/1to3/11.png"",""time"":1091},{""stimulus"":""img/1to3/12.png"",""time"":1190}]","[]"
"image-keyboard-response","12","134740","0.0-5.0-1.4","5edc0583f16dff0c806bdbb6","bdp_cybrbll","Tue Mar 28 2023 17:33:17 GMT-0400 (Eastern Daylight Time)","629993","1","3","","null","","","","observe","","img/3to2/1.png","null","221","935","0.5","0.5","3","2","",""
"animation","13","136037","0.0-5.0-2.4","5edc0583f16dff0c806bdbb6","bdp_cybrbll","Tue Mar 28 2023 17:33:17 GMT-0400 (Eastern Daylight Time)","629993","1","3","","","","","","","","","","221","","","","3","2","[{""stimulus"":""img/3to2/1.png"",""time"":105},{""stimulus"":""img/3to2/2.png"",""time"":205},{""stimulus"":""img/3to2/3.png"",""time"":305},{""stimulus"":""img/3to2/4.png"",""time"":404},{""stimulus"":""img/3to2/5.png"",""time"":504},{""stimulus"":""img/3to2/6.png"",""time"":596},{""stimulus"":""img/3to2/7.png"",""time"":696},{""stimulus"":""img/3to2/8.png"",""time"":796},{""stimulus"":""img/3to2/9.png"",""time"":894},{""stimulus"":""img/3to2/10.png"",""time"":993},{""stimulus"":""img/3to2/11.png"",""time"":1092},{""stimulus"":""img/3to2/12.png"",""time"":1190}]","[]"
"image-keyboard-response","14","136356","0.0-5.0-1.5","5edc0583f16dff0c806bdbb6","bdp_cybrbll","Tue Mar 28 2023 17:33:17 GMT-0400 (Eastern Daylight Time)","629993","1","3","","318","","","","choice","","img/2to1/1.png","2","220","261","0.5","0.5","2","3","",""
"animation","15","137647","0.0-5.0-2.5","5edc0583f16dff0c806bdbb6","bdp_cybrbll","Tue Mar 28 2023 17:33:17 GMT-0400 (Eastern Daylight Time)","629993","1","3","","","","","","","","","","220","","","","2","3","[{""stimulus"":""img/2to3/1.png"",""time"":104},{""stimulus"":""img/2to3/2.png"",""time"":211},{""stimulus"":""img/2to3/3.png"",""time"":300},{""stimulus"":""img/2to3/4.png"",""time"":399},{""stimulus"":""img/2to3/5.png"",""time"":508},{""stimulus"":""img/2to3/6.png"",""time"":599},{""stimulus"":""img/2to3/7.png"",""time"":699},{""stimulus"":""img/2to3/8.png"",""time"":800},{""stimulus"":""img/2to3/9.png"",""time"":892},{""stimulus"":""img/2to3/10.png"",""time"":993},{""stimulus"":""img/2to3/11.png"",""time"":1092},{""stimulus"":""img/2to3/12.png"",""time"":1193}]","[]"
"image-keyboard-response","16","137955","0.0-5.0-1.6","5edc0583f16dff0c806bdbb6","bdp_cybrbll","Tue Mar 28 2023 17:33:17 GMT-0400 (Eastern Daylight Time)","629993","1","3","","null","","","","observe","","img/3to2/1.png","null","219","298","0.5","0.5","3","2","",""
"animation","17","139248","0.0-5.0-2.6","5edc0583f16dff0c806bdbb6","bdp_cybrbll","Tue Mar 28 2023 17:33:17 GMT-0400 (Eastern Daylight Time)","629993","1","3","","","","","","","","","","219","","","","3","2","[{""stimulus"":""img/3to2/1.png"",""time"":108},{""stimulus"":""img/3to2/2.png"",""time"":207},{""stimulus"":""img/3to2/3.png"",""time"":299},{""stimulus"":""img/3to2/4.png"",""time"":399},{""stimulus"":""img/3to2/5.png"",""time"":499},{""stimulus"":""img/3to2/6.png"",""time"":598},{""stimulus"":""img/3to2/7.png"",""time"":698},{""stimulus"":""img/3to2/8.png"",""time"":799},{""stimulus"":""img/3to2/9.png"",""time"":898},{""stimulus"":""img/3to2/10.png"",""time"":998},{""stimulus"":""img/3to2/11.png"",""time"":1092},{""stimulus"":""img/3to2/12.png"",""time"":1195}]","[]"
"image-keyboard-response","18","139796","0.0-5.0-1.7","5edc0583f16dff0c806bdbb6","bdp_cybrbll","Tue Mar 28 2023 17:33:17 GMT-0400 (Eastern Daylight Time)","629993","1","3","","546","","","","choice","","img/2to1/1.png","2","218","500","0.5","0.5","2","3","",""
"animation","19","141088","0.0-5.0-2.7","5edc0583f16dff0c806bdbb6","bdp_cybrbll","Tue Mar 28 2023 17:33:17 GMT-0400 (Eastern Daylight Time)","629993","1","3","","","","","","","","","","218","","","","2","3","[{""stimulus"":""img/2to3/1.png"",""time"":108},{""stimulus"":""img/2to3/2.png"",""time"":207},{""stimulus"":""img/2to3/3.png"",""time"":299},{""stimulus"":""img/2to3/4.png"",""time"":397},{""stimulus"":""img/2to3/5.png"",""time"":497},{""stimulus"":""img/2to3/6.png"",""time"":595},{""stimulus"":""img/2to3/7.png"",""time"":695},{""stimulus"":""img/2to3/8.png"",""time"":794},{""stimulus"":""img/2to3/9.png"",""time"":894},{""stimulus"":""img/2to3/10.png"",""time"":993},{""stimulus"":""img/2to3/11.png"",""time"":1093},{""stimulus"":""img/2to3/12.png"",""time"":1193}]","[]"
"image-keyboard-response","20","141343","0.0-5.0-1.8","5edc0583f16dff0c806bdbb6","bdp_cybrbll","Tue Mar 28 2023 17:33:17 GMT-0400 (Eastern Daylight Time)","629993","1","3","","null","","","","observe","","img/3to2/1.png","null","217","249","0.5","0.5","3","1","",""
"animation","21","142637","0.0-5.0-2.8","5edc0583f16dff0c806bdbb6","bdp_cybrbll","Tue Mar 28 2023 17:33:17 GMT-0400 (Eastern Daylight Time)","629993","1","3","","","","","","","","","","217","","","","3","1","[{""stimulus"":""img/3to1/1.png"",""time"":103},{""stimulus"":""img/3to1/2.png"",""time"":212},{""stimulus"":""img/3to1/3.png"",""time"":302},{""stimulus"":""img/3to1/4.png"",""time"":400},{""stimulus"":""img/3to1/5.png"",""time"":498},{""stimulus"":""img/3to1/6.png"",""time"":598},{""stimulus"":""img/3to1/7.png"",""time"":696},{""stimulus"":""img/3to1/8.png"",""time"":795},{""stimulus"":""img/3to1/9.png"",""time"":896},{""stimulus"":""img/3to1/10.png"",""time"":996},{""stimulus"":""img/3to1/11.png"",""time"":1096},{""stimulus"":""img/3to1/12.png"",""time"":1204}]","[]"
"image-keyboard-response","22","142895","0.0-5.0-1.9","5edc0583f16dff0c806bdbb6","bdp_cybrbll","Tue Mar 28 2023 17:33:17 GMT-0400 (Eastern Daylight Time)","629993","1","3","","null","","","","observe","","img/1to3/1.png","null","216","250","0.5","0.5","1","3","",""
"animation","23","144189","0.0-5.0-2.9","5edc0583f16dff0c806bdbb6","bdp_cybrbll","Tue Mar 28 2023 17:33:17 GMT-0400 (Eastern Daylight Time)","629993","1","3","","","","","","","","","","216","","","","1","3","[{""stimulus"":""img/1to3/1.png"",""time"":102},{""stimulus"":""img/1to3/2.png"",""time"":200},{""stimulus"":""img/1to3/3.png"",""time"":300},{""stimulus"":""img/1to3/4.png"",""time"":402},{""stimulus"":""img/1to3/5.png"",""time"":501},{""stimulus"":""img/1to3/6.png"",""time"":603},{""stimulus"":""img/1to3/7.png"",""time"":701},{""stimulus"":""img/1to3/8.png"",""time"":801},{""stimulus"":""img/1to3/9.png"",""time"":891},{""stimulus"":""img/1to3/10.png"",""time"":991},{""stimulus"":""img/1to3/11.png"",""time"":1091},{""stimulus"":""img/1to3/12.png"",""time"":1191}]","[]"
"image-keyboard-response","24","144567","0.0-5.0-1.10","5edc0583f16dff0c806bdbb6","bdp_cybrbll","Tue Mar 28 2023 17:33:17 GMT-0400 (Eastern Daylight Time)","629993","1","3","","null","","","","observe","","img/3to2/1.png","null","215","371","0.5","0.5","3","2","",""
"animation","25","145860","0.0-5.0-2.10","5edc0583f16dff0c806bdbb6","bdp_cybrbll","Tue Mar 28 2023 17:33:17 GMT-0400 (Eastern Daylight Time)","629993","1","3","","","","","","","","","","215","","","","3","2","[{""stimulus"":""img/3to2/1.png"",""time"":100},{""stimulus"":""img/3to2/2.png"",""time"":200},{""stimulus"":""img/3to2/3.png"",""time"":300},{""stimulus"":""img/3to2/4.png"",""time"":402},{""stimulus"":""img/3to2/5.png"",""time"":500},{""stimulus"":""img/3to2/6.png"",""time"":598},{""stimulus"":""img/3to2/7.png"",""time"":698},{""stimulus"":""img/3to2/8.png"",""time"":796},{""stimulus"":""img/3to2/9.png"",""time"":904},{""stimulus"":""img/3to2/10.png"",""time"":995},{""stimulus"":""img/3to2/11.png"",""time"":1094},{""stimulus"":""img/3to2/12.png"",""time"":1193}]","[]"
"image-keyboard-response","26","145882","0.0-5.0-1.11","5edc0583f16dff0c806bdbb6","bdp_cybrbll","Tue Mar 28 2023 17:33:17 GMT-0400 (Eastern Daylight Time)","629993","1","3","","21","","","","choice","","img/2to1/1.png","1","214","501","0.5","0.5","2","1","",""
"animation","27","147172","0.0-5.0-2.11","5edc0583f16dff0c806bdbb6","bdp_cybrbll","Tue Mar 28 2023 17:33:17 GMT-0400 (Eastern Daylight Time)","629993","1","3","","","","","","","","","","214","","","","2","1","[{""stimulus"":""img/2to1/1.png"",""time"":104},{""stimulus"":""img/2to1/2.png"",""time"":202},{""stimulus"":""img/2to1/3.png"",""time"":301},{""stimulus"":""img/2to1/4.png"",""time"":401},{""stimulus"":""img/2to1/5.png"",""time"":501},{""stimulus"":""img/2to1/6.png"",""time"":600},{""stimulus"":""img/2to1/7.png"",""time"":700},{""stimulus"":""img/2to1/8.png"",""time"":800},{""stimulus"":""img/2to1/9.png"",""time"":899},{""stimulus"":""img/2to1/10.png"",""time"":999},{""stimulus"":""img/2to1/11.png"",""time"":1090},{""stimulus"":""img/2to1/12.png"",""time"":1190}]","[]"
"image-keyboard-response","28","147518","0.0-5.0-1.12","5edc0583f16dff0c806bdbb6","bdp_cybrbll","Tue Mar 28 2023 17:33:17 GMT-0400 (Eastern Daylight Time)","629993","1","3","","null","","","","observe","","img/1to3/1.png","null","213","341","0.5","0.5","1","3","",""
"animation","29","148806","0.0-5.0-2.12","5edc0583f16dff0c806bdbb6","bdp_cybrbll","Tue Mar 28 2023 17:33:17 GMT-0400 (Eastern Daylight Time)","629993","1","3","","","","","","","","","","213","","","","1","3","[{""stimulus"":""img/1to3/1.png"",""time"":100},{""stimulus"":""img/1to3/2.png"",""time"":200},{""stimulus"":""img/1to3/3.png"",""time"":299},{""stimulus"":""img/1to3/4.png"",""time"":398},{""stimulus"":""img/1to3/5.png"",""time"":499},{""stimulus"":""img/1to3/6.png"",""time"":608},{""stimulus"":""img/1to3/7.png"",""time"":699},{""stimulus"":""img/1to3/8.png"",""time"":800},{""stimulus"":""img/1to3/9.png"",""time"":908},{""stimulus"":""img/1to3/10.png"",""time"":1000},{""stimulus"":""img/1to3/11.png"",""time"":1090},{""stimulus"":""img/1to3/12.png"",""time"":1190}]","[]"
"image-keyboard-response","30","149365","0.0-5.0-1.13","5edc0583f16dff0c806bdbb6","bdp_cybrbll","Tue Mar 28 2023 17:33:17 GMT-0400 (Eastern Daylight Time)","629993","1","3","","null","","","","observe","","img/3to2/1.png","null","212","549","0.5","0.5","3","2","",""
"animation","31","150659","0.0-5.0-2.13","5edc0583f16dff0c806bdbb6","bdp_cybrbll","Tue Mar 28 2023 17:33:17 GMT-0400 (Eastern Daylight Time)","629993","1","3","","","","","","","","","","212","","","","3","2","[{""stimulus"":""img/3to2/1.png"",""time"":103},{""stimulus"":""img/3to2/2.png"",""time"":204},{""stimulus"":""img/3to2/3.png"",""time"":304},{""stimulus"":""img/3to2/4.png"",""time"":404},{""stimulus"":""img/3to2/5.png"",""time"":503},{""stimulus"":""img/3to2/6.png"",""time"":602},{""stimulus"":""img/3to2/7.png"",""time"":701},{""stimulus"":""img/3to2/8.png"",""time"":793},{""stimulus"":""img/3to2/9.png"",""time"":894},{""stimulus"":""img/3to2/10.png"",""time"":994},{""stimulus"":""img/3to2/11.png"",""time"":1095},{""stimulus"":""img/3to2/12.png"",""time"":1194}]","[]"
"image-keyboard-response","32","151430","0.0-5.0-1.14","5edc0583f16dff0c806bdbb6","bdp_cybrbll","Tue Mar 28 2023 17:33:17 GMT-0400 (Eastern Daylight Time)","629993","1","3","","771","","","","choice","","img/2to1/1.png","1","211","462","0.5","0.5","2","1","",""
"animation","33","152726","0.0-5.0-2.14","5edc0583f16dff0c806bdbb6","bdp_cybrbll","Tue Mar 28 2023 17:33:17 GMT-0400 (Eastern Daylight Time)","629993","1","3","","","","","","","","","","211","","","","2","1","[{""stimulus"":""img/2to1/1.png"",""time"":105},{""stimulus"":""img/2to1/2.png"",""time"":205},{""stimulus"":""img/2to1/3.png"",""time"":314},{""stimulus"":""img/2to1/4.png"",""time"":405},{""stimulus"":""img/2to1/5.png"",""time"":496},{""stimulus"":""img/2to1/6.png"",""time"":605},{""stimulus"":""img/2to1/7.png"",""time"":695},{""stimulus"":""img/2to1/8.png"",""time"":795},{""stimulus"":""img/2to1/9.png"",""time"":896},{""stimulus"":""img/2to1/10.png"",""time"":996},{""stimulus"":""img/2to1/11.png"",""time"":1096},{""stimulus"":""img/2to1/12.png"",""time"":1195}]","[]"
"image-keyboard-response","34","153147","0.0-5.0-1.15","5edc0583f16dff0c806bdbb6","bdp_cybrbll","Tue Mar 28 2023 17:33:17 GMT-0400 (Eastern Daylight Time)","629993","1","3","","null","","","","observe","","img/1to3/1.png","null","210","413","0.5","0.5","1","3","",""
"animation","35","154451","0.0-5.0-2.15","5edc0583f16dff0c806bdbb6","bdp_cybrbll","Tue Mar 28 2023 17:33:17 GMT-0400 (Eastern Daylight Time)","629993","1","3","","","","","","","","","","210","","","","1","3","[{""stimulus"":""img/1to3/1.png"",""time"":100},{""stimulus"":""img/1to3/2.png"",""time"":199},{""stimulus"":""img/1to3/3.png"",""time"":299},{""stimulus"":""img/1to3/4.png"",""time"":399},{""stimulus"":""img/1to3/5.png"",""time"":499},{""stimulus"":""img/1to3/6.png"",""time"":599},{""stimulus"":""img/1to3/7.png"",""time"":698},{""stimulus"":""img/1to3/8.png"",""time"":797},{""stimulus"":""img/1to3/9.png"",""time"":896},{""stimulus"":""img/1to3/10.png"",""time"":994},{""stimulus"":""img/1to3/11.png"",""time"":1095},{""stimulus"":""img/1to3/12.png"",""time"":1194}]","[]"
"image-keyboard-response","36","154959","0.0-5.0-1.16","5edc0583f16dff0c806bdbb6","bdp_cybrbll","Tue Mar 28 2023 17:33:17 GMT-0400 (Eastern Daylight Time)","629993","1","3","","null","","","","observe","","img/3to2/1.png","null","209","499","0.5","0.5","3","1","",""
"animation","37","156250","0.0-5.0-2.16","5edc0583f16dff0c806bdbb6","bdp_cybrbll","Tue Mar 28 2023 17:33:17 GMT-0400 (Eastern Daylight Time)","629993","1","3","","","","","","","","","","209","","","","3","1","[{""stimulus"":""img/3to1/1.png"",""time"":101},{""stimulus"":""img/3to1/2.png"",""time"":202},{""stimulus"":""img/3to1/3.png"",""time"":302},{""stimulus"":""img/3to1/4.png"",""time"":399},{""stimulus"":""img/3to1/5.png"",""time"":500},{""stimulus"":""img/3to1/6.png"",""time"":600},{""stimulus"":""img/3to1/7.png"",""time"":701},{""stimulus"":""img/3to1/8.png"",""time"":792},{""stimulus"":""img/3to1/9.png"",""time"":900},{""stimulus"":""img/3to1/10.png"",""time"":992},{""stimulus"":""img/3to1/11.png"",""time"":1091},{""stimulus"":""img/3to1/12.png"",""time"":1190}]","[]"
"image-keyboard-response","38","156812","0.0-5.0-1.17","5edc0583f16dff0c806bdbb6","bdp_cybrbll","Tue Mar 28 2023 17:33:17 GMT-0400 (Eastern Daylight Time)","629993","1","3","","null","","","","observe","","img/1to3/1.png","null","208","556","0.5","0.5","1","2","",""
"animation","39","158104","0.0-5.0-2.17","5edc0583f16dff0c806bdbb6","bdp_cybrbll","Tue Mar 28 2023 17:33:17 GMT-0400 (Eastern Daylight Time)","629993","1","3","","","","","","","","","","208","","","","1","2","[{""stimulus"":""img/1to2/1.png"",""time"":100},{""stimulus"":""img/1to2/2.png"",""time"":207},{""stimulus"":""img/1to2/3.png"",""time"":307},{""stimulus"":""img/1to2/4.png"",""time"":398},{""stimulus"":""img/1to2/5.png"",""time"":497},{""stimulus"":""img/1to2/6.png"",""time"":596},{""stimulus"":""img/1to2/7.png"",""time"":696},{""stimulus"":""img/1to2/8.png"",""time"":797},{""stimulus"":""img/1to2/9.png"",""time"":895},{""stimulus"":""img/1to2/10.png"",""time"":994},{""stimulus"":""img/1to2/11.png"",""time"":1094},{""stimulus"":""img/1to2/12.png"",""time"":1194}]","[]"
"image-keyboard-response","40","158954","0.0-5.0-1.18","5edc0583f16dff0c806bdbb6","bdp_cybrbll","Tue Mar 28 2023 17:33:17 GMT-0400 (Eastern Daylight Time)","629993","1","3","","849","","","","choice","","img/2to1/1.png","2","207","979","0.5","0.5","2","3","",""
"animation","41","160243","0.0-5.0-2.18","5edc0583f16dff0c806bdbb6","bdp_cybrbll","Tue Mar 28 2023 17:33:17 GMT-0400 (Eastern Daylight Time)","629993","1","3","","","","","","","","","","207","","","","2","3","[{""stimulus"":""img/2to3/1.png"",""time"":108},{""stimulus"":""img/2to3/2.png"",""time"":199},{""stimulus"":""img/2to3/3.png"",""time"":311},{""stimulus"":""img/2to3/4.png"",""time"":401},{""stimulus"":""img/2to3/5.png"",""time"":499},{""stimulus"":""img/2to3/6.png"",""time"":598},{""stimulus"":""img/2to3/7.png"",""time"":697},{""stimulus"":""img/2to3/8.png"",""time"":797},{""stimulus"":""img/2to3/9.png"",""time"":895},{""stimulus"":""img/2to3/10.png"",""time"":995},{""stimulus"":""img/2to3/11.png"",""time"":1103},{""stimulus"":""img/2to3/12.png"",""time"":1197}]","[]"
"image-keyboard-response","42","160502","0.0-5.0-1.19","5edc0583f16dff0c806bdbb6","bdp_cybrbll","Tue Mar 28 2023 17:33:17 GMT-0400 (Eastern Daylight Time)","629993","1","3","","null","","","","observe","","img/3to2/1.png","null","206","258","0.5","0.5","3","1","",""
"animation","43","161795","0.0-5.0-2.19","5edc0583f16dff0c806bdbb6","bdp_cybrbll","Tue Mar 28 2023 17:33:17 GMT-0400 (Eastern Daylight Time)","629993","1","3","","","","","","","","","","206","","","","3","1","[{""stimulus"":""img/3to1/1.png"",""time"":101},{""stimulus"":""img/3to1/2.png"",""time"":200},{""stimulus"":""img/3to1/3.png"",""time"":300},{""stimulus"":""img/3to1/4.png"",""time"":399},{""stimulus"":""img/3to1/5.png"",""time"":498},{""stimulus"":""img/3to1/6.png"",""time"":597},{""stimulus"":""img/3to1/7.png"",""time"":695},{""stimulus"":""img/3to1/8.png"",""time"":795},{""stimulus"":""img/3to1/9.png"",""time"":895},{""stimulus"":""img/3to1/10.png"",""time"":995},{""stimulus"":""img/3to1/11.png"",""time"":1095},{""stimulus"":""img/3to1/12.png"",""time"":1194}]","[]"
"image-keyboard-response","44","163406","0.0-5.0-1.20","5edc0583f16dff0c806bdbb6","bdp_cybrbll","Tue Mar 28 2023 17:33:17 GMT-0400 (Eastern Daylight Time)","629993","1","3","","null","","","","observe","","img/1to3/1.png","null","205","1603","0.5","0.5","1","3","",""
"animation","45","164701","0.0-5.0-2.20","5edc0583f16dff0c806bdbb6","bdp_cybrbll","Tue Mar 28 2023 17:33:17 GMT-0400 (Eastern Daylight Time)","629993","1","3","","","","","","","","","","205","","","","1","3","[{""stimulus"":""img/1to3/1.png"",""time"":103},{""stimulus"":""img/1to3/2.png"",""time"":212},{""stimulus"":""img/1to3/3.png"",""time"":303},{""stimulus"":""img/1to3/4.png"",""time"":402},{""stimulus"":""img/1to3/5.png"",""time"":501},{""stimulus"":""img/1to3/6.png"",""time"":595},{""stimulus"":""img/1to3/7.png"",""time"":694},{""stimulus"":""img/1to3/8.png"",""time"":794},{""stimulus"":""img/1to3/9.png"",""time"":894},{""stimulus"":""img/1to3/10.png"",""time"":992},{""stimulus"":""img/1to3/11.png"",""time"":1094},{""stimulus"":""img/1to3/12.png"",""time"":1194}]","[]"
"image-keyboard-response","46","164935","0.0-5.0-1.21","5edc0583f16dff0c806bdbb6","bdp_cybrbll","Tue Mar 28 2023 17:33:17 GMT-0400 (Eastern Daylight Time)","629993","1","3","","null","","","","observe","","img/3to2/1.png","null","204","229","0.5","0.5","3","1","",""
"animation","47","166223","0.0-5.0-2.21","5edc0583f16dff0c806bdbb6","bdp_cybrbll","Tue Mar 28 2023 17:33:17 GMT-0400 (Eastern Daylight Time)","629993","1","3","","","","","","","","","","204","","","","3","1","[{""stimulus"":""img/3to1/1.png"",""time"":101},{""stimulus"":""img/3to1/2.png"",""time"":200},{""stimulus"":""img/3to1/3.png"",""time"":300},{""stimulus"":""img/3to1/4.png"",""time"":399},{""stimulus"":""img/3to1/5.png"",""time"":498},{""stimulus"":""img/3to1/6.png"",""time"":598},{""stimulus"":""img/3to1/7.png"",""time"":697},{""stimulus"":""img/3to1/8.png"",""time"":799},{""stimulus"":""img/3to1/9.png"",""time"":900},{""stimulus"":""img/3to1/10.png"",""time"":998},{""stimulus"":""img/3to1/11.png"",""time"":1098},{""stimulus"":""img/3to1/12.png"",""time"":1189}]","[]"
"image-keyboard-response","48","166779","0.0-5.0-1.22","5edc0583f16dff0c806bdbb6","bdp_cybrbll","Tue Mar 28 2023 17:33:17 GMT-0400 (Eastern Daylight Time)","629993","1","3","","null","","","","observe","","img/1to3/1.png","null","203","550","0.5","0.5","1","2","",""
"animation","49","168071","0.0-5.0-2.22","5edc0583f16dff0c806bdbb6","bdp_cybrbll","Tue Mar 28 2023 17:33:17 GMT-0400 (Eastern Daylight Time)","629993","1","3","","","","","","","","","","203","","","","1","2","[{""stimulus"":""img/1to2/1.png"",""time"":102},{""stimulus"":""img/1to2/2.png"",""time"":204},{""stimulus"":""img/1to2/3.png"",""time"":304},{""stimulus"":""img/1to2/4.png"",""time"":403},{""stimulus"":""img/1to2/5.png"",""time"":497},{""stimulus"":""img/1to2/6.png"",""time"":596},{""stimulus"":""img/1to2/7.png"",""time"":695},{""stimulus"":""img/1to2/8.png"",""time"":796},{""stimulus"":""img/1to2/9.png"",""time"":894},{""stimulus"":""img/1to2/10.png"",""time"":994},{""stimulus"":""img/1to2/11.png"",""time"":1093},{""stimulus"":""img/1to2/12.png"",""time"":1192}]","[]"
"image-keyboard-response","50","168527","0.0-5.0-1.23","5edc0583f16dff0c806bdbb6","bdp_cybrbll","Tue Mar 28 2023 17:33:17 GMT-0400 (Eastern Daylight Time)","629993","1","3","","455","","","","choice","","img/2to1/1.png","2","202","1324","0.5","0.5","2","3","",""
"animation","51","169818","0.0-5.0-2.23","5edc0583f16dff0c806bdbb6","bdp_cybrbll","Tue Mar 28 2023 17:33:17 GMT-0400 (Eastern Daylight Time)","629993","1","3","","","","","","","","","","202","","","","2","3","[{""stimulus"":""img/2to3/1.png"",""time"":101},{""stimulus"":""img/2to3/2.png"",""time"":201},{""stimulus"":""img/2to3/3.png"",""time"":302},{""stimulus"":""img/2to3/4.png"",""time"":403},{""stimulus"":""img/2to3/5.png"",""time"":503},{""stimulus"":""img/2to3/6.png"",""time"":595},{""stimulus"":""img/2to3/7.png"",""time"":696},{""stimulus"":""img/2to3/8.png"",""time"":795},{""stimulus"":""img/2to3/9.png"",""time"":895},{""stimulus"":""img/2to3/10.png"",""time"":994},{""stimulus"":""img/2to3/11.png"",""time"":1093},{""stimulus"":""img/2to3/12.png"",""time"":1193}]","[]"
"image-keyboard-response","52","170511","0.0-5.0-1.24","5edc0583f16dff0c806bdbb6","bdp_cybrbll","Tue Mar 28 2023 17:33:17 GMT-0400 (Eastern Daylight Time)","629993","1","3","","null","","","","observe","","img/3to2/1.png","null","201","682","0.5","0.5","3","2","",""
"animation","53","171801","0.0-5.0-2.24","5edc0583f16dff0c806bdbb6","bdp_cybrbll","Tue Mar 28 2023 17:33:17 GMT-0400 (Eastern Daylight Time)","629993","1","3","","","","","","","","","","201","","","","3","2","[{""stimulus"":""img/3to2/1.png"",""time"":110},{""stimulus"":""img/3to2/2.png"",""time"":201},{""stimulus"":""img/3to2/3.png"",""time"":300},{""stimulus"":""img/3to2/4.png"",""time"":398},{""stimulus"":""img/3to2/5.png"",""time"":498},{""stimulus"":""img/3to2/6.png"",""time"":597},{""stimulus"":""img/3to2/7.png"",""time"":695},{""stimulus"":""img/3to2/8.png"",""time"":795},{""stimulus"":""img/3to2/9.png"",""time"":896},{""stimulus"":""img/3to2/10.png"",""time"":1004},{""stimulus"":""img/3to2/11.png"",""time"":1098},{""stimulus"":""img/3to2/12.png"",""time"":1198}]","[]"
"image-keyboard-response","54","171918","0.0-5.0-1.25","5edc0583f16dff0c806bdbb6","bdp_cybrbll","Tue Mar 28 2023 17:33:17 GMT-0400 (Eastern Daylight Time)","629993","1","3","","116","","","","choice","","img/2to1/1.png","1","200","247","0.5","0.5","2","1","",""
"animation","55","173209","0.0-5.0-2.25","5edc0583f16dff0c806bdbb6","bdp_cybrbll","Tue Mar 28 2023 17:33:17 GMT-0400 (Eastern Daylight Time)","629993","1","3","","","","","","","","","","200","","","","2","1","[{""stimulus"":""img/2to1/1.png"",""time"":102},{""stimulus"":""img/2to1/2.png"",""time"":201},{""stimulus"":""img/2to1/3.png"",""time"":301},{""stimulus"":""img/2to1/4.png"",""time"":401},{""stimulus"":""img/2to1/5.png"",""time"":500},{""stimulus"":""img/2to1/6.png"",""time"":599},{""stimulus"":""img/2to1/7.png"",""time"":698},{""stimulus"":""img/2to1/8.png"",""time"":795},{""stimulus"":""img/2to1/9.png"",""time"":896},{""stimulus"":""img/2to1/10.png"",""time"":994},{""stimulus"":""img/2to1/11.png"",""time"":1091},{""stimulus"":""img/2to1/12.png"",""time"":1193}]","[]"
"image-keyboard-response","56","173712","0.0-5.0-1.26","5edc0583f16dff0c806bdbb6","bdp_cybrbll","Tue Mar 28 2023 17:33:17 GMT-0400 (Eastern Daylight Time)","629993","1","3","","null","","","","observe","","img/1to3/1.png","null","199","493","0.5","0.5","1","3","",""
"animation","57","175005","0.0-5.0-2.26","5edc0583f16dff0c806bdbb6","bdp_cybrbll","Tue Mar 28 2023 17:33:17 GMT-0400 (Eastern Daylight Time)","629993","1","3","","","","","","","","","","199","","","","1","3","[{""stimulus"":""img/1to3/1.png"",""time"":101},{""stimulus"":""img/1to3/2.png"",""time"":201},{""stimulus"":""img/1to3/3.png"",""time"":301},{""stimulus"":""img/1to3/4.png"",""time"":399},{""stimulus"":""img/1to3/5.png"",""time"":499},{""stimulus"":""img/1to3/6.png"",""time"":599},{""stimulus"":""img/1to3/7.png"",""time"":698},{""stimulus"":""img/1to3/8.png"",""time"":797},{""stimulus"":""img/1to3/9.png"",""time"":897},{""stimulus"":""img/1to3/10.png"",""time"":997},{""stimulus"":""img/1to3/11.png"",""time"":1096},{""stimulus"":""img/1to3/12.png"",""time"":1194}]","[]"
"image-keyboard-response","58","175305","0.0-5.0-1.27","5edc0583f16dff0c806bdbb6","bdp_cybrbll","Tue Mar 28 2023 17:33:17 GMT-0400 (Eastern Daylight Time)","629993","1","3","","null","","","","observe","","img/3to2/1.png","null","198","297","0.5","0.5","3","2","",""
"animation","59","176598","0.0-5.0-2.27","5edc0583f16dff0c806bdbb6","bdp_cybrbll","Tue Mar 28 2023 17:33:17 GMT-0400 (Eastern Daylight Time)","629993","1","3","","","","","","","","","","198","","","","3","2","[{""stimulus"":""img/3to2/1.png"",""time"":101},{""stimulus"":""img/3to2/2.png"",""time"":200},{""stimulus"":""img/3to2/3.png"",""time"":309},{""stimulus"":""img/3to2/4.png"",""time"":400},{""stimulus"":""img/3to2/5.png"",""time"":501},{""stimulus"":""img/3to2/6.png"",""time"":596},{""stimulus"":""img/3to2/7.png"",""time"":696},{""stimulus"":""img/3to2/8.png"",""time"":796},{""stimulus"":""img/3to2/9.png"",""time"":894},{""stimulus"":""img/3to2/10.png"",""time"":994},{""stimulus"":""img/3to2/11.png"",""time"":1095},{""stimulus"":""img/3to2/12.png"",""time"":1194}]","[]"
"image-keyboard-response","60","179488","0.0-5.0-1.28","5edc0583f16dff0c806bdbb6","bdp_cybrbll","Tue Mar 28 2023 17:33:17 GMT-0400 (Eastern Daylight Time)","629993","1","3","","2889","","","","choice","","img/2to1/1.png","2","197","484","0.5","0.5","2","3","",""
"animation","61","180782","0.0-5.0-2.28","5edc0583f16dff0c806bdbb6","bdp_cybrbll","Tue Mar 28 2023 17:33:17 GMT-0400 (Eastern Daylight Time)","629993","1","3","","","","","","","","","","197","","","","2","3","[{""stimulus"":""img/2to3/1.png"",""time"":100},{""stimulus"":""img/2to3/2.png"",""time"":200},{""stimulus"":""img/2to3/3.png"",""time"":300},{""stimulus"":""img/2to3/4.png"",""time"":400},{""stimulus"":""img/2to3/5.png"",""time"":500},{""stimulus"":""img/2to3/6.png"",""time"":601},{""stimulus"":""img/2to3/7.png"",""time"":708},{""stimulus"":""img/2to3/8.png"",""time"":792},{""stimulus"":""img/2to3/9.png"",""time"":892},{""stimulus"":""img/2to3/10.png"",""time"":992},{""stimulus"":""img/2to3/11.png"",""time"":1092},{""stimulus"":""img/2to3/12.png"",""time"":1192}]","[]"
"image-keyboard-response","62","181246","0.0-5.0-1.29","5edc0583f16dff0c806bdbb6","bdp_cybrbll","Tue Mar 28 2023 17:33:17 GMT-0400 (Eastern Daylight Time)","629993","1","3","","null","","","","observe","","img/3to2/1.png","null","196","456","0.5","0.5","3","2","",""
"animation","63","182541","0.0-5.0-2.29","5edc0583f16dff0c806bdbb6","bdp_cybrbll","Tue Mar 28 2023 17:33:17 GMT-0400 (Eastern Daylight Time)","629993","1","3","","","","","","","","","","196","","","","3","2","[{""stimulus"":""img/3to2/1.png"",""time"":101},{""stimulus"":""img/3to2/2.png"",""time"":201},{""stimulus"":""img/3to2/3.png"",""time"":301},{""stimulus"":""img/3to2/4.png"",""time"":400},{""stimulus"":""img/3to2/5.png"",""time"":500},{""stimulus"":""img/3to2/6.png"",""time"":598},{""stimulus"":""img/3to2/7.png"",""time"":698},{""stimulus"":""img/3to2/8.png"",""time"":798},{""stimulus"":""img/3to2/9.png"",""time"":898},{""stimulus"":""img/3to2/10.png"",""time"":999},{""stimulus"":""img/3to2/11.png"",""time"":1098},{""stimulus"":""img/3to2/12.png"",""time"":1197}]","[]"
"image-keyboard-response","64","186428","0.0-5.0-1.30","5edc0583f16dff0c806bdbb6","bdp_cybrbll","Tue Mar 28 2023 17:33:17 GMT-0400 (Eastern Daylight Time)","629993","1","3","","3886","","","","choice","","img/2to1/1.png","2","195","599","0.5","0.5","2","3","",""
"animation","65","187725","0.0-5.0-2.30","5edc0583f16dff0c806bdbb6","bdp_cybrbll","Tue Mar 28 2023 17:33:17 GMT-0400 (Eastern Daylight Time)","629993","1","3","","","","","","","","","","195","","","","2","3","[{""stimulus"":""img/2to3/1.png"",""time"":108},{""stimulus"":""img/2to3/2.png"",""time"":206},{""stimulus"":""img/2to3/3.png"",""time"":306},{""stimulus"":""img/2to3/4.png"",""time"":398},{""stimulus"":""img/2to3/5.png"",""time"":497},{""stimulus"":""img/2to3/6.png"",""time"":597},{""stimulus"":""img/2to3/7.png"",""time"":695},{""stimulus"":""img/2to3/8.png"",""time"":795},{""stimulus"":""img/2to3/9.png"",""time"":895},{""stimulus"":""img/2to3/10.png"",""time"":995},{""stimulus"":""img/2to3/11.png"",""time"":1094},{""stimulus"":""img/2to3/12.png"",""time"":1194}]","[]"
"image-keyboard-response","66","187983","0.0-5.0-1.31","5edc0583f16dff0c806bdbb6","bdp_cybrbll","Tue Mar 28 2023 17:33:17 GMT-0400 (Eastern Daylight Time)","629993","1","3","","null","","","","observe","","img/3to2/1.png","null","194","254","0.5","0.5","3","1","",""
"animation","67","189276","0.0-5.0-2.31","5edc0583f16dff0c806bdbb6","bdp_cybrbll","Tue Mar 28 2023 17:33:17 GMT-0400 (Eastern Daylight Time)","629993","1","3","","","","","","","","","","194","","","","3","1","[{""stimulus"":""img/3to1/1.png"",""time"":100},{""stimulus"":""img/3to1/2.png"",""time"":200},{""stimulus"":""img/3to1/3.png"",""time"":300},{""stimulus"":""img/3to1/4.png"",""time"":400},{""stimulus"":""img/3to1/5.png"",""time"":500},{""stimulus"":""img/3to1/6.png"",""time"":601},{""stimulus"":""img/3to1/7.png"",""time"":701},{""stimulus"":""img/3to1/8.png"",""time"":800},{""stimulus"":""img/3to1/9.png"",""time"":900},{""stimulus"":""img/3to1/10.png"",""time"":995},{""stimulus"":""img/3to1/11.png"",""time"":1095},{""stimulus"":""img/3to1/12.png"",""time"":1195}]","[]"
"image-keyboard-response","68","189623","0.0-5.0-1.32","5edc0583f16dff0c806bdbb6","bdp_cybrbll","Tue Mar 28 2023 17:33:17 GMT-0400 (Eastern Daylight Time)","629993","1","3","","null","","","","observe","","img/1to3/1.png","null","193","331","0.5","0.5","1","3","",""
"animation","69","190910","0.0-5.0-2.32","5edc0583f16dff0c806bdbb6","bdp_cybrbll","Tue Mar 28 2023 17:33:17 GMT-0400 (Eastern Daylight Time)","629993","1","3","","","","","","","","","","193","","","","1","3","[{""stimulus"":""img/1to3/1.png"",""time"":103},{""stimulus"":""img/1to3/2.png"",""time"":202},{""stimulus"":""img/1to3/3.png"",""time"":301},{""stimulus"":""img/1to3/4.png"",""time"":401},{""stimulus"":""img/1to3/5.png"",""time"":501},{""stimulus"":""img/1to3/6.png"",""time"":601},{""stimulus"":""img/1to3/7.png"",""time"":699},{""stimulus"":""img/1to3/8.png"",""time"":801},{""stimulus"":""img/1to3/9.png"",""time"":893},{""stimulus"":""img/1to3/10.png"",""time"":992},{""stimulus"":""img/1to3/11.png"",""time"":1090},{""stimulus"":""img/1to3/12.png"",""time"":1196}]","[]"
"image-keyboard-response","70","191502","0.0-5.0-1.33","5edc0583f16dff0c806bdbb6","bdp_cybrbll","Tue Mar 28 2023 17:33:17 GMT-0400 (Eastern Daylight Time)","629993","1","3","","null","","","","observe","","img/3to2/1.png","null","192","589","0.5","0.5","3","1","",""
"animation","71","192793","0.0-5.0-2.33","5edc0583f16dff0c806bdbb6","bdp_cybrbll","Tue Mar 28 2023 17:33:17 GMT-0400 (Eastern Daylight Time)","629993","1","3","","","","","","","","","","192","","","","3","1","[{""stimulus"":""img/3to1/1.png"",""time"":101},{""stimulus"":""img/3to1/2.png"",""time"":201},{""stimulus"":""img/3to1/3.png"",""time"":301},{""stimulus"":""img/3to1/4.png"",""time"":401},{""stimulus"":""img/3to1/5.png"",""time"":502},{""stimulus"":""img/3to1/6.png"",""time"":602},{""stimulus"":""img/3to1/7.png"",""time"":701},{""stimulus"":""img/3to1/8.png"",""time"":800},{""stimulus"":""img/3to1/9.png"",""time"":892},{""stimulus"":""img/3to1/10.png"",""time"":992},{""stimulus"":""img/3to1/11.png"",""time"":1093},{""stimulus"":""img/3to1/12.png"",""time"":1191}]","[]"
"image-keyboard-response","72","193089","0.0-5.0-1.34","5edc0583f16dff0c806bdbb6","bdp_cybrbll","Tue Mar 28 2023 17:33:17 GMT-0400 (Eastern Daylight Time)","629993","1","3","","null","","","","observe","","img/1to3/1.png","null","191","289","0.5","0.5","1","2","",""
"animation","73","194384","0.0-5.0-2.34","5edc0583f16dff0c806bdbb6","bdp_cybrbll","Tue Mar 28 2023 17:33:17 GMT-0400 (Eastern Daylight Time)","629993","1","3","","","","","","","","","","191","","","","1","2","[{""stimulus"":""img/1to2/1.png"",""time"":107},{""stimulus"":""img/1to2/2.png"",""time"":206},{""stimulus"":""img/1to2/3.png"",""time"":306},{""stimulus"":""img/1to2/4.png"",""time"":405},{""stimulus"":""img/1to2/5.png"",""time"":497},{""stimulus"":""img/1to2/6.png"",""time"":596},{""stimulus"":""img/1to2/7.png"",""time"":697},{""stimulus"":""img/1to2/8.png"",""time"":797},{""stimulus"":""img/1to2/9.png"",""time"":897},{""stimulus"":""img/1to2/10.png"",""time"":996},{""stimulus"":""img/1to2/11.png"",""time"":1097},{""stimulus"":""img/1to2/12.png"",""time"":1196}]","[]"
"image-keyboard-response","74","195099","0.0-5.0-1.35","5edc0583f16dff0c806bdbb6","bdp_cybrbll","Tue Mar 28 2023 17:33:17 GMT-0400 (Eastern Daylight Time)","629993","1","3","","714","","","","choice","","img/2to1/1.png","2","190","628","0.5","0.5","2","3","",""
"animation","75","196394","0.0-5.0-2.35","5edc0583f16dff0c806bdbb6","bdp_cybrbll","Tue Mar 28 2023 17:33:17 GMT-0400 (Eastern Daylight Time)","629993","1","3","","","","","","","","","","190","","","","2","3","[{""stimulus"":""img/2to3/1.png"",""time"":106},{""stimulus"":""img/2to3/2.png"",""time"":205},{""stimulus"":""img/2to3/3.png"",""time"":304},{""stimulus"":""img/2to3/4.png"",""time"":405},{""stimulus"":""img/2to3/5.png"",""time"":504},{""stimulus"":""img/2to3/6.png"",""time"":595},{""stimulus"":""img/2to3/7.png"",""time"":694},{""stimulus"":""img/2to3/8.png"",""time"":794},{""stimulus"":""img/2to3/9.png"",""time"":895},{""stimulus"":""img/2to3/10.png"",""time"":993},{""stimulus"":""img/2to3/11.png"",""time"":1093},{""stimulus"":""img/2to3/12.png"",""time"":1201}]","[]"
"image-keyboard-response","76","196728","0.0-5.0-1.36","5edc0583f16dff0c806bdbb6","bdp_cybrbll","Tue Mar 28 2023 17:33:17 GMT-0400 (Eastern Daylight Time)","629993","1","3","","null","","","","observe","","img/3to2/1.png","null","189","324","0.5","0.5","3","2","",""
"animation","77","198017","0.0-5.0-2.36","5edc0583f16dff0c806bdbb6","bdp_cybrbll","Tue Mar 28 2023 17:33:17 GMT-0400 (Eastern Daylight Time)","629993","1","3","","","","","","","","","","189","","","","3","2","[{""stimulus"":""img/3to2/1.png"",""time"":101},{""stimulus"":""img/3to2/2.png"",""time"":201},{""stimulus"":""img/3to2/3.png"",""time"":300},{""stimulus"":""img/3to2/4.png"",""time"":400},{""stimulus"":""img/3to2/5.png"",""time"":499},{""stimulus"":""img/3to2/6.png"",""time"":607},{""stimulus"":""img/3to2/7.png"",""time"":699},{""stimulus"":""img/3to2/8.png"",""time"":799},{""stimulus"":""img/3to2/9.png"",""time"":898},{""stimulus"":""img/3to2/10.png"",""time"":998},{""stimulus"":""img/3to2/11.png"",""time"":1097},{""stimulus"":""img/3to2/12.png"",""time"":1205}]","[]"
"image-keyboard-response","78","198845","0.0-5.0-1.37","5edc0583f16dff0c806bdbb6","bdp_cybrbll","Tue Mar 28 2023 17:33:17 GMT-0400 (Eastern Daylight Time)","629993","1","3","","828","","","","choice","","img/2to1/1.png","2","188","1267","0.5","0.5","2","3","",""
"animation","79","200144","0.0-5.0-2.37","5edc0583f16dff0c806bdbb6","bdp_cybrbll","Tue Mar 28 2023 17:33:17 GMT-0400 (Eastern Daylight Time)","629993","1","3","","","","","","","","","","188","","","","2","3","[{""stimulus"":""img/2to3/1.png"",""time"":102},{""stimulus"":""img/2to3/2.png"",""time"":199},{""stimulus"":""img/2to3/3.png"",""time"":299},{""stimulus"":""img/2to3/4.png"",""time"":399},{""stimulus"":""img/2to3/5.png"",""time"":498},{""stimulus"":""img/2to3/6.png"",""time"":599},{""stimulus"":""img/2to3/7.png"",""time"":700},{""stimulus"":""img/2to3/8.png"",""time"":801},{""stimulus"":""img/2to3/9.png"",""time"":892},{""stimulus"":""img/2to3/10.png"",""time"":991},{""stimulus"":""img/2to3/11.png"",""time"":1090},{""stimulus"":""img/2to3/12.png"",""time"":1191}]","[]"
"image-keyboard-response","80","200498","0.0-5.0-1.38","5edc0583f16dff0c806bdbb6","bdp_cybrbll","Tue Mar 28 2023 17:33:17 GMT-0400 (Eastern Daylight Time)","629993","1","3","","null","","","","observe","","img/3to2/1.png","null","187","350","0.5","0.5","3","2","",""
"animation","81","201786","0.0-5.0-2.38","5edc0583f16dff0c806bdbb6","bdp_cybrbll","Tue Mar 28 2023 17:33:17 GMT-0400 (Eastern Daylight Time)","629993","1","3","","","","","","","","","","187","","","","3","2","[{""stimulus"":""img/3to2/1.png"",""time"":102},{""stimulus"":""img/3to2/2.png"",""time"":201},{""stimulus"":""img/3to2/3.png"",""time"":300},{""stimulus"":""img/3to2/4.png"",""time"":399},{""stimulus"":""img/3to2/5.png"",""time"":499},{""stimulus"":""img/3to2/6.png"",""time"":599},{""stimulus"":""img/3to2/7.png"",""time"":698},{""stimulus"":""img/3to2/8.png"",""time"":799},{""stimulus"":""img/3to2/9.png"",""time"":898},{""stimulus"":""img/3to2/10.png"",""time"":998},{""stimulus"":""img/3to2/11.png"",""time"":1091},{""stimulus"":""img/3to2/12.png"",""time"":1189}]","[]"
"image-keyboard-response","82","202549","0.0-5.0-1.39","5edc0583f16dff0c806bdbb6","bdp_cybrbll","Tue Mar 28 2023 17:33:17 GMT-0400 (Eastern Daylight Time)","629993","1","3","","762","","","","choice","","img/2to1/1.png","1","186","1188","0.5","0.5","2","1","",""
"animation","83","203838","0.0-5.0-2.39","5edc0583f16dff0c806bdbb6","bdp_cybrbll","Tue Mar 28 2023 17:33:17 GMT-0400 (Eastern Daylight Time)","629993","1","3","","","","","","","","","","186","","","","2","1","[{""stimulus"":""img/2to1/1.png"",""time"":107},{""stimulus"":""img/2to1/2.png"",""time"":205},{""stimulus"":""img/2to1/3.png"",""time"":310},{""stimulus"":""img/2to1/4.png"",""time"":406},{""stimulus"":""img/2to1/5.png"",""time"":504},{""stimulus"":""img/2to1/6.png"",""time"":596},{""stimulus"":""img/2to1/7.png"",""time"":698},{""stimulus"":""img/2to1/8.png"",""time"":798},{""stimulus"":""img/2to1/9.png"",""time"":898},{""stimulus"":""img/2to1/10.png"",""time"":999},{""stimulus"":""img/2to1/11.png"",""time"":1098},{""stimulus"":""img/2to1/12.png"",""time"":1189}]","[]"
"image-keyboard-response","84","204244","0.0-5.0-1.40","5edc0583f16dff0c806bdbb6","bdp_cybrbll","Tue Mar 28 2023 17:33:17 GMT-0400 (Eastern Daylight Time)","629993","1","3","","null","","","","observe","","img/1to3/1.png","null","185","402","0.5","0.5","1","2","",""
"animation","85","205535","0.0-5.0-2.40","5edc0583f16dff0c806bdbb6","bdp_cybrbll","Tue Mar 28 2023 17:33:17 GMT-0400 (Eastern Daylight Time)","629993","1","3","","","","","","","","","","185","","","","1","2","[{""stimulus"":""img/1to2/1.png"",""time"":102},{""stimulus"":""img/1to2/2.png"",""time"":202},{""stimulus"":""img/1to2/3.png"",""time"":302},{""stimulus"":""img/1to2/4.png"",""time"":411},{""stimulus"":""img/1to2/5.png"",""time"":503},{""stimulus"":""img/1to2/6.png"",""time"":603},{""stimulus"":""img/1to2/7.png"",""time"":695},{""stimulus"":""img/1to2/8.png"",""time"":801},{""stimulus"":""img/1to2/9.png"",""time"":892},{""stimulus"":""img/1to2/10.png"",""time"":992},{""stimulus"":""img/1to2/11.png"",""time"":1092},{""stimulus"":""img/1to2/12.png"",""time"":1192}]","[]"
"image-keyboard-response","86","205968","0.0-5.0-1.41","5edc0583f16dff0c806bdbb6","bdp_cybrbll","Tue Mar 28 2023 17:33:17 GMT-0400 (Eastern Daylight Time)","629993","1","3","","432","","","","choice","","img/2to1/1.png","2","184","837","0.5","0.5","2","3","",""
"animation","87","207257","0.0-5.0-2.41","5edc0583f16dff0c806bdbb6","bdp_cybrbll","Tue Mar 28 2023 17:33:17 GMT-0400 (Eastern Daylight Time)","629993","1","3","","","","","","","","","","184","","","","2","3","[{""stimulus"":""img/2to3/1.png"",""time"":112},{""stimulus"":""img/2to3/2.png"",""time"":211},{""stimulus"":""img/2to3/3.png"",""time"":302},{""stimulus"":""img/2to3/4.png"",""time"":401},{""stimulus"":""img/2to3/5.png"",""time"":500},{""stimulus"":""img/2to3/6.png"",""time"":599},{""stimulus"":""img/2to3/7.png"",""time"":701},{""stimulus"":""img/2to3/8.png"",""time"":801},{""stimulus"":""img/2to3/9.png"",""time"":900},{""stimulus"":""img/2to3/10.png"",""time"":999},{""stimulus"":""img/2to3/11.png"",""time"":1091},{""stimulus"":""img/2to3/12.png"",""time"":1189}]","[]"
"image-keyboard-response","88","207990","0.0-5.0-1.42","5edc0583f16dff0c806bdbb6","bdp_cybrbll","Tue Mar 28 2023 17:33:17 GMT-0400 (Eastern Daylight Time)","629993","1","3","","null","","","","observe","","img/3to2/1.png","null","183","730","0.5","0.5","3","2","",""
"animation","89","209278","0.0-5.0-2.42","5edc0583f16dff0c806bdbb6","bdp_cybrbll","Tue Mar 28 2023 17:33:17 GMT-0400 (Eastern Daylight Time)","629993","1","3","","","","","","","","","","183","","","","3","2","[{""stimulus"":""img/3to2/1.png"",""time"":105},{""stimulus"":""img/3to2/2.png"",""time"":205},{""stimulus"":""img/3to2/3.png"",""time"":304},{""stimulus"":""img/3to2/4.png"",""time"":404},{""stimulus"":""img/3to2/5.png"",""time"":505},{""stimulus"":""img/3to2/6.png"",""time"":596},{""stimulus"":""img/3to2/7.png"",""time"":703},{""stimulus"":""img/3to2/8.png"",""time"":794},{""stimulus"":""img/3to2/9.png"",""time"":896},{""stimulus"":""img/3to2/10.png"",""time"":996},{""stimulus"":""img/3to2/11.png"",""time"":1097},{""stimulus"":""img/3to2/12.png"",""time"":1197}]","[]"
"image-keyboard-response","90","210221","0.0-5.0-1.43","5edc0583f16dff0c806bdbb6","bdp_cybrbll","Tue Mar 28 2023 17:33:17 GMT-0400 (Eastern Daylight Time)","629993","1","3","","942","","","","choice","","img/2to1/1.png","1","182","496","0.5","0.5","2","1","",""
"animation","91","211511","0.0-5.0-2.43","5edc0583f16dff0c806bdbb6","bdp_cybrbll","Tue Mar 28 2023 17:33:17 GMT-0400 (Eastern Daylight Time)","629993","1","3","","","","","","","","","","182","","","","2","1","[{""stimulus"":""img/2to1/1.png"",""time"":108},{""stimulus"":""img/2to1/2.png"",""time"":215},{""stimulus"":""img/2to1/3.png"",""time"":305},{""stimulus"":""img/2to1/4.png"",""time"":404},{""stimulus"":""img/2to1/5.png"",""time"":497},{""stimulus"":""img/2to1/6.png"",""time"":596},{""stimulus"":""img/2to1/7.png"",""time"":698},{""stimulus"":""img/2to1/8.png"",""time"":798},{""stimulus"":""img/2to1/9.png"",""time"":892},{""stimulus"":""img/2to1/10.png"",""time"":992},{""stimulus"":""img/2to1/11.png"",""time"":1091},{""stimulus"":""img/2to1/12.png"",""time"":1193}]","[]"
"image-keyboard-response","92","212608","0.0-5.0-1.44","5edc0583f16dff0c806bdbb6","bdp_cybrbll","Tue Mar 28 2023 17:33:17 GMT-0400 (Eastern Daylight Time)","629993","1","3","","null","","","","observe","","img/1to3/1.png","null","181","1092","0.5","0.5","1","2","",""
"animation","93","213899","0.0-5.0-2.44","5edc0583f16dff0c806bdbb6","bdp_cybrbll","Tue Mar 28 2023 17:33:17 GMT-0400 (Eastern Daylight Time)","629993","1","3","","","","","","","","","","181","","","","1","2","[{""stimulus"":""img/1to2/1.png"",""time"":100},{""stimulus"":""img/1to2/2.png"",""time"":199},{""stimulus"":""img/1to2/3.png"",""time"":300},{""stimulus"":""img/1to2/4.png"",""time"":408},{""stimulus"":""img/1to2/5.png"",""time"":499},{""stimulus"":""img/1to2/6.png"",""time"":600},{""stimulus"":""img/1to2/7.png"",""time"":700},{""stimulus"":""img/1to2/8.png"",""time"":799},{""stimulus"":""img/1to2/9.png"",""time"":899},{""stimulus"":""img/1to2/10.png"",""time"":991},{""stimulus"":""img/1to2/11.png"",""time"":1091},{""stimulus"":""img/1to2/12.png"",""time"":1192}]","[]"
"image-keyboard-response","94","214798","0.0-5.0-1.45","5edc0583f16dff0c806bdbb6","bdp_cybrbll","Tue Mar 28 2023 17:33:17 GMT-0400 (Eastern Daylight Time)","629993","1","3","","898","","","","choice","","img/2to1/1.png","2","180","603","0.5","0.5","2","3","",""
"animation","95","216093","0.0-5.0-2.45","5edc0583f16dff0c806bdbb6","bdp_cybrbll","Tue Mar 28 2023 17:33:17 GMT-0400 (Eastern Daylight Time)","629993","1","3","","","","","","","","","","180","","","","2","3","[{""stimulus"":""img/2to3/1.png"",""time"":115},{""stimulus"":""img/2to3/2.png"",""time"":200},{""stimulus"":""img/2to3/3.png"",""time"":305},{""stimulus"":""img/2to3/4.png"",""time"":404},{""stimulus"":""img/2to3/5.png"",""time"":503},{""stimulus"":""img/2to3/6.png"",""time"":601},{""stimulus"":""img/2to3/7.png"",""time"":702},{""stimulus"":""img/2to3/8.png"",""time"":792},{""stimulus"":""img/2to3/9.png"",""time"":893},{""stimulus"":""img/2to3/10.png"",""time"":992},{""stimulus"":""img/2to3/11.png"",""time"":1095},{""stimulus"":""img/2to3/12.png"",""time"":1194}]","[]"
"image-keyboard-response","96","216564","0.0-5.0-1.46","5edc0583f16dff0c806bdbb6","bdp_cybrbll","Tue Mar 28 2023 17:33:17 GMT-0400 (Eastern Daylight Time)","629993","1","3","","null","","","","observe","","img/3to2/1.png","null","179","469","0.5","0.5","3","2","",""
"animation","97","217854","0.0-5.0-2.46","5edc0583f16dff0c806bdbb6","bdp_cybrbll","Tue Mar 28 2023 17:33:17 GMT-0400 (Eastern Daylight Time)","629993","1","3","","","","","","","","","","179","","","","3","2","[{""stimulus"":""img/3to2/1.png"",""time"":102},{""stimulus"":""img/3to2/2.png"",""time"":210},{""stimulus"":""img/3to2/3.png"",""time"":309},{""stimulus"":""img/3to2/4.png"",""time"":400},{""stimulus"":""img/3to2/5.png"",""time"":499},{""stimulus"":""img/3to2/6.png"",""time"":600},{""stimulus"":""img/3to2/7.png"",""time"":701},{""stimulus"":""img/3to2/8.png"",""time"":793},{""stimulus"":""img/3to2/9.png"",""time"":900},{""stimulus"":""img/3to2/10.png"",""time"":991},{""stimulus"":""img/3to2/11.png"",""time"":1091},{""stimulus"":""img/3to2/12.png"",""time"":1190}]","[]"
"image-keyboard-response","98","218550","0.0-5.0-1.47","5edc0583f16dff0c806bdbb6","bdp_cybrbll","Tue Mar 28 2023 17:33:17 GMT-0400 (Eastern Daylight Time)","629993","1","3","","695","","","","choice","","img/2to1/1.png","1","178","457","0.5","0.5","2","1","",""
"animation","99","219841","0.0-5.0-2.47","5edc0583f16dff0c806bdbb6","bdp_cybrbll","Tue Mar 28 2023 17:33:17 GMT-0400 (Eastern Daylight Time)","629993","1","3","","","","","","","","","","178","","","","2","1","[{""stimulus"":""img/2to1/1.png"",""time"":101},{""stimulus"":""img/2to1/2.png"",""time"":206},{""stimulus"":""img/2to1/3.png"",""time"":312},{""stimulus"":""img/2to1/4.png"",""time"":402},{""stimulus"":""img/2to1/5.png"",""time"":500},{""stimulus"":""img/2to1/6.png"",""time"":597},{""stimulus"":""img/2to1/7.png"",""time"":696},{""stimulus"":""img/2to1/8.png"",""time"":794},{""stimulus"":""img/2to1/9.png"",""time"":893},{""stimulus"":""img/2to1/10.png"",""time"":991},{""stimulus"":""img/2to1/11.png"",""time"":1098},{""stimulus"":""img/2to1/12.png"",""time"":1191}]","[]"
"image-keyboard-response","100","220150","0.0-5.0-1.48","5edc0583f16dff0c806bdbb6","bdp_cybrbll","Tue Mar 28 2023 17:33:17 GMT-0400 (Eastern Daylight Time)","629993","1","3","","null","","","","observe","","img/1to3/1.png","null","177","306","0.5","0.5","1","2","",""
"animation","101","221440","0.0-5.0-2.48","5edc0583f16dff0c806bdbb6","bdp_cybrbll","Tue Mar 28 2023 17:33:17 GMT-0400 (Eastern Daylight Time)","629993","1","3","","","","","","","","","","177","","","","1","2","[{""stimulus"":""img/1to2/1.png"",""time"":102},{""stimulus"":""img/1to2/2.png"",""time"":202},{""stimulus"":""img/1to2/3.png"",""time"":302},{""stimulus"":""img/1to2/4.png"",""time"":402},{""stimulus"":""img/1to2/5.png"",""time"":502},{""stimulus"":""img/1to2/6.png"",""time"":603},{""stimulus"":""img/1to2/7.png"",""time"":694},{""stimulus"":""img/1to2/8.png"",""time"":793},{""stimulus"":""img/1to2/9.png"",""time"":893},{""stimulus"":""img/1to2/10.png"",""time"":992},{""stimulus"":""img/1to2/11.png"",""time"":1091},{""stimulus"":""img/1to2/12.png"",""time"":1190}]","[]"
"image-keyboard-response","102","221507","0.0-5.0-1.49","5edc0583f16dff0c806bdbb6","bdp_cybrbll","Tue Mar 28 2023 17:33:17 GMT-0400 (Eastern Daylight Time)","629993","1","3","","65","","","","choice","","img/2to1/1.png","2","176","411","0.5","0.5","2","3","",""
"animation","103","222803","0.0-5.0-2.49","5edc0583f16dff0c806bdbb6","bdp_cybrbll","Tue Mar 28 2023 17:33:17 GMT-0400 (Eastern Daylight Time)","629993","1","3","","","","","","","","","","176","","","","2","3","[{""stimulus"":""img/2to3/1.png"",""time"":107},{""stimulus"":""img/2to3/2.png"",""time"":205},{""stimulus"":""img/2to3/3.png"",""time"":304},{""stimulus"":""img/2to3/4.png"",""time"":405},{""stimulus"":""img/2to3/5.png"",""time"":496},{""stimulus"":""img/2to3/6.png"",""time"":597},{""stimulus"":""img/2to3/7.png"",""time"":696},{""stimulus"":""img/2to3/8.png"",""time"":807},{""stimulus"":""img/2to3/9.png"",""time"":899},{""stimulus"":""img/2to3/10.png"",""time"":998},{""stimulus"":""img/2to3/11.png"",""time"":1090},{""stimulus"":""img/2to3/12.png"",""time"":1196}]","[]"
"image-keyboard-response","104","223559","0.0-5.0-1.50","5edc0583f16dff0c806bdbb6","bdp_cybrbll","Tue Mar 28 2023 17:33:17 GMT-0400 (Eastern Daylight Time)","629993","1","3","","null","","","","observe","","img/3to2/1.png","null","175","750","0.5","0.5","3","2","",""
"animation","105","224861","0.0-5.0-2.50","5edc0583f16dff0c806bdbb6","bdp_cybrbll","Tue Mar 28 2023 17:33:17 GMT-0400 (Eastern Daylight Time)","629993","1","3","","","","","","","","","","175","","","","3","2","[{""stimulus"":""img/3to2/1.png"",""time"":102},{""stimulus"":""img/3to2/2.png"",""time"":203},{""stimulus"":""img/3to2/3.png"",""time"":301},{""stimulus"":""img/3to2/4.png"",""time"":400},{""stimulus"":""img/3to2/5.png"",""time"":498},{""stimulus"":""img/3to2/6.png"",""time"":598},{""stimulus"":""img/3to2/7.png"",""time"":698},{""stimulus"":""img/3to2/8.png"",""time"":798},{""stimulus"":""img/3to2/9.png"",""time"":898},{""stimulus"":""img/3to2/10.png"",""time"":997},{""stimulus"":""img/3to2/11.png"",""time"":1095},{""stimulus"":""img/3to2/12.png"",""time"":1196}]","[]"
"image-keyboard-response","106","225133","0.0-5.0-1.51","5edc0583f16dff0c806bdbb6","bdp_cybrbll","Tue Mar 28 2023 17:33:17 GMT-0400 (Eastern Daylight Time)","629993","1","3","","271","","","","choice","","img/2to1/1.png","2","174","974","0.5","0.5","2","3","",""
"animation","107","226422","0.0-5.0-2.51","5edc0583f16dff0c806bdbb6","bdp_cybrbll","Tue Mar 28 2023 17:33:17 GMT-0400 (Eastern Daylight Time)","629993","1","3","","","","","","","","","","174","","","","2","3","[{""stimulus"":""img/2to3/1.png"",""time"":104},{""stimulus"":""img/2to3/2.png"",""time"":204},{""stimulus"":""img/2to3/3.png"",""time"":303},{""stimulus"":""img/2to3/4.png"",""time"":404},{""stimulus"":""img/2to3/5.png"",""time"":505},{""stimulus"":""img/2to3/6.png"",""time"":595},{""stimulus"":""img/2to3/7.png"",""time"":695},{""stimulus"":""img/2to3/8.png"",""time"":794},{""stimulus"":""img/2to3/9.png"",""time"":895},{""stimulus"":""img/2to3/10.png"",""time"":993},{""stimulus"":""img/2to3/11.png"",""time"":1091},{""stimulus"":""img/2to3/12.png"",""time"":1190}]","[]"
"image-keyboard-response","108","226853","0.0-5.0-1.52","5edc0583f16dff0c806bdbb6","bdp_cybrbll","Tue Mar 28 2023 17:33:17 GMT-0400 (Eastern Daylight Time)","629993","1","3","","null","","","","observe","","img/3to2/1.png","null","173","420","0.5","0.5","3","1","",""
"animation","109","228155","0.0-5.0-2.52","5edc0583f16dff0c806bdbb6","bdp_cybrbll","Tue Mar 28 2023 17:33:17 GMT-0400 (Eastern Daylight Time)","629993","1","3","","","","","","","","","","173","","","","3","1","[{""stimulus"":""img/3to1/1.png"",""time"":101},{""stimulus"":""img/3to1/2.png"",""time"":201},{""stimulus"":""img/3to1/3.png"",""time"":301},{""stimulus"":""img/3to1/4.png"",""time"":400},{""stimulus"":""img/3to1/5.png"",""time"":501},{""stimulus"":""img/3to1/6.png"",""time"":599},{""stimulus"":""img/3to1/7.png"",""time"":698},{""stimulus"":""img/3to1/8.png"",""time"":797},{""stimulus"":""img/3to1/9.png"",""time"":895},{""stimulus"":""img/3to1/10.png"",""time"":1003},{""stimulus"":""img/3to1/11.png"",""time"":1093},{""stimulus"":""img/3to1/12.png"",""time"":1193}]","[]"
"image-keyboard-response","110","228549","0.0-5.0-1.53","5edc0583f16dff0c806bdbb6","bdp_cybrbll","Tue Mar 28 2023 17:33:17 GMT-0400 (Eastern Daylight Time)","629993","1","3","","null","","","","observe","","img/1to3/1.png","null","172","392","0.5","0.5","1","2","",""
"animation","111","229840","0.0-5.0-2.53","5edc0583f16dff0c806bdbb6","bdp_cybrbll","Tue Mar 28 2023 17:33:17 GMT-0400 (Eastern Daylight Time)","629993","1","3","","","","","","","","","","172","","","","1","2","[{""stimulus"":""img/1to2/1.png"",""time"":102},{""stimulus"":""img/1to2/2.png"",""time"":203},{""stimulus"":""img/1to2/3.png"",""time"":303},{""stimulus"":""img/1to2/4.png"",""time"":403},{""stimulus"":""img/1to2/5.png"",""time"":510},{""stimulus"":""img/1to2/6.png"",""time"":596},{""stimulus"":""img/1to2/7.png"",""time"":694},{""stimulus"":""img/1to2/8.png"",""time"":793},{""stimulus"":""img/1to2/9.png"",""time"":893},{""stimulus"":""img/1to2/10.png"",""time"":992},{""stimulus"":""img/1to2/11.png"",""time"":1092},{""stimulus"":""img/1to2/12.png"",""time"":1191}]","[]"
"image-keyboard-response","112","230319","0.0-5.0-1.54","5edc0583f16dff0c806bdbb6","bdp_cybrbll","Tue Mar 28 2023 17:33:17 GMT-0400 (Eastern Daylight Time)","629993","1","3","","479","","","","choice","","img/2to1/1.png","2","171","532","0.5","0.5","2","3","",""
"animation","113","231622","0.0-5.0-2.54","5edc0583f16dff0c806bdbb6","bdp_cybrbll","Tue Mar 28 2023 17:33:17 GMT-0400 (Eastern Daylight Time)","629993","1","3","","","","","","","","","","171","","","","2","3","[{""stimulus"":""img/2to3/1.png"",""time"":102},{""stimulus"":""img/2to3/2.png"",""time"":201},{""stimulus"":""img/2to3/3.png"",""time"":301},{""stimulus"":""img/2to3/4.png"",""time"":399},{""stimulus"":""img/2to3/5.png"",""time"":501},{""stimulus"":""img/2to3/6.png"",""time"":603},{""stimulus"":""img/2to3/7.png"",""time"":702},{""stimulus"":""img/2to3/8.png"",""time"":794},{""stimulus"":""img/2to3/9.png"",""time"":895},{""stimulus"":""img/2to3/10.png"",""time"":994},{""stimulus"":""img/2to3/11.png"",""time"":1104},{""stimulus"":""img/2to3/12.png"",""time"":1195}]","[]"
"image-keyboard-response","114","232444","0.0-5.0-1.55","5edc0583f16dff0c806bdbb6","bdp_cybrbll","Tue Mar 28 2023 17:33:17 GMT-0400 (Eastern Daylight Time)","629993","1","3","","null","","","","observe","","img/3to2/1.png","null","170","819","0.5","0.5","3","2","",""
"animation","115","233738","0.0-5.0-2.55","5edc0583f16dff0c806bdbb6","bdp_cybrbll","Tue Mar 28 2023 17:33:17 GMT-0400 (Eastern Daylight Time)","629993","1","3","","","","","","","","","","170","","","","3","2","[{""stimulus"":""img/3to2/1.png"",""time"":102},{""stimulus"":""img/3to2/2.png"",""time"":202},{""stimulus"":""img/3to2/3.png"",""time"":302},{""stimulus"":""img/3to2/4.png"",""time"":401},{""stimulus"":""img/3to2/5.png"",""time"":501},{""stimulus"":""img/3to2/6.png"",""time"":601},{""stimulus"":""img/3to2/7.png"",""time"":700},{""stimulus"":""img/3to2/8.png"",""time"":801},{""stimulus"":""img/3to2/9.png"",""time"":892},{""stimulus"":""img/3to2/10.png"",""time"":992},{""stimulus"":""img/3to2/11.png"",""time"":1093},{""stimulus"":""img/3to2/12.png"",""time"":1193}]","[]"
"image-keyboard-response","116","233898","0.0-5.0-1.56","5edc0583f16dff0c806bdbb6","bdp_cybrbll","Tue Mar 28 2023 17:33:17 GMT-0400 (Eastern Daylight Time)","629993","1","3","","159","","","","choice","","img/2to1/1.png","2","169","1087","0.5","0.5","2","3","",""
"animation","117","235186","0.0-5.0-2.56","5edc0583f16dff0c806bdbb6","bdp_cybrbll","Tue Mar 28 2023 17:33:17 GMT-0400 (Eastern Daylight Time)","629993","1","3","","","","","","","","","","169","","","","2","3","[{""stimulus"":""img/2to3/1.png"",""time"":108},{""stimulus"":""img/2to3/2.png"",""time"":199},{""stimulus"":""img/2to3/3.png"",""time"":307},{""stimulus"":""img/2to3/4.png"",""time"":398},{""stimulus"":""img/2to3/5.png"",""time"":497},{""stimulus"":""img/2to3/6.png"",""time"":603},{""stimulus"":""img/2to3/7.png"",""time"":694},{""stimulus"":""img/2to3/8.png"",""time"":794},{""stimulus"":""img/2to3/9.png"",""time"":893},{""stimulus"":""img/2to3/10.png"",""time"":998},{""stimulus"":""img/2to3/11.png"",""time"":1096},{""stimulus"":""img/2to3/12.png"",""time"":1197}]","[]"
"image-keyboard-response","118","235597","0.0-5.0-1.57","5edc0583f16dff0c806bdbb6","bdp_cybrbll","Tue Mar 28 2023 17:33:17 GMT-0400 (Eastern Daylight Time)","629993","1","3","","null","","","","observe","","img/3to2/1.png","null","168","408","0.5","0.5","3","2","",""
"animation","119","236887","0.0-5.0-2.57","5edc0583f16dff0c806bdbb6","bdp_cybrbll","Tue Mar 28 2023 17:33:17 GMT-0400 (Eastern Daylight Time)","629993","1","3","","","","","","","","","","168","","","","3","2","[{""stimulus"":""img/3to2/1.png"",""time"":101},{""stimulus"":""img/3to2/2.png"",""time"":201},{""stimulus"":""img/3to2/3.png"",""time"":302},{""stimulus"":""img/3to2/4.png"",""time"":401},{""stimulus"":""img/3to2/5.png"",""time"":501},{""stimulus"":""img/3to2/6.png"",""time"":602},{""stimulus"":""img/3to2/7.png"",""time"":701},{""stimulus"":""img/3to2/8.png"",""time"":799},{""stimulus"":""img/3to2/9.png"",""time"":900},{""stimulus"":""img/3to2/10.png"",""time"":991},{""stimulus"":""img/3to2/11.png"",""time"":1090},{""stimulus"":""img/3to2/12.png"",""time"":1189}]","[]"
"image-keyboard-response","120","242623","0.0-5.0-1.58","5edc0583f16dff0c806bdbb6","bdp_cybrbll","Tue Mar 28 2023 17:33:17 GMT-0400 (Eastern Daylight Time)","629993","1","3","","5735","","","","choice","","img/2to1/1.png","2","167","510","0.5","0.5","2","3","",""
"animation","121","243917","0.0-5.0-2.58","5edc0583f16dff0c806bdbb6","bdp_cybrbll","Tue Mar 28 2023 17:33:17 GMT-0400 (Eastern Daylight Time)","629993","1","3","","","","","","","","","","167","","","","2","3","[{""stimulus"":""img/2to3/1.png"",""time"":113},{""stimulus"":""img/2to3/2.png"",""time"":203},{""stimulus"":""img/2to3/3.png"",""time"":302},{""stimulus"":""img/2to3/4.png"",""time"":402},{""stimulus"":""img/2to3/5.png"",""time"":510},{""stimulus"":""img/2to3/6.png"",""time"":600},{""stimulus"":""img/2to3/7.png"",""time"":699},{""stimulus"":""img/2to3/8.png"",""time"":809},{""stimulus"":""img/2to3/9.png"",""time"":893},{""stimulus"":""img/2to3/10.png"",""time"":994},{""stimulus"":""img/2to3/11.png"",""time"":1093},{""stimulus"":""img/2to3/12.png"",""time"":1193}]","[]"
"image-keyboard-response","122","244116","0.0-5.0-1.59","5edc0583f16dff0c806bdbb6","bdp_cybrbll","Tue Mar 28 2023 17:33:17 GMT-0400 (Eastern Daylight Time)","629993","1","3","","null","","","","observe","","img/3to2/1.png","null","166","194","0.5","0.5","3","1","",""
"animation","123","245407","0.0-5.0-2.59","5edc0583f16dff0c806bdbb6","bdp_cybrbll","Tue Mar 28 2023 17:33:17 GMT-0400 (Eastern Daylight Time)","629993","1","3","","","","","","","","","","166","","","","3","1","[{""stimulus"":""img/3to1/1.png"",""time"":101},{""stimulus"":""img/3to1/2.png"",""time"":199},{""stimulus"":""img/3to1/3.png"",""time"":299},{""stimulus"":""img/3to1/4.png"",""time"":400},{""stimulus"":""img/3to1/5.png"",""time"":500},{""stimulus"":""img/3to1/6.png"",""time"":599},{""stimulus"":""img/3to1/7.png"",""time"":699},{""stimulus"":""img/3to1/8.png"",""time"":799},{""stimulus"":""img/3to1/9.png"",""time"":899},{""stimulus"":""img/3to1/10.png"",""time"":997},{""stimulus"":""img/3to1/11.png"",""time"":1095},{""stimulus"":""img/3to1/12.png"",""time"":1192}]","[]"
"image-keyboard-response","124","245688","0.0-5.0-1.60","5edc0583f16dff0c806bdbb6","bdp_cybrbll","Tue Mar 28 2023 17:33:17 GMT-0400 (Eastern Daylight Time)","629993","1","3","","null","","","","observe","","img/1to3/1.png","null","165","273","0.5","0.5","1","3","",""
"animation","125","246976","0.0-5.0-2.60","5edc0583f16dff0c806bdbb6","bdp_cybrbll","Tue Mar 28 2023 17:33:17 GMT-0400 (Eastern Daylight Time)","629993","1","3","","","","","","","","","","165","","","","1","3","[{""stimulus"":""img/1to3/1.png"",""time"":116},{""stimulus"":""img/1to3/2.png"",""time"":215},{""stimulus"":""img/1to3/3.png"",""time"":306},{""stimulus"":""img/1to3/4.png"",""time"":397},{""stimulus"":""img/1to3/5.png"",""time"":498},{""stimulus"":""img/1to3/6.png"",""time"":606},{""stimulus"":""img/1to3/7.png"",""time"":698},{""stimulus"":""img/1to3/8.png"",""time"":797},{""stimulus"":""img/1to3/9.png"",""time"":899},{""stimulus"":""img/1to3/10.png"",""time"":998},{""stimulus"":""img/1to3/11.png"",""time"":1090},{""stimulus"":""img/1to3/12.png"",""time"":1198}]","[]"
"image-keyboard-response","126","247427","0.0-5.0-1.61","5edc0583f16dff0c806bdbb6","bdp_cybrbll","Tue Mar 28 2023 17:33:17 GMT-0400 (Eastern Daylight Time)","629993","1","3","","null","","","","observe","","img/3to2/1.png","null","164","442","0.5","0.5","3","1","",""
"animation","127","248723","0.0-5.0-2.61","5edc0583f16dff0c806bdbb6","bdp_cybrbll","Tue Mar 28 2023 17:33:17 GMT-0400 (Eastern Daylight Time)","629993","1","3","","","","","","","","","","164","","","","3","1","[{""stimulus"":""img/3to1/1.png"",""time"":100},{""stimulus"":""img/3to1/2.png"",""time"":206},{""stimulus"":""img/3to1/3.png"",""time"":305},{""stimulus"":""img/3to1/4.png"",""time"":405},{""stimulus"":""img/3to1/5.png"",""time"":504},{""stimulus"":""img/3to1/6.png"",""time"":596},{""stimulus"":""img/3to1/7.png"",""time"":698},{""stimulus"":""img/3to1/8.png"",""time"":799},{""stimulus"":""img/3to1/9.png"",""time"":899},{""stimulus"":""img/3to1/10.png"",""time"":990},{""stimulus"":""img/3to1/11.png"",""time"":1090},{""stimulus"":""img/3to1/12.png"",""time"":1189}]","[]"
"image-keyboard-response","128","248931","0.0-5.0-1.62","5edc0583f16dff0c806bdbb6","bdp_cybrbll","Tue Mar 28 2023 17:33:17 GMT-0400 (Eastern Daylight Time)","629993","1","3","","null","","","","observe","","img/1to3/1.png","null","163","192","0.5","0.5","1","2","",""
"animation","129","250223","0.0-5.0-2.62","5edc0583f16dff0c806bdbb6","bdp_cybrbll","Tue Mar 28 2023 17:33:17 GMT-0400 (Eastern Daylight Time)","629993","1","3","","","","","","","","","","163","","","","1","2","[{""stimulus"":""img/1to2/1.png"",""time"":106},{""stimulus"":""img/1to2/2.png"",""time"":204},{""stimulus"":""img/1to2/3.png"",""time"":302},{""stimulus"":""img/1to2/4.png"",""time"":401},{""stimulus"":""img/1to2/5.png"",""time"":499},{""stimulus"":""img/1to2/6.png"",""time"":597},{""stimulus"":""img/1to2/7.png"",""time"":696},{""stimulus"":""img/1to2/8.png"",""time"":795},{""stimulus"":""img/1to2/9.png"",""time"":893},{""stimulus"":""img/1to2/10.png"",""time"":991},{""stimulus"":""img/1to2/11.png"",""time"":1092},{""stimulus"":""img/1to2/12.png"",""time"":1191}]","[]"
"image-keyboard-response","130","255561","0.0-5.0-1.63","5edc0583f16dff0c806bdbb6","bdp_cybrbll","Tue Mar 28 2023 17:33:17 GMT-0400 (Eastern Daylight Time)","629993","1","3","","5337","","","","choice","","img/2to1/1.png","2","162","325","0.5","0.5","2","3","",""
"animation","131","256849","0.0-5.0-2.63","5edc0583f16dff0c806bdbb6","bdp_cybrbll","Tue Mar 28 2023 17:33:17 GMT-0400 (Eastern Daylight Time)","629993","1","3","","","","","","","","","","162","","","","2","3","[{""stimulus"":""img/2to3/1.png"",""time"":105},{""stimulus"":""img/2to3/2.png"",""time"":204},{""stimulus"":""img/2to3/3.png"",""time"":312},{""stimulus"":""img/2to3/4.png"",""time"":404},{""stimulus"":""img/2to3/5.png"",""time"":496},{""stimulus"":""img/2to3/6.png"",""time"":596},{""stimulus"":""img/2to3/7.png"",""time"":694},{""stimulus"":""img/2to3/8.png"",""time"":795},{""stimulus"":""img/2to3/9.png"",""time"":895},{""stimulus"":""img/2to3/10.png"",""time"":995},{""stimulus"":""img/2to3/11.png"",""time"":1095},{""stimulus"":""img/2to3/12.png"",""time"":1196}]","[]"
"image-keyboard-response","132","258056","0.0-5.0-1.64","5edc0583f16dff0c806bdbb6","bdp_cybrbll","Tue Mar 28 2023 17:33:17 GMT-0400 (Eastern Daylight Time)","629993","1","3","","null","","","","observe","","img/3to2/1.png","null","161","1189","0.5","0.5","3","1","",""
"animation","133","259347","0.0-5.0-2.64","5edc0583f16dff0c806bdbb6","bdp_cybrbll","Tue Mar 28 2023 17:33:17 GMT-0400 (Eastern Daylight Time)","629993","1","3","","","","","","","","","","161","","","","3","1","[{""stimulus"":""img/3to1/1.png"",""time"":102},{""stimulus"":""img/3to1/2.png"",""time"":201},{""stimulus"":""img/3to1/3.png"",""time"":299},{""stimulus"":""img/3to1/4.png"",""time"":400},{""stimulus"":""img/3to1/5.png"",""time"":500},{""stimulus"":""img/3to1/6.png"",""time"":600},{""stimulus"":""img/3to1/7.png"",""time"":700},{""stimulus"":""img/3to1/8.png"",""time"":800},{""stimulus"":""img/3to1/9.png"",""time"":892},{""stimulus"":""img/3to1/10.png"",""time"":991},{""stimulus"":""img/3to1/11.png"",""time"":1092},{""stimulus"":""img/3to1/12.png"",""time"":1193}]","[]"
"image-keyboard-response","134","259599","0.0-5.0-1.65","5edc0583f16dff0c806bdbb6","bdp_cybrbll","Tue Mar 28 2023 17:33:17 GMT-0400 (Eastern Daylight Time)","629993","1","3","","null","","","","observe","","img/1to3/1.png","null","160","247","0.5","0.5","1","2","",""
"animation","135","260891","0.0-5.0-2.65","5edc0583f16dff0c806bdbb6","bdp_cybrbll","Tue Mar 28 2023 17:33:17 GMT-0400 (Eastern Daylight Time)","629993","1","3","","","","","","","","","","160","","","","1","2","[{""stimulus"":""img/1to2/1.png"",""time"":102},{""stimulus"":""img/1to2/2.png"",""time"":200},{""stimulus"":""img/1to2/3.png"",""time"":301},{""stimulus"":""img/1to2/4.png"",""time"":401},{""stimulus"":""img/1to2/5.png"",""time"":500},{""stimulus"":""img/1to2/6.png"",""time"":600},{""stimulus"":""img/1to2/7.png"",""time"":701},{""stimulus"":""img/1to2/8.png"",""time"":801},{""stimulus"":""img/1to2/9.png"",""time"":894},{""stimulus"":""img/1to2/10.png"",""time"":993},{""stimulus"":""img/1to2/11.png"",""time"":1092},{""stimulus"":""img/1to2/12.png"",""time"":1201}]","[]"
"image-keyboard-response","136","276069","0.0-5.0-1.66","5edc0583f16dff0c806bdbb6","bdp_cybrbll","Tue Mar 28 2023 17:33:17 GMT-0400 (Eastern Daylight Time)","629993","1","3","","15177","","","","choice","","img/2to1/1.png","2","159","309","0.5","0.5","2","3","",""
"animation","137","277366","0.0-5.0-2.66","5edc0583f16dff0c806bdbb6","bdp_cybrbll","Tue Mar 28 2023 17:33:17 GMT-0400 (Eastern Daylight Time)","629993","1","3","","","","","","","","","","159","","","","2","3","[{""stimulus"":""img/2to3/1.png"",""time"":104},{""stimulus"":""img/2to3/2.png"",""time"":201},{""stimulus"":""img/2to3/3.png"",""time"":302},{""stimulus"":""img/2to3/4.png"",""time"":399},{""stimulus"":""img/2to3/5.png"",""time"":498},{""stimulus"":""img/2to3/6.png"",""time"":596},{""stimulus"":""img/2to3/7.png"",""time"":696},{""stimulus"":""img/2to3/8.png"",""time"":795},{""stimulus"":""img/2to3/9.png"",""time"":894},{""stimulus"":""img/2to3/10.png"",""time"":992},{""stimulus"":""img/2to3/11.png"",""time"":1091},{""stimulus"":""img/2to3/12.png"",""time"":1197}]","[]"
"image-keyboard-response","138","277656","0.0-5.0-1.67","5edc0583f16dff0c806bdbb6","bdp_cybrbll","Tue Mar 28 2023 17:33:17 GMT-0400 (Eastern Daylight Time)","629993","1","3","","null","","","","observe","","img/3to2/1.png","null","158","274","0.5","0.5","3","2","",""
"animation","139","278948","0.0-5.0-2.67","5edc0583f16dff0c806bdbb6","bdp_cybrbll","Tue Mar 28 2023 17:33:17 GMT-0400 (Eastern Daylight Time)","629993","1","3","","","","","","","","","","158","","","","3","2","[{""stimulus"":""img/3to2/1.png"",""time"":100},{""stimulus"":""img/3to2/2.png"",""time"":205},{""stimulus"":""img/3to2/3.png"",""time"":304},{""stimulus"":""img/3to2/4.png"",""time"":403},{""stimulus"":""img/3to2/5.png"",""time"":502},{""stimulus"":""img/3to2/6.png"",""time"":601},{""stimulus"":""img/3to2/7.png"",""time"":701},{""stimulus"":""img/3to2/8.png"",""time"":800},{""stimulus"":""img/3to2/9.png"",""time"":893},{""stimulus"":""img/3to2/10.png"",""time"":991},{""stimulus"":""img/3to2/11.png"",""time"":1092},{""stimulus"":""img/3to2/12.png"",""time"":1192}]","[]"
"image-keyboard-response","140","279918","0.0-5.0-1.68","5edc0583f16dff0c806bdbb6","bdp_cybrbll","Tue Mar 28 2023 17:33:17 GMT-0400 (Eastern Daylight Time)","629993","1","3","","969","","","","choice","","img/2to1/1.png","2","157","743","0.5","0.5","2","3","",""
"animation","141","281207","0.0-5.0-2.68","5edc0583f16dff0c806bdbb6","bdp_cybrbll","Tue Mar 28 2023 17:33:17 GMT-0400 (Eastern Daylight Time)","629993","1","3","","","","","","","","","","157","","","","2","3","[{""stimulus"":""img/2to3/1.png"",""time"":106},{""stimulus"":""img/2to3/2.png"",""time"":207},{""stimulus"":""img/2to3/3.png"",""time"":306},{""stimulus"":""img/2to3/4.png"",""time"":399},{""stimulus"":""img/2to3/5.png"",""time"":500},{""stimulus"":""img/2to3/6.png"",""time"":600},{""stimulus"":""img/2to3/7.png"",""time"":708},{""stimulus"":""img/2to3/8.png"",""time"":799},{""stimulus"":""img/2to3/9.png"",""time"":900},{""stimulus"":""img/2to3/10.png"",""time"":1001},{""stimulus"":""img/2to3/11.png"",""time"":1099},{""stimulus"":""img/2to3/12.png"",""time"":1190}]","[]"
"image-keyboard-response","142","281733","0.0-5.0-1.69","5edc0583f16dff0c806bdbb6","bdp_cybrbll","Tue Mar 28 2023 17:33:17 GMT-0400 (Eastern Daylight Time)","629993","1","3","","null","","","","observe","","img/3to2/1.png","null","156","522","0.5","0.5","3","2","",""
"animation","143","283030","0.0-5.0-2.69","5edc0583f16dff0c806bdbb6","bdp_cybrbll","Tue Mar 28 2023 17:33:17 GMT-0400 (Eastern Daylight Time)","629993","1","3","","","","","","","","","","156","","","","3","2","[{""stimulus"":""img/3to2/1.png"",""time"":105},{""stimulus"":""img/3to2/2.png"",""time"":204},{""stimulus"":""img/3to2/3.png"",""time"":303},{""stimulus"":""img/3to2/4.png"",""time"":403},{""stimulus"":""img/3to2/5.png"",""time"":503},{""stimulus"":""img/3to2/6.png"",""time"":600},{""stimulus"":""img/3to2/7.png"",""time"":701},{""stimulus"":""img/3to2/8.png"",""time"":799},{""stimulus"":""img/3to2/9.png"",""time"":898},{""stimulus"":""img/3to2/10.png"",""time"":998},{""stimulus"":""img/3to2/11.png"",""time"":1097},{""stimulus"":""img/3to2/12.png"",""time"":1197}]","[]"
"image-keyboard-response","144","283802","0.0-5.0-1.70","5edc0583f16dff0c806bdbb6","bdp_cybrbll","Tue Mar 28 2023 17:33:17 GMT-0400 (Eastern Daylight Time)","629993","1","3","","772","","","","choice","","img/2to1/1.png","2","155","248","0.5","0.5","2","3","",""
"animation","145","285091","0.0-5.0-2.70","5edc0583f16dff0c806bdbb6","bdp_cybrbll","Tue Mar 28 2023 17:33:17 GMT-0400 (Eastern Daylight Time)","629993","1","3","","","","","","","","","","155","","","","2","3","[{""stimulus"":""img/2to3/1.png"",""time"":104},{""stimulus"":""img/2to3/2.png"",""time"":204},{""stimulus"":""img/2to3/3.png"",""time"":304},{""stimulus"":""img/2to3/4.png"",""time"":402},{""stimulus"":""img/2to3/5.png"",""time"":502},{""stimulus"":""img/2to3/6.png"",""time"":600},{""stimulus"":""img/2to3/7.png"",""time"":700},{""stimulus"":""img/2to3/8.png"",""time"":809},{""stimulus"":""img/2to3/9.png"",""time"":900},{""stimulus"":""img/2to3/10.png"",""time"":992},{""stimulus"":""img/2to3/11.png"",""time"":1090},{""stimulus"":""img/2to3/12.png"",""time"":1189}]","[]"
"image-keyboard-response","146","285609","0.0-5.0-1.71","5edc0583f16dff0c806bdbb6","bdp_cybrbll","Tue Mar 28 2023 17:33:17 GMT-0400 (Eastern Daylight Time)","629993","1","3","","null","","","","observe","","img/3to2/1.png","null","154","513","0.5","0.5","3","2","",""
"animation","147","286902","0.0-5.0-2.71","5edc0583f16dff0c806bdbb6","bdp_cybrbll","Tue Mar 28 2023 17:33:17 GMT-0400 (Eastern Daylight Time)","629993","1","3","","","","","","","","","","154","","","","3","2","[{""stimulus"":""img/3to2/1.png"",""time"":101},{""stimulus"":""img/3to2/2.png"",""time"":199},{""stimulus"":""img/3to2/3.png"",""time"":300},{""stimulus"":""img/3to2/4.png"",""time"":398},{""stimulus"":""img/3to2/5.png"",""time"":497},{""stimulus"":""img/3to2/6.png"",""time"":597},{""stimulus"":""img/3to2/7.png"",""time"":696},{""stimulus"":""img/3to2/8.png"",""time"":794},{""stimulus"":""img/3to2/9.png"",""time"":893},{""stimulus"":""img/3to2/10.png"",""time"":993},{""stimulus"":""img/3to2/11.png"",""time"":1092},{""stimulus"":""img/3to2/12.png"",""time"":1191}]","[]"
"image-keyboard-response","148","287245","0.0-5.0-1.72","5edc0583f16dff0c806bdbb6","bdp_cybrbll","Tue Mar 28 2023 17:33:17 GMT-0400 (Eastern Daylight Time)","629993","1","3","","341","","","","choice","","img/2to1/1.png","2","153","321","0.5","0.5","2","3","",""
"animation","149","288536","0.0-5.0-2.72","5edc0583f16dff0c806bdbb6","bdp_cybrbll","Tue Mar 28 2023 17:33:17 GMT-0400 (Eastern Daylight Time)","629993","1","3","","","","","","","","","","153","","","","2","3","[{""stimulus"":""img/2to3/1.png"",""time"":101},{""stimulus"":""img/2to3/2.png"",""time"":200},{""stimulus"":""img/2to3/3.png"",""time"":299},{""stimulus"":""img/2to3/4.png"",""time"":399},{""stimulus"":""img/2to3/5.png"",""time"":500},{""stimulus"":""img/2to3/6.png"",""time"":599},{""stimulus"":""img/2to3/7.png"",""time"":699},{""stimulus"":""img/2to3/8.png"",""time"":799},{""stimulus"":""img/2to3/9.png"",""time"":898},{""stimulus"":""img/2to3/10.png"",""time"":990},{""stimulus"":""img/2to3/11.png"",""time"":1091},{""stimulus"":""img/2to3/12.png"",""time"":1190}]","[]"
"image-keyboard-response","150","288738","0.0-5.0-1.73","5edc0583f16dff0c806bdbb6","bdp_cybrbll","Tue Mar 28 2023 17:33:17 GMT-0400 (Eastern Daylight Time)","629993","1","3","","null","","","","observe","","img/3to2/1.png","null","152","197","0.5","0.5","3","2","",""
"animation","151","290026","0.0-5.0-2.73","5edc0583f16dff0c806bdbb6","bdp_cybrbll","Tue Mar 28 2023 17:33:17 GMT-0400 (Eastern Daylight Time)","629993","1","3","","","","","","","","","","152","","","","3","2","[{""stimulus"":""img/3to2/1.png"",""time"":100},{""stimulus"":""img/3to2/2.png"",""time"":199},{""stimulus"":""img/3to2/3.png"",""time"":299},{""stimulus"":""img/3to2/4.png"",""time"":399},{""stimulus"":""img/3to2/5.png"",""time"":498},{""stimulus"":""img/3to2/6.png"",""time"":599},{""stimulus"":""img/3to2/7.png"",""time"":698},{""stimulus"":""img/3to2/8.png"",""time"":799},{""stimulus"":""img/3to2/9.png"",""time"":898},{""stimulus"":""img/3to2/10.png"",""time"":998},{""stimulus"":""img/3to2/11.png"",""time"":1098},{""stimulus"":""img/3to2/12.png"",""time"":1197}]","[]"
"image-keyboard-response","152","294099","0.0-5.0-1.74","5edc0583f16dff0c806bdbb6","bdp_cybrbll","Tue Mar 28 2023 17:33:17 GMT-0400 (Eastern Daylight Time)","629993","1","3","","4071","","","","choice","","img/2to1/1.png","2","151","499","0.5","0.5","2","3","",""
"animation","153","295390","0.0-5.0-2.74","5edc0583f16dff0c806bdbb6","bdp_cybrbll","Tue Mar 28 2023 17:33:17 GMT-0400 (Eastern Daylight Time)","629993","1","3","","","","","","","","","","151","","","","2","3","[{""stimulus"":""img/2to3/1.png"",""time"":112},{""stimulus"":""img/2to3/2.png"",""time"":202},{""stimulus"":""img/2to3/3.png"",""time"":302},{""stimulus"":""img/2to3/4.png"",""time"":399},{""stimulus"":""img/2to3/5.png"",""time"":500},{""stimulus"":""img/2to3/6.png"",""time"":600},{""stimulus"":""img/2to3/7.png"",""time"":700},{""stimulus"":""img/2to3/8.png"",""time"":799},{""stimulus"":""img/2to3/9.png"",""time"":899},{""stimulus"":""img/2to3/10.png"",""time"":1000},{""stimulus"":""img/2to3/11.png"",""time"":1091},{""stimulus"":""img/2to3/12.png"",""time"":1191}]","[]"
"image-keyboard-response","154","295752","0.0-5.0-1.75","5edc0583f16dff0c806bdbb6","bdp_cybrbll","Tue Mar 28 2023 17:33:17 GMT-0400 (Eastern Daylight Time)","629993","1","3","","null","","","","observe","","img/3to2/1.png","null","150","355","0.5","0.5","3","1","",""
"animation","155","297043","0.0-5.0-2.75","5edc0583f16dff0c806bdbb6","bdp_cybrbll","Tue Mar 28 2023 17:33:17 GMT-0400 (Eastern Daylight Time)","629993","1","3","","","","","","","","","","150","","","","3","1","[{""stimulus"":""img/3to1/1.png"",""time"":100},{""stimulus"":""img/3to1/2.png"",""time"":199},{""stimulus"":""img/3to1/3.png"",""time"":298},{""stimulus"":""img/3to1/4.png"",""time"":407},{""stimulus"":""img/3to1/5.png"",""time"":505},{""stimulus"":""img/3to1/6.png"",""time"":597},{""stimulus"":""img/3to1/7.png"",""time"":696},{""stimulus"":""img/3to1/8.png"",""time"":797},{""stimulus"":""img/3to1/9.png"",""time"":896},{""stimulus"":""img/3to1/10.png"",""time"":995},{""stimulus"":""img/3to1/11.png"",""time"":1093},{""stimulus"":""img/3to1/12.png"",""time"":1191}]","[]"
"image-keyboard-response","156","297468","0.0-5.0-1.76","5edc0583f16dff0c806bdbb6","bdp_cybrbll","Tue Mar 28 2023 17:33:17 GMT-0400 (Eastern Daylight Time)","629993","1","3","","null","","","","observe","","img/1to3/1.png","null","149","410","0.5","0.1","1","2","",""
"animation","157","298757","0.0-5.0-2.76","5edc0583f16dff0c806bdbb6","bdp_cybrbll","Tue Mar 28 2023 17:33:17 GMT-0400 (Eastern Daylight Time)","629993","1","3","","","","","","","","","","149","","","","1","2","[{""stimulus"":""img/1to2/1.png"",""time"":107},{""stimulus"":""img/1to2/2.png"",""time"":207},{""stimulus"":""img/1to2/3.png"",""time"":298},{""stimulus"":""img/1to2/4.png"",""time"":398},{""stimulus"":""img/1to2/5.png"",""time"":499},{""stimulus"":""img/1to2/6.png"",""time"":599},{""stimulus"":""img/1to2/7.png"",""time"":707},{""stimulus"":""img/1to2/8.png"",""time"":798},{""stimulus"":""img/1to2/9.png"",""time"":898},{""stimulus"":""img/1to2/10.png"",""time"":997},{""stimulus"":""img/1to2/11.png"",""time"":1090},{""stimulus"":""img/1to2/12.png"",""time"":1190}]","[]"
"image-keyboard-response","158","299262","0.0-5.0-1.77","5edc0583f16dff0c806bdbb6","bdp_cybrbll","Tue Mar 28 2023 17:33:17 GMT-0400 (Eastern Daylight Time)","629993","1","3","","504","","","","choice","","img/2to1/1.png","2","148","538","0.5","0.1","2","3","",""
"animation","159","300556","0.0-5.0-2.77","5edc0583f16dff0c806bdbb6","bdp_cybrbll","Tue Mar 28 2023 17:33:17 GMT-0400 (Eastern Daylight Time)","629993","1","3","","","","","","","","","","148","","","","2","3","[{""stimulus"":""img/2to3/1.png"",""time"":108},{""stimulus"":""img/2to3/2.png"",""time"":208},{""stimulus"":""img/2to3/3.png"",""time"":300},{""stimulus"":""img/2to3/4.png"",""time"":398},{""stimulus"":""img/2to3/5.png"",""time"":497},{""stimulus"":""img/2to3/6.png"",""time"":597},{""stimulus"":""img/2to3/7.png"",""time"":697},{""stimulus"":""img/2to3/8.png"",""time"":797},{""stimulus"":""img/2to3/9.png"",""time"":905},{""stimulus"":""img/2to3/10.png"",""time"":996},{""stimulus"":""img/2to3/11.png"",""time"":1096},{""stimulus"":""img/2to3/12.png"",""time"":1195}]","[]"
"image-keyboard-response","160","301017","0.0-5.0-1.78","5edc0583f16dff0c806bdbb6","bdp_cybrbll","Tue Mar 28 2023 17:33:17 GMT-0400 (Eastern Daylight Time)","629993","1","3","","null","","","","observe","","img/3to2/1.png","null","147","454","0.5","0.1","3","1","",""
"animation","161","302309","0.0-5.0-2.78","5edc0583f16dff0c806bdbb6","bdp_cybrbll","Tue Mar 28 2023 17:33:17 GMT-0400 (Eastern Daylight Time)","629993","1","3","","","","","","","","","","147","","","","3","1","[{""stimulus"":""img/3to1/1.png"",""time"":102},{""stimulus"":""img/3to1/2.png"",""time"":201},{""stimulus"":""img/3to1/3.png"",""time"":300},{""stimulus"":""img/3to1/4.png"",""time"":401},{""stimulus"":""img/3to1/5.png"",""time"":500},{""stimulus"":""img/3to1/6.png"",""time"":600},{""stimulus"":""img/3to1/7.png"",""time"":708},{""stimulus"":""img/3to1/8.png"",""time"":800},{""stimulus"":""img/3to1/9.png"",""time"":893},{""stimulus"":""img/3to1/10.png"",""time"":993},{""stimulus"":""img/3to1/11.png"",""time"":1092},{""stimulus"":""img/3to1/12.png"",""time"":1192}]","[]"
"image-keyboard-response","162","303231","0.0-5.0-1.79","5edc0583f16dff0c806bdbb6","bdp_cybrbll","Tue Mar 28 2023 17:33:17 GMT-0400 (Eastern Daylight Time)","629993","1","3","","null","","","","observe","","img/1to3/1.png","null","146","916","0.5","0.1","1","2","",""
"animation","163","304523","0.0-5.0-2.79","5edc0583f16dff0c806bdbb6","bdp_cybrbll","Tue Mar 28 2023 17:33:17 GMT-0400 (Eastern Daylight Time)","629993","1","3","","","","","","","","","","146","","","","1","2","[{""stimulus"":""img/1to2/1.png"",""time"":110},{""stimulus"":""img/1to2/2.png"",""time"":202},{""stimulus"":""img/1to2/3.png"",""time"":302},{""stimulus"":""img/1to2/4.png"",""time"":402},{""stimulus"":""img/1to2/5.png"",""time"":501},{""stimulus"":""img/1to2/6.png"",""time"":602},{""stimulus"":""img/1to2/7.png"",""time"":708},{""stimulus"":""img/1to2/8.png"",""time"":800},{""stimulus"":""img/1to2/9.png"",""time"":907},{""stimulus"":""img/1to2/10.png"",""time"":992},{""stimulus"":""img/1to2/11.png"",""time"":1090},{""stimulus"":""img/1to2/12.png"",""time"":1191}]","[]"
"image-keyboard-response","164","306651","0.0-5.0-1.80","5edc0583f16dff0c806bdbb6","bdp_cybrbll","Tue Mar 28 2023 17:33:17 GMT-0400 (Eastern Daylight Time)","629993","1","3","","2128","","","","choice","","img/2to1/1.png","2","145","131","0.5","0.1","2","3","",""
"animation","165","307940","0.0-5.0-2.80","5edc0583f16dff0c806bdbb6","bdp_cybrbll","Tue Mar 28 2023 17:33:17 GMT-0400 (Eastern Daylight Time)","629993","1","3","","","","","","","","","","145","","","","2","3","[{""stimulus"":""img/2to3/1.png"",""time"":104},{""stimulus"":""img/2to3/2.png"",""time"":203},{""stimulus"":""img/2to3/3.png"",""time"":303},{""stimulus"":""img/2to3/4.png"",""time"":403},{""stimulus"":""img/2to3/5.png"",""time"":503},{""stimulus"":""img/2to3/6.png"",""time"":601},{""stimulus"":""img/2to3/7.png"",""time"":701},{""stimulus"":""img/2to3/8.png"",""time"":793},{""stimulus"":""img/2to3/9.png"",""time"":900},{""stimulus"":""img/2to3/10.png"",""time"":999},{""stimulus"":""img/2to3/11.png"",""time"":1099},{""stimulus"":""img/2to3/12.png"",""time"":1189}]","[]"
"image-keyboard-response","166","308343","0.0-5.0-1.81","5edc0583f16dff0c806bdbb6","bdp_cybrbll","Tue Mar 28 2023 17:33:17 GMT-0400 (Eastern Daylight Time)","629993","1","3","","null","","","","observe","","img/3to2/1.png","null","144","388","0.5","0.1","3","1","",""
"animation","167","309633","0.0-5.0-2.81","5edc0583f16dff0c806bdbb6","bdp_cybrbll","Tue Mar 28 2023 17:33:17 GMT-0400 (Eastern Daylight Time)","629993","1","3","","","","","","","","","","144","","","","3","1","[{""stimulus"":""img/3to1/1.png"",""time"":101},{""stimulus"":""img/3to1/2.png"",""time"":201},{""stimulus"":""img/3to1/3.png"",""time"":301},{""stimulus"":""img/3to1/4.png"",""time"":400},{""stimulus"":""img/3to1/5.png"",""time"":500},{""stimulus"":""img/3to1/6.png"",""time"":600},{""stimulus"":""img/3to1/7.png"",""time"":699},{""stimulus"":""img/3to1/8.png"",""time"":798},{""stimulus"":""img/3to1/9.png"",""time"":899},{""stimulus"":""img/3to1/10.png"",""time"":1000},{""stimulus"":""img/3to1/11.png"",""time"":1091},{""stimulus"":""img/3to1/12.png"",""time"":1190}]","[]"
"image-keyboard-response","168","310046","0.0-5.0-1.82","5edc0583f16dff0c806bdbb6","bdp_cybrbll","Tue Mar 28 2023 17:33:17 GMT-0400 (Eastern Daylight Time)","629993","1","3","","null","","","","observe","","img/1to3/1.png","null","143","404","0.5","0.1","1","2","",""
"animation","169","311337","0.0-5.0-2.82","5edc0583f16dff0c806bdbb6","bdp_cybrbll","Tue Mar 28 2023 17:33:17 GMT-0400 (Eastern Daylight Time)","629993","1","3","","","","","","","","","","143","","","","1","2","[{""stimulus"":""img/1to2/1.png"",""time"":102},{""stimulus"":""img/1to2/2.png"",""time"":203},{""stimulus"":""img/1to2/3.png"",""time"":305},{""stimulus"":""img/1to2/4.png"",""time"":404},{""stimulus"":""img/1to2/5.png"",""time"":504},{""stimulus"":""img/1to2/6.png"",""time"":603},{""stimulus"":""img/1to2/7.png"",""time"":701},{""stimulus"":""img/1to2/8.png"",""time"":808},{""stimulus"":""img/1to2/9.png"",""time"":893},{""stimulus"":""img/1to2/10.png"",""time"":992},{""stimulus"":""img/1to2/11.png"",""time"":1093},{""stimulus"":""img/1to2/12.png"",""time"":1192}]","[]"
"image-keyboard-response","170","311625","0.0-5.0-1.83","5edc0583f16dff0c806bdbb6","bdp_cybrbll","Tue Mar 28 2023 17:33:17 GMT-0400 (Eastern Daylight Time)","629993","1","3","","287","","","","choice","","img/2to1/1.png","2","142","391","0.5","0.1","2","3","",""
"animation","171","312918","0.0-5.0-2.83","5edc0583f16dff0c806bdbb6","bdp_cybrbll","Tue Mar 28 2023 17:33:17 GMT-0400 (Eastern Daylight Time)","629993","1","3","","","","","","","","","","142","","","","2","3","[{""stimulus"":""img/2to3/1.png"",""time"":103},{""stimulus"":""img/2to3/2.png"",""time"":202},{""stimulus"":""img/2to3/3.png"",""time"":302},{""stimulus"":""img/2to3/4.png"",""time"":403},{""stimulus"":""img/2to3/5.png"",""time"":504},{""stimulus"":""img/2to3/6.png"",""time"":595},{""stimulus"":""img/2to3/7.png"",""time"":696},{""stimulus"":""img/2to3/8.png"",""time"":795},{""stimulus"":""img/2to3/9.png"",""time"":894},{""stimulus"":""img/2to3/10.png"",""time"":1003},{""stimulus"":""img/2to3/11.png"",""time"":1093},{""stimulus"":""img/2to3/12.png"",""time"":1194}]","[]"
"image-keyboard-response","172","313447","0.0-5.0-1.84","5edc0583f16dff0c806bdbb6","bdp_cybrbll","Tue Mar 28 2023 17:33:17 GMT-0400 (Eastern Daylight Time)","629993","1","3","","null","","","","observe","","img/3to2/1.png","null","141","527","0.5","0.1","3","1","",""
"animation","173","314735","0.0-5.0-2.84","5edc0583f16dff0c806bdbb6","bdp_cybrbll","Tue Mar 28 2023 17:33:17 GMT-0400 (Eastern Daylight Time)","629993","1","3","","","","","","","","","","141","","","","3","1","[{""stimulus"":""img/3to1/1.png"",""time"":101},{""stimulus"":""img/3to1/2.png"",""time"":201},{""stimulus"":""img/3to1/3.png"",""time"":301},{""stimulus"":""img/3to1/4.png"",""time"":400},{""stimulus"":""img/3to1/5.png"",""time"":501},{""stimulus"":""img/3to1/6.png"",""time"":600},{""stimulus"":""img/3to1/7.png"",""time"":699},{""stimulus"":""img/3to1/8.png"",""time"":799},{""stimulus"":""img/3to1/9.png"",""time"":899},{""stimulus"":""img/3to1/10.png"",""time"":999},{""stimulus"":""img/3to1/11.png"",""time"":1097},{""stimulus"":""img/3to1/12.png"",""time"":1197}]","[]"
"image-keyboard-response","174","315458","0.0-5.0-1.85","5edc0583f16dff0c806bdbb6","bdp_cybrbll","Tue Mar 28 2023 17:33:17 GMT-0400 (Eastern Daylight Time)","629993","1","3","","null","","","","observe","","img/1to3/1.png","null","140","715","0.5","0.1","1","3","",""
"animation","175","316753","0.0-5.0-2.85","5edc0583f16dff0c806bdbb6","bdp_cybrbll","Tue Mar 28 2023 17:33:17 GMT-0400 (Eastern Daylight Time)","629993","1","3","","","","","","","","","","140","","","","1","3","[{""stimulus"":""img/1to3/1.png"",""time"":107},{""stimulus"":""img/1to3/2.png"",""time"":206},{""stimulus"":""img/1to3/3.png"",""time"":297},{""stimulus"":""img/1to3/4.png"",""time"":405},{""stimulus"":""img/1to3/5.png"",""time"":497},{""stimulus"":""img/1to3/6.png"",""time"":597},{""stimulus"":""img/1to3/7.png"",""time"":697},{""stimulus"":""img/1to3/8.png"",""time"":798},{""stimulus"":""img/1to3/9.png"",""time"":896},{""stimulus"":""img/1to3/10.png"",""time"":995},{""stimulus"":""img/1to3/11.png"",""time"":1095},{""stimulus"":""img/1to3/12.png"",""time"":1194}]","[]"
"image-keyboard-response","176","317122","0.0-5.0-1.86","5edc0583f16dff0c806bdbb6","bdp_cybrbll","Tue Mar 28 2023 17:33:17 GMT-0400 (Eastern Daylight Time)","629993","1","3","","null","","","","observe","","img/3to2/1.png","null","139","362","0.5","0.1","3","1","",""
"animation","177","318412","0.0-5.0-2.86","5edc0583f16dff0c806bdbb6","bdp_cybrbll","Tue Mar 28 2023 17:33:17 GMT-0400 (Eastern Daylight Time)","629993","1","3","","","","","","","","","","139","","","","3","1","[{""stimulus"":""img/3to1/1.png"",""time"":101},{""stimulus"":""img/3to1/2.png"",""time"":200},{""stimulus"":""img/3to1/3.png"",""time"":299},{""stimulus"":""img/3to1/4.png"",""time"":400},{""stimulus"":""img/3to1/5.png"",""time"":500},{""stimulus"":""img/3to1/6.png"",""time"":600},{""stimulus"":""img/3to1/7.png"",""time"":700},{""stimulus"":""img/3to1/8.png"",""time"":801},{""stimulus"":""img/3to1/9.png"",""time"":899},{""stimulus"":""img/3to1/10.png"",""time"":992},{""stimulus"":""img/3to1/11.png"",""time"":1092},{""stimulus"":""img/3to1/12.png"",""time"":1192}]","[]"
"image-keyboard-response","178","318708","0.0-5.0-1.87","5edc0583f16dff0c806bdbb6","bdp_cybrbll","Tue Mar 28 2023 17:33:17 GMT-0400 (Eastern Daylight Time)","629993","1","3","","null","","","","observe","","img/1to3/1.png","null","138","292","0.5","0.1","1","3","",""
"animation","179","320003","0.0-5.0-2.87","5edc0583f16dff0c806bdbb6","bdp_cybrbll","Tue Mar 28 2023 17:33:17 GMT-0400 (Eastern Daylight Time)","629993","1","3","","","","","","","","","","138","","","","1","3","[{""stimulus"":""img/1to3/1.png"",""time"":101},{""stimulus"":""img/1to3/2.png"",""time"":200},{""stimulus"":""img/1to3/3.png"",""time"":301},{""stimulus"":""img/1to3/4.png"",""time"":401},{""stimulus"":""img/1to3/5.png"",""time"":499},{""stimulus"":""img/1to3/6.png"",""time"":598},{""stimulus"":""img/1to3/7.png"",""time"":697},{""stimulus"":""img/1to3/8.png"",""time"":797},{""stimulus"":""img/1to3/9.png"",""time"":896},{""stimulus"":""img/1to3/10.png"",""time"":996},{""stimulus"":""img/1to3/11.png"",""time"":1097},{""stimulus"":""img/1to3/12.png"",""time"":1196}]","[]"
"image-keyboard-response","180","320468","0.0-5.0-1.88","5edc0583f16dff0c806bdbb6","bdp_cybrbll","Tue Mar 28 2023 17:33:17 GMT-0400 (Eastern Daylight Time)","629993","1","3","","null","","","","observe","","img/3to2/1.png","null","137","459","0.5","0.1","3","1","",""
"animation","181","321759","0.0-5.0-2.88","5edc0583f16dff0c806bdbb6","bdp_cybrbll","Tue Mar 28 2023 17:33:17 GMT-0400 (Eastern Daylight Time)","629993","1","3","","","","","","","","","","137","","","","3","1","[{""stimulus"":""img/3to1/1.png"",""time"":102},{""stimulus"":""img/3to1/2.png"",""time"":202},{""stimulus"":""img/3to1/3.png"",""time"":303},{""stimulus"":""img/3to1/4.png"",""time"":402},{""stimulus"":""img/3to1/5.png"",""time"":504},{""stimulus"":""img/3to1/6.png"",""time"":595},{""stimulus"":""img/3to1/7.png"",""time"":696},{""stimulus"":""img/3to1/8.png"",""time"":796},{""stimulus"":""img/3to1/9.png"",""time"":896},{""stimulus"":""img/3to1/10.png"",""time"":1011},{""stimulus"":""img/3to1/11.png"",""time"":1093},{""stimulus"":""img/3to1/12.png"",""time"":1192}]","[]"
"image-keyboard-response","182","322027","0.0-5.0-1.89","5edc0583f16dff0c806bdbb6","bdp_cybrbll","Tue Mar 28 2023 17:33:17 GMT-0400 (Eastern Daylight Time)","629993","1","3","","null","","","","observe","","img/1to3/1.png","null","136","263","0.5","0.1","1","2","",""
"animation","183","323322","0.0-5.0-2.89","5edc0583f16dff0c806bdbb6","bdp_cybrbll","Tue Mar 28 2023 17:33:17 GMT-0400 (Eastern Daylight Time)","629993","1","3","","","","","","","","","","136","","","","1","2","[{""stimulus"":""img/1to2/1.png"",""time"":101},{""stimulus"":""img/1to2/2.png"",""time"":199},{""stimulus"":""img/1to2/3.png"",""time"":298},{""stimulus"":""img/1to2/4.png"",""time"":397},{""stimulus"":""img/1to2/5.png"",""time"":498},{""stimulus"":""img/1to2/6.png"",""time"":598},{""stimulus"":""img/1to2/7.png"",""time"":697},{""stimulus"":""img/1to2/8.png"",""time"":798},{""stimulus"":""img/1to2/9.png"",""time"":897},{""stimulus"":""img/1to2/10.png"",""time"":998},{""stimulus"":""img/1to2/11.png"",""time"":1097},{""stimulus"":""img/1to2/12.png"",""time"":1195}]","[]"
"image-keyboard-response","184","326392","0.0-5.0-1.90","5edc0583f16dff0c806bdbb6","bdp_cybrbll","Tue Mar 28 2023 17:33:17 GMT-0400 (Eastern Daylight Time)","629993","1","3","","3069","","","","choice","","img/2to1/1.png","2","135","582","0.5","0.1","2","3","",""
"animation","185","327683","0.0-5.0-2.90","5edc0583f16dff0c806bdbb6","bdp_cybrbll","Tue Mar 28 2023 17:33:17 GMT-0400 (Eastern Daylight Time)","629993","1","3","","","","","","","","","","135","","","","2","3","[{""stimulus"":""img/2to3/1.png"",""time"":100},{""stimulus"":""img/2to3/2.png"",""time"":206},{""stimulus"":""img/2to3/3.png"",""time"":298},{""stimulus"":""img/2to3/4.png"",""time"":401},{""stimulus"":""img/2to3/5.png"",""time"":500},{""stimulus"":""img/2to3/6.png"",""time"":600},{""stimulus"":""img/2to3/7.png"",""time"":700},{""stimulus"":""img/2to3/8.png"",""time"":800},{""stimulus"":""img/2to3/9.png"",""time"":892},{""stimulus"":""img/2to3/10.png"",""time"":992},{""stimulus"":""img/2to3/11.png"",""time"":1092},{""stimulus"":""img/2to3/12.png"",""time"":1192}]","[]"
"image-keyboard-response","186","328529","0.0-5.0-1.91","5edc0583f16dff0c806bdbb6","bdp_cybrbll","Tue Mar 28 2023 17:33:17 GMT-0400 (Eastern Daylight Time)","629993","1","3","","null","","","","observe","","img/3to2/1.png","null","134","839","0.5","0.1","3","1","",""
"animation","187","329821","0.0-5.0-2.91","5edc0583f16dff0c806bdbb6","bdp_cybrbll","Tue Mar 28 2023 17:33:17 GMT-0400 (Eastern Daylight Time)","629993","1","3","","","","","","","","","","134","","","","3","1","[{""stimulus"":""img/3to1/1.png"",""time"":108},{""stimulus"":""img/3to1/2.png"",""time"":207},{""stimulus"":""img/3to1/3.png"",""time"":306},{""stimulus"":""img/3to1/4.png"",""time"":405},{""stimulus"":""img/3to1/5.png"",""time"":502},{""stimulus"":""img/3to1/6.png"",""time"":603},{""stimulus"":""img/3to1/7.png"",""time"":701},{""stimulus"":""img/3to1/8.png"",""time"":810},{""stimulus"":""img/3to1/9.png"",""time"":901},{""stimulus"":""img/3to1/10.png"",""time"":992},{""stimulus"":""img/3to1/11.png"",""time"":1092},{""stimulus"":""img/3to1/12.png"",""time"":1191}]","[]"
"image-keyboard-response","188","330140","0.0-5.0-1.92","5edc0583f16dff0c806bdbb6","bdp_cybrbll","Tue Mar 28 2023 17:33:17 GMT-0400 (Eastern Daylight Time)","629993","1","3","","null","","","","observe","","img/1to3/1.png","null","133","317","0.5","0.1","1","2","",""
"animation","189","331429","0.0-5.0-2.92","5edc0583f16dff0c806bdbb6","bdp_cybrbll","Tue Mar 28 2023 17:33:17 GMT-0400 (Eastern Daylight Time)","629993","1","3","","","","","","","","","","133","","","","1","2","[{""stimulus"":""img/1to2/1.png"",""time"":104},{""stimulus"":""img/1to2/2.png"",""time"":203},{""stimulus"":""img/1to2/3.png"",""time"":302},{""stimulus"":""img/1to2/4.png"",""time"":402},{""stimulus"":""img/1to2/5.png"",""time"":502},{""stimulus"":""img/1to2/6.png"",""time"":603},{""stimulus"":""img/1to2/7.png"",""time"":695},{""stimulus"":""img/1to2/8.png"",""time"":801},{""stimulus"":""img/1to2/9.png"",""time"":892},{""stimulus"":""img/1to2/10.png"",""time"":992},{""stimulus"":""img/1to2/11.png"",""time"":1091},{""stimulus"":""img/1to2/12.png"",""time"":1190}]","[]"
"image-keyboard-response","190","332495","0.0-5.0-1.93","5edc0583f16dff0c806bdbb6","bdp_cybrbll","Tue Mar 28 2023 17:33:17 GMT-0400 (Eastern Daylight Time)","629993","1","3","","1065","","","","choice","","img/2to1/1.png","1","132","673","0.5","0.1","2","1","",""
