"trial_type","trial_index","time_elapsed","internal_node_id","subject_id","task","startTime","totalTime","fairPartner","unfairPartner","view_history","rt","event","trial","time","trialtype","success","stimulus","key_press","throwsLeft","rtDur","pFair","pUnfair","holder","receiver","animation_sequence","responses"
"pavlovia","0","16","0.0-0.0","62dc4a5fef307ee53c61afcc","bdp_cybrbll","Tue Mar 28 2023 20:48:51 GMT-0800 (Alaska Daylight Time)","456988","1","3","","","","","","","","","","","","","","","","",""
"instructions","1","15505","0.0-1.0","62dc4a5fef307ee53c61afcc","bdp_cybrbll","Tue Mar 28 2023 20:48:51 GMT-0800 (Alaska Daylight Time)","456988","1","3","[{""page_index"":0,""viewing_time"":15484}]","15484","","","","","","","","","","","","","","",""
"","","","","62dc4a5fef307ee53c61afcc","bdp_cybrbll","Tue Mar 28 2023 20:48:51 GMT-0800 (Alaska Daylight Time)","456988","1","3","","","fullscreenenter","2","20622","fullscreenenter","","","","","","","","","","",""
"fullscreen","2","21570","0.0-2.0","62dc4a5fef307ee53c61afcc","bdp_cybrbll","Tue Mar 28 2023 20:48:51 GMT-0800 (Alaska Daylight Time)","456988","1","3","","","","","","","true","","","","","","","","","",""
"instructions","3","49961","0.0-4.0","62dc4a5fef307ee53c61afcc","bdp_cybrbll","Tue Mar 28 2023 20:48:51 GMT-0800 (Alaska Daylight Time)","456988","1","3","[{""page_index"":0,""viewing_time"":28381}]","28381","","","","","","","","","","","","","","",""
"image-keyboard-response","4","52324","0.0-5.0-1.0","62dc4a5fef307ee53c61afcc","bdp_cybrbll","Tue Mar 28 2023 20:48:51 GMT-0800 (Alaska Daylight Time)","456988","1","3","","2350","","","","choice","","img/2to1/1.png","1","225","1137","0.5","0.5","2","1","",""
"animation","5","53614","0.0-5.0-2.0","62dc4a5fef307ee53c61afcc","bdp_cybrbll","Tue Mar 28 2023 20:48:51 GMT-0800 (Alaska Daylight Time)","456988","1","3","","","","","","","","","","225","","","","2","1","[{""stimulus"":""img/2to1/1.png"",""time"":103},{""stimulus"":""img/2to1/2.png"",""time"":201},{""stimulus"":""img/2to1/3.png"",""time"":299},{""stimulus"":""img/2to1/4.png"",""time"":398},{""stimulus"":""img/2to1/5.png"",""time"":497},{""stimulus"":""img/2to1/6.png"",""time"":596},{""stimulus"":""img/2to1/7.png"",""time"":696},{""stimulus"":""img/2to1/8.png"",""time"":795},{""stimulus"":""img/2to1/9.png"",""time"":894},{""stimulus"":""img/2to1/10.png"",""time"":993},{""stimulus"":""img/2to1/11.png"",""time"":1092},{""stimulus"":""img/2to1/12.png"",""time"":1191}]","[]"
"image-keyboard-response","6","54198","0.0-5.0-1.1","62dc4a5fef307ee53c61afcc","bdp_cybrbll","Tue Mar 28 2023 20:48:51 GMT-0800 (Alaska Daylight Time)","456988","1","3","","null","","","","observe","","img/1to3/1.png","null","224","576","0.5","0.5","1","2","",""
"animation","7","55488","0.0-5.0-2.1","62dc4a5fef307ee53c61afcc","bdp_cybrbll","Tue Mar 28 2023 20:48:51 GMT-0800 (Alaska Daylight Time)","456988","1","3","","","","","","","","","","224","","","","1","2","[{""stimulus"":""img/1to2/1.png"",""time"":103},{""stimulus"":""img/1to2/2.png"",""time"":201},{""stimulus"":""img/1to2/3.png"",""time"":300},{""stimulus"":""img/1to2/4.png"",""time"":399},{""stimulus"":""img/1to2/5.png"",""time"":497},{""stimulus"":""img/1to2/6.png"",""time"":596},{""stimulus"":""img/1to2/7.png"",""time"":696},{""stimulus"":""img/1to2/8.png"",""time"":795},{""stimulus"":""img/1to2/9.png"",""time"":895},{""stimulus"":""img/1to2/10.png"",""time"":993},{""stimulus"":""img/1to2/11.png"",""time"":1092},{""stimulus"":""img/1to2/12.png"",""time"":1190}]","[]"
"image-keyboard-response","8","55986","0.0-5.0-1.2","62dc4a5fef307ee53c61afcc","bdp_cybrbll","Tue Mar 28 2023 20:48:51 GMT-0800 (Alaska Daylight Time)","456988","1","3","","494","","","","choice","","img/2to1/1.png","2","223","549","0.5","0.5","2","3","",""
"animation","9","57275","0.0-5.0-2.2","62dc4a5fef307ee53c61afcc","bdp_cybrbll","Tue Mar 28 2023 20:48:51 GMT-0800 (Alaska Daylight Time)","456988","1","3","","","","","","","","","","223","","","","2","3","[{""stimulus"":""img/2to3/1.png"",""time"":101},{""stimulus"":""img/2to3/2.png"",""time"":200},{""stimulus"":""img/2to3/3.png"",""time"":298},{""stimulus"":""img/2to3/4.png"",""time"":398},{""stimulus"":""img/2to3/5.png"",""time"":499},{""stimulus"":""img/2to3/6.png"",""time"":596},{""stimulus"":""img/2to3/7.png"",""time"":694},{""stimulus"":""img/2to3/8.png"",""time"":793},{""stimulus"":""img/2to3/9.png"",""time"":892},{""stimulus"":""img/2to3/10.png"",""time"":993},{""stimulus"":""img/2to3/11.png"",""time"":1092},{""stimulus"":""img/2to3/12.png"",""time"":1189}]","[]"
"image-keyboard-response","10","57538","0.0-5.0-1.3","62dc4a5fef307ee53c61afcc","bdp_cybrbll","Tue Mar 28 2023 20:48:51 GMT-0800 (Alaska Daylight Time)","456988","1","3","","null","","","","observe","","img/3to2/1.png","null","222","257","0.5","0.5","3","2","",""
"animation","11","58827","0.0-5.0-2.3","62dc4a5fef307ee53c61afcc","bdp_cybrbll","Tue Mar 28 2023 20:48:51 GMT-0800 (Alaska Daylight Time)","456988","1","3","","","","","","","","","","222","","","","3","2","[{""stimulus"":""img/3to2/1.png"",""time"":101},{""stimulus"":""img/3to2/2.png"",""time"":201},{""stimulus"":""img/3to2/3.png"",""time"":298},{""stimulus"":""img/3to2/4.png"",""time"":401},{""stimulus"":""img/3to2/5.png"",""time"":499},{""stimulus"":""img/3to2/6.png"",""time"":597},{""stimulus"":""img/3to2/7.png"",""time"":694},{""stimulus"":""img/3to2/8.png"",""time"":793},{""stimulus"":""img/3to2/9.png"",""time"":892},{""stimulus"":""img/3to2/10.png"",""time"":991},{""stimulus"":""img/3to2/11.png"",""time"":1090},{""stimulus"":""img/3to2/12.png"",""time"":1189}]","[]"
"image-keyboard-response","12","59265","0.0-5.0-1.4","62dc4a5fef307ee53c61afcc","bdp_cybrbll","Tue Mar 28 2023 20:48:51 GMT-0800 (Alaska Daylight Time)","456988","1","3","","436","","","","choice","","img/2to1/1.png","1","221","748","0.5","0.5","2","1","",""
"animation","13","60555","0.0-5.0-2.4","62dc4a5fef307ee53c61afcc","bdp_cybrbll","Tue Mar 28 2023 20:48:51 GMT-0800 (Alaska Daylight Time)","456988","1","3","","","","","","","","","","221","","","","2","1","[{""stimulus"":""img/2to1/1.png"",""time"":103},{""stimulus"":""img/2to1/2.png"",""time"":224},{""stimulus"":""img/2to1/3.png"",""time"":300},{""stimulus"":""img/2to1/4.png"",""time"":398},{""stimulus"":""img/2to1/5.png"",""time"":498},{""stimulus"":""img/2to1/6.png"",""time"":597},{""stimulus"":""img/2to1/7.png"",""time"":696},{""stimulus"":""img/2to1/8.png"",""time"":794},{""stimulus"":""img/2to1/9.png"",""time"":894},{""stimulus"":""img/2to1/10.png"",""time"":993},{""stimulus"":""img/2to1/11.png"",""time"":1092},{""stimulus"":""img/2to1/12.png"",""time"":1190}]","[]"
"image-keyboard-response","14","60914","0.0-5.0-1.5","62dc4a5fef307ee53c61afcc","bdp_cybrbll","Tue Mar 28 2023 20:48:51 GMT-0800 (Alaska Daylight Time)","456988","1","3","","null","","","","observe","","img/1to3/1.png","null","220","354","0.5","0.5","1","3","",""
"animation","15","62202","0.0-5.0-2.5","62dc4a5fef307ee53c61afcc","bdp_cybrbll","Tue Mar 28 2023 20:48:51 GMT-0800 (Alaska Daylight Time)","456988","1","3","","","","","","","","","","220","","","","1","3","[{""stimulus"":""img/1to3/1.png"",""time"":101},{""stimulus"":""img/1to3/2.png"",""time"":200},{""stimulus"":""img/1to3/3.png"",""time"":299},{""stimulus"":""img/1to3/4.png"",""time"":398},{""stimulus"":""img/1to3/5.png"",""time"":498},{""stimulus"":""img/1to3/6.png"",""time"":597},{""stimulus"":""img/1to3/7.png"",""time"":695},{""stimulus"":""img/1to3/8.png"",""time"":794},{""stimulus"":""img/1to3/9.png"",""time"":894},{""stimulus"":""img/1to3/10.png"",""time"":992},{""stimulus"":""img/1to3/11.png"",""time"":1091},{""stimulus"":""img/1to3/12.png"",""time"":1190}]","[]"
"image-keyboard-response","16","62586","0.0-5.0-1.6","62dc4a5fef307ee53c61afcc","bdp_cybrbll","Tue Mar 28 2023 20:48:51 GMT-0800 (Alaska Daylight Time)","456988","1","3","","null","","","","observe","","img/3to2/1.png","null","219","382","0.5","0.5","3","1","",""
"animation","17","63874","0.0-5.0-2.6","62dc4a5fef307ee53c61afcc","bdp_cybrbll","Tue Mar 28 2023 20:48:51 GMT-0800 (Alaska Daylight Time)","456988","1","3","","","","","","","","","","219","","","","3","1","[{""stimulus"":""img/3to1/1.png"",""time"":101},{""stimulus"":""img/3to1/2.png"",""time"":200},{""stimulus"":""img/3to1/3.png"",""time"":298},{""stimulus"":""img/3to1/4.png"",""time"":398},{""stimulus"":""img/3to1/5.png"",""time"":497},{""stimulus"":""img/3to1/6.png"",""time"":595},{""stimulus"":""img/3to1/7.png"",""time"":694},{""stimulus"":""img/3to1/8.png"",""time"":797},{""stimulus"":""img/3to1/9.png"",""time"":893},{""stimulus"":""img/3to1/10.png"",""time"":993},{""stimulus"":""img/3to1/11.png"",""time"":1090},{""stimulus"":""img/3to1/12.png"",""time"":1189}]","[]"
"image-keyboard-response","18","64801","0.0-5.0-1.7","62dc4a5fef307ee53c61afcc","bdp_cybrbll","Tue Mar 28 2023 20:48:51 GMT-0800 (Alaska Daylight Time)","456988","1","3","","null","","","","observe","","img/1to3/1.png","null","218","923","0.5","0.5","1","2","",""
"animation","19","66089","0.0-5.0-2.7","62dc4a5fef307ee53c61afcc","bdp_cybrbll","Tue Mar 28 2023 20:48:51 GMT-0800 (Alaska Daylight Time)","456988","1","3","","","","","","","","","","218","","","","1","2","[{""stimulus"":""img/1to2/1.png"",""time"":100},{""stimulus"":""img/1to2/2.png"",""time"":199},{""stimulus"":""img/1to2/3.png"",""time"":298},{""stimulus"":""img/1to2/4.png"",""time"":397},{""stimulus"":""img/1to2/5.png"",""time"":496},{""stimulus"":""img/1to2/6.png"",""time"":595},{""stimulus"":""img/1to2/7.png"",""time"":694},{""stimulus"":""img/1to2/8.png"",""time"":793},{""stimulus"":""img/1to2/9.png"",""time"":892},{""stimulus"":""img/1to2/10.png"",""time"":991},{""stimulus"":""img/1to2/11.png"",""time"":1091},{""stimulus"":""img/1to2/12.png"",""time"":1189}]","[]"
"image-keyboard-response","20","66548","0.0-5.0-1.8","62dc4a5fef307ee53c61afcc","bdp_cybrbll","Tue Mar 28 2023 20:48:51 GMT-0800 (Alaska Daylight Time)","456988","1","3","","456","","","","choice","","img/2to1/1.png","2","217","442","0.5","0.5","2","3","",""
"animation","21","67836","0.0-5.0-2.8","62dc4a5fef307ee53c61afcc","bdp_cybrbll","Tue Mar 28 2023 20:48:51 GMT-0800 (Alaska Daylight Time)","456988","1","3","","","","","","","","","","217","","","","2","3","[{""stimulus"":""img/2to3/1.png"",""time"":103},{""stimulus"":""img/2to3/2.png"",""time"":202},{""stimulus"":""img/2to3/3.png"",""time"":298},{""stimulus"":""img/2to3/4.png"",""time"":398},{""stimulus"":""img/2to3/5.png"",""time"":497},{""stimulus"":""img/2to3/6.png"",""time"":595},{""stimulus"":""img/2to3/7.png"",""time"":695},{""stimulus"":""img/2to3/8.png"",""time"":794},{""stimulus"":""img/2to3/9.png"",""time"":893},{""stimulus"":""img/2to3/10.png"",""time"":991},{""stimulus"":""img/2to3/11.png"",""time"":1090},{""stimulus"":""img/2to3/12.png"",""time"":1190}]","[]"
"image-keyboard-response","22","68120","0.0-5.0-1.9","62dc4a5fef307ee53c61afcc","bdp_cybrbll","Tue Mar 28 2023 20:48:51 GMT-0800 (Alaska Daylight Time)","456988","1","3","","null","","","","observe","","img/3to2/1.png","null","216","280","0.5","0.5","3","2","",""
"animation","23","69413","0.0-5.0-2.9","62dc4a5fef307ee53c61afcc","bdp_cybrbll","Tue Mar 28 2023 20:48:51 GMT-0800 (Alaska Daylight Time)","456988","1","3","","","","","","","","","","216","","","","3","2","[{""stimulus"":""img/3to2/1.png"",""time"":105},{""stimulus"":""img/3to2/2.png"",""time"":204},{""stimulus"":""img/3to2/3.png"",""time"":304},{""stimulus"":""img/3to2/4.png"",""time"":402},{""stimulus"":""img/3to2/5.png"",""time"":500},{""stimulus"":""img/3to2/6.png"",""time"":600},{""stimulus"":""img/3to2/7.png"",""time"":698},{""stimulus"":""img/3to2/8.png"",""time"":798},{""stimulus"":""img/3to2/9.png"",""time"":898},{""stimulus"":""img/3to2/10.png"",""time"":996},{""stimulus"":""img/3to2/11.png"",""time"":1095},{""stimulus"":""img/3to2/12.png"",""time"":1193}]","[]"
"image-keyboard-response","24","69803","0.0-5.0-1.10","62dc4a5fef307ee53c61afcc","bdp_cybrbll","Tue Mar 28 2023 20:48:51 GMT-0800 (Alaska Daylight Time)","456988","1","3","","384","","","","choice","","img/2to1/1.png","1","215","180","0.5","0.5","2","1","",""
"animation","25","71092","0.0-5.0-2.10","62dc4a5fef307ee53c61afcc","bdp_cybrbll","Tue Mar 28 2023 20:48:51 GMT-0800 (Alaska Daylight Time)","456988","1","3","","","","","","","","","","215","","","","2","1","[{""stimulus"":""img/2to1/1.png"",""time"":102},{""stimulus"":""img/2to1/2.png"",""time"":200},{""stimulus"":""img/2to1/3.png"",""time"":298},{""stimulus"":""img/2to1/4.png"",""time"":398},{""stimulus"":""img/2to1/5.png"",""time"":497},{""stimulus"":""img/2to1/6.png"",""time"":595},{""stimulus"":""img/2to1/7.png"",""time"":695},{""stimulus"":""img/2to1/8.png"",""time"":794},{""stimulus"":""img/2to1/9.png"",""time"":896},{""stimulus"":""img/2to1/10.png"",""time"":993},{""stimulus"":""img/2to1/11.png"",""time"":1091},{""stimulus"":""img/2to1/12.png"",""time"":1189}]","[]"
"image-keyboard-response","26","71636","0.0-5.0-1.11","62dc4a5fef307ee53c61afcc","bdp_cybrbll","Tue Mar 28 2023 20:48:51 GMT-0800 (Alaska Daylight Time)","456988","1","3","","null","","","","observe","","img/1to3/1.png","null","214","542","0.5","0.5","1","3","",""
"animation","27","72925","0.0-5.0-2.11","62dc4a5fef307ee53c61afcc","bdp_cybrbll","Tue Mar 28 2023 20:48:51 GMT-0800 (Alaska Daylight Time)","456988","1","3","","","","","","","","","","214","","","","1","3","[{""stimulus"":""img/1to3/1.png"",""time"":100},{""stimulus"":""img/1to3/2.png"",""time"":199},{""stimulus"":""img/1to3/3.png"",""time"":298},{""stimulus"":""img/1to3/4.png"",""time"":398},{""stimulus"":""img/1to3/5.png"",""time"":496},{""stimulus"":""img/1to3/6.png"",""time"":595},{""stimulus"":""img/1to3/7.png"",""time"":694},{""stimulus"":""img/1to3/8.png"",""time"":794},{""stimulus"":""img/1to3/9.png"",""time"":893},{""stimulus"":""img/1to3/10.png"",""time"":992},{""stimulus"":""img/1to3/11.png"",""time"":1091},{""stimulus"":""img/1to3/12.png"",""time"":1189}]","[]"
"image-keyboard-response","28","73299","0.0-5.0-1.12","62dc4a5fef307ee53c61afcc","bdp_cybrbll","Tue Mar 28 2023 20:48:51 GMT-0800 (Alaska Daylight Time)","456988","1","3","","null","","","","observe","","img/3to2/1.png","null","213","372","0.5","0.5","3","1","",""
"animation","29","74589","0.0-5.0-2.12","62dc4a5fef307ee53c61afcc","bdp_cybrbll","Tue Mar 28 2023 20:48:51 GMT-0800 (Alaska Daylight Time)","456988","1","3","","","","","","","","","","213","","","","3","1","[{""stimulus"":""img/3to1/1.png"",""time"":103},{""stimulus"":""img/3to1/2.png"",""time"":200},{""stimulus"":""img/3to1/3.png"",""time"":298},{""stimulus"":""img/3to1/4.png"",""time"":398},{""stimulus"":""img/3to1/5.png"",""time"":497},{""stimulus"":""img/3to1/6.png"",""time"":595},{""stimulus"":""img/3to1/7.png"",""time"":694},{""stimulus"":""img/3to1/8.png"",""time"":794},{""stimulus"":""img/3to1/9.png"",""time"":893},{""stimulus"":""img/3to1/10.png"",""time"":991},{""stimulus"":""img/3to1/11.png"",""time"":1091},{""stimulus"":""img/3to1/12.png"",""time"":1189}]","[]"
"image-keyboard-response","30","75003","0.0-5.0-1.13","62dc4a5fef307ee53c61afcc","bdp_cybrbll","Tue Mar 28 2023 20:48:51 GMT-0800 (Alaska Daylight Time)","456988","1","3","","null","","","","observe","","img/1to3/1.png","null","212","410","0.5","0.5","1","3","",""
"animation","31","76293","0.0-5.0-2.13","62dc4a5fef307ee53c61afcc","bdp_cybrbll","Tue Mar 28 2023 20:48:51 GMT-0800 (Alaska Daylight Time)","456988","1","3","","","","","","","","","","212","","","","1","3","[{""stimulus"":""img/1to3/1.png"",""time"":101},{""stimulus"":""img/1to3/2.png"",""time"":200},{""stimulus"":""img/1to3/3.png"",""time"":299},{""stimulus"":""img/1to3/4.png"",""time"":399},{""stimulus"":""img/1to3/5.png"",""time"":498},{""stimulus"":""img/1to3/6.png"",""time"":597},{""stimulus"":""img/1to3/7.png"",""time"":694},{""stimulus"":""img/1to3/8.png"",""time"":796},{""stimulus"":""img/1to3/9.png"",""time"":895},{""stimulus"":""img/1to3/10.png"",""time"":994},{""stimulus"":""img/1to3/11.png"",""time"":1090},{""stimulus"":""img/1to3/12.png"",""time"":1192}]","[]"
"image-keyboard-response","32","76707","0.0-5.0-1.14","62dc4a5fef307ee53c61afcc","bdp_cybrbll","Tue Mar 28 2023 20:48:51 GMT-0800 (Alaska Daylight Time)","456988","1","3","","null","","","","observe","","img/3to2/1.png","null","211","410","0.5","0.5","3","1","",""
"animation","33","77996","0.0-5.0-2.14","62dc4a5fef307ee53c61afcc","bdp_cybrbll","Tue Mar 28 2023 20:48:51 GMT-0800 (Alaska Daylight Time)","456988","1","3","","","","","","","","","","211","","","","3","1","[{""stimulus"":""img/3to1/1.png"",""time"":101},{""stimulus"":""img/3to1/2.png"",""time"":199},{""stimulus"":""img/3to1/3.png"",""time"":300},{""stimulus"":""img/3to1/4.png"",""time"":401},{""stimulus"":""img/3to1/5.png"",""time"":498},{""stimulus"":""img/3to1/6.png"",""time"":595},{""stimulus"":""img/3to1/7.png"",""time"":694},{""stimulus"":""img/3to1/8.png"",""time"":793},{""stimulus"":""img/3to1/9.png"",""time"":894},{""stimulus"":""img/3to1/10.png"",""time"":994},{""stimulus"":""img/3to1/11.png"",""time"":1091},{""stimulus"":""img/3to1/12.png"",""time"":1190}]","[]"
"image-keyboard-response","34","78628","0.0-5.0-1.15","62dc4a5fef307ee53c61afcc","bdp_cybrbll","Tue Mar 28 2023 20:48:51 GMT-0800 (Alaska Daylight Time)","456988","1","3","","null","","","","observe","","img/1to3/1.png","null","210","628","0.5","0.5","1","3","",""
"animation","35","79916","0.0-5.0-2.15","62dc4a5fef307ee53c61afcc","bdp_cybrbll","Tue Mar 28 2023 20:48:51 GMT-0800 (Alaska Daylight Time)","456988","1","3","","","","","","","","","","210","","","","1","3","[{""stimulus"":""img/1to3/1.png"",""time"":102},{""stimulus"":""img/1to3/2.png"",""time"":201},{""stimulus"":""img/1to3/3.png"",""time"":299},{""stimulus"":""img/1to3/4.png"",""time"":398},{""stimulus"":""img/1to3/5.png"",""time"":497},{""stimulus"":""img/1to3/6.png"",""time"":597},{""stimulus"":""img/1to3/7.png"",""time"":696},{""stimulus"":""img/1to3/8.png"",""time"":796},{""stimulus"":""img/1to3/9.png"",""time"":895},{""stimulus"":""img/1to3/10.png"",""time"":993},{""stimulus"":""img/1to3/11.png"",""time"":1091},{""stimulus"":""img/1to3/12.png"",""time"":1190}]","[]"
"image-keyboard-response","36","80118","0.0-5.0-1.16","62dc4a5fef307ee53c61afcc","bdp_cybrbll","Tue Mar 28 2023 20:48:51 GMT-0800 (Alaska Daylight Time)","456988","1","3","","null","","","","observe","","img/3to2/1.png","null","209","197","0.5","0.5","3","1","",""
"animation","37","81406","0.0-5.0-2.16","62dc4a5fef307ee53c61afcc","bdp_cybrbll","Tue Mar 28 2023 20:48:51 GMT-0800 (Alaska Daylight Time)","456988","1","3","","","","","","","","","","209","","","","3","1","[{""stimulus"":""img/3to1/1.png"",""time"":103},{""stimulus"":""img/3to1/2.png"",""time"":201},{""stimulus"":""img/3to1/3.png"",""time"":300},{""stimulus"":""img/3to1/4.png"",""time"":399},{""stimulus"":""img/3to1/5.png"",""time"":497},{""stimulus"":""img/3to1/6.png"",""time"":598},{""stimulus"":""img/3to1/7.png"",""time"":696},{""stimulus"":""img/3to1/8.png"",""time"":795},{""stimulus"":""img/3to1/9.png"",""time"":893},{""stimulus"":""img/3to1/10.png"",""time"":993},{""stimulus"":""img/3to1/11.png"",""time"":1092},{""stimulus"":""img/3to1/12.png"",""time"":1191}]","[]"
"image-keyboard-response","38","81757","0.0-5.0-1.17","62dc4a5fef307ee53c61afcc","bdp_cybrbll","Tue Mar 28 2023 20:48:51 GMT-0800 (Alaska Daylight Time)","456988","1","3","","null","","","","observe","","img/1to3/1.png","null","208","346","0.5","0.5","1","3","",""
"animation","39","83064","0.0-5.0-2.17","62dc4a5fef307ee53c61afcc","bdp_cybrbll","Tue Mar 28 2023 20:48:51 GMT-0800 (Alaska Daylight Time)","456988","1","3","","","","","","","","","","208","","","","1","3","[{""stimulus"":""img/1to3/1.png"",""time"":101},{""stimulus"":""img/1to3/2.png"",""time"":201},{""stimulus"":""img/1to3/3.png"",""time"":301},{""stimulus"":""img/1to3/4.png"",""time"":400},{""stimulus"":""img/1to3/5.png"",""time"":497},{""stimulus"":""img/1to3/6.png"",""time"":596},{""stimulus"":""img/1to3/7.png"",""time"":696},{""stimulus"":""img/1to3/8.png"",""time"":795},{""stimulus"":""img/1to3/9.png"",""time"":893},{""stimulus"":""img/1to3/10.png"",""time"":992},{""stimulus"":""img/1to3/11.png"",""time"":1090},{""stimulus"":""img/1to3/12.png"",""time"":1189}]","[]"
"image-keyboard-response","40","83258","0.0-5.0-1.18","62dc4a5fef307ee53c61afcc","bdp_cybrbll","Tue Mar 28 2023 20:48:51 GMT-0800 (Alaska Daylight Time)","456988","1","3","","null","","","","observe","","img/3to2/1.png","null","207","188","0.5","0.5","3","1","",""
"animation","41","84547","0.0-5.0-2.18","62dc4a5fef307ee53c61afcc","bdp_cybrbll","Tue Mar 28 2023 20:48:51 GMT-0800 (Alaska Daylight Time)","456988","1","3","","","","","","","","","","207","","","","3","1","[{""stimulus"":""img/3to1/1.png"",""time"":102},{""stimulus"":""img/3to1/2.png"",""time"":202},{""stimulus"":""img/3to1/3.png"",""time"":299},{""stimulus"":""img/3to1/4.png"",""time"":397},{""stimulus"":""img/3to1/5.png"",""time"":499},{""stimulus"":""img/3to1/6.png"",""time"":595},{""stimulus"":""img/3to1/7.png"",""time"":696},{""stimulus"":""img/3to1/8.png"",""time"":793},{""stimulus"":""img/3to1/9.png"",""time"":892},{""stimulus"":""img/3to1/10.png"",""time"":991},{""stimulus"":""img/3to1/11.png"",""time"":1091},{""stimulus"":""img/3to1/12.png"",""time"":1190}]","[]"
"image-keyboard-response","42","85732","0.0-5.0-1.19","62dc4a5fef307ee53c61afcc","bdp_cybrbll","Tue Mar 28 2023 20:48:51 GMT-0800 (Alaska Daylight Time)","456988","1","3","","null","","","","observe","","img/1to3/1.png","null","206","1180","0.5","0.5","1","3","",""
"animation","43","87022","0.0-5.0-2.19","62dc4a5fef307ee53c61afcc","bdp_cybrbll","Tue Mar 28 2023 20:48:51 GMT-0800 (Alaska Daylight Time)","456988","1","3","","","","","","","","","","206","","","","1","3","[{""stimulus"":""img/1to3/1.png"",""time"":102},{""stimulus"":""img/1to3/2.png"",""time"":201},{""stimulus"":""img/1to3/3.png"",""time"":299},{""stimulus"":""img/1to3/4.png"",""time"":398},{""stimulus"":""img/1to3/5.png"",""time"":497},{""stimulus"":""img/1to3/6.png"",""time"":596},{""stimulus"":""img/1to3/7.png"",""time"":695},{""stimulus"":""img/1to3/8.png"",""time"":794},{""stimulus"":""img/1to3/9.png"",""time"":894},{""stimulus"":""img/1to3/10.png"",""time"":995},{""stimulus"":""img/1to3/11.png"",""time"":1091},{""stimulus"":""img/1to3/12.png"",""time"":1190}]","[]"
"image-keyboard-response","44","88042","0.0-5.0-1.20","62dc4a5fef307ee53c61afcc","bdp_cybrbll","Tue Mar 28 2023 20:48:51 GMT-0800 (Alaska Daylight Time)","456988","1","3","","null","","","","observe","","img/3to2/1.png","null","205","1016","0.5","0.5","3","1","",""
"animation","45","89332","0.0-5.0-2.20","62dc4a5fef307ee53c61afcc","bdp_cybrbll","Tue Mar 28 2023 20:48:51 GMT-0800 (Alaska Daylight Time)","456988","1","3","","","","","","","","","","205","","","","3","1","[{""stimulus"":""img/3to1/1.png"",""time"":100},{""stimulus"":""img/3to1/2.png"",""time"":199},{""stimulus"":""img/3to1/3.png"",""time"":299},{""stimulus"":""img/3to1/4.png"",""time"":398},{""stimulus"":""img/3to1/5.png"",""time"":497},{""stimulus"":""img/3to1/6.png"",""time"":596},{""stimulus"":""img/3to1/7.png"",""time"":695},{""stimulus"":""img/3to1/8.png"",""time"":795},{""stimulus"":""img/3to1/9.png"",""time"":892},{""stimulus"":""img/3to1/10.png"",""time"":992},{""stimulus"":""img/3to1/11.png"",""time"":1090},{""stimulus"":""img/3to1/12.png"",""time"":1191}]","[]"
"image-keyboard-response","46","89952","0.0-5.0-1.21","62dc4a5fef307ee53c61afcc","bdp_cybrbll","Tue Mar 28 2023 20:48:51 GMT-0800 (Alaska Daylight Time)","456988","1","3","","null","","","","observe","","img/1to3/1.png","null","204","616","0.5","0.5","1","2","",""
"animation","47","91240","0.0-5.0-2.21","62dc4a5fef307ee53c61afcc","bdp_cybrbll","Tue Mar 28 2023 20:48:51 GMT-0800 (Alaska Daylight Time)","456988","1","3","","","","","","","","","","204","","","","1","2","[{""stimulus"":""img/1to2/1.png"",""time"":103},{""stimulus"":""img/1to2/2.png"",""time"":199},{""stimulus"":""img/1to2/3.png"",""time"":298},{""stimulus"":""img/1to2/4.png"",""time"":398},{""stimulus"":""img/1to2/5.png"",""time"":498},{""stimulus"":""img/1to2/6.png"",""time"":596},{""stimulus"":""img/1to2/7.png"",""time"":694},{""stimulus"":""img/1to2/8.png"",""time"":793},{""stimulus"":""img/1to2/9.png"",""time"":892},{""stimulus"":""img/1to2/10.png"",""time"":991},{""stimulus"":""img/1to2/11.png"",""time"":1090},{""stimulus"":""img/1to2/12.png"",""time"":1189}]","[]"
"image-keyboard-response","48","91435","0.0-5.0-1.22","62dc4a5fef307ee53c61afcc","bdp_cybrbll","Tue Mar 28 2023 20:48:51 GMT-0800 (Alaska Daylight Time)","456988","1","3","","193","","","","choice","","img/2to1/1.png","1","203","921","0.5","0.5","2","1","",""
"animation","49","92723","0.0-5.0-2.22","62dc4a5fef307ee53c61afcc","bdp_cybrbll","Tue Mar 28 2023 20:48:51 GMT-0800 (Alaska Daylight Time)","456988","1","3","","","","","","","","","","203","","","","2","1","[{""stimulus"":""img/2to1/1.png"",""time"":104},{""stimulus"":""img/2to1/2.png"",""time"":201},{""stimulus"":""img/2to1/3.png"",""time"":299},{""stimulus"":""img/2to1/4.png"",""time"":399},{""stimulus"":""img/2to1/5.png"",""time"":497},{""stimulus"":""img/2to1/6.png"",""time"":596},{""stimulus"":""img/2to1/7.png"",""time"":694},{""stimulus"":""img/2to1/8.png"",""time"":794},{""stimulus"":""img/2to1/9.png"",""time"":894},{""stimulus"":""img/2to1/10.png"",""time"":992},{""stimulus"":""img/2to1/11.png"",""time"":1090},{""stimulus"":""img/2to1/12.png"",""time"":1189}]","[]"
"image-keyboard-response","50","93714","0.0-5.0-1.23","62dc4a5fef307ee53c61afcc","bdp_cybrbll","Tue Mar 28 2023 20:48:51 GMT-0800 (Alaska Daylight Time)","456988","1","3","","null","","","","observe","","img/1to3/1.png","null","202","989","0.5","0.5","1","2","",""
"animation","51","95003","0.0-5.0-2.23","62dc4a5fef307ee53c61afcc","bdp_cybrbll","Tue Mar 28 2023 20:48:51 GMT-0800 (Alaska Daylight Time)","456988","1","3","","","","","","","","","","202","","","","1","2","[{""stimulus"":""img/1to2/1.png"",""time"":102},{""stimulus"":""img/1to2/2.png"",""time"":201},{""stimulus"":""img/1to2/3.png"",""time"":299},{""stimulus"":""img/1to2/4.png"",""time"":399},{""stimulus"":""img/1to2/5.png"",""time"":498},{""stimulus"":""img/1to2/6.png"",""time"":597},{""stimulus"":""img/1to2/7.png"",""time"":696},{""stimulus"":""img/1to2/8.png"",""time"":795},{""stimulus"":""img/1to2/9.png"",""time"":895},{""stimulus"":""img/1to2/10.png"",""time"":992},{""stimulus"":""img/1to2/11.png"",""time"":1091},{""stimulus"":""img/1to2/12.png"",""time"":1191}]","[]"
"image-keyboard-response","52","95422","0.0-5.0-1.24","62dc4a5fef307ee53c61afcc","bdp_cybrbll","Tue Mar 28 2023 20:48:51 GMT-0800 (Alaska Daylight Time)","456988","1","3","","415","","","","choice","","img/2to1/1.png","1","201","530","0.5","0.5","2","1","",""
"animation","53","96711","0.0-5.0-2.24","62dc4a5fef307ee53c61afcc","bdp_cybrbll","Tue Mar 28 2023 20:48:51 GMT-0800 (Alaska Daylight Time)","456988","1","3","","","","","","","","","","201","","","","2","1","[{""stimulus"":""img/2to1/1.png"",""time"":101},{""stimulus"":""img/2to1/2.png"",""time"":199},{""stimulus"":""img/2to1/3.png"",""time"":299},{""stimulus"":""img/2to1/4.png"",""time"":397},{""stimulus"":""img/2to1/5.png"",""time"":496},{""stimulus"":""img/2to1/6.png"",""time"":596},{""stimulus"":""img/2to1/7.png"",""time"":695},{""stimulus"":""img/2to1/8.png"",""time"":794},{""stimulus"":""img/2to1/9.png"",""time"":893},{""stimulus"":""img/2to1/10.png"",""time"":992},{""stimulus"":""img/2to1/11.png"",""time"":1091},{""stimulus"":""img/2to1/12.png"",""time"":1191}]","[]"
"image-keyboard-response","54","97574","0.0-5.0-1.25","62dc4a5fef307ee53c61afcc","bdp_cybrbll","Tue Mar 28 2023 20:48:51 GMT-0800 (Alaska Daylight Time)","456988","1","3","","null","","","","observe","","img/1to3/1.png","null","200","858","0.5","0.5","1","3","",""
"animation","55","98862","0.0-5.0-2.25","62dc4a5fef307ee53c61afcc","bdp_cybrbll","Tue Mar 28 2023 20:48:51 GMT-0800 (Alaska Daylight Time)","456988","1","3","","","","","","","","","","200","","","","1","3","[{""stimulus"":""img/1to3/1.png"",""time"":100},{""stimulus"":""img/1to3/2.png"",""time"":202},{""stimulus"":""img/1to3/3.png"",""time"":300},{""stimulus"":""img/1to3/4.png"",""time"":398},{""stimulus"":""img/1to3/5.png"",""time"":498},{""stimulus"":""img/1to3/6.png"",""time"":597},{""stimulus"":""img/1to3/7.png"",""time"":695},{""stimulus"":""img/1to3/8.png"",""time"":795},{""stimulus"":""img/1to3/9.png"",""time"":894},{""stimulus"":""img/1to3/10.png"",""time"":993},{""stimulus"":""img/1to3/11.png"",""time"":1090},{""stimulus"":""img/1to3/12.png"",""time"":1189}]","[]"
"image-keyboard-response","56","99292","0.0-5.0-1.26","62dc4a5fef307ee53c61afcc","bdp_cybrbll","Tue Mar 28 2023 20:48:51 GMT-0800 (Alaska Daylight Time)","456988","1","3","","null","","","","observe","","img/3to2/1.png","null","199","420","0.5","0.5","3","1","",""
"animation","57","100581","0.0-5.0-2.26","62dc4a5fef307ee53c61afcc","bdp_cybrbll","Tue Mar 28 2023 20:48:51 GMT-0800 (Alaska Daylight Time)","456988","1","3","","","","","","","","","","199","","","","3","1","[{""stimulus"":""img/3to1/1.png"",""time"":102},{""stimulus"":""img/3to1/2.png"",""time"":201},{""stimulus"":""img/3to1/3.png"",""time"":300},{""stimulus"":""img/3to1/4.png"",""time"":399},{""stimulus"":""img/3to1/5.png"",""time"":496},{""stimulus"":""img/3to1/6.png"",""time"":596},{""stimulus"":""img/3to1/7.png"",""time"":695},{""stimulus"":""img/3to1/8.png"",""time"":794},{""stimulus"":""img/3to1/9.png"",""time"":894},{""stimulus"":""img/3to1/10.png"",""time"":992},{""stimulus"":""img/3to1/11.png"",""time"":1091},{""stimulus"":""img/3to1/12.png"",""time"":1191}]","[]"
"image-keyboard-response","58","101018","0.0-5.0-1.27","62dc4a5fef307ee53c61afcc","bdp_cybrbll","Tue Mar 28 2023 20:48:51 GMT-0800 (Alaska Daylight Time)","456988","1","3","","null","","","","observe","","img/1to3/1.png","null","198","432","0.5","0.5","1","2","",""
"animation","59","102307","0.0-5.0-2.27","62dc4a5fef307ee53c61afcc","bdp_cybrbll","Tue Mar 28 2023 20:48:51 GMT-0800 (Alaska Daylight Time)","456988","1","3","","","","","","","","","","198","","","","1","2","[{""stimulus"":""img/1to2/1.png"",""time"":102},{""stimulus"":""img/1to2/2.png"",""time"":200},{""stimulus"":""img/1to2/3.png"",""time"":300},{""stimulus"":""img/1to2/4.png"",""time"":399},{""stimulus"":""img/1to2/5.png"",""time"":498},{""stimulus"":""img/1to2/6.png"",""time"":596},{""stimulus"":""img/1to2/7.png"",""time"":696},{""stimulus"":""img/1to2/8.png"",""time"":794},{""stimulus"":""img/1to2/9.png"",""time"":893},{""stimulus"":""img/1to2/10.png"",""time"":993},{""stimulus"":""img/1to2/11.png"",""time"":1092},{""stimulus"":""img/1to2/12.png"",""time"":1192}]","[]"
"image-keyboard-response","60","103013","0.0-5.0-1.28","62dc4a5fef307ee53c61afcc","bdp_cybrbll","Tue Mar 28 2023 20:48:51 GMT-0800 (Alaska Daylight Time)","456988","1","3","","698","","","","choice","","img/2to1/1.png","1","197","230","0.5","0.5","2","1","",""
"animation","61","104303","0.0-5.0-2.28","62dc4a5fef307ee53c61afcc","bdp_cybrbll","Tue Mar 28 2023 20:48:51 GMT-0800 (Alaska Daylight Time)","456988","1","3","","","","","","","","","","197","","","","2","1","[{""stimulus"":""img/2to1/1.png"",""time"":103},{""stimulus"":""img/2to1/2.png"",""time"":201},{""stimulus"":""img/2to1/3.png"",""time"":300},{""stimulus"":""img/2to1/4.png"",""time"":399},{""stimulus"":""img/2to1/5.png"",""time"":499},{""stimulus"":""img/2to1/6.png"",""time"":596},{""stimulus"":""img/2to1/7.png"",""time"":696},{""stimulus"":""img/2to1/8.png"",""time"":795},{""stimulus"":""img/2to1/9.png"",""time"":893},{""stimulus"":""img/2to1/10.png"",""time"":992},{""stimulus"":""img/2to1/11.png"",""time"":1092},{""stimulus"":""img/2to1/12.png"",""time"":1191}]","[]"
"image-keyboard-response","62","104620","0.0-5.0-1.29","62dc4a5fef307ee53c61afcc","bdp_cybrbll","Tue Mar 28 2023 20:48:51 GMT-0800 (Alaska Daylight Time)","456988","1","3","","null","","","","observe","","img/1to3/1.png","null","196","312","0.5","0.5","1","3","",""
"animation","63","105909","0.0-5.0-2.29","62dc4a5fef307ee53c61afcc","bdp_cybrbll","Tue Mar 28 2023 20:48:51 GMT-0800 (Alaska Daylight Time)","456988","1","3","","","","","","","","","","196","","","","1","3","[{""stimulus"":""img/1to3/1.png"",""time"":102},{""stimulus"":""img/1to3/2.png"",""time"":202},{""stimulus"":""img/1to3/3.png"",""time"":300},{""stimulus"":""img/1to3/4.png"",""time"":399},{""stimulus"":""img/1to3/5.png"",""time"":498},{""stimulus"":""img/1to3/6.png"",""time"":597},{""stimulus"":""img/1to3/7.png"",""time"":696},{""stimulus"":""img/1to3/8.png"",""time"":795},{""stimulus"":""img/1to3/9.png"",""time"":895},{""stimulus"":""img/1to3/10.png"",""time"":994},{""stimulus"":""img/1to3/11.png"",""time"":1093},{""stimulus"":""img/1to3/12.png"",""time"":1193}]","[]"
"image-keyboard-response","64","106664","0.0-5.0-1.30","62dc4a5fef307ee53c61afcc","bdp_cybrbll","Tue Mar 28 2023 20:48:51 GMT-0800 (Alaska Daylight Time)","456988","1","3","","null","","","","observe","","img/3to2/1.png","null","195","750","0.5","0.5","3","1","",""
"animation","65","107987","0.0-5.0-2.30","62dc4a5fef307ee53c61afcc","bdp_cybrbll","Tue Mar 28 2023 20:48:51 GMT-0800 (Alaska Daylight Time)","456988","1","3","","","","","","","","","","195","","","","3","1","[{""stimulus"":""img/3to1/1.png"",""time"":102},{""stimulus"":""img/3to1/2.png"",""time"":200},{""stimulus"":""img/3to1/3.png"",""time"":298},{""stimulus"":""img/3to1/4.png"",""time"":397},{""stimulus"":""img/3to1/5.png"",""time"":496},{""stimulus"":""img/3to1/6.png"",""time"":595},{""stimulus"":""img/3to1/7.png"",""time"":695},{""stimulus"":""img/3to1/8.png"",""time"":793},{""stimulus"":""img/3to1/9.png"",""time"":894},{""stimulus"":""img/3to1/10.png"",""time"":991},{""stimulus"":""img/3to1/11.png"",""time"":1090},{""stimulus"":""img/3to1/12.png"",""time"":1191}]","[]"
"image-keyboard-response","66","108431","0.0-5.0-1.31","62dc4a5fef307ee53c61afcc","bdp_cybrbll","Tue Mar 28 2023 20:48:51 GMT-0800 (Alaska Daylight Time)","456988","1","3","","null","","","","observe","","img/1to3/1.png","null","194","440","0.5","0.5","1","2","",""
"animation","67","109720","0.0-5.0-2.31","62dc4a5fef307ee53c61afcc","bdp_cybrbll","Tue Mar 28 2023 20:48:51 GMT-0800 (Alaska Daylight Time)","456988","1","3","","","","","","","","","","194","","","","1","2","[{""stimulus"":""img/1to2/1.png"",""time"":103},{""stimulus"":""img/1to2/2.png"",""time"":201},{""stimulus"":""img/1to2/3.png"",""time"":300},{""stimulus"":""img/1to2/4.png"",""time"":399},{""stimulus"":""img/1to2/5.png"",""time"":497},{""stimulus"":""img/1to2/6.png"",""time"":597},{""stimulus"":""img/1to2/7.png"",""time"":696},{""stimulus"":""img/1to2/8.png"",""time"":795},{""stimulus"":""img/1to2/9.png"",""time"":895},{""stimulus"":""img/1to2/10.png"",""time"":993},{""stimulus"":""img/1to2/11.png"",""time"":1094},{""stimulus"":""img/1to2/12.png"",""time"":1192}]","[]"
"image-keyboard-response","68","110505","0.0-5.0-1.32","62dc4a5fef307ee53c61afcc","bdp_cybrbll","Tue Mar 28 2023 20:48:51 GMT-0800 (Alaska Daylight Time)","456988","1","3","","780","","","","choice","","img/2to1/1.png","1","193","325","0.5","0.5","2","1","",""
"animation","69","111833","0.0-5.0-2.32","62dc4a5fef307ee53c61afcc","bdp_cybrbll","Tue Mar 28 2023 20:48:51 GMT-0800 (Alaska Daylight Time)","456988","1","3","","","","","","","","","","193","","","","2","1","[{""stimulus"":""img/2to1/1.png"",""time"":115},{""stimulus"":""img/2to1/2.png"",""time"":200},{""stimulus"":""img/2to1/3.png"",""time"":300},{""stimulus"":""img/2to1/4.png"",""time"":399},{""stimulus"":""img/2to1/5.png"",""time"":497},{""stimulus"":""img/2to1/6.png"",""time"":599},{""stimulus"":""img/2to1/7.png"",""time"":698},{""stimulus"":""img/2to1/8.png"",""time"":793},{""stimulus"":""img/2to1/9.png"",""time"":894},{""stimulus"":""img/2to1/10.png"",""time"":993},{""stimulus"":""img/2to1/11.png"",""time"":1092},{""stimulus"":""img/2to1/12.png"",""time"":1191}]","[]"
"image-keyboard-response","70","112123","0.0-5.0-1.33","62dc4a5fef307ee53c61afcc","bdp_cybrbll","Tue Mar 28 2023 20:48:51 GMT-0800 (Alaska Daylight Time)","456988","1","3","","null","","","","observe","","img/1to3/1.png","null","192","285","0.5","0.5","1","3","",""
"animation","71","113412","0.0-5.0-2.33","62dc4a5fef307ee53c61afcc","bdp_cybrbll","Tue Mar 28 2023 20:48:51 GMT-0800 (Alaska Daylight Time)","456988","1","3","","","","","","","","","","192","","","","1","3","[{""stimulus"":""img/1to3/1.png"",""time"":102},{""stimulus"":""img/1to3/2.png"",""time"":201},{""stimulus"":""img/1to3/3.png"",""time"":300},{""stimulus"":""img/1to3/4.png"",""time"":398},{""stimulus"":""img/1to3/5.png"",""time"":496},{""stimulus"":""img/1to3/6.png"",""time"":595},{""stimulus"":""img/1to3/7.png"",""time"":696},{""stimulus"":""img/1to3/8.png"",""time"":794},{""stimulus"":""img/1to3/9.png"",""time"":894},{""stimulus"":""img/1to3/10.png"",""time"":992},{""stimulus"":""img/1to3/11.png"",""time"":1092},{""stimulus"":""img/1to3/12.png"",""time"":1192}]","[]"
"image-keyboard-response","72","114252","0.0-5.0-1.34","62dc4a5fef307ee53c61afcc","bdp_cybrbll","Tue Mar 28 2023 20:48:51 GMT-0800 (Alaska Daylight Time)","456988","1","3","","null","","","","observe","","img/3to2/1.png","null","191","834","0.5","0.5","3","2","",""
"animation","73","115540","0.0-5.0-2.34","62dc4a5fef307ee53c61afcc","bdp_cybrbll","Tue Mar 28 2023 20:48:51 GMT-0800 (Alaska Daylight Time)","456988","1","3","","","","","","","","","","191","","","","3","2","[{""stimulus"":""img/3to2/1.png"",""time"":102},{""stimulus"":""img/3to2/2.png"",""time"":200},{""stimulus"":""img/3to2/3.png"",""time"":298},{""stimulus"":""img/3to2/4.png"",""time"":397},{""stimulus"":""img/3to2/5.png"",""time"":497},{""stimulus"":""img/3to2/6.png"",""time"":595},{""stimulus"":""img/3to2/7.png"",""time"":697},{""stimulus"":""img/3to2/8.png"",""time"":793},{""stimulus"":""img/3to2/9.png"",""time"":893},{""stimulus"":""img/3to2/10.png"",""time"":992},{""stimulus"":""img/3to2/11.png"",""time"":1092},{""stimulus"":""img/3to2/12.png"",""time"":1189}]","[]"
"image-keyboard-response","74","115967","0.0-5.0-1.35","62dc4a5fef307ee53c61afcc","bdp_cybrbll","Tue Mar 28 2023 20:48:51 GMT-0800 (Alaska Daylight Time)","456988","1","3","","416","","","","choice","","img/2to1/1.png","2","190","216","0.5","0.5","2","3","",""
"animation","75","117256","0.0-5.0-2.35","62dc4a5fef307ee53c61afcc","bdp_cybrbll","Tue Mar 28 2023 20:48:51 GMT-0800 (Alaska Daylight Time)","456988","1","3","","","","","","","","","","190","","","","2","3","[{""stimulus"":""img/2to3/1.png"",""time"":103},{""stimulus"":""img/2to3/2.png"",""time"":200},{""stimulus"":""img/2to3/3.png"",""time"":299},{""stimulus"":""img/2to3/4.png"",""time"":398},{""stimulus"":""img/2to3/5.png"",""time"":499},{""stimulus"":""img/2to3/6.png"",""time"":595},{""stimulus"":""img/2to3/7.png"",""time"":696},{""stimulus"":""img/2to3/8.png"",""time"":793},{""stimulus"":""img/2to3/9.png"",""time"":892},{""stimulus"":""img/2to3/10.png"",""time"":994},{""stimulus"":""img/2to3/11.png"",""time"":1090},{""stimulus"":""img/2to3/12.png"",""time"":1189}]","[]"
"image-keyboard-response","76","117572","0.0-5.0-1.36","62dc4a5fef307ee53c61afcc","bdp_cybrbll","Tue Mar 28 2023 20:48:51 GMT-0800 (Alaska Daylight Time)","456988","1","3","","null","","","","observe","","img/3to2/1.png","null","189","313","0.5","0.5","3","2","",""
"animation","77","118860","0.0-5.0-2.36","62dc4a5fef307ee53c61afcc","bdp_cybrbll","Tue Mar 28 2023 20:48:51 GMT-0800 (Alaska Daylight Time)","456988","1","3","","","","","","","","","","189","","","","3","2","[{""stimulus"":""img/3to2/1.png"",""time"":100},{""stimulus"":""img/3to2/2.png"",""time"":204},{""stimulus"":""img/3to2/3.png"",""time"":299},{""stimulus"":""img/3to2/4.png"",""time"":398},{""stimulus"":""img/3to2/5.png"",""time"":499},{""stimulus"":""img/3to2/6.png"",""time"":596},{""stimulus"":""img/3to2/7.png"",""time"":694},{""stimulus"":""img/3to2/8.png"",""time"":795},{""stimulus"":""img/3to2/9.png"",""time"":892},{""stimulus"":""img/3to2/10.png"",""time"":992},{""stimulus"":""img/3to2/11.png"",""time"":1091},{""stimulus"":""img/3to2/12.png"",""time"":1190}]","[]"
"image-keyboard-response","78","119026","0.0-5.0-1.37","62dc4a5fef307ee53c61afcc","bdp_cybrbll","Tue Mar 28 2023 20:48:51 GMT-0800 (Alaska Daylight Time)","456988","1","3","","162","","","","choice","","img/2to1/1.png","2","188","385","0.5","0.5","2","3","",""
"animation","79","120315","0.0-5.0-2.37","62dc4a5fef307ee53c61afcc","bdp_cybrbll","Tue Mar 28 2023 20:48:51 GMT-0800 (Alaska Daylight Time)","456988","1","3","","","","","","","","","","188","","","","2","3","[{""stimulus"":""img/2to3/1.png"",""time"":102},{""stimulus"":""img/2to3/2.png"",""time"":201},{""stimulus"":""img/2to3/3.png"",""time"":300},{""stimulus"":""img/2to3/4.png"",""time"":399},{""stimulus"":""img/2to3/5.png"",""time"":498},{""stimulus"":""img/2to3/6.png"",""time"":596},{""stimulus"":""img/2to3/7.png"",""time"":696},{""stimulus"":""img/2to3/8.png"",""time"":798},{""stimulus"":""img/2to3/9.png"",""time"":893},{""stimulus"":""img/2to3/10.png"",""time"":994},{""stimulus"":""img/2to3/11.png"",""time"":1092},{""stimulus"":""img/2to3/12.png"",""time"":1192}]","[]"
"image-keyboard-response","80","120819","0.0-5.0-1.38","62dc4a5fef307ee53c61afcc","bdp_cybrbll","Tue Mar 28 2023 20:48:51 GMT-0800 (Alaska Daylight Time)","456988","1","3","","null","","","","observe","","img/3to2/1.png","null","187","499","0.5","0.5","3","1","",""
"animation","81","122107","0.0-5.0-2.38","62dc4a5fef307ee53c61afcc","bdp_cybrbll","Tue Mar 28 2023 20:48:51 GMT-0800 (Alaska Daylight Time)","456988","1","3","","","","","","","","","","187","","","","3","1","[{""stimulus"":""img/3to1/1.png"",""time"":102},{""stimulus"":""img/3to1/2.png"",""time"":200},{""stimulus"":""img/3to1/3.png"",""time"":298},{""stimulus"":""img/3to1/4.png"",""time"":397},{""stimulus"":""img/3to1/5.png"",""time"":496},{""stimulus"":""img/3to1/6.png"",""time"":597},{""stimulus"":""img/3to1/7.png"",""time"":697},{""stimulus"":""img/3to1/8.png"",""time"":796},{""stimulus"":""img/3to1/9.png"",""time"":894},{""stimulus"":""img/3to1/10.png"",""time"":994},{""stimulus"":""img/3to1/11.png"",""time"":1091},{""stimulus"":""img/3to1/12.png"",""time"":1189}]","[]"
"image-keyboard-response","82","123016","0.0-5.0-1.39","62dc4a5fef307ee53c61afcc","bdp_cybrbll","Tue Mar 28 2023 20:48:51 GMT-0800 (Alaska Daylight Time)","456988","1","3","","null","","","","observe","","img/1to3/1.png","null","186","906","0.5","0.5","1","2","",""
"animation","83","124305","0.0-5.0-2.39","62dc4a5fef307ee53c61afcc","bdp_cybrbll","Tue Mar 28 2023 20:48:51 GMT-0800 (Alaska Daylight Time)","456988","1","3","","","","","","","","","","186","","","","1","2","[{""stimulus"":""img/1to2/1.png"",""time"":102},{""stimulus"":""img/1to2/2.png"",""time"":202},{""stimulus"":""img/1to2/3.png"",""time"":301},{""stimulus"":""img/1to2/4.png"",""time"":399},{""stimulus"":""img/1to2/5.png"",""time"":497},{""stimulus"":""img/1to2/6.png"",""time"":595},{""stimulus"":""img/1to2/7.png"",""time"":694},{""stimulus"":""img/1to2/8.png"",""time"":796},{""stimulus"":""img/1to2/9.png"",""time"":893},{""stimulus"":""img/1to2/10.png"",""time"":992},{""stimulus"":""img/1to2/11.png"",""time"":1092},{""stimulus"":""img/1to2/12.png"",""time"":1191}]","[]"
"image-keyboard-response","84","124794","0.0-5.0-1.40","62dc4a5fef307ee53c61afcc","bdp_cybrbll","Tue Mar 28 2023 20:48:51 GMT-0800 (Alaska Daylight Time)","456988","1","3","","485","","","","choice","","img/2to1/1.png","2","185","261","0.5","0.5","2","3","",""
"animation","85","126083","0.0-5.0-2.40","62dc4a5fef307ee53c61afcc","bdp_cybrbll","Tue Mar 28 2023 20:48:51 GMT-0800 (Alaska Daylight Time)","456988","1","3","","","","","","","","","","185","","","","2","3","[{""stimulus"":""img/2to3/1.png"",""time"":101},{""stimulus"":""img/2to3/2.png"",""time"":202},{""stimulus"":""img/2to3/3.png"",""time"":301},{""stimulus"":""img/2to3/4.png"",""time"":398},{""stimulus"":""img/2to3/5.png"",""time"":498},{""stimulus"":""img/2to3/6.png"",""time"":597},{""stimulus"":""img/2to3/7.png"",""time"":697},{""stimulus"":""img/2to3/8.png"",""time"":796},{""stimulus"":""img/2to3/9.png"",""time"":894},{""stimulus"":""img/2to3/10.png"",""time"":992},{""stimulus"":""img/2to3/11.png"",""time"":1092},{""stimulus"":""img/2to3/12.png"",""time"":1192}]","[]"
"image-keyboard-response","86","126419","0.0-5.0-1.41","62dc4a5fef307ee53c61afcc","bdp_cybrbll","Tue Mar 28 2023 20:48:51 GMT-0800 (Alaska Daylight Time)","456988","1","3","","null","","","","observe","","img/3to2/1.png","null","184","331","0.5","0.5","3","1","",""
"animation","87","127708","0.0-5.0-2.41","62dc4a5fef307ee53c61afcc","bdp_cybrbll","Tue Mar 28 2023 20:48:51 GMT-0800 (Alaska Daylight Time)","456988","1","3","","","","","","","","","","184","","","","3","1","[{""stimulus"":""img/3to1/1.png"",""time"":103},{""stimulus"":""img/3to1/2.png"",""time"":200},{""stimulus"":""img/3to1/3.png"",""time"":301},{""stimulus"":""img/3to1/4.png"",""time"":399},{""stimulus"":""img/3to1/5.png"",""time"":498},{""stimulus"":""img/3to1/6.png"",""time"":597},{""stimulus"":""img/3to1/7.png"",""time"":695},{""stimulus"":""img/3to1/8.png"",""time"":795},{""stimulus"":""img/3to1/9.png"",""time"":892},{""stimulus"":""img/3to1/10.png"",""time"":993},{""stimulus"":""img/3to1/11.png"",""time"":1091},{""stimulus"":""img/3to1/12.png"",""time"":1189}]","[]"
"image-keyboard-response","88","127930","0.0-5.0-1.42","62dc4a5fef307ee53c61afcc","bdp_cybrbll","Tue Mar 28 2023 20:48:51 GMT-0800 (Alaska Daylight Time)","456988","1","3","","null","","","","observe","","img/1to3/1.png","null","183","220","0.5","0.5","1","2","",""
"animation","89","129218","0.0-5.0-2.42","62dc4a5fef307ee53c61afcc","bdp_cybrbll","Tue Mar 28 2023 20:48:51 GMT-0800 (Alaska Daylight Time)","456988","1","3","","","","","","","","","","183","","","","1","2","[{""stimulus"":""img/1to2/1.png"",""time"":100},{""stimulus"":""img/1to2/2.png"",""time"":199},{""stimulus"":""img/1to2/3.png"",""time"":302},{""stimulus"":""img/1to2/4.png"",""time"":397},{""stimulus"":""img/1to2/5.png"",""time"":498},{""stimulus"":""img/1to2/6.png"",""time"":597},{""stimulus"":""img/1to2/7.png"",""time"":696},{""stimulus"":""img/1to2/8.png"",""time"":794},{""stimulus"":""img/1to2/9.png"",""time"":893},{""stimulus"":""img/1to2/10.png"",""time"":991},{""stimulus"":""img/1to2/11.png"",""time"":1092},{""stimulus"":""img/1to2/12.png"",""time"":1191}]","[]"
"image-keyboard-response","90","130300","0.0-5.0-1.43","62dc4a5fef307ee53c61afcc","bdp_cybrbll","Tue Mar 28 2023 20:48:51 GMT-0800 (Alaska Daylight Time)","456988","1","3","","1078","","","","choice","","img/2to1/1.png","1","182","340","0.5","0.5","2","1","",""
"animation","91","131588","0.0-5.0-2.43","62dc4a5fef307ee53c61afcc","bdp_cybrbll","Tue Mar 28 2023 20:48:51 GMT-0800 (Alaska Daylight Time)","456988","1","3","","","","","","","","","","182","","","","2","1","[{""stimulus"":""img/2to1/1.png"",""time"":102},{""stimulus"":""img/2to1/2.png"",""time"":200},{""stimulus"":""img/2to1/3.png"",""time"":300},{""stimulus"":""img/2to1/4.png"",""time"":400},{""stimulus"":""img/2to1/5.png"",""time"":498},{""stimulus"":""img/2to1/6.png"",""time"":597},{""stimulus"":""img/2to1/7.png"",""time"":696},{""stimulus"":""img/2to1/8.png"",""time"":796},{""stimulus"":""img/2to1/9.png"",""time"":894},{""stimulus"":""img/2to1/10.png"",""time"":991},{""stimulus"":""img/2to1/11.png"",""time"":1091},{""stimulus"":""img/2to1/12.png"",""time"":1190}]","[]"
"image-keyboard-response","92","131786","0.0-5.0-1.44","62dc4a5fef307ee53c61afcc","bdp_cybrbll","Tue Mar 28 2023 20:48:51 GMT-0800 (Alaska Daylight Time)","456988","1","3","","null","","","","observe","","img/1to3/1.png","null","181","192","0.5","0.5","1","3","",""
"animation","93","133074","0.0-5.0-2.44","62dc4a5fef307ee53c61afcc","bdp_cybrbll","Tue Mar 28 2023 20:48:51 GMT-0800 (Alaska Daylight Time)","456988","1","3","","","","","","","","","","181","","","","1","3","[{""stimulus"":""img/1to3/1.png"",""time"":102},{""stimulus"":""img/1to3/2.png"",""time"":201},{""stimulus"":""img/1to3/3.png"",""time"":299},{""stimulus"":""img/1to3/4.png"",""time"":398},{""stimulus"":""img/1to3/5.png"",""time"":496},{""stimulus"":""img/1to3/6.png"",""time"":596},{""stimulus"":""img/1to3/7.png"",""time"":695},{""stimulus"":""img/1to3/8.png"",""time"":793},{""stimulus"":""img/1to3/9.png"",""time"":893},{""stimulus"":""img/1to3/10.png"",""time"":991},{""stimulus"":""img/1to3/11.png"",""time"":1091},{""stimulus"":""img/1to3/12.png"",""time"":1190}]","[]"
"image-keyboard-response","94","134209","0.0-5.0-1.45","62dc4a5fef307ee53c61afcc","bdp_cybrbll","Tue Mar 28 2023 20:48:51 GMT-0800 (Alaska Daylight Time)","456988","1","3","","null","","","","observe","","img/3to2/1.png","null","180","1132","0.5","0.5","3","2","",""
"animation","95","135498","0.0-5.0-2.45","62dc4a5fef307ee53c61afcc","bdp_cybrbll","Tue Mar 28 2023 20:48:51 GMT-0800 (Alaska Daylight Time)","456988","1","3","","","","","","","","","","180","","","","3","2","[{""stimulus"":""img/3to2/1.png"",""time"":102},{""stimulus"":""img/3to2/2.png"",""time"":202},{""stimulus"":""img/3to2/3.png"",""time"":300},{""stimulus"":""img/3to2/4.png"",""time"":398},{""stimulus"":""img/3to2/5.png"",""time"":498},{""stimulus"":""img/3to2/6.png"",""time"":596},{""stimulus"":""img/3to2/7.png"",""time"":695},{""stimulus"":""img/3to2/8.png"",""time"":795},{""stimulus"":""img/3to2/9.png"",""time"":894},{""stimulus"":""img/3to2/10.png"",""time"":992},{""stimulus"":""img/3to2/11.png"",""time"":1090},{""stimulus"":""img/3to2/12.png"",""time"":1191}]","[]"
"image-keyboard-response","96","136009","0.0-5.0-1.46","62dc4a5fef307ee53c61afcc","bdp_cybrbll","Tue Mar 28 2023 20:48:51 GMT-0800 (Alaska Daylight Time)","456988","1","3","","507","","","","choice","","img/2to1/1.png","1","179","1158","0.5","0.5","2","1","",""
"animation","97","137298","0.0-5.0-2.46","62dc4a5fef307ee53c61afcc","bdp_cybrbll","Tue Mar 28 2023 20:48:51 GMT-0800 (Alaska Daylight Time)","456988","1","3","","","","","","","","","","179","","","","2","1","[{""stimulus"":""img/2to1/1.png"",""time"":101},{""stimulus"":""img/2to1/2.png"",""time"":200},{""stimulus"":""img/2to1/3.png"",""time"":300},{""stimulus"":""img/2to1/4.png"",""time"":399},{""stimulus"":""img/2to1/5.png"",""time"":498},{""stimulus"":""img/2to1/6.png"",""time"":597},{""stimulus"":""img/2to1/7.png"",""time"":695},{""stimulus"":""img/2to1/8.png"",""time"":795},{""stimulus"":""img/2to1/9.png"",""time"":893},{""stimulus"":""img/2to1/10.png"",""time"":992},{""stimulus"":""img/2to1/11.png"",""time"":1092},{""stimulus"":""img/2to1/12.png"",""time"":1190}]","[]"
"image-keyboard-response","98","137870","0.0-5.0-1.47","62dc4a5fef307ee53c61afcc","bdp_cybrbll","Tue Mar 28 2023 20:48:51 GMT-0800 (Alaska Daylight Time)","456988","1","3","","null","","","","observe","","img/1to3/1.png","null","178","568","0.5","0.5","1","2","",""
"animation","99","139158","0.0-5.0-2.47","62dc4a5fef307ee53c61afcc","bdp_cybrbll","Tue Mar 28 2023 20:48:51 GMT-0800 (Alaska Daylight Time)","456988","1","3","","","","","","","","","","178","","","","1","2","[{""stimulus"":""img/1to2/1.png"",""time"":102},{""stimulus"":""img/1to2/2.png"",""time"":201},{""stimulus"":""img/1to2/3.png"",""time"":298},{""stimulus"":""img/1to2/4.png"",""time"":398},{""stimulus"":""img/1to2/5.png"",""time"":497},{""stimulus"":""img/1to2/6.png"",""time"":595},{""stimulus"":""img/1to2/7.png"",""time"":696},{""stimulus"":""img/1to2/8.png"",""time"":793},{""stimulus"":""img/1to2/9.png"",""time"":892},{""stimulus"":""img/1to2/10.png"",""time"":993},{""stimulus"":""img/1to2/11.png"",""time"":1090},{""stimulus"":""img/1to2/12.png"",""time"":1191}]","[]"
"image-keyboard-response","100","139970","0.0-5.0-1.48","62dc4a5fef307ee53c61afcc","bdp_cybrbll","Tue Mar 28 2023 20:48:51 GMT-0800 (Alaska Daylight Time)","456988","1","3","","810","","","","choice","","img/2to1/1.png","1","177","552","0.5","0.5","2","1","",""
"animation","101","141259","0.0-5.0-2.48","62dc4a5fef307ee53c61afcc","bdp_cybrbll","Tue Mar 28 2023 20:48:51 GMT-0800 (Alaska Daylight Time)","456988","1","3","","","","","","","","","","177","","","","2","1","[{""stimulus"":""img/2to1/1.png"",""time"":102},{""stimulus"":""img/2to1/2.png"",""time"":201},{""stimulus"":""img/2to1/3.png"",""time"":299},{""stimulus"":""img/2to1/4.png"",""time"":398},{""stimulus"":""img/2to1/5.png"",""time"":496},{""stimulus"":""img/2to1/6.png"",""time"":595},{""stimulus"":""img/2to1/7.png"",""time"":695},{""stimulus"":""img/2to1/8.png"",""time"":793},{""stimulus"":""img/2to1/9.png"",""time"":893},{""stimulus"":""img/2to1/10.png"",""time"":991},{""stimulus"":""img/2to1/11.png"",""time"":1090},{""stimulus"":""img/2to1/12.png"",""time"":1191}]","[]"
"image-keyboard-response","102","141719","0.0-5.0-1.49","62dc4a5fef307ee53c61afcc","bdp_cybrbll","Tue Mar 28 2023 20:48:51 GMT-0800 (Alaska Daylight Time)","456988","1","3","","null","","","","observe","","img/1to3/1.png","null","176","455","0.5","0.5","1","3","",""
"animation","103","143008","0.0-5.0-2.49","62dc4a5fef307ee53c61afcc","bdp_cybrbll","Tue Mar 28 2023 20:48:51 GMT-0800 (Alaska Daylight Time)","456988","1","3","","","","","","","","","","176","","","","1","3","[{""stimulus"":""img/1to3/1.png"",""time"":102},{""stimulus"":""img/1to3/2.png"",""time"":203},{""stimulus"":""img/1to3/3.png"",""time"":300},{""stimulus"":""img/1to3/4.png"",""time"":399},{""stimulus"":""img/1to3/5.png"",""time"":497},{""stimulus"":""img/1to3/6.png"",""time"":596},{""stimulus"":""img/1to3/7.png"",""time"":696},{""stimulus"":""img/1to3/8.png"",""time"":795},{""stimulus"":""img/1to3/9.png"",""time"":893},{""stimulus"":""img/1to3/10.png"",""time"":993},{""stimulus"":""img/1to3/11.png"",""time"":1092},{""stimulus"":""img/1to3/12.png"",""time"":1191}]","[]"
"image-keyboard-response","104","143663","0.0-5.0-1.50","62dc4a5fef307ee53c61afcc","bdp_cybrbll","Tue Mar 28 2023 20:48:51 GMT-0800 (Alaska Daylight Time)","456988","1","3","","null","","","","observe","","img/3to2/1.png","null","175","651","0.5","0.5","3","1","",""
"animation","105","144951","0.0-5.0-2.50","62dc4a5fef307ee53c61afcc","bdp_cybrbll","Tue Mar 28 2023 20:48:51 GMT-0800 (Alaska Daylight Time)","456988","1","3","","","","","","","","","","175","","","","3","1","[{""stimulus"":""img/3to1/1.png"",""time"":102},{""stimulus"":""img/3to1/2.png"",""time"":200},{""stimulus"":""img/3to1/3.png"",""time"":299},{""stimulus"":""img/3to1/4.png"",""time"":397},{""stimulus"":""img/3to1/5.png"",""time"":497},{""stimulus"":""img/3to1/6.png"",""time"":599},{""stimulus"":""img/3to1/7.png"",""time"":695},{""stimulus"":""img/3to1/8.png"",""time"":794},{""stimulus"":""img/3to1/9.png"",""time"":893},{""stimulus"":""img/3to1/10.png"",""time"":991},{""stimulus"":""img/3to1/11.png"",""time"":1090},{""stimulus"":""img/3to1/12.png"",""time"":1192}]","[]"
"image-keyboard-response","106","145305","0.0-5.0-1.51","62dc4a5fef307ee53c61afcc","bdp_cybrbll","Tue Mar 28 2023 20:48:51 GMT-0800 (Alaska Daylight Time)","456988","1","3","","null","","","","observe","","img/1to3/1.png","null","174","350","0.5","0.5","1","3","",""
"animation","107","146593","0.0-5.0-2.51","62dc4a5fef307ee53c61afcc","bdp_cybrbll","Tue Mar 28 2023 20:48:51 GMT-0800 (Alaska Daylight Time)","456988","1","3","","","","","","","","","","174","","","","1","3","[{""stimulus"":""img/1to3/1.png"",""time"":102},{""stimulus"":""img/1to3/2.png"",""time"":200},{""stimulus"":""img/1to3/3.png"",""time"":299},{""stimulus"":""img/1to3/4.png"",""time"":398},{""stimulus"":""img/1to3/5.png"",""time"":496},{""stimulus"":""img/1to3/6.png"",""time"":597},{""stimulus"":""img/1to3/7.png"",""time"":695},{""stimulus"":""img/1to3/8.png"",""time"":794},{""stimulus"":""img/1to3/9.png"",""time"":894},{""stimulus"":""img/1to3/10.png"",""time"":992},{""stimulus"":""img/1to3/11.png"",""time"":1091},{""stimulus"":""img/1to3/12.png"",""time"":1190}]","[]"
"image-keyboard-response","108","147867","0.0-5.0-1.52","62dc4a5fef307ee53c61afcc","bdp_cybrbll","Tue Mar 28 2023 20:48:51 GMT-0800 (Alaska Daylight Time)","456988","1","3","","null","","","","observe","","img/3to2/1.png","null","173","1268","0.5","0.5","3","1","",""
"animation","109","149156","0.0-5.0-2.52","62dc4a5fef307ee53c61afcc","bdp_cybrbll","Tue Mar 28 2023 20:48:51 GMT-0800 (Alaska Daylight Time)","456988","1","3","","","","","","","","","","173","","","","3","1","[{""stimulus"":""img/3to1/1.png"",""time"":100},{""stimulus"":""img/3to1/2.png"",""time"":201},{""stimulus"":""img/3to1/3.png"",""time"":300},{""stimulus"":""img/3to1/4.png"",""time"":400},{""stimulus"":""img/3to1/5.png"",""time"":497},{""stimulus"":""img/3to1/6.png"",""time"":597},{""stimulus"":""img/3to1/7.png"",""time"":696},{""stimulus"":""img/3to1/8.png"",""time"":795},{""stimulus"":""img/3to1/9.png"",""time"":894},{""stimulus"":""img/3to1/10.png"",""time"":991},{""stimulus"":""img/3to1/11.png"",""time"":1091},{""stimulus"":""img/3to1/12.png"",""time"":1195}]","[]"
"image-keyboard-response","110","149386","0.0-5.0-1.53","62dc4a5fef307ee53c61afcc","bdp_cybrbll","Tue Mar 28 2023 20:48:51 GMT-0800 (Alaska Daylight Time)","456988","1","3","","null","","","","observe","","img/1to3/1.png","null","172","228","0.5","0.5","1","2","",""
"animation","111","150681","0.0-5.0-2.53","62dc4a5fef307ee53c61afcc","bdp_cybrbll","Tue Mar 28 2023 20:48:51 GMT-0800 (Alaska Daylight Time)","456988","1","3","","","","","","","","","","172","","","","1","2","[{""stimulus"":""img/1to2/1.png"",""time"":102},{""stimulus"":""img/1to2/2.png"",""time"":200},{""stimulus"":""img/1to2/3.png"",""time"":299},{""stimulus"":""img/1to2/4.png"",""time"":401},{""stimulus"":""img/1to2/5.png"",""time"":496},{""stimulus"":""img/1to2/6.png"",""time"":597},{""stimulus"":""img/1to2/7.png"",""time"":695},{""stimulus"":""img/1to2/8.png"",""time"":794},{""stimulus"":""img/1to2/9.png"",""time"":893},{""stimulus"":""img/1to2/10.png"",""time"":992},{""stimulus"":""img/1to2/11.png"",""time"":1092},{""stimulus"":""img/1to2/12.png"",""time"":1191}]","[]"
"image-keyboard-response","112","152327","0.0-5.0-1.54","62dc4a5fef307ee53c61afcc","bdp_cybrbll","Tue Mar 28 2023 20:48:51 GMT-0800 (Alaska Daylight Time)","456988","1","3","","1640","","","","choice","","img/2to1/1.png","1","171","398","0.5","0.5","2","1","",""
"animation","113","153616","0.0-5.0-2.54","62dc4a5fef307ee53c61afcc","bdp_cybrbll","Tue Mar 28 2023 20:48:51 GMT-0800 (Alaska Daylight Time)","456988","1","3","","","","","","","","","","171","","","","2","1","[{""stimulus"":""img/2to1/1.png"",""time"":102},{""stimulus"":""img/2to1/2.png"",""time"":199},{""stimulus"":""img/2to1/3.png"",""time"":298},{""stimulus"":""img/2to1/4.png"",""time"":400},{""stimulus"":""img/2to1/5.png"",""time"":498},{""stimulus"":""img/2to1/6.png"",""time"":597},{""stimulus"":""img/2to1/7.png"",""time"":698},{""stimulus"":""img/2to1/8.png"",""time"":794},{""stimulus"":""img/2to1/9.png"",""time"":892},{""stimulus"":""img/2to1/10.png"",""time"":991},{""stimulus"":""img/2to1/11.png"",""time"":1092},{""stimulus"":""img/2to1/12.png"",""time"":1190}]","[]"
"image-keyboard-response","114","154062","0.0-5.0-1.55","62dc4a5fef307ee53c61afcc","bdp_cybrbll","Tue Mar 28 2023 20:48:51 GMT-0800 (Alaska Daylight Time)","456988","1","3","","null","","","","observe","","img/1to3/1.png","null","170","442","0.5","0.5","1","2","",""
"animation","115","155351","0.0-5.0-2.55","62dc4a5fef307ee53c61afcc","bdp_cybrbll","Tue Mar 28 2023 20:48:51 GMT-0800 (Alaska Daylight Time)","456988","1","3","","","","","","","","","","170","","","","1","2","[{""stimulus"":""img/1to2/1.png"",""time"":100},{""stimulus"":""img/1to2/2.png"",""time"":200},{""stimulus"":""img/1to2/3.png"",""time"":300},{""stimulus"":""img/1to2/4.png"",""time"":399},{""stimulus"":""img/1to2/5.png"",""time"":499},{""stimulus"":""img/1to2/6.png"",""time"":595},{""stimulus"":""img/1to2/7.png"",""time"":695},{""stimulus"":""img/1to2/8.png"",""time"":794},{""stimulus"":""img/1to2/9.png"",""time"":895},{""stimulus"":""img/1to2/10.png"",""time"":994},{""stimulus"":""img/1to2/11.png"",""time"":1092},{""stimulus"":""img/1to2/12.png"",""time"":1191}]","[]"
"image-keyboard-response","116","156343","0.0-5.0-1.56","62dc4a5fef307ee53c61afcc","bdp_cybrbll","Tue Mar 28 2023 20:48:51 GMT-0800 (Alaska Daylight Time)","456988","1","3","","988","","","","choice","","img/2to1/1.png","1","169","685","0.5","0.5","2","1","",""
"animation","117","157632","0.0-5.0-2.56","62dc4a5fef307ee53c61afcc","bdp_cybrbll","Tue Mar 28 2023 20:48:51 GMT-0800 (Alaska Daylight Time)","456988","1","3","","","","","","","","","","169","","","","2","1","[{""stimulus"":""img/2to1/1.png"",""time"":102},{""stimulus"":""img/2to1/2.png"",""time"":201},{""stimulus"":""img/2to1/3.png"",""time"":300},{""stimulus"":""img/2to1/4.png"",""time"":397},{""stimulus"":""img/2to1/5.png"",""time"":498},{""stimulus"":""img/2to1/6.png"",""time"":598},{""stimulus"":""img/2to1/7.png"",""time"":695},{""stimulus"":""img/2to1/8.png"",""time"":795},{""stimulus"":""img/2to1/9.png"",""time"":894},{""stimulus"":""img/2to1/10.png"",""time"":994},{""stimulus"":""img/2to1/11.png"",""time"":1093},{""stimulus"":""img/2to1/12.png"",""time"":1191}]","[]"
"image-keyboard-response","118","158903","0.0-5.0-1.57","62dc4a5fef307ee53c61afcc","bdp_cybrbll","Tue Mar 28 2023 20:48:51 GMT-0800 (Alaska Daylight Time)","456988","1","3","","null","","","","observe","","img/1to3/1.png","null","168","1269","0.5","0.5","1","3","",""
"animation","119","160191","0.0-5.0-2.57","62dc4a5fef307ee53c61afcc","bdp_cybrbll","Tue Mar 28 2023 20:48:51 GMT-0800 (Alaska Daylight Time)","456988","1","3","","","","","","","","","","168","","","","1","3","[{""stimulus"":""img/1to3/1.png"",""time"":101},{""stimulus"":""img/1to3/2.png"",""time"":199},{""stimulus"":""img/1to3/3.png"",""time"":299},{""stimulus"":""img/1to3/4.png"",""time"":399},{""stimulus"":""img/1to3/5.png"",""time"":498},{""stimulus"":""img/1to3/6.png"",""time"":597},{""stimulus"":""img/1to3/7.png"",""time"":695},{""stimulus"":""img/1to3/8.png"",""time"":794},{""stimulus"":""img/1to3/9.png"",""time"":894},{""stimulus"":""img/1to3/10.png"",""time"":992},{""stimulus"":""img/1to3/11.png"",""time"":1090},{""stimulus"":""img/1to3/12.png"",""time"":1189}]","[]"
"image-keyboard-response","120","160577","0.0-5.0-1.58","62dc4a5fef307ee53c61afcc","bdp_cybrbll","Tue Mar 28 2023 20:48:51 GMT-0800 (Alaska Daylight Time)","456988","1","3","","null","","","","observe","","img/3to2/1.png","null","167","379","0.5","0.5","3","2","",""
"animation","121","161865","0.0-5.0-2.58","62dc4a5fef307ee53c61afcc","bdp_cybrbll","Tue Mar 28 2023 20:48:51 GMT-0800 (Alaska Daylight Time)","456988","1","3","","","","","","","","","","167","","","","3","2","[{""stimulus"":""img/3to2/1.png"",""time"":101},{""stimulus"":""img/3to2/2.png"",""time"":201},{""stimulus"":""img/3to2/3.png"",""time"":300},{""stimulus"":""img/3to2/4.png"",""time"":401},{""stimulus"":""img/3to2/5.png"",""time"":499},{""stimulus"":""img/3to2/6.png"",""time"":596},{""stimulus"":""img/3to2/7.png"",""time"":696},{""stimulus"":""img/3to2/8.png"",""time"":795},{""stimulus"":""img/3to2/9.png"",""time"":893},{""stimulus"":""img/3to2/10.png"",""time"":993},{""stimulus"":""img/3to2/11.png"",""time"":1091},{""stimulus"":""img/3to2/12.png"",""time"":1190}]","[]"
"image-keyboard-response","122","161964","0.0-5.0-1.59","62dc4a5fef307ee53c61afcc","bdp_cybrbll","Tue Mar 28 2023 20:48:51 GMT-0800 (Alaska Daylight Time)","456988","1","3","","94","","","","choice","","img/2to1/1.png","2","166","321","0.5","0.5","2","3","",""
"animation","123","163254","0.0-5.0-2.59","62dc4a5fef307ee53c61afcc","bdp_cybrbll","Tue Mar 28 2023 20:48:51 GMT-0800 (Alaska Daylight Time)","456988","1","3","","","","","","","","","","166","","","","2","3","[{""stimulus"":""img/2to3/1.png"",""time"":102},{""stimulus"":""img/2to3/2.png"",""time"":200},{""stimulus"":""img/2to3/3.png"",""time"":298},{""stimulus"":""img/2to3/4.png"",""time"":399},{""stimulus"":""img/2to3/5.png"",""time"":497},{""stimulus"":""img/2to3/6.png"",""time"":596},{""stimulus"":""img/2to3/7.png"",""time"":694},{""stimulus"":""img/2to3/8.png"",""time"":794},{""stimulus"":""img/2to3/9.png"",""time"":893},{""stimulus"":""img/2to3/10.png"",""time"":991},{""stimulus"":""img/2to3/11.png"",""time"":1092},{""stimulus"":""img/2to3/12.png"",""time"":1191}]","[]"
"image-keyboard-response","124","163876","0.0-5.0-1.60","62dc4a5fef307ee53c61afcc","bdp_cybrbll","Tue Mar 28 2023 20:48:51 GMT-0800 (Alaska Daylight Time)","456988","1","3","","null","","","","observe","","img/3to2/1.png","null","165","618","0.5","0.5","3","2","",""
"animation","125","165166","0.0-5.0-2.60","62dc4a5fef307ee53c61afcc","bdp_cybrbll","Tue Mar 28 2023 20:48:51 GMT-0800 (Alaska Daylight Time)","456988","1","3","","","","","","","","","","165","","","","3","2","[{""stimulus"":""img/3to2/1.png"",""time"":100},{""stimulus"":""img/3to2/2.png"",""time"":202},{""stimulus"":""img/3to2/3.png"",""time"":300},{""stimulus"":""img/3to2/4.png"",""time"":399},{""stimulus"":""img/3to2/5.png"",""time"":498},{""stimulus"":""img/3to2/6.png"",""time"":597},{""stimulus"":""img/3to2/7.png"",""time"":696},{""stimulus"":""img/3to2/8.png"",""time"":794},{""stimulus"":""img/3to2/9.png"",""time"":895},{""stimulus"":""img/3to2/10.png"",""time"":992},{""stimulus"":""img/3to2/11.png"",""time"":1090},{""stimulus"":""img/3to2/12.png"",""time"":1190}]","[]"
"image-keyboard-response","126","165200","0.0-5.0-1.61","62dc4a5fef307ee53c61afcc","bdp_cybrbll","Tue Mar 28 2023 20:48:51 GMT-0800 (Alaska Daylight Time)","456988","1","3","","30","","","","choice","","img/2to1/1.png","2","164","379","0.5","0.5","2","3","",""
"animation","127","166489","0.0-5.0-2.61","62dc4a5fef307ee53c61afcc","bdp_cybrbll","Tue Mar 28 2023 20:48:51 GMT-0800 (Alaska Daylight Time)","456988","1","3","","","","","","","","","","164","","","","2","3","[{""stimulus"":""img/2to3/1.png"",""time"":103},{""stimulus"":""img/2to3/2.png"",""time"":202},{""stimulus"":""img/2to3/3.png"",""time"":299},{""stimulus"":""img/2to3/4.png"",""time"":399},{""stimulus"":""img/2to3/5.png"",""time"":498},{""stimulus"":""img/2to3/6.png"",""time"":596},{""stimulus"":""img/2to3/7.png"",""time"":696},{""stimulus"":""img/2to3/8.png"",""time"":794},{""stimulus"":""img/2to3/9.png"",""time"":892},{""stimulus"":""img/2to3/10.png"",""time"":994},{""stimulus"":""img/2to3/11.png"",""time"":1092},{""stimulus"":""img/2to3/12.png"",""time"":1192}]","[]"
"image-keyboard-response","128","166690","0.0-5.0-1.62","62dc4a5fef307ee53c61afcc","bdp_cybrbll","Tue Mar 28 2023 20:48:51 GMT-0800 (Alaska Daylight Time)","456988","1","3","","null","","","","observe","","img/3to2/1.png","null","163","195","0.5","0.5","3","1","",""
"animation","129","167978","0.0-5.0-2.62","62dc4a5fef307ee53c61afcc","bdp_cybrbll","Tue Mar 28 2023 20:48:51 GMT-0800 (Alaska Daylight Time)","456988","1","3","","","","","","","","","","163","","","","3","1","[{""stimulus"":""img/3to1/1.png"",""time"":102},{""stimulus"":""img/3to1/2.png"",""time"":201},{""stimulus"":""img/3to1/3.png"",""time"":299},{""stimulus"":""img/3to1/4.png"",""time"":398},{""stimulus"":""img/3to1/5.png"",""time"":497},{""stimulus"":""img/3to1/6.png"",""time"":596},{""stimulus"":""img/3to1/7.png"",""time"":695},{""stimulus"":""img/3to1/8.png"",""time"":793},{""stimulus"":""img/3to1/9.png"",""time"":894},{""stimulus"":""img/3to1/10.png"",""time"":991},{""stimulus"":""img/3to1/11.png"",""time"":1091},{""stimulus"":""img/3to1/12.png"",""time"":1190}]","[]"
"image-keyboard-response","130","168561","0.0-5.0-1.63","62dc4a5fef307ee53c61afcc","bdp_cybrbll","Tue Mar 28 2023 20:48:51 GMT-0800 (Alaska Daylight Time)","456988","1","3","","null","","","","observe","","img/1to3/1.png","null","162","579","0.5","0.5","1","3","",""
"animation","131","169850","0.0-5.0-2.63","62dc4a5fef307ee53c61afcc","bdp_cybrbll","Tue Mar 28 2023 20:48:51 GMT-0800 (Alaska Daylight Time)","456988","1","3","","","","","","","","","","162","","","","1","3","[{""stimulus"":""img/1to3/1.png"",""time"":100},{""stimulus"":""img/1to3/2.png"",""time"":200},{""stimulus"":""img/1to3/3.png"",""time"":299},{""stimulus"":""img/1to3/4.png"",""time"":399},{""stimulus"":""img/1to3/5.png"",""time"":498},{""stimulus"":""img/1to3/6.png"",""time"":597},{""stimulus"":""img/1to3/7.png"",""time"":695},{""stimulus"":""img/1to3/8.png"",""time"":795},{""stimulus"":""img/1to3/9.png"",""time"":895},{""stimulus"":""img/1to3/10.png"",""time"":993},{""stimulus"":""img/1to3/11.png"",""time"":1092},{""stimulus"":""img/1to3/12.png"",""time"":1191}]","[]"
"image-keyboard-response","132","170100","0.0-5.0-1.64","62dc4a5fef307ee53c61afcc","bdp_cybrbll","Tue Mar 28 2023 20:48:51 GMT-0800 (Alaska Daylight Time)","456988","1","3","","null","","","","observe","","img/3to2/1.png","null","161","246","0.5","0.5","3","1","",""
"animation","133","171389","0.0-5.0-2.64","62dc4a5fef307ee53c61afcc","bdp_cybrbll","Tue Mar 28 2023 20:48:51 GMT-0800 (Alaska Daylight Time)","456988","1","3","","","","","","","","","","161","","","","3","1","[{""stimulus"":""img/3to1/1.png"",""time"":102},{""stimulus"":""img/3to1/2.png"",""time"":201},{""stimulus"":""img/3to1/3.png"",""time"":300},{""stimulus"":""img/3to1/4.png"",""time"":398},{""stimulus"":""img/3to1/5.png"",""time"":497},{""stimulus"":""img/3to1/6.png"",""time"":595},{""stimulus"":""img/3to1/7.png"",""time"":695},{""stimulus"":""img/3to1/8.png"",""time"":794},{""stimulus"":""img/3to1/9.png"",""time"":893},{""stimulus"":""img/3to1/10.png"",""time"":993},{""stimulus"":""img/3to1/11.png"",""time"":1091},{""stimulus"":""img/3to1/12.png"",""time"":1190}]","[]"
"image-keyboard-response","134","172165","0.0-5.0-1.65","62dc4a5fef307ee53c61afcc","bdp_cybrbll","Tue Mar 28 2023 20:48:51 GMT-0800 (Alaska Daylight Time)","456988","1","3","","null","","","","observe","","img/1to3/1.png","null","160","771","0.5","0.5","1","3","",""
"animation","135","173454","0.0-5.0-2.65","62dc4a5fef307ee53c61afcc","bdp_cybrbll","Tue Mar 28 2023 20:48:51 GMT-0800 (Alaska Daylight Time)","456988","1","3","","","","","","","","","","160","","","","1","3","[{""stimulus"":""img/1to3/1.png"",""time"":101},{""stimulus"":""img/1to3/2.png"",""time"":201},{""stimulus"":""img/1to3/3.png"",""time"":299},{""stimulus"":""img/1to3/4.png"",""time"":397},{""stimulus"":""img/1to3/5.png"",""time"":496},{""stimulus"":""img/1to3/6.png"",""time"":597},{""stimulus"":""img/1to3/7.png"",""time"":696},{""stimulus"":""img/1to3/8.png"",""time"":793},{""stimulus"":""img/1to3/9.png"",""time"":894},{""stimulus"":""img/1to3/10.png"",""time"":993},{""stimulus"":""img/1to3/11.png"",""time"":1091},{""stimulus"":""img/1to3/12.png"",""time"":1191}]","[]"
"image-keyboard-response","136","174368","0.0-5.0-1.66","62dc4a5fef307ee53c61afcc","bdp_cybrbll","Tue Mar 28 2023 20:48:51 GMT-0800 (Alaska Daylight Time)","456988","1","3","","null","","","","observe","","img/3to2/1.png","null","159","909","0.5","0.5","3","2","",""
"animation","137","175657","0.0-5.0-2.66","62dc4a5fef307ee53c61afcc","bdp_cybrbll","Tue Mar 28 2023 20:48:51 GMT-0800 (Alaska Daylight Time)","456988","1","3","","","","","","","","","","159","","","","3","2","[{""stimulus"":""img/3to2/1.png"",""time"":101},{""stimulus"":""img/3to2/2.png"",""time"":201},{""stimulus"":""img/3to2/3.png"",""time"":299},{""stimulus"":""img/3to2/4.png"",""time"":398},{""stimulus"":""img/3to2/5.png"",""time"":497},{""stimulus"":""img/3to2/6.png"",""time"":596},{""stimulus"":""img/3to2/7.png"",""time"":695},{""stimulus"":""img/3to2/8.png"",""time"":794},{""stimulus"":""img/3to2/9.png"",""time"":892},{""stimulus"":""img/3to2/10.png"",""time"":993},{""stimulus"":""img/3to2/11.png"",""time"":1091},{""stimulus"":""img/3to2/12.png"",""time"":1190}]","[]"
"image-keyboard-response","138","178303","0.0-5.0-1.67","62dc4a5fef307ee53c61afcc","bdp_cybrbll","Tue Mar 28 2023 20:48:51 GMT-0800 (Alaska Daylight Time)","456988","1","3","","2641","","","","choice","","img/2to1/1.png","2","158","573","0.5","0.5","2","3","",""
"animation","139","179595","0.0-5.0-2.67","62dc4a5fef307ee53c61afcc","bdp_cybrbll","Tue Mar 28 2023 20:48:51 GMT-0800 (Alaska Daylight Time)","456988","1","3","","","","","","","","","","158","","","","2","3","[{""stimulus"":""img/2to3/1.png"",""time"":102},{""stimulus"":""img/2to3/2.png"",""time"":199},{""stimulus"":""img/2to3/3.png"",""time"":301},{""stimulus"":""img/2to3/4.png"",""time"":399},{""stimulus"":""img/2to3/5.png"",""time"":498},{""stimulus"":""img/2to3/6.png"",""time"":595},{""stimulus"":""img/2to3/7.png"",""time"":696},{""stimulus"":""img/2to3/8.png"",""time"":793},{""stimulus"":""img/2to3/9.png"",""time"":892},{""stimulus"":""img/2to3/10.png"",""time"":992},{""stimulus"":""img/2to3/11.png"",""time"":1091},{""stimulus"":""img/2to3/12.png"",""time"":1190}]","[]"
"image-keyboard-response","140","179911","0.0-5.0-1.68","62dc4a5fef307ee53c61afcc","bdp_cybrbll","Tue Mar 28 2023 20:48:51 GMT-0800 (Alaska Daylight Time)","456988","1","3","","null","","","","observe","","img/3to2/1.png","null","157","312","0.5","0.5","3","2","",""
"animation","141","181201","0.0-5.0-2.68","62dc4a5fef307ee53c61afcc","bdp_cybrbll","Tue Mar 28 2023 20:48:51 GMT-0800 (Alaska Daylight Time)","456988","1","3","","","","","","","","","","157","","","","3","2","[{""stimulus"":""img/3to2/1.png"",""time"":102},{""stimulus"":""img/3to2/2.png"",""time"":201},{""stimulus"":""img/3to2/3.png"",""time"":300},{""stimulus"":""img/3to2/4.png"",""time"":401},{""stimulus"":""img/3to2/5.png"",""time"":498},{""stimulus"":""img/3to2/6.png"",""time"":599},{""stimulus"":""img/3to2/7.png"",""time"":697},{""stimulus"":""img/3to2/8.png"",""time"":797},{""stimulus"":""img/3to2/9.png"",""time"":894},{""stimulus"":""img/3to2/10.png"",""time"":993},{""stimulus"":""img/3to2/11.png"",""time"":1092},{""stimulus"":""img/3to2/12.png"",""time"":1190}]","[]"
"image-keyboard-response","142","181443","0.0-5.0-1.69","62dc4a5fef307ee53c61afcc","bdp_cybrbll","Tue Mar 28 2023 20:48:51 GMT-0800 (Alaska Daylight Time)","456988","1","3","","239","","","","choice","","img/2to1/1.png","1","156","292","0.5","0.5","2","1","",""
"animation","143","182733","0.0-5.0-2.69","62dc4a5fef307ee53c61afcc","bdp_cybrbll","Tue Mar 28 2023 20:48:51 GMT-0800 (Alaska Daylight Time)","456988","1","3","","","","","","","","","","156","","","","2","1","[{""stimulus"":""img/2to1/1.png"",""time"":101},{""stimulus"":""img/2to1/2.png"",""time"":201},{""stimulus"":""img/2to1/3.png"",""time"":299},{""stimulus"":""img/2to1/4.png"",""time"":398},{""stimulus"":""img/2to1/5.png"",""time"":498},{""stimulus"":""img/2to1/6.png"",""time"":596},{""stimulus"":""img/2to1/7.png"",""time"":696},{""stimulus"":""img/2to1/8.png"",""time"":796},{""stimulus"":""img/2to1/9.png"",""time"":895},{""stimulus"":""img/2to1/10.png"",""time"":993},{""stimulus"":""img/2to1/11.png"",""time"":1091},{""stimulus"":""img/2to1/12.png"",""time"":1190}]","[]"
"image-keyboard-response","144","183069","0.0-5.0-1.70","62dc4a5fef307ee53c61afcc","bdp_cybrbll","Tue Mar 28 2023 20:48:51 GMT-0800 (Alaska Daylight Time)","456988","1","3","","null","","","","observe","","img/1to3/1.png","null","155","332","0.5","0.5","1","3","",""
"animation","145","184358","0.0-5.0-2.70","62dc4a5fef307ee53c61afcc","bdp_cybrbll","Tue Mar 28 2023 20:48:51 GMT-0800 (Alaska Daylight Time)","456988","1","3","","","","","","","","","","155","","","","1","3","[{""stimulus"":""img/1to3/1.png"",""time"":105},{""stimulus"":""img/1to3/2.png"",""time"":202},{""stimulus"":""img/1to3/3.png"",""time"":299},{""stimulus"":""img/1to3/4.png"",""time"":400},{""stimulus"":""img/1to3/5.png"",""time"":498},{""stimulus"":""img/1to3/6.png"",""time"":596},{""stimulus"":""img/1to3/7.png"",""time"":696},{""stimulus"":""img/1to3/8.png"",""time"":795},{""stimulus"":""img/1to3/9.png"",""time"":894},{""stimulus"":""img/1to3/10.png"",""time"":993},{""stimulus"":""img/1to3/11.png"",""time"":1092},{""stimulus"":""img/1to3/12.png"",""time"":1190}]","[]"
"image-keyboard-response","146","184992","0.0-5.0-1.71","62dc4a5fef307ee53c61afcc","bdp_cybrbll","Tue Mar 28 2023 20:48:51 GMT-0800 (Alaska Daylight Time)","456988","1","3","","null","","","","observe","","img/3to2/1.png","null","154","627","0.5","0.5","3","2","",""
"animation","147","186280","0.0-5.0-2.71","62dc4a5fef307ee53c61afcc","bdp_cybrbll","Tue Mar 28 2023 20:48:51 GMT-0800 (Alaska Daylight Time)","456988","1","3","","","","","","","","","","154","","","","3","2","[{""stimulus"":""img/3to2/1.png"",""time"":102},{""stimulus"":""img/3to2/2.png"",""time"":200},{""stimulus"":""img/3to2/3.png"",""time"":300},{""stimulus"":""img/3to2/4.png"",""time"":398},{""stimulus"":""img/3to2/5.png"",""time"":497},{""stimulus"":""img/3to2/6.png"",""time"":596},{""stimulus"":""img/3to2/7.png"",""time"":695},{""stimulus"":""img/3to2/8.png"",""time"":794},{""stimulus"":""img/3to2/9.png"",""time"":893},{""stimulus"":""img/3to2/10.png"",""time"":992},{""stimulus"":""img/3to2/11.png"",""time"":1092},{""stimulus"":""img/3to2/12.png"",""time"":1190}]","[]"
"image-keyboard-response","148","186293","0.0-5.0-1.72","62dc4a5fef307ee53c61afcc","bdp_cybrbll","Tue Mar 28 2023 20:48:51 GMT-0800 (Alaska Daylight Time)","456988","1","3","","8","","","","choice","","img/2to1/1.png","1","153","494","0.5","0.5","2","1","",""
"animation","149","187582","0.0-5.0-2.72","62dc4a5fef307ee53c61afcc","bdp_cybrbll","Tue Mar 28 2023 20:48:51 GMT-0800 (Alaska Daylight Time)","456988","1","3","","","","","","","","","","153","","","","2","1","[{""stimulus"":""img/2to1/1.png"",""time"":101},{""stimulus"":""img/2to1/2.png"",""time"":201},{""stimulus"":""img/2to1/3.png"",""time"":299},{""stimulus"":""img/2to1/4.png"",""time"":398},{""stimulus"":""img/2to1/5.png"",""time"":497},{""stimulus"":""img/2to1/6.png"",""time"":597},{""stimulus"":""img/2to1/7.png"",""time"":696},{""stimulus"":""img/2to1/8.png"",""time"":794},{""stimulus"":""img/2to1/9.png"",""time"":893},{""stimulus"":""img/2to1/10.png"",""time"":991},{""stimulus"":""img/2to1/11.png"",""time"":1092},{""stimulus"":""img/2to1/12.png"",""time"":1192}]","[]"
"image-keyboard-response","150","188144","0.0-5.0-1.73","62dc4a5fef307ee53c61afcc","bdp_cybrbll","Tue Mar 28 2023 20:48:51 GMT-0800 (Alaska Daylight Time)","456988","1","3","","null","","","","observe","","img/1to3/1.png","null","152","558","0.5","0.5","1","2","",""
"animation","151","189431","0.0-5.0-2.73","62dc4a5fef307ee53c61afcc","bdp_cybrbll","Tue Mar 28 2023 20:48:51 GMT-0800 (Alaska Daylight Time)","456988","1","3","","","","","","","","","","152","","","","1","2","[{""stimulus"":""img/1to2/1.png"",""time"":100},{""stimulus"":""img/1to2/2.png"",""time"":199},{""stimulus"":""img/1to2/3.png"",""time"":298},{""stimulus"":""img/1to2/4.png"",""time"":397},{""stimulus"":""img/1to2/5.png"",""time"":496},{""stimulus"":""img/1to2/6.png"",""time"":595},{""stimulus"":""img/1to2/7.png"",""time"":696},{""stimulus"":""img/1to2/8.png"",""time"":793},{""stimulus"":""img/1to2/9.png"",""time"":892},{""stimulus"":""img/1to2/10.png"",""time"":991},{""stimulus"":""img/1to2/11.png"",""time"":1090},{""stimulus"":""img/1to2/12.png"",""time"":1189}]","[]"
"image-keyboard-response","152","189783","0.0-5.0-1.74","62dc4a5fef307ee53c61afcc","bdp_cybrbll","Tue Mar 28 2023 20:48:51 GMT-0800 (Alaska Daylight Time)","456988","1","3","","350","","","","choice","","img/2to1/1.png","2","151","389","0.5","0.5","2","3","",""
"animation","153","191072","0.0-5.0-2.74","62dc4a5fef307ee53c61afcc","bdp_cybrbll","Tue Mar 28 2023 20:48:51 GMT-0800 (Alaska Daylight Time)","456988","1","3","","","","","","","","","","151","","","","2","3","[{""stimulus"":""img/2to3/1.png"",""time"":100},{""stimulus"":""img/2to3/2.png"",""time"":200},{""stimulus"":""img/2to3/3.png"",""time"":298},{""stimulus"":""img/2to3/4.png"",""time"":397},{""stimulus"":""img/2to3/5.png"",""time"":496},{""stimulus"":""img/2to3/6.png"",""time"":595},{""stimulus"":""img/2to3/7.png"",""time"":695},{""stimulus"":""img/2to3/8.png"",""time"":793},{""stimulus"":""img/2to3/9.png"",""time"":892},{""stimulus"":""img/2to3/10.png"",""time"":991},{""stimulus"":""img/2to3/11.png"",""time"":1090},{""stimulus"":""img/2to3/12.png"",""time"":1189}]","[]"
"image-keyboard-response","154","191339","0.0-5.0-1.75","62dc4a5fef307ee53c61afcc","bdp_cybrbll","Tue Mar 28 2023 20:48:51 GMT-0800 (Alaska Daylight Time)","456988","1","3","","null","","","","observe","","img/3to2/1.png","null","150","265","0.5","0.5","3","1","",""
"animation","155","192627","0.0-5.0-2.75","62dc4a5fef307ee53c61afcc","bdp_cybrbll","Tue Mar 28 2023 20:48:51 GMT-0800 (Alaska Daylight Time)","456988","1","3","","","","","","","","","","150","","","","3","1","[{""stimulus"":""img/3to1/1.png"",""time"":102},{""stimulus"":""img/3to1/2.png"",""time"":199},{""stimulus"":""img/3to1/3.png"",""time"":299},{""stimulus"":""img/3to1/4.png"",""time"":397},{""stimulus"":""img/3to1/5.png"",""time"":496},{""stimulus"":""img/3to1/6.png"",""time"":595},{""stimulus"":""img/3to1/7.png"",""time"":694},{""stimulus"":""img/3to1/8.png"",""time"":794},{""stimulus"":""img/3to1/9.png"",""time"":894},{""stimulus"":""img/3to1/10.png"",""time"":991},{""stimulus"":""img/3to1/11.png"",""time"":1090},{""stimulus"":""img/3to1/12.png"",""time"":1189}]","[]"
"image-keyboard-response","156","193051","0.0-5.0-1.76","62dc4a5fef307ee53c61afcc","bdp_cybrbll","Tue Mar 28 2023 20:48:51 GMT-0800 (Alaska Daylight Time)","456988","1","3","","null","","","","observe","","img/1to3/1.png","null","149","423","0.5","0.1","1","3","",""
"animation","157","194339","0.0-5.0-2.76","62dc4a5fef307ee53c61afcc","bdp_cybrbll","Tue Mar 28 2023 20:48:51 GMT-0800 (Alaska Daylight Time)","456988","1","3","","","","","","","","","","149","","","","1","3","[{""stimulus"":""img/1to3/1.png"",""time"":105},{""stimulus"":""img/1to3/2.png"",""time"":204},{""stimulus"":""img/1to3/3.png"",""time"":298},{""stimulus"":""img/1to3/4.png"",""time"":399},{""stimulus"":""img/1to3/5.png"",""time"":498},{""stimulus"":""img/1to3/6.png"",""time"":595},{""stimulus"":""img/1to3/7.png"",""time"":694},{""stimulus"":""img/1to3/8.png"",""time"":793},{""stimulus"":""img/1to3/9.png"",""time"":895},{""stimulus"":""img/1to3/10.png"",""time"":991},{""stimulus"":""img/1to3/11.png"",""time"":1093},{""stimulus"":""img/1to3/12.png"",""time"":1189}]","[]"
"image-keyboard-response","158","194594","0.0-5.0-1.77","62dc4a5fef307ee53c61afcc","bdp_cybrbll","Tue Mar 28 2023 20:48:51 GMT-0800 (Alaska Daylight Time)","456988","1","3","","null","","","","observe","","img/3to2/1.png","null","148","253","0.5","0.1","3","1","",""
"animation","159","195883","0.0-5.0-2.77","62dc4a5fef307ee53c61afcc","bdp_cybrbll","Tue Mar 28 2023 20:48:51 GMT-0800 (Alaska Daylight Time)","456988","1","3","","","","","","","","","","148","","","","3","1","[{""stimulus"":""img/3to1/1.png"",""time"":101},{""stimulus"":""img/3to1/2.png"",""time"":200},{""stimulus"":""img/3to1/3.png"",""time"":300},{""stimulus"":""img/3to1/4.png"",""time"":401},{""stimulus"":""img/3to1/5.png"",""time"":497},{""stimulus"":""img/3to1/6.png"",""time"":597},{""stimulus"":""img/3to1/7.png"",""time"":695},{""stimulus"":""img/3to1/8.png"",""time"":794},{""stimulus"":""img/3to1/9.png"",""time"":893},{""stimulus"":""img/3to1/10.png"",""time"":992},{""stimulus"":""img/3to1/11.png"",""time"":1092},{""stimulus"":""img/3to1/12.png"",""time"":1191}]","[]"
"image-keyboard-response","160","196231","0.0-5.0-1.78","62dc4a5fef307ee53c61afcc","bdp_cybrbll","Tue Mar 28 2023 20:48:51 GMT-0800 (Alaska Daylight Time)","456988","1","3","","null","","","","observe","","img/1to3/1.png","null","147","347","0.5","0.1","1","3","",""
"animation","161","197519","0.0-5.0-2.78","62dc4a5fef307ee53c61afcc","bdp_cybrbll","Tue Mar 28 2023 20:48:51 GMT-0800 (Alaska Daylight Time)","456988","1","3","","","","","","","","","","147","","","","1","3","[{""stimulus"":""img/1to3/1.png"",""time"":101},{""stimulus"":""img/1to3/2.png"",""time"":199},{""stimulus"":""img/1to3/3.png"",""time"":299},{""stimulus"":""img/1to3/4.png"",""time"":398},{""stimulus"":""img/1to3/5.png"",""time"":496},{""stimulus"":""img/1to3/6.png"",""time"":595},{""stimulus"":""img/1to3/7.png"",""time"":695},{""stimulus"":""img/1to3/8.png"",""time"":793},{""stimulus"":""img/1to3/9.png"",""time"":892},{""stimulus"":""img/1to3/10.png"",""time"":993},{""stimulus"":""img/1to3/11.png"",""time"":1090},{""stimulus"":""img/1to3/12.png"",""time"":1190}]","[]"
"image-keyboard-response","162","198113","0.0-5.0-1.79","62dc4a5fef307ee53c61afcc","bdp_cybrbll","Tue Mar 28 2023 20:48:51 GMT-0800 (Alaska Daylight Time)","456988","1","3","","null","","","","observe","","img/3to2/1.png","null","146","589","0.5","0.1","3","1","",""
"animation","163","199401","0.0-5.0-2.79","62dc4a5fef307ee53c61afcc","bdp_cybrbll","Tue Mar 28 2023 20:48:51 GMT-0800 (Alaska Daylight Time)","456988","1","3","","","","","","","","","","146","","","","3","1","[{""stimulus"":""img/3to1/1.png"",""time"":100},{""stimulus"":""img/3to1/2.png"",""time"":199},{""stimulus"":""img/3to1/3.png"",""time"":298},{""stimulus"":""img/3to1/4.png"",""time"":397},{""stimulus"":""img/3to1/5.png"",""time"":497},{""stimulus"":""img/3to1/6.png"",""time"":598},{""stimulus"":""img/3to1/7.png"",""time"":695},{""stimulus"":""img/3to1/8.png"",""time"":794},{""stimulus"":""img/3to1/9.png"",""time"":892},{""stimulus"":""img/3to1/10.png"",""time"":993},{""stimulus"":""img/3to1/11.png"",""time"":1092},{""stimulus"":""img/3to1/12.png"",""time"":1189}]","[]"
"image-keyboard-response","164","199806","0.0-5.0-1.80","62dc4a5fef307ee53c61afcc","bdp_cybrbll","Tue Mar 28 2023 20:48:51 GMT-0800 (Alaska Daylight Time)","456988","1","3","","null","","","","observe","","img/1to3/1.png","null","145","402","0.5","0.1","1","2","",""
"animation","165","201095","0.0-5.0-2.80","62dc4a5fef307ee53c61afcc","bdp_cybrbll","Tue Mar 28 2023 20:48:51 GMT-0800 (Alaska Daylight Time)","456988","1","3","","","","","","","","","","145","","","","1","2","[{""stimulus"":""img/1to2/1.png"",""time"":102},{""stimulus"":""img/1to2/2.png"",""time"":202},{""stimulus"":""img/1to2/3.png"",""time"":298},{""stimulus"":""img/1to2/4.png"",""time"":397},{""stimulus"":""img/1to2/5.png"",""time"":498},{""stimulus"":""img/1to2/6.png"",""time"":597},{""stimulus"":""img/1to2/7.png"",""time"":695},{""stimulus"":""img/1to2/8.png"",""time"":794},{""stimulus"":""img/1to2/9.png"",""time"":894},{""stimulus"":""img/1to2/10.png"",""time"":993},{""stimulus"":""img/1to2/11.png"",""time"":1090},{""stimulus"":""img/1to2/12.png"",""time"":1189}]","[]"
"image-keyboard-response","166","201161","0.0-5.0-1.81","62dc4a5fef307ee53c61afcc","bdp_cybrbll","Tue Mar 28 2023 20:48:51 GMT-0800 (Alaska Daylight Time)","456988","1","3","","59","","","","choice","","img/2to1/1.png","1","144","290","0.5","0.1","2","1","",""
"animation","167","202449","0.0-5.0-2.81","62dc4a5fef307ee53c61afcc","bdp_cybrbll","Tue Mar 28 2023 20:48:51 GMT-0800 (Alaska Daylight Time)","456988","1","3","","","","","","","","","","144","","","","2","1","[{""stimulus"":""img/2to1/1.png"",""time"":102},{""stimulus"":""img/2to1/2.png"",""time"":201},{""stimulus"":""img/2to1/3.png"",""time"":299},{""stimulus"":""img/2to1/4.png"",""time"":399},{""stimulus"":""img/2to1/5.png"",""time"":498},{""stimulus"":""img/2to1/6.png"",""time"":596},{""stimulus"":""img/2to1/7.png"",""time"":697},{""stimulus"":""img/2to1/8.png"",""time"":796},{""stimulus"":""img/2to1/9.png"",""time"":893},{""stimulus"":""img/2to1/10.png"",""time"":993},{""stimulus"":""img/2to1/11.png"",""time"":1092},{""stimulus"":""img/2to1/12.png"",""time"":1190}]","[]"
"image-keyboard-response","168","203398","0.0-5.0-1.82","62dc4a5fef307ee53c61afcc","bdp_cybrbll","Tue Mar 28 2023 20:48:51 GMT-0800 (Alaska Daylight Time)","456988","1","3","","null","","","","observe","","img/1to3/1.png","null","143","946","0.5","0.1","1","3","",""
"animation","169","204687","0.0-5.0-2.82","62dc4a5fef307ee53c61afcc","bdp_cybrbll","Tue Mar 28 2023 20:48:51 GMT-0800 (Alaska Daylight Time)","456988","1","3","","","","","","","","","","143","","","","1","3","[{""stimulus"":""img/1to3/1.png"",""time"":100},{""stimulus"":""img/1to3/2.png"",""time"":200},{""stimulus"":""img/1to3/3.png"",""time"":299},{""stimulus"":""img/1to3/4.png"",""time"":398},{""stimulus"":""img/1to3/5.png"",""time"":496},{""stimulus"":""img/1to3/6.png"",""time"":596},{""stimulus"":""img/1to3/7.png"",""time"":694},{""stimulus"":""img/1to3/8.png"",""time"":794},{""stimulus"":""img/1to3/9.png"",""time"":893},{""stimulus"":""img/1to3/10.png"",""time"":992},{""stimulus"":""img/1to3/11.png"",""time"":1092},{""stimulus"":""img/1to3/12.png"",""time"":1191}]","[]"
"image-keyboard-response","170","204881","0.0-5.0-1.83","62dc4a5fef307ee53c61afcc","bdp_cybrbll","Tue Mar 28 2023 20:48:51 GMT-0800 (Alaska Daylight Time)","456988","1","3","","null","","","","observe","","img/3to2/1.png","null","142","189","0.5","0.1","3","1","",""
"animation","171","206171","0.0-5.0-2.83","62dc4a5fef307ee53c61afcc","bdp_cybrbll","Tue Mar 28 2023 20:48:51 GMT-0800 (Alaska Daylight Time)","456988","1","3","","","","","","","","","","142","","","","3","1","[{""stimulus"":""img/3to1/1.png"",""time"":100},{""stimulus"":""img/3to1/2.png"",""time"":199},{""stimulus"":""img/3to1/3.png"",""time"":299},{""stimulus"":""img/3to1/4.png"",""time"":397},{""stimulus"":""img/3to1/5.png"",""time"":497},{""stimulus"":""img/3to1/6.png"",""time"":595},{""stimulus"":""img/3to1/7.png"",""time"":696},{""stimulus"":""img/3to1/8.png"",""time"":794},{""stimulus"":""img/3to1/9.png"",""time"":893},{""stimulus"":""img/3to1/10.png"",""time"":993},{""stimulus"":""img/3to1/11.png"",""time"":1090},{""stimulus"":""img/3to1/12.png"",""time"":1190}]","[]"
"image-keyboard-response","172","206664","0.0-5.0-1.84","62dc4a5fef307ee53c61afcc","bdp_cybrbll","Tue Mar 28 2023 20:48:51 GMT-0800 (Alaska Daylight Time)","456988","1","3","","null","","","","observe","","img/1to3/1.png","null","141","489","0.5","0.1","1","2","",""
"animation","173","207953","0.0-5.0-2.84","62dc4a5fef307ee53c61afcc","bdp_cybrbll","Tue Mar 28 2023 20:48:51 GMT-0800 (Alaska Daylight Time)","456988","1","3","","","","","","","","","","141","","","","1","2","[{""stimulus"":""img/1to2/1.png"",""time"":101},{""stimulus"":""img/1to2/2.png"",""time"":206},{""stimulus"":""img/1to2/3.png"",""time"":298},{""stimulus"":""img/1to2/4.png"",""time"":397},{""stimulus"":""img/1to2/5.png"",""time"":497},{""stimulus"":""img/1to2/6.png"",""time"":596},{""stimulus"":""img/1to2/7.png"",""time"":694},{""stimulus"":""img/1to2/8.png"",""time"":795},{""stimulus"":""img/1to2/9.png"",""time"":894},{""stimulus"":""img/1to2/10.png"",""time"":991},{""stimulus"":""img/1to2/11.png"",""time"":1090},{""stimulus"":""img/1to2/12.png"",""time"":1192}]","[]"
"image-keyboard-response","174","208153","0.0-5.0-1.85","62dc4a5fef307ee53c61afcc","bdp_cybrbll","Tue Mar 28 2023 20:48:51 GMT-0800 (Alaska Daylight Time)","456988","1","3","","196","","","","choice","","img/2to1/1.png","1","140","309","0.5","0.1","2","1","",""
"animation","175","209441","0.0-5.0-2.85","62dc4a5fef307ee53c61afcc","bdp_cybrbll","Tue Mar 28 2023 20:48:51 GMT-0800 (Alaska Daylight Time)","456988","1","3","","","","","","","","","","140","","","","2","1","[{""stimulus"":""img/2to1/1.png"",""time"":100},{""stimulus"":""img/2to1/2.png"",""time"":201},{""stimulus"":""img/2to1/3.png"",""time"":298},{""stimulus"":""img/2to1/4.png"",""time"":398},{""stimulus"":""img/2to1/5.png"",""time"":496},{""stimulus"":""img/2to1/6.png"",""time"":597},{""stimulus"":""img/2to1/7.png"",""time"":696},{""stimulus"":""img/2to1/8.png"",""time"":794},{""stimulus"":""img/2to1/9.png"",""time"":900},{""stimulus"":""img/2to1/10.png"",""time"":994},{""stimulus"":""img/2to1/11.png"",""time"":1092},{""stimulus"":""img/2to1/12.png"",""time"":1190}]","[]"
"image-keyboard-response","176","210059","0.0-5.0-1.86","62dc4a5fef307ee53c61afcc","bdp_cybrbll","Tue Mar 28 2023 20:48:51 GMT-0800 (Alaska Daylight Time)","456988","1","3","","null","","","","observe","","img/1to3/1.png","null","139","614","0.5","0.1","1","2","",""
"animation","177","211347","0.0-5.0-2.86","62dc4a5fef307ee53c61afcc","bdp_cybrbll","Tue Mar 28 2023 20:48:51 GMT-0800 (Alaska Daylight Time)","456988","1","3","","","","","","","","","","139","","","","1","2","[{""stimulus"":""img/1to2/1.png"",""time"":103},{""stimulus"":""img/1to2/2.png"",""time"":201},{""stimulus"":""img/1to2/3.png"",""time"":300},{""stimulus"":""img/1to2/4.png"",""time"":398},{""stimulus"":""img/1to2/5.png"",""time"":501},{""stimulus"":""img/1to2/6.png"",""time"":595},{""stimulus"":""img/1to2/7.png"",""time"":695},{""stimulus"":""img/1to2/8.png"",""time"":795},{""stimulus"":""img/1to2/9.png"",""time"":894},{""stimulus"":""img/1to2/10.png"",""time"":995},{""stimulus"":""img/1to2/11.png"",""time"":1091},{""stimulus"":""img/1to2/12.png"",""time"":1190}]","[]"
"image-keyboard-response","178","211778","0.0-5.0-1.87","62dc4a5fef307ee53c61afcc","bdp_cybrbll","Tue Mar 28 2023 20:48:51 GMT-0800 (Alaska Daylight Time)","456988","1","3","","428","","","","choice","","img/2to1/1.png","2","138","254","0.5","0.1","2","3","",""
"animation","179","213066","0.0-5.0-2.87","62dc4a5fef307ee53c61afcc","bdp_cybrbll","Tue Mar 28 2023 20:48:51 GMT-0800 (Alaska Daylight Time)","456988","1","3","","","","","","","","","","138","","","","2","3","[{""stimulus"":""img/2to3/1.png"",""time"":102},{""stimulus"":""img/2to3/2.png"",""time"":200},{""stimulus"":""img/2to3/3.png"",""time"":298},{""stimulus"":""img/2to3/4.png"",""time"":398},{""stimulus"":""img/2to3/5.png"",""time"":499},{""stimulus"":""img/2to3/6.png"",""time"":600},{""stimulus"":""img/2to3/7.png"",""time"":695},{""stimulus"":""img/2to3/8.png"",""time"":795},{""stimulus"":""img/2to3/9.png"",""time"":894},{""stimulus"":""img/2to3/10.png"",""time"":994},{""stimulus"":""img/2to3/11.png"",""time"":1091},{""stimulus"":""img/2to3/12.png"",""time"":1189}]","[]"
"image-keyboard-response","180","213688","0.0-5.0-1.88","62dc4a5fef307ee53c61afcc","bdp_cybrbll","Tue Mar 28 2023 20:48:51 GMT-0800 (Alaska Daylight Time)","456988","1","3","","null","","","","observe","","img/3to2/1.png","null","137","619","0.5","0.1","3","1","",""
"animation","181","214977","0.0-5.0-2.88","62dc4a5fef307ee53c61afcc","bdp_cybrbll","Tue Mar 28 2023 20:48:51 GMT-0800 (Alaska Daylight Time)","456988","1","3","","","","","","","","","","137","","","","3","1","[{""stimulus"":""img/3to1/1.png"",""time"":102},{""stimulus"":""img/3to1/2.png"",""time"":202},{""stimulus"":""img/3to1/3.png"",""time"":302},{""stimulus"":""img/3to1/4.png"",""time"":398},{""stimulus"":""img/3to1/5.png"",""time"":497},{""stimulus"":""img/3to1/6.png"",""time"":598},{""stimulus"":""img/3to1/7.png"",""time"":697},{""stimulus"":""img/3to1/8.png"",""time"":795},{""stimulus"":""img/3to1/9.png"",""time"":894},{""stimulus"":""img/3to1/10.png"",""time"":993},{""stimulus"":""img/3to1/11.png"",""time"":1091},{""stimulus"":""img/3to1/12.png"",""time"":1190}]","[]"
"image-keyboard-response","182","215534","0.0-5.0-1.89","62dc4a5fef307ee53c61afcc","bdp_cybrbll","Tue Mar 28 2023 20:48:51 GMT-0800 (Alaska Daylight Time)","456988","1","3","","null","","","","observe","","img/1to3/1.png","null","136","554","0.5","0.1","1","2","",""
"animation","183","216823","0.0-5.0-2.89","62dc4a5fef307ee53c61afcc","bdp_cybrbll","Tue Mar 28 2023 20:48:51 GMT-0800 (Alaska Daylight Time)","456988","1","3","","","","","","","","","","136","","","","1","2","[{""stimulus"":""img/1to2/1.png"",""time"":101},{""stimulus"":""img/1to2/2.png"",""time"":201},{""stimulus"":""img/1to2/3.png"",""time"":300},{""stimulus"":""img/1to2/4.png"",""time"":397},{""stimulus"":""img/1to2/5.png"",""time"":498},{""stimulus"":""img/1to2/6.png"",""time"":598},{""stimulus"":""img/1to2/7.png"",""time"":695},{""stimulus"":""img/1to2/8.png"",""time"":794},{""stimulus"":""img/1to2/9.png"",""time"":893},{""stimulus"":""img/1to2/10.png"",""time"":993},{""stimulus"":""img/1to2/11.png"",""time"":1093},{""stimulus"":""img/1to2/12.png"",""time"":1190}]","[]"
"image-keyboard-response","184","217037","0.0-5.0-1.90","62dc4a5fef307ee53c61afcc","bdp_cybrbll","Tue Mar 28 2023 20:48:51 GMT-0800 (Alaska Daylight Time)","456988","1","3","","210","","","","choice","","img/2to1/1.png","1","135","768","0.5","0.1","2","1","",""
"animation","185","218327","0.0-5.0-2.90","62dc4a5fef307ee53c61afcc","bdp_cybrbll","Tue Mar 28 2023 20:48:51 GMT-0800 (Alaska Daylight Time)","456988","1","3","","","","","","","","","","135","","","","2","1","[{""stimulus"":""img/2to1/1.png"",""time"":102},{""stimulus"":""img/2to1/2.png"",""time"":201},{""stimulus"":""img/2to1/3.png"",""time"":299},{""stimulus"":""img/2to1/4.png"",""time"":398},{""stimulus"":""img/2to1/5.png"",""time"":497},{""stimulus"":""img/2to1/6.png"",""time"":595},{""stimulus"":""img/2to1/7.png"",""time"":696},{""stimulus"":""img/2to1/8.png"",""time"":795},{""stimulus"":""img/2to1/9.png"",""time"":895},{""stimulus"":""img/2to1/10.png"",""time"":993},{""stimulus"":""img/2to1/11.png"",""time"":1092},{""stimulus"":""img/2to1/12.png"",""time"":1191}]","[]"
"image-keyboard-response","186","219212","0.0-5.0-1.91","62dc4a5fef307ee53c61afcc","bdp_cybrbll","Tue Mar 28 2023 20:48:51 GMT-0800 (Alaska Daylight Time)","456988","1","3","","null","","","","observe","","img/1to3/1.png","null","134","881","0.5","0.1","1","3","",""
"animation","187","220501","0.0-5.0-2.91","62dc4a5fef307ee53c61afcc","bdp_cybrbll","Tue Mar 28 2023 20:48:51 GMT-0800 (Alaska Daylight Time)","456988","1","3","","","","","","","","","","134","","","","1","3","[{""stimulus"":""img/1to3/1.png"",""time"":101},{""stimulus"":""img/1to3/2.png"",""time"":200},{""stimulus"":""img/1to3/3.png"",""time"":298},{""stimulus"":""img/1to3/4.png"",""time"":397},{""stimulus"":""img/1to3/5.png"",""time"":496},{""stimulus"":""img/1to3/6.png"",""time"":595},{""stimulus"":""img/1to3/7.png"",""time"":694},{""stimulus"":""img/1to3/8.png"",""time"":795},{""stimulus"":""img/1to3/9.png"",""time"":894},{""stimulus"":""img/1to3/10.png"",""time"":991},{""stimulus"":""img/1to3/11.png"",""time"":1091},{""stimulus"":""img/1to3/12.png"",""time"":1190}]","[]"
"image-keyboard-response","188","220702","0.0-5.0-1.92","62dc4a5fef307ee53c61afcc","bdp_cybrbll","Tue Mar 28 2023 20:48:51 GMT-0800 (Alaska Daylight Time)","456988","1","3","","null","","","","observe","","img/3to2/1.png","null","133","197","0.5","0.1","3","1","",""
"animation","189","221991","0.0-5.0-2.92","62dc4a5fef307ee53c61afcc","bdp_cybrbll","Tue Mar 28 2023 20:48:51 GMT-0800 (Alaska Daylight Time)","456988","1","3","","","","","","","","","","133","","","","3","1","[{""stimulus"":""img/3to1/1.png"",""time"":102},{""stimulus"":""img/3to1/2.png"",""time"":201},{""stimulus"":""img/3to1/3.png"",""time"":298},{""stimulus"":""img/3to1/4.png"",""time"":398},{""stimulus"":""img/3to1/5.png"",""time"":498},{""stimulus"":""img/3to1/6.png"",""time"":595},{""stimulus"":""img/3to1/7.png"",""time"":694},{""stimulus"":""img/3to1/8.png"",""time"":795},{""stimulus"":""img/3to1/9.png"",""time"":893},{""stimulus"":""img/3to1/10.png"",""time"":991},{""stimulus"":""img/3to1/11.png"",""time"":1092},{""stimulus"":""img/3to1/12.png"",""time"":1189}]","[]"
"image-keyboard-response","190","222266","0.0-5.0-1.93","62dc4a5fef307ee53c61afcc","bdp_cybrbll","Tue Mar 28 2023 20:48:51 GMT-0800 (Alaska Daylight Time)","456988","1","3","","null","","","","observe","","img/1to3/1.png","null","132","269","0.5","0.1","1","3","",""
