"trial_type","trial_index","time_elapsed","internal_node_id","subject_id","task","startTime","totalTime","fairPartner","unfairPartner","view_history","rt","event","trial","time","trialtype","success","stimulus","key_press","throwsLeft","rtDur","pFair","pUnfair","holder","receiver","animation_sequence","responses","numBlurs"
"pavlovia","0","11","0.0-0.0","63e5ffdf639ebdcf35aacb09","bdp_cybrbll","Sun Mar 26 2023 20:21:57 GMT+0200 (Central European Summer Time)","470056","3","1","","","","","","","","","","","","","","","","","",""
"instructions","1","15388","0.0-1.0","63e5ffdf639ebdcf35aacb09","bdp_cybrbll","Sun Mar 26 2023 20:21:57 GMT+0200 (Central European Summer Time)","470056","3","1","[{""page_index"":0,""viewing_time"":15374}]","15375","","","","","","","","","","","","","","","",""
"","","","","63e5ffdf639ebdcf35aacb09","bdp_cybrbll","Sun Mar 26 2023 20:21:57 GMT+0200 (Central European Summer Time)","470056","3","1","","","fullscreenenter","2","18599","fullscreenenter","","","","","","","","","","","",""
"fullscreen","2","19539","0.0-2.0","63e5ffdf639ebdcf35aacb09","bdp_cybrbll","Sun Mar 26 2023 20:21:57 GMT+0200 (Central European Summer Time)","470056","3","1","","","","","","","true","","","","","","","","","","",""
"instructions","3","71507","0.0-4.0","63e5ffdf639ebdcf35aacb09","bdp_cybrbll","Sun Mar 26 2023 20:21:57 GMT+0200 (Central European Summer Time)","470056","3","1","[{""page_index"":0,""viewing_time"":51965}]","51966","","","","","","","","","","","","","","","",""
"image-keyboard-response","4","73842","0.0-5.0-1.0","63e5ffdf639ebdcf35aacb09","bdp_cybrbll","Sun Mar 26 2023 20:21:57 GMT+0200 (Central European Summer Time)","470056","3","1","","2329","","","","choice","","img/2to1/1.png","2","225","473","0.5","0.5","2","3","","",""
"animation","5","75132","0.0-5.0-2.0","63e5ffdf639ebdcf35aacb09","bdp_cybrbll","Sun Mar 26 2023 20:21:57 GMT+0200 (Central European Summer Time)","470056","3","1","","","","","","","","","","225","","","","2","3","[{""stimulus"":""img/2to3/1.png"",""time"":102},{""stimulus"":""img/2to3/2.png"",""time"":200},{""stimulus"":""img/2to3/3.png"",""time"":298},{""stimulus"":""img/2to3/4.png"",""time"":397},{""stimulus"":""img/2to3/5.png"",""time"":496},{""stimulus"":""img/2to3/6.png"",""time"":595},{""stimulus"":""img/2to3/7.png"",""time"":694},{""stimulus"":""img/2to3/8.png"",""time"":794},{""stimulus"":""img/2to3/9.png"",""time"":892},{""stimulus"":""img/2to3/10.png"",""time"":991},{""stimulus"":""img/2to3/11.png"",""time"":1090},{""stimulus"":""img/2to3/12.png"",""time"":1189}]","[]",""
"image-keyboard-response","6","75672","0.0-5.0-1.1","63e5ffdf639ebdcf35aacb09","bdp_cybrbll","Sun Mar 26 2023 20:21:57 GMT+0200 (Central European Summer Time)","470056","3","1","","null","","","","observe","","img/3to2/1.png","null","224","536","0.5","0.5","3","2","","",""
"animation","7","76961","0.0-5.0-2.1","63e5ffdf639ebdcf35aacb09","bdp_cybrbll","Sun Mar 26 2023 20:21:57 GMT+0200 (Central European Summer Time)","470056","3","1","","","","","","","","","","224","","","","3","2","[{""stimulus"":""img/3to2/1.png"",""time"":101},{""stimulus"":""img/3to2/2.png"",""time"":200},{""stimulus"":""img/3to2/3.png"",""time"":299},{""stimulus"":""img/3to2/4.png"",""time"":397},{""stimulus"":""img/3to2/5.png"",""time"":497},{""stimulus"":""img/3to2/6.png"",""time"":595},{""stimulus"":""img/3to2/7.png"",""time"":695},{""stimulus"":""img/3to2/8.png"",""time"":794},{""stimulus"":""img/3to2/9.png"",""time"":893},{""stimulus"":""img/3to2/10.png"",""time"":992},{""stimulus"":""img/3to2/11.png"",""time"":1091},{""stimulus"":""img/3to2/12.png"",""time"":1190}]","[]",""
"image-keyboard-response","8","77418","0.0-5.0-1.2","63e5ffdf639ebdcf35aacb09","bdp_cybrbll","Sun Mar 26 2023 20:21:57 GMT+0200 (Central European Summer Time)","470056","3","1","","455","","","","choice","","img/2to1/1.png","1","223","286","0.5","0.5","2","1","","",""
"animation","9","78707","0.0-5.0-2.2","63e5ffdf639ebdcf35aacb09","bdp_cybrbll","Sun Mar 26 2023 20:21:57 GMT+0200 (Central European Summer Time)","470056","3","1","","","","","","","","","","223","","","","2","1","[{""stimulus"":""img/2to1/1.png"",""time"":104},{""stimulus"":""img/2to1/2.png"",""time"":200},{""stimulus"":""img/2to1/3.png"",""time"":299},{""stimulus"":""img/2to1/4.png"",""time"":398},{""stimulus"":""img/2to1/5.png"",""time"":497},{""stimulus"":""img/2to1/6.png"",""time"":596},{""stimulus"":""img/2to1/7.png"",""time"":694},{""stimulus"":""img/2to1/8.png"",""time"":794},{""stimulus"":""img/2to1/9.png"",""time"":893},{""stimulus"":""img/2to1/10.png"",""time"":992},{""stimulus"":""img/2to1/11.png"",""time"":1090},{""stimulus"":""img/2to1/12.png"",""time"":1189}]","[]",""
"image-keyboard-response","10","78897","0.0-5.0-1.3","63e5ffdf639ebdcf35aacb09","bdp_cybrbll","Sun Mar 26 2023 20:21:57 GMT+0200 (Central European Summer Time)","470056","3","1","","null","","","","observe","","img/1to3/1.png","null","222","188","0.5","0.5","1","3","","",""
"animation","11","80186","0.0-5.0-2.3","63e5ffdf639ebdcf35aacb09","bdp_cybrbll","Sun Mar 26 2023 20:21:57 GMT+0200 (Central European Summer Time)","470056","3","1","","","","","","","","","","222","","","","1","3","[{""stimulus"":""img/1to3/1.png"",""time"":101},{""stimulus"":""img/1to3/2.png"",""time"":200},{""stimulus"":""img/1to3/3.png"",""time"":298},{""stimulus"":""img/1to3/4.png"",""time"":397},{""stimulus"":""img/1to3/5.png"",""time"":502},{""stimulus"":""img/1to3/6.png"",""time"":597},{""stimulus"":""img/1to3/7.png"",""time"":695},{""stimulus"":""img/1to3/8.png"",""time"":794},{""stimulus"":""img/1to3/9.png"",""time"":893},{""stimulus"":""img/1to3/10.png"",""time"":993},{""stimulus"":""img/1to3/11.png"",""time"":1091},{""stimulus"":""img/1to3/12.png"",""time"":1189}]","[]",""
"image-keyboard-response","12","80502","0.0-5.0-1.4","63e5ffdf639ebdcf35aacb09","bdp_cybrbll","Sun Mar 26 2023 20:21:57 GMT+0200 (Central European Summer Time)","470056","3","1","","null","","","","observe","","img/3to2/1.png","null","221","314","0.5","0.5","3","2","","",""
"animation","13","81791","0.0-5.0-2.4","63e5ffdf639ebdcf35aacb09","bdp_cybrbll","Sun Mar 26 2023 20:21:57 GMT+0200 (Central European Summer Time)","470056","3","1","","","","","","","","","","221","","","","3","2","[{""stimulus"":""img/3to2/1.png"",""time"":100},{""stimulus"":""img/3to2/2.png"",""time"":200},{""stimulus"":""img/3to2/3.png"",""time"":299},{""stimulus"":""img/3to2/4.png"",""time"":398},{""stimulus"":""img/3to2/5.png"",""time"":498},{""stimulus"":""img/3to2/6.png"",""time"":597},{""stimulus"":""img/3to2/7.png"",""time"":695},{""stimulus"":""img/3to2/8.png"",""time"":794},{""stimulus"":""img/3to2/9.png"",""time"":894},{""stimulus"":""img/3to2/10.png"",""time"":992},{""stimulus"":""img/3to2/11.png"",""time"":1091},{""stimulus"":""img/3to2/12.png"",""time"":1189}]","[]",""
"image-keyboard-response","14","82242","0.0-5.0-1.5","63e5ffdf639ebdcf35aacb09","bdp_cybrbll","Sun Mar 26 2023 20:21:57 GMT+0200 (Central European Summer Time)","470056","3","1","","449","","","","choice","","img/2to1/1.png","2","220","569","0.5","0.5","2","3","","",""
"animation","15","83531","0.0-5.0-2.5","63e5ffdf639ebdcf35aacb09","bdp_cybrbll","Sun Mar 26 2023 20:21:57 GMT+0200 (Central European Summer Time)","470056","3","1","","","","","","","","","","220","","","","2","3","[{""stimulus"":""img/2to3/1.png"",""time"":101},{""stimulus"":""img/2to3/2.png"",""time"":199},{""stimulus"":""img/2to3/3.png"",""time"":298},{""stimulus"":""img/2to3/4.png"",""time"":398},{""stimulus"":""img/2to3/5.png"",""time"":497},{""stimulus"":""img/2to3/6.png"",""time"":596},{""stimulus"":""img/2to3/7.png"",""time"":695},{""stimulus"":""img/2to3/8.png"",""time"":793},{""stimulus"":""img/2to3/9.png"",""time"":892},{""stimulus"":""img/2to3/10.png"",""time"":992},{""stimulus"":""img/2to3/11.png"",""time"":1090},{""stimulus"":""img/2to3/12.png"",""time"":1189}]","[]",""
"image-keyboard-response","16","83809","0.0-5.0-1.6","63e5ffdf639ebdcf35aacb09","bdp_cybrbll","Sun Mar 26 2023 20:21:57 GMT+0200 (Central European Summer Time)","470056","3","1","","null","","","","observe","","img/3to2/1.png","null","219","274","0.5","0.5","3","1","","",""
"animation","17","85097","0.0-5.0-2.6","63e5ffdf639ebdcf35aacb09","bdp_cybrbll","Sun Mar 26 2023 20:21:57 GMT+0200 (Central European Summer Time)","470056","3","1","","","","","","","","","","219","","","","3","1","[{""stimulus"":""img/3to1/1.png"",""time"":100},{""stimulus"":""img/3to1/2.png"",""time"":201},{""stimulus"":""img/3to1/3.png"",""time"":300},{""stimulus"":""img/3to1/4.png"",""time"":399},{""stimulus"":""img/3to1/5.png"",""time"":498},{""stimulus"":""img/3to1/6.png"",""time"":596},{""stimulus"":""img/3to1/7.png"",""time"":696},{""stimulus"":""img/3to1/8.png"",""time"":794},{""stimulus"":""img/3to1/9.png"",""time"":893},{""stimulus"":""img/3to1/10.png"",""time"":992},{""stimulus"":""img/3to1/11.png"",""time"":1090},{""stimulus"":""img/3to1/12.png"",""time"":1190}]","[]",""
"image-keyboard-response","18","85600","0.0-5.0-1.7","63e5ffdf639ebdcf35aacb09","bdp_cybrbll","Sun Mar 26 2023 20:21:57 GMT+0200 (Central European Summer Time)","470056","3","1","","null","","","","observe","","img/1to3/1.png","null","218","500","0.5","0.5","1","3","","",""
"animation","19","86888","0.0-5.0-2.7","63e5ffdf639ebdcf35aacb09","bdp_cybrbll","Sun Mar 26 2023 20:21:57 GMT+0200 (Central European Summer Time)","470056","3","1","","","","","","","","","","218","","","","1","3","[{""stimulus"":""img/1to3/1.png"",""time"":101},{""stimulus"":""img/1to3/2.png"",""time"":199},{""stimulus"":""img/1to3/3.png"",""time"":299},{""stimulus"":""img/1to3/4.png"",""time"":398},{""stimulus"":""img/1to3/5.png"",""time"":497},{""stimulus"":""img/1to3/6.png"",""time"":595},{""stimulus"":""img/1to3/7.png"",""time"":695},{""stimulus"":""img/1to3/8.png"",""time"":794},{""stimulus"":""img/1to3/9.png"",""time"":893},{""stimulus"":""img/1to3/10.png"",""time"":992},{""stimulus"":""img/1to3/11.png"",""time"":1091},{""stimulus"":""img/1to3/12.png"",""time"":1189}]","[]",""
"image-keyboard-response","20","87432","0.0-5.0-1.8","63e5ffdf639ebdcf35aacb09","bdp_cybrbll","Sun Mar 26 2023 20:21:57 GMT+0200 (Central European Summer Time)","470056","3","1","","null","","","","observe","","img/3to2/1.png","null","217","542","0.5","0.5","3","1","","",""
"animation","21","88720","0.0-5.0-2.8","63e5ffdf639ebdcf35aacb09","bdp_cybrbll","Sun Mar 26 2023 20:21:57 GMT+0200 (Central European Summer Time)","470056","3","1","","","","","","","","","","217","","","","3","1","[{""stimulus"":""img/3to1/1.png"",""time"":102},{""stimulus"":""img/3to1/2.png"",""time"":200},{""stimulus"":""img/3to1/3.png"",""time"":299},{""stimulus"":""img/3to1/4.png"",""time"":398},{""stimulus"":""img/3to1/5.png"",""time"":497},{""stimulus"":""img/3to1/6.png"",""time"":597},{""stimulus"":""img/3to1/7.png"",""time"":695},{""stimulus"":""img/3to1/8.png"",""time"":794},{""stimulus"":""img/3to1/9.png"",""time"":893},{""stimulus"":""img/3to1/10.png"",""time"":992},{""stimulus"":""img/3to1/11.png"",""time"":1092},{""stimulus"":""img/3to1/12.png"",""time"":1190}]","[]",""
"image-keyboard-response","22","89013","0.0-5.0-1.9","63e5ffdf639ebdcf35aacb09","bdp_cybrbll","Sun Mar 26 2023 20:21:57 GMT+0200 (Central European Summer Time)","470056","3","1","","null","","","","observe","","img/1to3/1.png","null","216","289","0.5","0.5","1","3","","",""
"animation","23","90301","0.0-5.0-2.9","63e5ffdf639ebdcf35aacb09","bdp_cybrbll","Sun Mar 26 2023 20:21:57 GMT+0200 (Central European Summer Time)","470056","3","1","","","","","","","","","","216","","","","1","3","[{""stimulus"":""img/1to3/1.png"",""time"":100},{""stimulus"":""img/1to3/2.png"",""time"":200},{""stimulus"":""img/1to3/3.png"",""time"":298},{""stimulus"":""img/1to3/4.png"",""time"":398},{""stimulus"":""img/1to3/5.png"",""time"":496},{""stimulus"":""img/1to3/6.png"",""time"":595},{""stimulus"":""img/1to3/7.png"",""time"":694},{""stimulus"":""img/1to3/8.png"",""time"":793},{""stimulus"":""img/1to3/9.png"",""time"":893},{""stimulus"":""img/1to3/10.png"",""time"":991},{""stimulus"":""img/1to3/11.png"",""time"":1090},{""stimulus"":""img/1to3/12.png"",""time"":1200}]","[]",""
"image-keyboard-response","24","90532","0.0-5.0-1.10","63e5ffdf639ebdcf35aacb09","bdp_cybrbll","Sun Mar 26 2023 20:21:57 GMT+0200 (Central European Summer Time)","470056","3","1","","null","","","","observe","","img/3to2/1.png","null","215","230","0.5","0.5","3","1","","",""
"animation","25","91821","0.0-5.0-2.10","63e5ffdf639ebdcf35aacb09","bdp_cybrbll","Sun Mar 26 2023 20:21:57 GMT+0200 (Central European Summer Time)","470056","3","1","","","","","","","","","","215","","","","3","1","[{""stimulus"":""img/3to1/1.png"",""time"":101},{""stimulus"":""img/3to1/2.png"",""time"":200},{""stimulus"":""img/3to1/3.png"",""time"":298},{""stimulus"":""img/3to1/4.png"",""time"":398},{""stimulus"":""img/3to1/5.png"",""time"":497},{""stimulus"":""img/3to1/6.png"",""time"":596},{""stimulus"":""img/3to1/7.png"",""time"":695},{""stimulus"":""img/3to1/8.png"",""time"":794},{""stimulus"":""img/3to1/9.png"",""time"":892},{""stimulus"":""img/3to1/10.png"",""time"":991},{""stimulus"":""img/3to1/11.png"",""time"":1091},{""stimulus"":""img/3to1/12.png"",""time"":1198}]","[]",""
"image-keyboard-response","26","92803","0.0-5.0-1.11","63e5ffdf639ebdcf35aacb09","bdp_cybrbll","Sun Mar 26 2023 20:21:57 GMT+0200 (Central European Summer Time)","470056","3","1","","null","","","","observe","","img/1to3/1.png","null","214","979","0.5","0.5","1","2","","",""
"animation","27","94091","0.0-5.0-2.11","63e5ffdf639ebdcf35aacb09","bdp_cybrbll","Sun Mar 26 2023 20:21:57 GMT+0200 (Central European Summer Time)","470056","3","1","","","","","","","","","","214","","","","1","2","[{""stimulus"":""img/1to2/1.png"",""time"":100},{""stimulus"":""img/1to2/2.png"",""time"":200},{""stimulus"":""img/1to2/3.png"",""time"":299},{""stimulus"":""img/1to2/4.png"",""time"":398},{""stimulus"":""img/1to2/5.png"",""time"":496},{""stimulus"":""img/1to2/6.png"",""time"":595},{""stimulus"":""img/1to2/7.png"",""time"":695},{""stimulus"":""img/1to2/8.png"",""time"":794},{""stimulus"":""img/1to2/9.png"",""time"":893},{""stimulus"":""img/1to2/10.png"",""time"":991},{""stimulus"":""img/1to2/11.png"",""time"":1090},{""stimulus"":""img/1to2/12.png"",""time"":1189}]","[]",""
"image-keyboard-response","28","94227","0.0-5.0-1.12","63e5ffdf639ebdcf35aacb09","bdp_cybrbll","Sun Mar 26 2023 20:21:57 GMT+0200 (Central European Summer Time)","470056","3","1","","135","","","","choice","","img/2to1/1.png","2","213","222","0.5","0.5","2","3","","",""
"animation","29","95515","0.0-5.0-2.12","63e5ffdf639ebdcf35aacb09","bdp_cybrbll","Sun Mar 26 2023 20:21:57 GMT+0200 (Central European Summer Time)","470056","3","1","","","","","","","","","","213","","","","2","3","[{""stimulus"":""img/2to3/1.png"",""time"":101},{""stimulus"":""img/2to3/2.png"",""time"":200},{""stimulus"":""img/2to3/3.png"",""time"":299},{""stimulus"":""img/2to3/4.png"",""time"":398},{""stimulus"":""img/2to3/5.png"",""time"":509},{""stimulus"":""img/2to3/6.png"",""time"":596},{""stimulus"":""img/2to3/7.png"",""time"":695},{""stimulus"":""img/2to3/8.png"",""time"":794},{""stimulus"":""img/2to3/9.png"",""time"":893},{""stimulus"":""img/2to3/10.png"",""time"":991},{""stimulus"":""img/2to3/11.png"",""time"":1090},{""stimulus"":""img/2to3/12.png"",""time"":1190}]","[]",""
"image-keyboard-response","30","96361","0.0-5.0-1.13","63e5ffdf639ebdcf35aacb09","bdp_cybrbll","Sun Mar 26 2023 20:21:57 GMT+0200 (Central European Summer Time)","470056","3","1","","null","","","","observe","","img/3to2/1.png","null","212","843","0.5","0.5","3","1","","",""
"animation","31","97664","0.0-5.0-2.13","63e5ffdf639ebdcf35aacb09","bdp_cybrbll","Sun Mar 26 2023 20:21:57 GMT+0200 (Central European Summer Time)","470056","3","1","","","","","","","","","","212","","","","3","1","[{""stimulus"":""img/3to1/1.png"",""time"":101},{""stimulus"":""img/3to1/2.png"",""time"":200},{""stimulus"":""img/3to1/3.png"",""time"":299},{""stimulus"":""img/3to1/4.png"",""time"":398},{""stimulus"":""img/3to1/5.png"",""time"":498},{""stimulus"":""img/3to1/6.png"",""time"":596},{""stimulus"":""img/3to1/7.png"",""time"":701},{""stimulus"":""img/3to1/8.png"",""time"":794},{""stimulus"":""img/3to1/9.png"",""time"":893},{""stimulus"":""img/3to1/10.png"",""time"":992},{""stimulus"":""img/3to1/11.png"",""time"":1091},{""stimulus"":""img/3to1/12.png"",""time"":1191}]","[]",""
"image-keyboard-response","32","98070","0.0-5.0-1.14","63e5ffdf639ebdcf35aacb09","bdp_cybrbll","Sun Mar 26 2023 20:21:57 GMT+0200 (Central European Summer Time)","470056","3","1","","null","","","","observe","","img/1to3/1.png","null","211","404","0.5","0.5","1","3","","",""
"animation","33","99358","0.0-5.0-2.14","63e5ffdf639ebdcf35aacb09","bdp_cybrbll","Sun Mar 26 2023 20:21:57 GMT+0200 (Central European Summer Time)","470056","3","1","","","","","","","","","","211","","","","1","3","[{""stimulus"":""img/1to3/1.png"",""time"":100},{""stimulus"":""img/1to3/2.png"",""time"":200},{""stimulus"":""img/1to3/3.png"",""time"":299},{""stimulus"":""img/1to3/4.png"",""time"":397},{""stimulus"":""img/1to3/5.png"",""time"":496},{""stimulus"":""img/1to3/6.png"",""time"":595},{""stimulus"":""img/1to3/7.png"",""time"":695},{""stimulus"":""img/1to3/8.png"",""time"":792},{""stimulus"":""img/1to3/9.png"",""time"":893},{""stimulus"":""img/1to3/10.png"",""time"":991},{""stimulus"":""img/1to3/11.png"",""time"":1090},{""stimulus"":""img/1to3/12.png"",""time"":1190}]","[]",""
"image-keyboard-response","34","100087","0.0-5.0-1.15","63e5ffdf639ebdcf35aacb09","bdp_cybrbll","Sun Mar 26 2023 20:21:57 GMT+0200 (Central European Summer Time)","470056","3","1","","null","","","","observe","","img/3to2/1.png","null","210","726","0.5","0.5","3","2","","",""
"animation","35","101383","0.0-5.0-2.15","63e5ffdf639ebdcf35aacb09","bdp_cybrbll","Sun Mar 26 2023 20:21:57 GMT+0200 (Central European Summer Time)","470056","3","1","","","","","","","","","","210","","","","3","2","[{""stimulus"":""img/3to2/1.png"",""time"":106},{""stimulus"":""img/3to2/2.png"",""time"":198},{""stimulus"":""img/3to2/3.png"",""time"":298},{""stimulus"":""img/3to2/4.png"",""time"":397},{""stimulus"":""img/3to2/5.png"",""time"":496},{""stimulus"":""img/3to2/6.png"",""time"":603},{""stimulus"":""img/3to2/7.png"",""time"":694},{""stimulus"":""img/3to2/8.png"",""time"":793},{""stimulus"":""img/3to2/9.png"",""time"":892},{""stimulus"":""img/3to2/10.png"",""time"":991},{""stimulus"":""img/3to2/11.png"",""time"":1090},{""stimulus"":""img/3to2/12.png"",""time"":1189}]","[]",""
"image-keyboard-response","36","101802","0.0-5.0-1.16","63e5ffdf639ebdcf35aacb09","bdp_cybrbll","Sun Mar 26 2023 20:21:57 GMT+0200 (Central European Summer Time)","470056","3","1","","417","","","","choice","","img/2to1/1.png","1","209","578","0.5","0.5","2","1","","",""
"animation","37","103091","0.0-5.0-2.16","63e5ffdf639ebdcf35aacb09","bdp_cybrbll","Sun Mar 26 2023 20:21:57 GMT+0200 (Central European Summer Time)","470056","3","1","","","","","","","","","","209","","","","2","1","[{""stimulus"":""img/2to1/1.png"",""time"":100},{""stimulus"":""img/2to1/2.png"",""time"":200},{""stimulus"":""img/2to1/3.png"",""time"":298},{""stimulus"":""img/2to1/4.png"",""time"":397},{""stimulus"":""img/2to1/5.png"",""time"":496},{""stimulus"":""img/2to1/6.png"",""time"":604},{""stimulus"":""img/2to1/7.png"",""time"":695},{""stimulus"":""img/2to1/8.png"",""time"":794},{""stimulus"":""img/2to1/9.png"",""time"":893},{""stimulus"":""img/2to1/10.png"",""time"":992},{""stimulus"":""img/2to1/11.png"",""time"":1090},{""stimulus"":""img/2to1/12.png"",""time"":1190}]","[]",""
"image-keyboard-response","38","103380","0.0-5.0-1.17","63e5ffdf639ebdcf35aacb09","bdp_cybrbll","Sun Mar 26 2023 20:21:57 GMT+0200 (Central European Summer Time)","470056","3","1","","null","","","","observe","","img/1to3/1.png","null","208","286","0.5","0.5","1","2","","",""
"animation","39","104669","0.0-5.0-2.17","63e5ffdf639ebdcf35aacb09","bdp_cybrbll","Sun Mar 26 2023 20:21:57 GMT+0200 (Central European Summer Time)","470056","3","1","","","","","","","","","","208","","","","1","2","[{""stimulus"":""img/1to2/1.png"",""time"":101},{""stimulus"":""img/1to2/2.png"",""time"":200},{""stimulus"":""img/1to2/3.png"",""time"":299},{""stimulus"":""img/1to2/4.png"",""time"":398},{""stimulus"":""img/1to2/5.png"",""time"":497},{""stimulus"":""img/1to2/6.png"",""time"":595},{""stimulus"":""img/1to2/7.png"",""time"":699},{""stimulus"":""img/1to2/8.png"",""time"":794},{""stimulus"":""img/1to2/9.png"",""time"":893},{""stimulus"":""img/1to2/10.png"",""time"":991},{""stimulus"":""img/1to2/11.png"",""time"":1091},{""stimulus"":""img/1to2/12.png"",""time"":1190}]","[]",""
"image-keyboard-response","40","105067","0.0-5.0-1.18","63e5ffdf639ebdcf35aacb09","bdp_cybrbll","Sun Mar 26 2023 20:21:57 GMT+0200 (Central European Summer Time)","470056","3","1","","397","","","","choice","","img/2to1/1.png","2","207","311","0.5","0.5","2","3","","",""
"animation","41","106355","0.0-5.0-2.18","63e5ffdf639ebdcf35aacb09","bdp_cybrbll","Sun Mar 26 2023 20:21:57 GMT+0200 (Central European Summer Time)","470056","3","1","","","","","","","","","","207","","","","2","3","[{""stimulus"":""img/2to3/1.png"",""time"":101},{""stimulus"":""img/2to3/2.png"",""time"":200},{""stimulus"":""img/2to3/3.png"",""time"":299},{""stimulus"":""img/2to3/4.png"",""time"":398},{""stimulus"":""img/2to3/5.png"",""time"":498},{""stimulus"":""img/2to3/6.png"",""time"":596},{""stimulus"":""img/2to3/7.png"",""time"":695},{""stimulus"":""img/2to3/8.png"",""time"":794},{""stimulus"":""img/2to3/9.png"",""time"":893},{""stimulus"":""img/2to3/10.png"",""time"":993},{""stimulus"":""img/2to3/11.png"",""time"":1091},{""stimulus"":""img/2to3/12.png"",""time"":1190}]","[]",""
"image-keyboard-response","42","106622","0.0-5.0-1.19","63e5ffdf639ebdcf35aacb09","bdp_cybrbll","Sun Mar 26 2023 20:21:57 GMT+0200 (Central European Summer Time)","470056","3","1","","null","","","","observe","","img/3to2/1.png","null","206","264","0.5","0.5","3","1","","",""
"animation","43","107911","0.0-5.0-2.19","63e5ffdf639ebdcf35aacb09","bdp_cybrbll","Sun Mar 26 2023 20:21:57 GMT+0200 (Central European Summer Time)","470056","3","1","","","","","","","","","","206","","","","3","1","[{""stimulus"":""img/3to1/1.png"",""time"":100},{""stimulus"":""img/3to1/2.png"",""time"":200},{""stimulus"":""img/3to1/3.png"",""time"":300},{""stimulus"":""img/3to1/4.png"",""time"":399},{""stimulus"":""img/3to1/5.png"",""time"":498},{""stimulus"":""img/3to1/6.png"",""time"":596},{""stimulus"":""img/3to1/7.png"",""time"":696},{""stimulus"":""img/3to1/8.png"",""time"":794},{""stimulus"":""img/3to1/9.png"",""time"":893},{""stimulus"":""img/3to1/10.png"",""time"":992},{""stimulus"":""img/3to1/11.png"",""time"":1091},{""stimulus"":""img/3to1/12.png"",""time"":1190}]","[]",""
"image-keyboard-response","44","108316","0.0-5.0-1.20","63e5ffdf639ebdcf35aacb09","bdp_cybrbll","Sun Mar 26 2023 20:21:57 GMT+0200 (Central European Summer Time)","470056","3","1","","null","","","","observe","","img/1to3/1.png","null","205","403","0.5","0.5","1","2","","",""
"animation","45","109605","0.0-5.0-2.20","63e5ffdf639ebdcf35aacb09","bdp_cybrbll","Sun Mar 26 2023 20:21:57 GMT+0200 (Central European Summer Time)","470056","3","1","","","","","","","","","","205","","","","1","2","[{""stimulus"":""img/1to2/1.png"",""time"":100},{""stimulus"":""img/1to2/2.png"",""time"":200},{""stimulus"":""img/1to2/3.png"",""time"":298},{""stimulus"":""img/1to2/4.png"",""time"":397},{""stimulus"":""img/1to2/5.png"",""time"":496},{""stimulus"":""img/1to2/6.png"",""time"":595},{""stimulus"":""img/1to2/7.png"",""time"":694},{""stimulus"":""img/1to2/8.png"",""time"":792},{""stimulus"":""img/1to2/9.png"",""time"":891},{""stimulus"":""img/1to2/10.png"",""time"":992},{""stimulus"":""img/1to2/11.png"",""time"":1090},{""stimulus"":""img/1to2/12.png"",""time"":1190}]","[]",""
"image-keyboard-response","46","109979","0.0-5.0-1.21","63e5ffdf639ebdcf35aacb09","bdp_cybrbll","Sun Mar 26 2023 20:21:57 GMT+0200 (Central European Summer Time)","470056","3","1","","373","","","","choice","","img/2to1/1.png","2","204","424","0.5","0.5","2","3","","",""
"animation","47","111267","0.0-5.0-2.21","63e5ffdf639ebdcf35aacb09","bdp_cybrbll","Sun Mar 26 2023 20:21:57 GMT+0200 (Central European Summer Time)","470056","3","1","","","","","","","","","","204","","","","2","3","[{""stimulus"":""img/2to3/1.png"",""time"":101},{""stimulus"":""img/2to3/2.png"",""time"":200},{""stimulus"":""img/2to3/3.png"",""time"":300},{""stimulus"":""img/2to3/4.png"",""time"":398},{""stimulus"":""img/2to3/5.png"",""time"":498},{""stimulus"":""img/2to3/6.png"",""time"":597},{""stimulus"":""img/2to3/7.png"",""time"":695},{""stimulus"":""img/2to3/8.png"",""time"":795},{""stimulus"":""img/2to3/9.png"",""time"":893},{""stimulus"":""img/2to3/10.png"",""time"":993},{""stimulus"":""img/2to3/11.png"",""time"":1090},{""stimulus"":""img/2to3/12.png"",""time"":1190}]","[]",""
"image-keyboard-response","48","111598","0.0-5.0-1.22","63e5ffdf639ebdcf35aacb09","bdp_cybrbll","Sun Mar 26 2023 20:21:57 GMT+0200 (Central European Summer Time)","470056","3","1","","null","","","","observe","","img/3to2/1.png","null","203","329","0.5","0.5","3","1","","",""
"animation","49","112888","0.0-5.0-2.22","63e5ffdf639ebdcf35aacb09","bdp_cybrbll","Sun Mar 26 2023 20:21:57 GMT+0200 (Central European Summer Time)","470056","3","1","","","","","","","","","","203","","","","3","1","[{""stimulus"":""img/3to1/1.png"",""time"":101},{""stimulus"":""img/3to1/2.png"",""time"":200},{""stimulus"":""img/3to1/3.png"",""time"":300},{""stimulus"":""img/3to1/4.png"",""time"":399},{""stimulus"":""img/3to1/5.png"",""time"":498},{""stimulus"":""img/3to1/6.png"",""time"":597},{""stimulus"":""img/3to1/7.png"",""time"":696},{""stimulus"":""img/3to1/8.png"",""time"":795},{""stimulus"":""img/3to1/9.png"",""time"":894},{""stimulus"":""img/3to1/10.png"",""time"":993},{""stimulus"":""img/3to1/11.png"",""time"":1092},{""stimulus"":""img/3to1/12.png"",""time"":1191}]","[]",""
"image-keyboard-response","50","113474","0.0-5.0-1.23","63e5ffdf639ebdcf35aacb09","bdp_cybrbll","Sun Mar 26 2023 20:21:57 GMT+0200 (Central European Summer Time)","470056","3","1","","null","","","","observe","","img/1to3/1.png","null","202","584","0.5","0.5","1","3","","",""
"animation","51","114763","0.0-5.0-2.23","63e5ffdf639ebdcf35aacb09","bdp_cybrbll","Sun Mar 26 2023 20:21:57 GMT+0200 (Central European Summer Time)","470056","3","1","","","","","","","","","","202","","","","1","3","[{""stimulus"":""img/1to3/1.png"",""time"":103},{""stimulus"":""img/1to3/2.png"",""time"":200},{""stimulus"":""img/1to3/3.png"",""time"":299},{""stimulus"":""img/1to3/4.png"",""time"":398},{""stimulus"":""img/1to3/5.png"",""time"":497},{""stimulus"":""img/1to3/6.png"",""time"":595},{""stimulus"":""img/1to3/7.png"",""time"":694},{""stimulus"":""img/1to3/8.png"",""time"":794},{""stimulus"":""img/1to3/9.png"",""time"":893},{""stimulus"":""img/1to3/10.png"",""time"":992},{""stimulus"":""img/1to3/11.png"",""time"":1092},{""stimulus"":""img/1to3/12.png"",""time"":1189}]","[]",""
"image-keyboard-response","52","115541","0.0-5.0-1.24","63e5ffdf639ebdcf35aacb09","bdp_cybrbll","Sun Mar 26 2023 20:21:57 GMT+0200 (Central European Summer Time)","470056","3","1","","null","","","","observe","","img/3to2/1.png","null","201","776","0.5","0.5","3","1","","",""
"animation","53","116830","0.0-5.0-2.24","63e5ffdf639ebdcf35aacb09","bdp_cybrbll","Sun Mar 26 2023 20:21:57 GMT+0200 (Central European Summer Time)","470056","3","1","","","","","","","","","","201","","","","3","1","[{""stimulus"":""img/3to1/1.png"",""time"":101},{""stimulus"":""img/3to1/2.png"",""time"":200},{""stimulus"":""img/3to1/3.png"",""time"":299},{""stimulus"":""img/3to1/4.png"",""time"":397},{""stimulus"":""img/3to1/5.png"",""time"":497},{""stimulus"":""img/3to1/6.png"",""time"":596},{""stimulus"":""img/3to1/7.png"",""time"":695},{""stimulus"":""img/3to1/8.png"",""time"":794},{""stimulus"":""img/3to1/9.png"",""time"":893},{""stimulus"":""img/3to1/10.png"",""time"":991},{""stimulus"":""img/3to1/11.png"",""time"":1090},{""stimulus"":""img/3to1/12.png"",""time"":1189}]","[]",""
"image-keyboard-response","54","117191","0.0-5.0-1.25","63e5ffdf639ebdcf35aacb09","bdp_cybrbll","Sun Mar 26 2023 20:21:57 GMT+0200 (Central European Summer Time)","470056","3","1","","null","","","","observe","","img/1to3/1.png","null","200","359","0.5","0.5","1","2","","",""
"animation","55","118480","0.0-5.0-2.25","63e5ffdf639ebdcf35aacb09","bdp_cybrbll","Sun Mar 26 2023 20:21:57 GMT+0200 (Central European Summer Time)","470056","3","1","","","","","","","","","","200","","","","1","2","[{""stimulus"":""img/1to2/1.png"",""time"":100},{""stimulus"":""img/1to2/2.png"",""time"":219},{""stimulus"":""img/1to2/3.png"",""time"":298},{""stimulus"":""img/1to2/4.png"",""time"":398},{""stimulus"":""img/1to2/5.png"",""time"":496},{""stimulus"":""img/1to2/6.png"",""time"":596},{""stimulus"":""img/1to2/7.png"",""time"":694},{""stimulus"":""img/1to2/8.png"",""time"":793},{""stimulus"":""img/1to2/9.png"",""time"":893},{""stimulus"":""img/1to2/10.png"",""time"":992},{""stimulus"":""img/1to2/11.png"",""time"":1090},{""stimulus"":""img/1to2/12.png"",""time"":1189}]","[]",""
"image-keyboard-response","56","118772","0.0-5.0-1.26","63e5ffdf639ebdcf35aacb09","bdp_cybrbll","Sun Mar 26 2023 20:21:57 GMT+0200 (Central European Summer Time)","470056","3","1","","291","","","","choice","","img/2to1/1.png","2","199","627","0.5","0.5","2","3","","",""
"animation","57","120062","0.0-5.0-2.26","63e5ffdf639ebdcf35aacb09","bdp_cybrbll","Sun Mar 26 2023 20:21:57 GMT+0200 (Central European Summer Time)","470056","3","1","","","","","","","","","","199","","","","2","3","[{""stimulus"":""img/2to3/1.png"",""time"":100},{""stimulus"":""img/2to3/2.png"",""time"":200},{""stimulus"":""img/2to3/3.png"",""time"":299},{""stimulus"":""img/2to3/4.png"",""time"":397},{""stimulus"":""img/2to3/5.png"",""time"":496},{""stimulus"":""img/2to3/6.png"",""time"":597},{""stimulus"":""img/2to3/7.png"",""time"":694},{""stimulus"":""img/2to3/8.png"",""time"":793},{""stimulus"":""img/2to3/9.png"",""time"":893},{""stimulus"":""img/2to3/10.png"",""time"":991},{""stimulus"":""img/2to3/11.png"",""time"":1090},{""stimulus"":""img/2to3/12.png"",""time"":1189}]","[]",""
"image-keyboard-response","58","120913","0.0-5.0-1.27","63e5ffdf639ebdcf35aacb09","bdp_cybrbll","Sun Mar 26 2023 20:21:57 GMT+0200 (Central European Summer Time)","470056","3","1","","null","","","","observe","","img/3to2/1.png","null","198","849","0.5","0.5","3","2","","",""
"animation","59","122201","0.0-5.0-2.27","63e5ffdf639ebdcf35aacb09","bdp_cybrbll","Sun Mar 26 2023 20:21:57 GMT+0200 (Central European Summer Time)","470056","3","1","","","","","","","","","","198","","","","3","2","[{""stimulus"":""img/3to2/1.png"",""time"":101},{""stimulus"":""img/3to2/2.png"",""time"":201},{""stimulus"":""img/3to2/3.png"",""time"":299},{""stimulus"":""img/3to2/4.png"",""time"":398},{""stimulus"":""img/3to2/5.png"",""time"":497},{""stimulus"":""img/3to2/6.png"",""time"":597},{""stimulus"":""img/3to2/7.png"",""time"":696},{""stimulus"":""img/3to2/8.png"",""time"":795},{""stimulus"":""img/3to2/9.png"",""time"":893},{""stimulus"":""img/3to2/10.png"",""time"":992},{""stimulus"":""img/3to2/11.png"",""time"":1091},{""stimulus"":""img/3to2/12.png"",""time"":1190}]","[]",""
"image-keyboard-response","60","122452","0.0-5.0-1.28","63e5ffdf639ebdcf35aacb09","bdp_cybrbll","Sun Mar 26 2023 20:21:57 GMT+0200 (Central European Summer Time)","470056","3","1","","250","","","","choice","","img/2to1/1.png","2","197","416","0.5","0.5","2","3","","",""
"animation","61","123741","0.0-5.0-2.28","63e5ffdf639ebdcf35aacb09","bdp_cybrbll","Sun Mar 26 2023 20:21:57 GMT+0200 (Central European Summer Time)","470056","3","1","","","","","","","","","","197","","","","2","3","[{""stimulus"":""img/2to3/1.png"",""time"":101},{""stimulus"":""img/2to3/2.png"",""time"":200},{""stimulus"":""img/2to3/3.png"",""time"":300},{""stimulus"":""img/2to3/4.png"",""time"":398},{""stimulus"":""img/2to3/5.png"",""time"":497},{""stimulus"":""img/2to3/6.png"",""time"":596},{""stimulus"":""img/2to3/7.png"",""time"":695},{""stimulus"":""img/2to3/8.png"",""time"":795},{""stimulus"":""img/2to3/9.png"",""time"":893},{""stimulus"":""img/2to3/10.png"",""time"":992},{""stimulus"":""img/2to3/11.png"",""time"":1091},{""stimulus"":""img/2to3/12.png"",""time"":1190}]","[]",""
"image-keyboard-response","62","124096","0.0-5.0-1.29","63e5ffdf639ebdcf35aacb09","bdp_cybrbll","Sun Mar 26 2023 20:21:57 GMT+0200 (Central European Summer Time)","470056","3","1","","null","","","","observe","","img/3to2/1.png","null","196","341","0.5","0.5","3","2","","",""
"animation","63","125384","0.0-5.0-2.29","63e5ffdf639ebdcf35aacb09","bdp_cybrbll","Sun Mar 26 2023 20:21:57 GMT+0200 (Central European Summer Time)","470056","3","1","","","","","","","","","","196","","","","3","2","[{""stimulus"":""img/3to2/1.png"",""time"":100},{""stimulus"":""img/3to2/2.png"",""time"":198},{""stimulus"":""img/3to2/3.png"",""time"":298},{""stimulus"":""img/3to2/4.png"",""time"":398},{""stimulus"":""img/3to2/5.png"",""time"":497},{""stimulus"":""img/3to2/6.png"",""time"":595},{""stimulus"":""img/3to2/7.png"",""time"":694},{""stimulus"":""img/3to2/8.png"",""time"":792},{""stimulus"":""img/3to2/9.png"",""time"":892},{""stimulus"":""img/3to2/10.png"",""time"":991},{""stimulus"":""img/3to2/11.png"",""time"":1090},{""stimulus"":""img/3to2/12.png"",""time"":1189}]","[]",""
"image-keyboard-response","64","125581","0.0-5.0-1.30","63e5ffdf639ebdcf35aacb09","bdp_cybrbll","Sun Mar 26 2023 20:21:57 GMT+0200 (Central European Summer Time)","470056","3","1","","195","","","","choice","","img/2to1/1.png","2","195","468","0.5","0.5","2","3","","",""
"animation","65","126870","0.0-5.0-2.30","63e5ffdf639ebdcf35aacb09","bdp_cybrbll","Sun Mar 26 2023 20:21:57 GMT+0200 (Central European Summer Time)","470056","3","1","","","","","","","","","","195","","","","2","3","[{""stimulus"":""img/2to3/1.png"",""time"":103},{""stimulus"":""img/2to3/2.png"",""time"":200},{""stimulus"":""img/2to3/3.png"",""time"":299},{""stimulus"":""img/2to3/4.png"",""time"":398},{""stimulus"":""img/2to3/5.png"",""time"":498},{""stimulus"":""img/2to3/6.png"",""time"":597},{""stimulus"":""img/2to3/7.png"",""time"":694},{""stimulus"":""img/2to3/8.png"",""time"":794},{""stimulus"":""img/2to3/9.png"",""time"":893},{""stimulus"":""img/2to3/10.png"",""time"":992},{""stimulus"":""img/2to3/11.png"",""time"":1092},{""stimulus"":""img/2to3/12.png"",""time"":1190}]","[]",""
"image-keyboard-response","66","127285","0.0-5.0-1.31","63e5ffdf639ebdcf35aacb09","bdp_cybrbll","Sun Mar 26 2023 20:21:57 GMT+0200 (Central European Summer Time)","470056","3","1","","null","","","","observe","","img/3to2/1.png","null","194","413","0.5","0.5","3","1","","",""
"animation","67","128574","0.0-5.0-2.31","63e5ffdf639ebdcf35aacb09","bdp_cybrbll","Sun Mar 26 2023 20:21:57 GMT+0200 (Central European Summer Time)","470056","3","1","","","","","","","","","","194","","","","3","1","[{""stimulus"":""img/3to1/1.png"",""time"":100},{""stimulus"":""img/3to1/2.png"",""time"":200},{""stimulus"":""img/3to1/3.png"",""time"":299},{""stimulus"":""img/3to1/4.png"",""time"":397},{""stimulus"":""img/3to1/5.png"",""time"":497},{""stimulus"":""img/3to1/6.png"",""time"":595},{""stimulus"":""img/3to1/7.png"",""time"":695},{""stimulus"":""img/3to1/8.png"",""time"":793},{""stimulus"":""img/3to1/9.png"",""time"":892},{""stimulus"":""img/3to1/10.png"",""time"":991},{""stimulus"":""img/3to1/11.png"",""time"":1090},{""stimulus"":""img/3to1/12.png"",""time"":1189}]","[]",""
"image-keyboard-response","68","128985","0.0-5.0-1.32","63e5ffdf639ebdcf35aacb09","bdp_cybrbll","Sun Mar 26 2023 20:21:57 GMT+0200 (Central European Summer Time)","470056","3","1","","null","","","","observe","","img/1to3/1.png","null","193","409","0.5","0.5","1","3","","",""
"animation","69","130274","0.0-5.0-2.32","63e5ffdf639ebdcf35aacb09","bdp_cybrbll","Sun Mar 26 2023 20:21:57 GMT+0200 (Central European Summer Time)","470056","3","1","","","","","","","","","","193","","","","1","3","[{""stimulus"":""img/1to3/1.png"",""time"":101},{""stimulus"":""img/1to3/2.png"",""time"":200},{""stimulus"":""img/1to3/3.png"",""time"":299},{""stimulus"":""img/1to3/4.png"",""time"":397},{""stimulus"":""img/1to3/5.png"",""time"":496},{""stimulus"":""img/1to3/6.png"",""time"":596},{""stimulus"":""img/1to3/7.png"",""time"":694},{""stimulus"":""img/1to3/8.png"",""time"":793},{""stimulus"":""img/1to3/9.png"",""time"":892},{""stimulus"":""img/1to3/10.png"",""time"":991},{""stimulus"":""img/1to3/11.png"",""time"":1090},{""stimulus"":""img/1to3/12.png"",""time"":1189}]","[]",""
"image-keyboard-response","70","130774","0.0-5.0-1.33","63e5ffdf639ebdcf35aacb09","bdp_cybrbll","Sun Mar 26 2023 20:21:57 GMT+0200 (Central European Summer Time)","470056","3","1","","null","","","","observe","","img/3to2/1.png","null","192","499","0.5","0.5","3","1","","",""
"animation","71","132063","0.0-5.0-2.33","63e5ffdf639ebdcf35aacb09","bdp_cybrbll","Sun Mar 26 2023 20:21:57 GMT+0200 (Central European Summer Time)","470056","3","1","","","","","","","","","","192","","","","3","1","[{""stimulus"":""img/3to1/1.png"",""time"":100},{""stimulus"":""img/3to1/2.png"",""time"":200},{""stimulus"":""img/3to1/3.png"",""time"":299},{""stimulus"":""img/3to1/4.png"",""time"":398},{""stimulus"":""img/3to1/5.png"",""time"":496},{""stimulus"":""img/3to1/6.png"",""time"":595},{""stimulus"":""img/3to1/7.png"",""time"":695},{""stimulus"":""img/3to1/8.png"",""time"":794},{""stimulus"":""img/3to1/9.png"",""time"":892},{""stimulus"":""img/3to1/10.png"",""time"":992},{""stimulus"":""img/3to1/11.png"",""time"":1090},{""stimulus"":""img/3to1/12.png"",""time"":1189}]","[]",""
"image-keyboard-response","72","132611","0.0-5.0-1.34","63e5ffdf639ebdcf35aacb09","bdp_cybrbll","Sun Mar 26 2023 20:21:57 GMT+0200 (Central European Summer Time)","470056","3","1","","null","","","","observe","","img/1to3/1.png","null","191","546","0.5","0.5","1","3","","",""
"animation","73","133899","0.0-5.0-2.34","63e5ffdf639ebdcf35aacb09","bdp_cybrbll","Sun Mar 26 2023 20:21:57 GMT+0200 (Central European Summer Time)","470056","3","1","","","","","","","","","","191","","","","1","3","[{""stimulus"":""img/1to3/1.png"",""time"":100},{""stimulus"":""img/1to3/2.png"",""time"":200},{""stimulus"":""img/1to3/3.png"",""time"":299},{""stimulus"":""img/1to3/4.png"",""time"":398},{""stimulus"":""img/1to3/5.png"",""time"":498},{""stimulus"":""img/1to3/6.png"",""time"":596},{""stimulus"":""img/1to3/7.png"",""time"":694},{""stimulus"":""img/1to3/8.png"",""time"":794},{""stimulus"":""img/1to3/9.png"",""time"":893},{""stimulus"":""img/1to3/10.png"",""time"":992},{""stimulus"":""img/1to3/11.png"",""time"":1091},{""stimulus"":""img/1to3/12.png"",""time"":1189}]","[]",""
"image-keyboard-response","74","134909","0.0-5.0-1.35","63e5ffdf639ebdcf35aacb09","bdp_cybrbll","Sun Mar 26 2023 20:21:57 GMT+0200 (Central European Summer Time)","470056","3","1","","null","","","","observe","","img/3to2/1.png","null","190","1008","0.5","0.5","3","2","","",""
"animation","75","136198","0.0-5.0-2.35","63e5ffdf639ebdcf35aacb09","bdp_cybrbll","Sun Mar 26 2023 20:21:57 GMT+0200 (Central European Summer Time)","470056","3","1","","","","","","","","","","190","","","","3","2","[{""stimulus"":""img/3to2/1.png"",""time"":100},{""stimulus"":""img/3to2/2.png"",""time"":199},{""stimulus"":""img/3to2/3.png"",""time"":313},{""stimulus"":""img/3to2/4.png"",""time"":398},{""stimulus"":""img/3to2/5.png"",""time"":497},{""stimulus"":""img/3to2/6.png"",""time"":596},{""stimulus"":""img/3to2/7.png"",""time"":695},{""stimulus"":""img/3to2/8.png"",""time"":792},{""stimulus"":""img/3to2/9.png"",""time"":897},{""stimulus"":""img/3to2/10.png"",""time"":991},{""stimulus"":""img/3to2/11.png"",""time"":1090},{""stimulus"":""img/3to2/12.png"",""time"":1189}]","[]",""
"image-keyboard-response","76","136869","0.0-5.0-1.36","63e5ffdf639ebdcf35aacb09","bdp_cybrbll","Sun Mar 26 2023 20:21:57 GMT+0200 (Central European Summer Time)","470056","3","1","","670","","","","choice","","img/2to1/1.png","2","189","506","0.5","0.5","2","3","","",""
"animation","77","138158","0.0-5.0-2.36","63e5ffdf639ebdcf35aacb09","bdp_cybrbll","Sun Mar 26 2023 20:21:57 GMT+0200 (Central European Summer Time)","470056","3","1","","","","","","","","","","189","","","","2","3","[{""stimulus"":""img/2to3/1.png"",""time"":102},{""stimulus"":""img/2to3/2.png"",""time"":200},{""stimulus"":""img/2to3/3.png"",""time"":299},{""stimulus"":""img/2to3/4.png"",""time"":399},{""stimulus"":""img/2to3/5.png"",""time"":498},{""stimulus"":""img/2to3/6.png"",""time"":597},{""stimulus"":""img/2to3/7.png"",""time"":695},{""stimulus"":""img/2to3/8.png"",""time"":795},{""stimulus"":""img/2to3/9.png"",""time"":893},{""stimulus"":""img/2to3/10.png"",""time"":993},{""stimulus"":""img/2to3/11.png"",""time"":1091},{""stimulus"":""img/2to3/12.png"",""time"":1191}]","[]",""
"image-keyboard-response","78","138705","0.0-5.0-1.37","63e5ffdf639ebdcf35aacb09","bdp_cybrbll","Sun Mar 26 2023 20:21:57 GMT+0200 (Central European Summer Time)","470056","3","1","","null","","","","observe","","img/3to2/1.png","null","188","544","0.5","0.5","3","2","","",""
"animation","79","139994","0.0-5.0-2.37","63e5ffdf639ebdcf35aacb09","bdp_cybrbll","Sun Mar 26 2023 20:21:57 GMT+0200 (Central European Summer Time)","470056","3","1","","","","","","","","","","188","","","","3","2","[{""stimulus"":""img/3to2/1.png"",""time"":100},{""stimulus"":""img/3to2/2.png"",""time"":199},{""stimulus"":""img/3to2/3.png"",""time"":298},{""stimulus"":""img/3to2/4.png"",""time"":397},{""stimulus"":""img/3to2/5.png"",""time"":497},{""stimulus"":""img/3to2/6.png"",""time"":596},{""stimulus"":""img/3to2/7.png"",""time"":695},{""stimulus"":""img/3to2/8.png"",""time"":794},{""stimulus"":""img/3to2/9.png"",""time"":894},{""stimulus"":""img/3to2/10.png"",""time"":992},{""stimulus"":""img/3to2/11.png"",""time"":1091},{""stimulus"":""img/3to2/12.png"",""time"":1189}]","[]",""
"image-keyboard-response","80","140141","0.0-5.0-1.38","63e5ffdf639ebdcf35aacb09","bdp_cybrbll","Sun Mar 26 2023 20:21:57 GMT+0200 (Central European Summer Time)","470056","3","1","","145","","","","choice","","img/2to1/1.png","2","187","415","0.5","0.5","2","3","","",""
"animation","81","141429","0.0-5.0-2.38","63e5ffdf639ebdcf35aacb09","bdp_cybrbll","Sun Mar 26 2023 20:21:57 GMT+0200 (Central European Summer Time)","470056","3","1","","","","","","","","","","187","","","","2","3","[{""stimulus"":""img/2to3/1.png"",""time"":101},{""stimulus"":""img/2to3/2.png"",""time"":200},{""stimulus"":""img/2to3/3.png"",""time"":298},{""stimulus"":""img/2to3/4.png"",""time"":398},{""stimulus"":""img/2to3/5.png"",""time"":497},{""stimulus"":""img/2to3/6.png"",""time"":596},{""stimulus"":""img/2to3/7.png"",""time"":694},{""stimulus"":""img/2to3/8.png"",""time"":793},{""stimulus"":""img/2to3/9.png"",""time"":893},{""stimulus"":""img/2to3/10.png"",""time"":991},{""stimulus"":""img/2to3/11.png"",""time"":1091},{""stimulus"":""img/2to3/12.png"",""time"":1190}]","[]",""
"image-keyboard-response","82","141831","0.0-5.0-1.39","63e5ffdf639ebdcf35aacb09","bdp_cybrbll","Sun Mar 26 2023 20:21:57 GMT+0200 (Central European Summer Time)","470056","3","1","","null","","","","observe","","img/3to2/1.png","null","186","399","0.5","0.5","3","1","","",""
"animation","83","143119","0.0-5.0-2.39","63e5ffdf639ebdcf35aacb09","bdp_cybrbll","Sun Mar 26 2023 20:21:57 GMT+0200 (Central European Summer Time)","470056","3","1","","","","","","","","","","186","","","","3","1","[{""stimulus"":""img/3to1/1.png"",""time"":100},{""stimulus"":""img/3to1/2.png"",""time"":200},{""stimulus"":""img/3to1/3.png"",""time"":298},{""stimulus"":""img/3to1/4.png"",""time"":398},{""stimulus"":""img/3to1/5.png"",""time"":496},{""stimulus"":""img/3to1/6.png"",""time"":595},{""stimulus"":""img/3to1/7.png"",""time"":694},{""stimulus"":""img/3to1/8.png"",""time"":792},{""stimulus"":""img/3to1/9.png"",""time"":891},{""stimulus"":""img/3to1/10.png"",""time"":991},{""stimulus"":""img/3to1/11.png"",""time"":1090},{""stimulus"":""img/3to1/12.png"",""time"":1189}]","[]",""
"image-keyboard-response","84","143428","0.0-5.0-1.40","63e5ffdf639ebdcf35aacb09","bdp_cybrbll","Sun Mar 26 2023 20:21:57 GMT+0200 (Central European Summer Time)","470056","3","1","","null","","","","observe","","img/1to3/1.png","null","185","307","0.5","0.5","1","3","","",""
"animation","85","144716","0.0-5.0-2.40","63e5ffdf639ebdcf35aacb09","bdp_cybrbll","Sun Mar 26 2023 20:21:57 GMT+0200 (Central European Summer Time)","470056","3","1","","","","","","","","","","185","","","","1","3","[{""stimulus"":""img/1to3/1.png"",""time"":101},{""stimulus"":""img/1to3/2.png"",""time"":200},{""stimulus"":""img/1to3/3.png"",""time"":299},{""stimulus"":""img/1to3/4.png"",""time"":398},{""stimulus"":""img/1to3/5.png"",""time"":497},{""stimulus"":""img/1to3/6.png"",""time"":595},{""stimulus"":""img/1to3/7.png"",""time"":695},{""stimulus"":""img/1to3/8.png"",""time"":794},{""stimulus"":""img/1to3/9.png"",""time"":893},{""stimulus"":""img/1to3/10.png"",""time"":992},{""stimulus"":""img/1to3/11.png"",""time"":1091},{""stimulus"":""img/1to3/12.png"",""time"":1189}]","[]",""
"image-keyboard-response","86","144980","0.0-5.0-1.41","63e5ffdf639ebdcf35aacb09","bdp_cybrbll","Sun Mar 26 2023 20:21:57 GMT+0200 (Central European Summer Time)","470056","3","1","","null","","","","observe","","img/3to2/1.png","null","184","262","0.5","0.5","3","1","","",""
"animation","87","146268","0.0-5.0-2.41","63e5ffdf639ebdcf35aacb09","bdp_cybrbll","Sun Mar 26 2023 20:21:57 GMT+0200 (Central European Summer Time)","470056","3","1","","","","","","","","","","184","","","","3","1","[{""stimulus"":""img/3to1/1.png"",""time"":101},{""stimulus"":""img/3to1/2.png"",""time"":199},{""stimulus"":""img/3to1/3.png"",""time"":298},{""stimulus"":""img/3to1/4.png"",""time"":398},{""stimulus"":""img/3to1/5.png"",""time"":496},{""stimulus"":""img/3to1/6.png"",""time"":595},{""stimulus"":""img/3to1/7.png"",""time"":694},{""stimulus"":""img/3to1/8.png"",""time"":794},{""stimulus"":""img/3to1/9.png"",""time"":893},{""stimulus"":""img/3to1/10.png"",""time"":991},{""stimulus"":""img/3to1/11.png"",""time"":1091},{""stimulus"":""img/3to1/12.png"",""time"":1189}]","[]",""
"image-keyboard-response","88","147015","0.0-5.0-1.42","63e5ffdf639ebdcf35aacb09","bdp_cybrbll","Sun Mar 26 2023 20:21:57 GMT+0200 (Central European Summer Time)","470056","3","1","","null","","","","observe","","img/1to3/1.png","null","183","744","0.5","0.5","1","3","","",""
"animation","89","148304","0.0-5.0-2.42","63e5ffdf639ebdcf35aacb09","bdp_cybrbll","Sun Mar 26 2023 20:21:57 GMT+0200 (Central European Summer Time)","470056","3","1","","","","","","","","","","183","","","","1","3","[{""stimulus"":""img/1to3/1.png"",""time"":102},{""stimulus"":""img/1to3/2.png"",""time"":199},{""stimulus"":""img/1to3/3.png"",""time"":300},{""stimulus"":""img/1to3/4.png"",""time"":398},{""stimulus"":""img/1to3/5.png"",""time"":507},{""stimulus"":""img/1to3/6.png"",""time"":597},{""stimulus"":""img/1to3/7.png"",""time"":696},{""stimulus"":""img/1to3/8.png"",""time"":795},{""stimulus"":""img/1to3/9.png"",""time"":893},{""stimulus"":""img/1to3/10.png"",""time"":992},{""stimulus"":""img/1to3/11.png"",""time"":1091},{""stimulus"":""img/1to3/12.png"",""time"":1190}]","[]",""
"image-keyboard-response","90","148637","0.0-5.0-1.43","63e5ffdf639ebdcf35aacb09","bdp_cybrbll","Sun Mar 26 2023 20:21:57 GMT+0200 (Central European Summer Time)","470056","3","1","","null","","","","observe","","img/3to2/1.png","null","182","331","0.5","0.5","3","2","","",""
"animation","91","149925","0.0-5.0-2.43","63e5ffdf639ebdcf35aacb09","bdp_cybrbll","Sun Mar 26 2023 20:21:57 GMT+0200 (Central European Summer Time)","470056","3","1","","","","","","","","","","182","","","","3","2","[{""stimulus"":""img/3to2/1.png"",""time"":100},{""stimulus"":""img/3to2/2.png"",""time"":200},{""stimulus"":""img/3to2/3.png"",""time"":299},{""stimulus"":""img/3to2/4.png"",""time"":398},{""stimulus"":""img/3to2/5.png"",""time"":498},{""stimulus"":""img/3to2/6.png"",""time"":595},{""stimulus"":""img/3to2/7.png"",""time"":695},{""stimulus"":""img/3to2/8.png"",""time"":793},{""stimulus"":""img/3to2/9.png"",""time"":893},{""stimulus"":""img/3to2/10.png"",""time"":993},{""stimulus"":""img/3to2/11.png"",""time"":1090},{""stimulus"":""img/3to2/12.png"",""time"":1189}]","[]",""
"image-keyboard-response","92","150245","0.0-5.0-1.44","63e5ffdf639ebdcf35aacb09","bdp_cybrbll","Sun Mar 26 2023 20:21:57 GMT+0200 (Central European Summer Time)","470056","3","1","","319","","","","choice","","img/2to1/1.png","1","181","385","0.5","0.5","2","1","","",""
"animation","93","151534","0.0-5.0-2.44","63e5ffdf639ebdcf35aacb09","bdp_cybrbll","Sun Mar 26 2023 20:21:57 GMT+0200 (Central European Summer Time)","470056","3","1","","","","","","","","","","181","","","","2","1","[{""stimulus"":""img/2to1/1.png"",""time"":101},{""stimulus"":""img/2to1/2.png"",""time"":199},{""stimulus"":""img/2to1/3.png"",""time"":298},{""stimulus"":""img/2to1/4.png"",""time"":398},{""stimulus"":""img/2to1/5.png"",""time"":497},{""stimulus"":""img/2to1/6.png"",""time"":596},{""stimulus"":""img/2to1/7.png"",""time"":695},{""stimulus"":""img/2to1/8.png"",""time"":794},{""stimulus"":""img/2to1/9.png"",""time"":892},{""stimulus"":""img/2to1/10.png"",""time"":993},{""stimulus"":""img/2to1/11.png"",""time"":1091},{""stimulus"":""img/2to1/12.png"",""time"":1190}]","[]",""
"image-keyboard-response","94","152254","0.0-5.0-1.45","63e5ffdf639ebdcf35aacb09","bdp_cybrbll","Sun Mar 26 2023 20:21:57 GMT+0200 (Central European Summer Time)","470056","3","1","","null","","","","observe","","img/1to3/1.png","null","180","718","0.5","0.5","1","3","","",""
"animation","95","153543","0.0-5.0-2.45","63e5ffdf639ebdcf35aacb09","bdp_cybrbll","Sun Mar 26 2023 20:21:57 GMT+0200 (Central European Summer Time)","470056","3","1","","","","","","","","","","180","","","","1","3","[{""stimulus"":""img/1to3/1.png"",""time"":101},{""stimulus"":""img/1to3/2.png"",""time"":200},{""stimulus"":""img/1to3/3.png"",""time"":299},{""stimulus"":""img/1to3/4.png"",""time"":398},{""stimulus"":""img/1to3/5.png"",""time"":497},{""stimulus"":""img/1to3/6.png"",""time"":596},{""stimulus"":""img/1to3/7.png"",""time"":695},{""stimulus"":""img/1to3/8.png"",""time"":794},{""stimulus"":""img/1to3/9.png"",""time"":893},{""stimulus"":""img/1to3/10.png"",""time"":992},{""stimulus"":""img/1to3/11.png"",""time"":1091},{""stimulus"":""img/1to3/12.png"",""time"":1190}]","[]",""
"image-keyboard-response","96","153808","0.0-5.0-1.46","63e5ffdf639ebdcf35aacb09","bdp_cybrbll","Sun Mar 26 2023 20:21:57 GMT+0200 (Central European Summer Time)","470056","3","1","","null","","","","observe","","img/3to2/1.png","null","179","262","0.5","0.5","3","1","","",""
"animation","97","155097","0.0-5.0-2.46","63e5ffdf639ebdcf35aacb09","bdp_cybrbll","Sun Mar 26 2023 20:21:57 GMT+0200 (Central European Summer Time)","470056","3","1","","","","","","","","","","179","","","","3","1","[{""stimulus"":""img/3to1/1.png"",""time"":100},{""stimulus"":""img/3to1/2.png"",""time"":199},{""stimulus"":""img/3to1/3.png"",""time"":299},{""stimulus"":""img/3to1/4.png"",""time"":397},{""stimulus"":""img/3to1/5.png"",""time"":496},{""stimulus"":""img/3to1/6.png"",""time"":596},{""stimulus"":""img/3to1/7.png"",""time"":695},{""stimulus"":""img/3to1/8.png"",""time"":793},{""stimulus"":""img/3to1/9.png"",""time"":892},{""stimulus"":""img/3to1/10.png"",""time"":991},{""stimulus"":""img/3to1/11.png"",""time"":1090},{""stimulus"":""img/3to1/12.png"",""time"":1191}]","[]",""
"image-keyboard-response","98","155365","0.0-5.0-1.47","63e5ffdf639ebdcf35aacb09","bdp_cybrbll","Sun Mar 26 2023 20:21:57 GMT+0200 (Central European Summer Time)","470056","3","1","","null","","","","observe","","img/1to3/1.png","null","178","266","0.5","0.5","1","3","","",""
"animation","99","156654","0.0-5.0-2.47","63e5ffdf639ebdcf35aacb09","bdp_cybrbll","Sun Mar 26 2023 20:21:57 GMT+0200 (Central European Summer Time)","470056","3","1","","","","","","","","","","178","","","","1","3","[{""stimulus"":""img/1to3/1.png"",""time"":101},{""stimulus"":""img/1to3/2.png"",""time"":200},{""stimulus"":""img/1to3/3.png"",""time"":298},{""stimulus"":""img/1to3/4.png"",""time"":398},{""stimulus"":""img/1to3/5.png"",""time"":497},{""stimulus"":""img/1to3/6.png"",""time"":597},{""stimulus"":""img/1to3/7.png"",""time"":695},{""stimulus"":""img/1to3/8.png"",""time"":794},{""stimulus"":""img/1to3/9.png"",""time"":893},{""stimulus"":""img/1to3/10.png"",""time"":992},{""stimulus"":""img/1to3/11.png"",""time"":1091},{""stimulus"":""img/1to3/12.png"",""time"":1190}]","[]",""
"image-keyboard-response","100","156942","0.0-5.0-1.48","63e5ffdf639ebdcf35aacb09","bdp_cybrbll","Sun Mar 26 2023 20:21:57 GMT+0200 (Central European Summer Time)","470056","3","1","","null","","","","observe","","img/3to2/1.png","null","177","285","0.5","0.5","3","1","","",""
"animation","101","158230","0.0-5.0-2.48","63e5ffdf639ebdcf35aacb09","bdp_cybrbll","Sun Mar 26 2023 20:21:57 GMT+0200 (Central European Summer Time)","470056","3","1","","","","","","","","","","177","","","","3","1","[{""stimulus"":""img/3to1/1.png"",""time"":100},{""stimulus"":""img/3to1/2.png"",""time"":200},{""stimulus"":""img/3to1/3.png"",""time"":299},{""stimulus"":""img/3to1/4.png"",""time"":398},{""stimulus"":""img/3to1/5.png"",""time"":496},{""stimulus"":""img/3to1/6.png"",""time"":595},{""stimulus"":""img/3to1/7.png"",""time"":696},{""stimulus"":""img/3to1/8.png"",""time"":794},{""stimulus"":""img/3to1/9.png"",""time"":893},{""stimulus"":""img/3to1/10.png"",""time"":992},{""stimulus"":""img/3to1/11.png"",""time"":1090},{""stimulus"":""img/3to1/12.png"",""time"":1190}]","[]",""
"image-keyboard-response","102","159426","0.0-5.0-1.49","63e5ffdf639ebdcf35aacb09","bdp_cybrbll","Sun Mar 26 2023 20:21:57 GMT+0200 (Central European Summer Time)","470056","3","1","","null","","","","observe","","img/1to3/1.png","null","176","1194","0.5","0.5","1","2","","",""
"animation","103","160715","0.0-5.0-2.49","63e5ffdf639ebdcf35aacb09","bdp_cybrbll","Sun Mar 26 2023 20:21:57 GMT+0200 (Central European Summer Time)","470056","3","1","","","","","","","","","","176","","","","1","2","[{""stimulus"":""img/1to2/1.png"",""time"":100},{""stimulus"":""img/1to2/2.png"",""time"":200},{""stimulus"":""img/1to2/3.png"",""time"":299},{""stimulus"":""img/1to2/4.png"",""time"":398},{""stimulus"":""img/1to2/5.png"",""time"":497},{""stimulus"":""img/1to2/6.png"",""time"":595},{""stimulus"":""img/1to2/7.png"",""time"":695},{""stimulus"":""img/1to2/8.png"",""time"":793},{""stimulus"":""img/1to2/9.png"",""time"":892},{""stimulus"":""img/1to2/10.png"",""time"":992},{""stimulus"":""img/1to2/11.png"",""time"":1090},{""stimulus"":""img/1to2/12.png"",""time"":1191}]","[]",""
"image-keyboard-response","104","160814","0.0-5.0-1.50","63e5ffdf639ebdcf35aacb09","bdp_cybrbll","Sun Mar 26 2023 20:21:57 GMT+0200 (Central European Summer Time)","470056","3","1","","98","","","","choice","","img/2to1/1.png","1","175","585","0.5","0.5","2","1","","",""
"animation","105","162103","0.0-5.0-2.50","63e5ffdf639ebdcf35aacb09","bdp_cybrbll","Sun Mar 26 2023 20:21:57 GMT+0200 (Central European Summer Time)","470056","3","1","","","","","","","","","","175","","","","2","1","[{""stimulus"":""img/2to1/1.png"",""time"":101},{""stimulus"":""img/2to1/2.png"",""time"":200},{""stimulus"":""img/2to1/3.png"",""time"":300},{""stimulus"":""img/2to1/4.png"",""time"":397},{""stimulus"":""img/2to1/5.png"",""time"":496},{""stimulus"":""img/2to1/6.png"",""time"":596},{""stimulus"":""img/2to1/7.png"",""time"":695},{""stimulus"":""img/2to1/8.png"",""time"":794},{""stimulus"":""img/2to1/9.png"",""time"":893},{""stimulus"":""img/2to1/10.png"",""time"":991},{""stimulus"":""img/2to1/11.png"",""time"":1090},{""stimulus"":""img/2to1/12.png"",""time"":1189}]","[]",""
"image-keyboard-response","106","162556","0.0-5.0-1.51","63e5ffdf639ebdcf35aacb09","bdp_cybrbll","Sun Mar 26 2023 20:21:57 GMT+0200 (Central European Summer Time)","470056","3","1","","null","","","","observe","","img/1to3/1.png","null","174","450","0.5","0.5","1","2","","",""
"animation","107","163845","0.0-5.0-2.51","63e5ffdf639ebdcf35aacb09","bdp_cybrbll","Sun Mar 26 2023 20:21:57 GMT+0200 (Central European Summer Time)","470056","3","1","","","","","","","","","","174","","","","1","2","[{""stimulus"":""img/1to2/1.png"",""time"":100},{""stimulus"":""img/1to2/2.png"",""time"":206},{""stimulus"":""img/1to2/3.png"",""time"":299},{""stimulus"":""img/1to2/4.png"",""time"":398},{""stimulus"":""img/1to2/5.png"",""time"":497},{""stimulus"":""img/1to2/6.png"",""time"":596},{""stimulus"":""img/1to2/7.png"",""time"":696},{""stimulus"":""img/1to2/8.png"",""time"":794},{""stimulus"":""img/1to2/9.png"",""time"":893},{""stimulus"":""img/1to2/10.png"",""time"":992},{""stimulus"":""img/1to2/11.png"",""time"":1091},{""stimulus"":""img/1to2/12.png"",""time"":1189}]","[]",""
"image-keyboard-response","108","164093","0.0-5.0-1.52","63e5ffdf639ebdcf35aacb09","bdp_cybrbll","Sun Mar 26 2023 20:21:57 GMT+0200 (Central European Summer Time)","470056","3","1","","247","","","","choice","","img/2to1/1.png","1","173","614","0.5","0.5","2","1","","",""
"animation","109","165381","0.0-5.0-2.52","63e5ffdf639ebdcf35aacb09","bdp_cybrbll","Sun Mar 26 2023 20:21:57 GMT+0200 (Central European Summer Time)","470056","3","1","","","","","","","","","","173","","","","2","1","[{""stimulus"":""img/2to1/1.png"",""time"":101},{""stimulus"":""img/2to1/2.png"",""time"":200},{""stimulus"":""img/2to1/3.png"",""time"":298},{""stimulus"":""img/2to1/4.png"",""time"":397},{""stimulus"":""img/2to1/5.png"",""time"":497},{""stimulus"":""img/2to1/6.png"",""time"":596},{""stimulus"":""img/2to1/7.png"",""time"":695},{""stimulus"":""img/2to1/8.png"",""time"":793},{""stimulus"":""img/2to1/9.png"",""time"":893},{""stimulus"":""img/2to1/10.png"",""time"":991},{""stimulus"":""img/2to1/11.png"",""time"":1090},{""stimulus"":""img/2to1/12.png"",""time"":1189}]","[]",""
"image-keyboard-response","110","166098","0.0-5.0-1.53","63e5ffdf639ebdcf35aacb09","bdp_cybrbll","Sun Mar 26 2023 20:21:57 GMT+0200 (Central European Summer Time)","470056","3","1","","null","","","","observe","","img/1to3/1.png","null","172","714","0.5","0.5","1","2","","",""
"animation","111","167387","0.0-5.0-2.53","63e5ffdf639ebdcf35aacb09","bdp_cybrbll","Sun Mar 26 2023 20:21:57 GMT+0200 (Central European Summer Time)","470056","3","1","","","","","","","","","","172","","","","1","2","[{""stimulus"":""img/1to2/1.png"",""time"":101},{""stimulus"":""img/1to2/2.png"",""time"":199},{""stimulus"":""img/1to2/3.png"",""time"":298},{""stimulus"":""img/1to2/4.png"",""time"":398},{""stimulus"":""img/1to2/5.png"",""time"":497},{""stimulus"":""img/1to2/6.png"",""time"":596},{""stimulus"":""img/1to2/7.png"",""time"":695},{""stimulus"":""img/1to2/8.png"",""time"":793},{""stimulus"":""img/1to2/9.png"",""time"":892},{""stimulus"":""img/1to2/10.png"",""time"":991},{""stimulus"":""img/1to2/11.png"",""time"":1090},{""stimulus"":""img/1to2/12.png"",""time"":1189}]","[]",""
"image-keyboard-response","112","167574","0.0-5.0-1.54","63e5ffdf639ebdcf35aacb09","bdp_cybrbll","Sun Mar 26 2023 20:21:57 GMT+0200 (Central European Summer Time)","470056","3","1","","185","","","","choice","","img/2to1/1.png","1","171","346","0.5","0.5","2","1","","",""
"animation","113","168862","0.0-5.0-2.54","63e5ffdf639ebdcf35aacb09","bdp_cybrbll","Sun Mar 26 2023 20:21:57 GMT+0200 (Central European Summer Time)","470056","3","1","","","","","","","","","","171","","","","2","1","[{""stimulus"":""img/2to1/1.png"",""time"":103},{""stimulus"":""img/2to1/2.png"",""time"":200},{""stimulus"":""img/2to1/3.png"",""time"":299},{""stimulus"":""img/2to1/4.png"",""time"":398},{""stimulus"":""img/2to1/5.png"",""time"":498},{""stimulus"":""img/2to1/6.png"",""time"":595},{""stimulus"":""img/2to1/7.png"",""time"":695},{""stimulus"":""img/2to1/8.png"",""time"":793},{""stimulus"":""img/2to1/9.png"",""time"":893},{""stimulus"":""img/2to1/10.png"",""time"":992},{""stimulus"":""img/2to1/11.png"",""time"":1092},{""stimulus"":""img/2to1/12.png"",""time"":1189}]","[]",""
"image-keyboard-response","114","169307","0.0-5.0-1.55","63e5ffdf639ebdcf35aacb09","bdp_cybrbll","Sun Mar 26 2023 20:21:57 GMT+0200 (Central European Summer Time)","470056","3","1","","null","","","","observe","","img/1to3/1.png","null","170","442","0.5","0.5","1","3","","",""
"animation","115","170596","0.0-5.0-2.55","63e5ffdf639ebdcf35aacb09","bdp_cybrbll","Sun Mar 26 2023 20:21:57 GMT+0200 (Central European Summer Time)","470056","3","1","","","","","","","","","","170","","","","1","3","[{""stimulus"":""img/1to3/1.png"",""time"":101},{""stimulus"":""img/1to3/2.png"",""time"":215},{""stimulus"":""img/1to3/3.png"",""time"":299},{""stimulus"":""img/1to3/4.png"",""time"":398},{""stimulus"":""img/1to3/5.png"",""time"":497},{""stimulus"":""img/1to3/6.png"",""time"":596},{""stimulus"":""img/1to3/7.png"",""time"":694},{""stimulus"":""img/1to3/8.png"",""time"":795},{""stimulus"":""img/1to3/9.png"",""time"":893},{""stimulus"":""img/1to3/10.png"",""time"":992},{""stimulus"":""img/1to3/11.png"",""time"":1092},{""stimulus"":""img/1to3/12.png"",""time"":1190}]","[]",""
"image-keyboard-response","116","171111","0.0-5.0-1.56","63e5ffdf639ebdcf35aacb09","bdp_cybrbll","Sun Mar 26 2023 20:21:57 GMT+0200 (Central European Summer Time)","470056","3","1","","null","","","","observe","","img/3to2/1.png","null","169","512","0.5","0.5","3","1","","",""
"animation","117","172400","0.0-5.0-2.56","63e5ffdf639ebdcf35aacb09","bdp_cybrbll","Sun Mar 26 2023 20:21:57 GMT+0200 (Central European Summer Time)","470056","3","1","","","","","","","","","","169","","","","3","1","[{""stimulus"":""img/3to1/1.png"",""time"":100},{""stimulus"":""img/3to1/2.png"",""time"":200},{""stimulus"":""img/3to1/3.png"",""time"":298},{""stimulus"":""img/3to1/4.png"",""time"":397},{""stimulus"":""img/3to1/5.png"",""time"":497},{""stimulus"":""img/3to1/6.png"",""time"":595},{""stimulus"":""img/3to1/7.png"",""time"":695},{""stimulus"":""img/3to1/8.png"",""time"":793},{""stimulus"":""img/3to1/9.png"",""time"":892},{""stimulus"":""img/3to1/10.png"",""time"":992},{""stimulus"":""img/3to1/11.png"",""time"":1090},{""stimulus"":""img/3to1/12.png"",""time"":1189}]","[]",""
"image-keyboard-response","118","172922","0.0-5.0-1.57","63e5ffdf639ebdcf35aacb09","bdp_cybrbll","Sun Mar 26 2023 20:21:57 GMT+0200 (Central European Summer Time)","470056","3","1","","null","","","","observe","","img/1to3/1.png","null","168","520","0.5","0.5","1","3","","",""
"animation","119","174211","0.0-5.0-2.57","63e5ffdf639ebdcf35aacb09","bdp_cybrbll","Sun Mar 26 2023 20:21:57 GMT+0200 (Central European Summer Time)","470056","3","1","","","","","","","","","","168","","","","1","3","[{""stimulus"":""img/1to3/1.png"",""time"":100},{""stimulus"":""img/1to3/2.png"",""time"":201},{""stimulus"":""img/1to3/3.png"",""time"":299},{""stimulus"":""img/1to3/4.png"",""time"":398},{""stimulus"":""img/1to3/5.png"",""time"":497},{""stimulus"":""img/1to3/6.png"",""time"":597},{""stimulus"":""img/1to3/7.png"",""time"":695},{""stimulus"":""img/1to3/8.png"",""time"":796},{""stimulus"":""img/1to3/9.png"",""time"":892},{""stimulus"":""img/1to3/10.png"",""time"":992},{""stimulus"":""img/1to3/11.png"",""time"":1092},{""stimulus"":""img/1to3/12.png"",""time"":1191}]","[]",""
"image-keyboard-response","120","174568","0.0-5.0-1.58","63e5ffdf639ebdcf35aacb09","bdp_cybrbll","Sun Mar 26 2023 20:21:57 GMT+0200 (Central European Summer Time)","470056","3","1","","null","","","","observe","","img/3to2/1.png","null","167","355","0.5","0.5","3","1","","",""
"animation","121","175858","0.0-5.0-2.58","63e5ffdf639ebdcf35aacb09","bdp_cybrbll","Sun Mar 26 2023 20:21:57 GMT+0200 (Central European Summer Time)","470056","3","1","","","","","","","","","","167","","","","3","1","[{""stimulus"":""img/3to1/1.png"",""time"":100},{""stimulus"":""img/3to1/2.png"",""time"":200},{""stimulus"":""img/3to1/3.png"",""time"":299},{""stimulus"":""img/3to1/4.png"",""time"":397},{""stimulus"":""img/3to1/5.png"",""time"":498},{""stimulus"":""img/3to1/6.png"",""time"":596},{""stimulus"":""img/3to1/7.png"",""time"":694},{""stimulus"":""img/3to1/8.png"",""time"":794},{""stimulus"":""img/3to1/9.png"",""time"":893},{""stimulus"":""img/3to1/10.png"",""time"":992},{""stimulus"":""img/3to1/11.png"",""time"":1092},{""stimulus"":""img/3to1/12.png"",""time"":1189}]","[]",""
"image-keyboard-response","122","176096","0.0-5.0-1.59","63e5ffdf639ebdcf35aacb09","bdp_cybrbll","Sun Mar 26 2023 20:21:57 GMT+0200 (Central European Summer Time)","470056","3","1","","null","","","","observe","","img/1to3/1.png","null","166","236","0.5","0.5","1","3","","",""
"animation","123","177385","0.0-5.0-2.59","63e5ffdf639ebdcf35aacb09","bdp_cybrbll","Sun Mar 26 2023 20:21:57 GMT+0200 (Central European Summer Time)","470056","3","1","","","","","","","","","","166","","","","1","3","[{""stimulus"":""img/1to3/1.png"",""time"":101},{""stimulus"":""img/1to3/2.png"",""time"":199},{""stimulus"":""img/1to3/3.png"",""time"":298},{""stimulus"":""img/1to3/4.png"",""time"":397},{""stimulus"":""img/1to3/5.png"",""time"":496},{""stimulus"":""img/1to3/6.png"",""time"":595},{""stimulus"":""img/1to3/7.png"",""time"":695},{""stimulus"":""img/1to3/8.png"",""time"":793},{""stimulus"":""img/1to3/9.png"",""time"":893},{""stimulus"":""img/1to3/10.png"",""time"":991},{""stimulus"":""img/1to3/11.png"",""time"":1091},{""stimulus"":""img/1to3/12.png"",""time"":1190}]","[]",""
"image-keyboard-response","124","177754","0.0-5.0-1.60","63e5ffdf639ebdcf35aacb09","bdp_cybrbll","Sun Mar 26 2023 20:21:57 GMT+0200 (Central European Summer Time)","470056","3","1","","null","","","","observe","","img/3to2/1.png","null","165","367","0.5","0.5","3","1","","",""
"animation","125","179042","0.0-5.0-2.60","63e5ffdf639ebdcf35aacb09","bdp_cybrbll","Sun Mar 26 2023 20:21:57 GMT+0200 (Central European Summer Time)","470056","3","1","","","","","","","","","","165","","","","3","1","[{""stimulus"":""img/3to1/1.png"",""time"":100},{""stimulus"":""img/3to1/2.png"",""time"":199},{""stimulus"":""img/3to1/3.png"",""time"":298},{""stimulus"":""img/3to1/4.png"",""time"":397},{""stimulus"":""img/3to1/5.png"",""time"":496},{""stimulus"":""img/3to1/6.png"",""time"":595},{""stimulus"":""img/3to1/7.png"",""time"":695},{""stimulus"":""img/3to1/8.png"",""time"":794},{""stimulus"":""img/3to1/9.png"",""time"":893},{""stimulus"":""img/3to1/10.png"",""time"":991},{""stimulus"":""img/3to1/11.png"",""time"":1090},{""stimulus"":""img/3to1/12.png"",""time"":1190}]","[]",""
"image-keyboard-response","126","179309","0.0-5.0-1.61","63e5ffdf639ebdcf35aacb09","bdp_cybrbll","Sun Mar 26 2023 20:21:57 GMT+0200 (Central European Summer Time)","470056","3","1","","null","","","","observe","","img/1to3/1.png","null","164","264","0.5","0.5","1","2","","",""
"animation","127","180599","0.0-5.0-2.61","63e5ffdf639ebdcf35aacb09","bdp_cybrbll","Sun Mar 26 2023 20:21:57 GMT+0200 (Central European Summer Time)","470056","3","1","","","","","","","","","","164","","","","1","2","[{""stimulus"":""img/1to2/1.png"",""time"":100},{""stimulus"":""img/1to2/2.png"",""time"":200},{""stimulus"":""img/1to2/3.png"",""time"":299},{""stimulus"":""img/1to2/4.png"",""time"":398},{""stimulus"":""img/1to2/5.png"",""time"":497},{""stimulus"":""img/1to2/6.png"",""time"":596},{""stimulus"":""img/1to2/7.png"",""time"":696},{""stimulus"":""img/1to2/8.png"",""time"":794},{""stimulus"":""img/1to2/9.png"",""time"":894},{""stimulus"":""img/1to2/10.png"",""time"":991},{""stimulus"":""img/1to2/11.png"",""time"":1092},{""stimulus"":""img/1to2/12.png"",""time"":1191}]","[]",""
"image-keyboard-response","128","181278","0.0-5.0-1.62","63e5ffdf639ebdcf35aacb09","bdp_cybrbll","Sun Mar 26 2023 20:21:57 GMT+0200 (Central European Summer Time)","470056","3","1","","678","","","","choice","","img/2to1/1.png","2","163","290","0.5","0.5","2","3","","",""
"animation","129","182566","0.0-5.0-2.62","63e5ffdf639ebdcf35aacb09","bdp_cybrbll","Sun Mar 26 2023 20:21:57 GMT+0200 (Central European Summer Time)","470056","3","1","","","","","","","","","","163","","","","2","3","[{""stimulus"":""img/2to3/1.png"",""time"":100},{""stimulus"":""img/2to3/2.png"",""time"":199},{""stimulus"":""img/2to3/3.png"",""time"":298},{""stimulus"":""img/2to3/4.png"",""time"":398},{""stimulus"":""img/2to3/5.png"",""time"":497},{""stimulus"":""img/2to3/6.png"",""time"":596},{""stimulus"":""img/2to3/7.png"",""time"":694},{""stimulus"":""img/2to3/8.png"",""time"":793},{""stimulus"":""img/2to3/9.png"",""time"":893},{""stimulus"":""img/2to3/10.png"",""time"":991},{""stimulus"":""img/2to3/11.png"",""time"":1091},{""stimulus"":""img/2to3/12.png"",""time"":1190}]","[]",""
"image-keyboard-response","130","182938","0.0-5.0-1.63","63e5ffdf639ebdcf35aacb09","bdp_cybrbll","Sun Mar 26 2023 20:21:57 GMT+0200 (Central European Summer Time)","470056","3","1","","null","","","","observe","","img/3to2/1.png","null","162","369","0.5","0.5","3","1","","",""
"animation","131","184226","0.0-5.0-2.63","63e5ffdf639ebdcf35aacb09","bdp_cybrbll","Sun Mar 26 2023 20:21:57 GMT+0200 (Central European Summer Time)","470056","3","1","","","","","","","","","","162","","","","3","1","[{""stimulus"":""img/3to1/1.png"",""time"":100},{""stimulus"":""img/3to1/2.png"",""time"":200},{""stimulus"":""img/3to1/3.png"",""time"":298},{""stimulus"":""img/3to1/4.png"",""time"":397},{""stimulus"":""img/3to1/5.png"",""time"":496},{""stimulus"":""img/3to1/6.png"",""time"":595},{""stimulus"":""img/3to1/7.png"",""time"":705},{""stimulus"":""img/3to1/8.png"",""time"":794},{""stimulus"":""img/3to1/9.png"",""time"":893},{""stimulus"":""img/3to1/10.png"",""time"":991},{""stimulus"":""img/3to1/11.png"",""time"":1090},{""stimulus"":""img/3to1/12.png"",""time"":1195}]","[]",""
"image-keyboard-response","132","184685","0.0-5.0-1.64","63e5ffdf639ebdcf35aacb09","bdp_cybrbll","Sun Mar 26 2023 20:21:57 GMT+0200 (Central European Summer Time)","470056","3","1","","null","","","","observe","","img/1to3/1.png","null","161","457","0.5","0.5","1","2","","",""
"animation","133","185974","0.0-5.0-2.64","63e5ffdf639ebdcf35aacb09","bdp_cybrbll","Sun Mar 26 2023 20:21:57 GMT+0200 (Central European Summer Time)","470056","3","1","","","","","","","","","","161","","","","1","2","[{""stimulus"":""img/1to2/1.png"",""time"":100},{""stimulus"":""img/1to2/2.png"",""time"":200},{""stimulus"":""img/1to2/3.png"",""time"":299},{""stimulus"":""img/1to2/4.png"",""time"":397},{""stimulus"":""img/1to2/5.png"",""time"":496},{""stimulus"":""img/1to2/6.png"",""time"":595},{""stimulus"":""img/1to2/7.png"",""time"":695},{""stimulus"":""img/1to2/8.png"",""time"":794},{""stimulus"":""img/1to2/9.png"",""time"":893},{""stimulus"":""img/1to2/10.png"",""time"":992},{""stimulus"":""img/1to2/11.png"",""time"":1090},{""stimulus"":""img/1to2/12.png"",""time"":1189}]","[]",""
"image-keyboard-response","134","186590","0.0-5.0-1.65","63e5ffdf639ebdcf35aacb09","bdp_cybrbll","Sun Mar 26 2023 20:21:57 GMT+0200 (Central European Summer Time)","470056","3","1","","615","","","","choice","","img/2to1/1.png","2","160","325","0.5","0.5","2","3","","",""
"animation","135","187879","0.0-5.0-2.65","63e5ffdf639ebdcf35aacb09","bdp_cybrbll","Sun Mar 26 2023 20:21:57 GMT+0200 (Central European Summer Time)","470056","3","1","","","","","","","","","","160","","","","2","3","[{""stimulus"":""img/2to3/1.png"",""time"":101},{""stimulus"":""img/2to3/2.png"",""time"":199},{""stimulus"":""img/2to3/3.png"",""time"":299},{""stimulus"":""img/2to3/4.png"",""time"":398},{""stimulus"":""img/2to3/5.png"",""time"":496},{""stimulus"":""img/2to3/6.png"",""time"":595},{""stimulus"":""img/2to3/7.png"",""time"":695},{""stimulus"":""img/2to3/8.png"",""time"":794},{""stimulus"":""img/2to3/9.png"",""time"":893},{""stimulus"":""img/2to3/10.png"",""time"":991},{""stimulus"":""img/2to3/11.png"",""time"":1090},{""stimulus"":""img/2to3/12.png"",""time"":1189}]","[]",""
"image-keyboard-response","136","188804","0.0-5.0-1.66","63e5ffdf639ebdcf35aacb09","bdp_cybrbll","Sun Mar 26 2023 20:21:57 GMT+0200 (Central European Summer Time)","470056","3","1","","null","","","","observe","","img/3to2/1.png","null","159","923","0.5","0.5","3","2","","",""
"animation","137","190093","0.0-5.0-2.66","63e5ffdf639ebdcf35aacb09","bdp_cybrbll","Sun Mar 26 2023 20:21:57 GMT+0200 (Central European Summer Time)","470056","3","1","","","","","","","","","","159","","","","3","2","[{""stimulus"":""img/3to2/1.png"",""time"":101},{""stimulus"":""img/3to2/2.png"",""time"":199},{""stimulus"":""img/3to2/3.png"",""time"":298},{""stimulus"":""img/3to2/4.png"",""time"":397},{""stimulus"":""img/3to2/5.png"",""time"":496},{""stimulus"":""img/3to2/6.png"",""time"":596},{""stimulus"":""img/3to2/7.png"",""time"":695},{""stimulus"":""img/3to2/8.png"",""time"":793},{""stimulus"":""img/3to2/9.png"",""time"":892},{""stimulus"":""img/3to2/10.png"",""time"":991},{""stimulus"":""img/3to2/11.png"",""time"":1090},{""stimulus"":""img/3to2/12.png"",""time"":1190}]","[]",""
"image-keyboard-response","138","190118","0.0-5.0-1.67","63e5ffdf639ebdcf35aacb09","bdp_cybrbll","Sun Mar 26 2023 20:21:57 GMT+0200 (Central European Summer Time)","470056","3","1","","24","","","","choice","","img/2to1/1.png","2","158","451","0.5","0.5","2","3","","",""
"animation","139","191406","0.0-5.0-2.67","63e5ffdf639ebdcf35aacb09","bdp_cybrbll","Sun Mar 26 2023 20:21:57 GMT+0200 (Central European Summer Time)","470056","3","1","","","","","","","","","","158","","","","2","3","[{""stimulus"":""img/2to3/1.png"",""time"":101},{""stimulus"":""img/2to3/2.png"",""time"":200},{""stimulus"":""img/2to3/3.png"",""time"":299},{""stimulus"":""img/2to3/4.png"",""time"":398},{""stimulus"":""img/2to3/5.png"",""time"":498},{""stimulus"":""img/2to3/6.png"",""time"":597},{""stimulus"":""img/2to3/7.png"",""time"":694},{""stimulus"":""img/2to3/8.png"",""time"":794},{""stimulus"":""img/2to3/9.png"",""time"":893},{""stimulus"":""img/2to3/10.png"",""time"":992},{""stimulus"":""img/2to3/11.png"",""time"":1092},{""stimulus"":""img/2to3/12.png"",""time"":1190}]","[]",""
"image-keyboard-response","140","191866","0.0-5.0-1.68","63e5ffdf639ebdcf35aacb09","bdp_cybrbll","Sun Mar 26 2023 20:21:57 GMT+0200 (Central European Summer Time)","470056","3","1","","null","","","","observe","","img/3to2/1.png","null","157","457","0.5","0.5","3","2","","",""
"animation","141","193155","0.0-5.0-2.68","63e5ffdf639ebdcf35aacb09","bdp_cybrbll","Sun Mar 26 2023 20:21:57 GMT+0200 (Central European Summer Time)","470056","3","1","","","","","","","","","","157","","","","3","2","[{""stimulus"":""img/3to2/1.png"",""time"":100},{""stimulus"":""img/3to2/2.png"",""time"":199},{""stimulus"":""img/3to2/3.png"",""time"":299},{""stimulus"":""img/3to2/4.png"",""time"":397},{""stimulus"":""img/3to2/5.png"",""time"":496},{""stimulus"":""img/3to2/6.png"",""time"":595},{""stimulus"":""img/3to2/7.png"",""time"":695},{""stimulus"":""img/3to2/8.png"",""time"":793},{""stimulus"":""img/3to2/9.png"",""time"":892},{""stimulus"":""img/3to2/10.png"",""time"":991},{""stimulus"":""img/3to2/11.png"",""time"":1090},{""stimulus"":""img/3to2/12.png"",""time"":1189}]","[]",""
"image-keyboard-response","142","193814","0.0-5.0-1.69","63e5ffdf639ebdcf35aacb09","bdp_cybrbll","Sun Mar 26 2023 20:21:57 GMT+0200 (Central European Summer Time)","470056","3","1","","658","","","","choice","","img/2to1/1.png","1","156","527","0.5","0.5","2","1","","",""
"animation","143","195102","0.0-5.0-2.69","63e5ffdf639ebdcf35aacb09","bdp_cybrbll","Sun Mar 26 2023 20:21:57 GMT+0200 (Central European Summer Time)","470056","3","1","","","","","","","","","","156","","","","2","1","[{""stimulus"":""img/2to1/1.png"",""time"":102},{""stimulus"":""img/2to1/2.png"",""time"":199},{""stimulus"":""img/2to1/3.png"",""time"":298},{""stimulus"":""img/2to1/4.png"",""time"":397},{""stimulus"":""img/2to1/5.png"",""time"":497},{""stimulus"":""img/2to1/6.png"",""time"":596},{""stimulus"":""img/2to1/7.png"",""time"":695},{""stimulus"":""img/2to1/8.png"",""time"":794},{""stimulus"":""img/2to1/9.png"",""time"":891},{""stimulus"":""img/2to1/10.png"",""time"":992},{""stimulus"":""img/2to1/11.png"",""time"":1090},{""stimulus"":""img/2to1/12.png"",""time"":1189}]","[]",""
"image-keyboard-response","144","195358","0.0-5.0-1.70","63e5ffdf639ebdcf35aacb09","bdp_cybrbll","Sun Mar 26 2023 20:21:57 GMT+0200 (Central European Summer Time)","470056","3","1","","null","","","","observe","","img/1to3/1.png","null","155","254","0.5","0.5","1","2","","",""
"animation","145","196646","0.0-5.0-2.70","63e5ffdf639ebdcf35aacb09","bdp_cybrbll","Sun Mar 26 2023 20:21:57 GMT+0200 (Central European Summer Time)","470056","3","1","","","","","","","","","","155","","","","1","2","[{""stimulus"":""img/1to2/1.png"",""time"":100},{""stimulus"":""img/1to2/2.png"",""time"":199},{""stimulus"":""img/1to2/3.png"",""time"":299},{""stimulus"":""img/1to2/4.png"",""time"":398},{""stimulus"":""img/1to2/5.png"",""time"":496},{""stimulus"":""img/1to2/6.png"",""time"":595},{""stimulus"":""img/1to2/7.png"",""time"":694},{""stimulus"":""img/1to2/8.png"",""time"":794},{""stimulus"":""img/1to2/9.png"",""time"":893},{""stimulus"":""img/1to2/10.png"",""time"":992},{""stimulus"":""img/1to2/11.png"",""time"":1091},{""stimulus"":""img/1to2/12.png"",""time"":1190}]","[]",""
"image-keyboard-response","146","196702","0.0-5.0-1.71","63e5ffdf639ebdcf35aacb09","bdp_cybrbll","Sun Mar 26 2023 20:21:57 GMT+0200 (Central European Summer Time)","470056","3","1","","55","","","","choice","","img/2to1/1.png","1","154","638","0.5","0.5","2","1","","",""
"animation","147","197991","0.0-5.0-2.71","63e5ffdf639ebdcf35aacb09","bdp_cybrbll","Sun Mar 26 2023 20:21:57 GMT+0200 (Central European Summer Time)","470056","3","1","","","","","","","","","","154","","","","2","1","[{""stimulus"":""img/2to1/1.png"",""time"":100},{""stimulus"":""img/2to1/2.png"",""time"":200},{""stimulus"":""img/2to1/3.png"",""time"":298},{""stimulus"":""img/2to1/4.png"",""time"":398},{""stimulus"":""img/2to1/5.png"",""time"":497},{""stimulus"":""img/2to1/6.png"",""time"":595},{""stimulus"":""img/2to1/7.png"",""time"":695},{""stimulus"":""img/2to1/8.png"",""time"":793},{""stimulus"":""img/2to1/9.png"",""time"":893},{""stimulus"":""img/2to1/10.png"",""time"":992},{""stimulus"":""img/2to1/11.png"",""time"":1090},{""stimulus"":""img/2to1/12.png"",""time"":1189}]","[]",""
"image-keyboard-response","148","198260","0.0-5.0-1.72","63e5ffdf639ebdcf35aacb09","bdp_cybrbll","Sun Mar 26 2023 20:21:57 GMT+0200 (Central European Summer Time)","470056","3","1","","null","","","","observe","","img/1to3/1.png","null","153","267","0.5","0.5","1","2","","",""
"animation","149","199549","0.0-5.0-2.72","63e5ffdf639ebdcf35aacb09","bdp_cybrbll","Sun Mar 26 2023 20:21:57 GMT+0200 (Central European Summer Time)","470056","3","1","","","","","","","","","","153","","","","1","2","[{""stimulus"":""img/1to2/1.png"",""time"":100},{""stimulus"":""img/1to2/2.png"",""time"":210},{""stimulus"":""img/1to2/3.png"",""time"":298},{""stimulus"":""img/1to2/4.png"",""time"":397},{""stimulus"":""img/1to2/5.png"",""time"":496},{""stimulus"":""img/1to2/6.png"",""time"":596},{""stimulus"":""img/1to2/7.png"",""time"":695},{""stimulus"":""img/1to2/8.png"",""time"":793},{""stimulus"":""img/1to2/9.png"",""time"":893},{""stimulus"":""img/1to2/10.png"",""time"":991},{""stimulus"":""img/1to2/11.png"",""time"":1090},{""stimulus"":""img/1to2/12.png"",""time"":1189}]","[]",""
"image-keyboard-response","150","199574","0.0-5.0-1.73","63e5ffdf639ebdcf35aacb09","bdp_cybrbll","Sun Mar 26 2023 20:21:57 GMT+0200 (Central European Summer Time)","470056","3","1","","23","","","","choice","","img/2to1/1.png","2","152","273","0.5","0.5","2","3","","",""
"animation","151","200862","0.0-5.0-2.73","63e5ffdf639ebdcf35aacb09","bdp_cybrbll","Sun Mar 26 2023 20:21:57 GMT+0200 (Central European Summer Time)","470056","3","1","","","","","","","","","","152","","","","2","3","[{""stimulus"":""img/2to3/1.png"",""time"":101},{""stimulus"":""img/2to3/2.png"",""time"":199},{""stimulus"":""img/2to3/3.png"",""time"":300},{""stimulus"":""img/2to3/4.png"",""time"":401},{""stimulus"":""img/2to3/5.png"",""time"":497},{""stimulus"":""img/2to3/6.png"",""time"":596},{""stimulus"":""img/2to3/7.png"",""time"":696},{""stimulus"":""img/2to3/8.png"",""time"":794},{""stimulus"":""img/2to3/9.png"",""time"":894},{""stimulus"":""img/2to3/10.png"",""time"":1003},{""stimulus"":""img/2to3/11.png"",""time"":1091},{""stimulus"":""img/2to3/12.png"",""time"":1190}]","[]",""
"image-keyboard-response","152","202025","0.0-5.0-1.74","63e5ffdf639ebdcf35aacb09","bdp_cybrbll","Sun Mar 26 2023 20:21:57 GMT+0200 (Central European Summer Time)","470056","3","1","","null","","","","observe","","img/3to2/1.png","null","151","1161","0.5","0.5","3","2","","",""
"animation","153","203314","0.0-5.0-2.74","63e5ffdf639ebdcf35aacb09","bdp_cybrbll","Sun Mar 26 2023 20:21:57 GMT+0200 (Central European Summer Time)","470056","3","1","","","","","","","","","","151","","","","3","2","[{""stimulus"":""img/3to2/1.png"",""time"":100},{""stimulus"":""img/3to2/2.png"",""time"":200},{""stimulus"":""img/3to2/3.png"",""time"":298},{""stimulus"":""img/3to2/4.png"",""time"":403},{""stimulus"":""img/3to2/5.png"",""time"":496},{""stimulus"":""img/3to2/6.png"",""time"":610},{""stimulus"":""img/3to2/7.png"",""time"":695},{""stimulus"":""img/3to2/8.png"",""time"":794},{""stimulus"":""img/3to2/9.png"",""time"":892},{""stimulus"":""img/3to2/10.png"",""time"":991},{""stimulus"":""img/3to2/11.png"",""time"":1090},{""stimulus"":""img/3to2/12.png"",""time"":1198}]","[]",""
"image-keyboard-response","154","203352","0.0-5.0-1.75","63e5ffdf639ebdcf35aacb09","bdp_cybrbll","Sun Mar 26 2023 20:21:57 GMT+0200 (Central European Summer Time)","470056","3","1","","35","","","","choice","","img/2to1/1.png","2","150","433","0.5","0.5","2","3","","",""
"animation","155","204640","0.0-5.0-2.75","63e5ffdf639ebdcf35aacb09","bdp_cybrbll","Sun Mar 26 2023 20:21:57 GMT+0200 (Central European Summer Time)","470056","3","1","","","","","","","","","","150","","","","2","3","[{""stimulus"":""img/2to3/1.png"",""time"":101},{""stimulus"":""img/2to3/2.png"",""time"":199},{""stimulus"":""img/2to3/3.png"",""time"":299},{""stimulus"":""img/2to3/4.png"",""time"":398},{""stimulus"":""img/2to3/5.png"",""time"":497},{""stimulus"":""img/2to3/6.png"",""time"":596},{""stimulus"":""img/2to3/7.png"",""time"":695},{""stimulus"":""img/2to3/8.png"",""time"":795},{""stimulus"":""img/2to3/9.png"",""time"":892},{""stimulus"":""img/2to3/10.png"",""time"":991},{""stimulus"":""img/2to3/11.png"",""time"":1090},{""stimulus"":""img/2to3/12.png"",""time"":1190}]","[]",""
"image-keyboard-response","156","205056","0.0-5.0-1.76","63e5ffdf639ebdcf35aacb09","bdp_cybrbll","Sun Mar 26 2023 20:21:57 GMT+0200 (Central European Summer Time)","470056","3","1","","null","","","","observe","","img/3to2/1.png","null","149","413","0.5","0.1","3","1","","",""
"animation","157","206345","0.0-5.0-2.76","63e5ffdf639ebdcf35aacb09","bdp_cybrbll","Sun Mar 26 2023 20:21:57 GMT+0200 (Central European Summer Time)","470056","3","1","","","","","","","","","","149","","","","3","1","[{""stimulus"":""img/3to1/1.png"",""time"":101},{""stimulus"":""img/3to1/2.png"",""time"":202},{""stimulus"":""img/3to1/3.png"",""time"":299},{""stimulus"":""img/3to1/4.png"",""time"":398},{""stimulus"":""img/3to1/5.png"",""time"":497},{""stimulus"":""img/3to1/6.png"",""time"":596},{""stimulus"":""img/3to1/7.png"",""time"":695},{""stimulus"":""img/3to1/8.png"",""time"":794},{""stimulus"":""img/3to1/9.png"",""time"":893},{""stimulus"":""img/3to1/10.png"",""time"":992},{""stimulus"":""img/3to1/11.png"",""time"":1090},{""stimulus"":""img/3to1/12.png"",""time"":1189}]","[]",""
"image-keyboard-response","158","206975","0.0-5.0-1.77","63e5ffdf639ebdcf35aacb09","bdp_cybrbll","Sun Mar 26 2023 20:21:57 GMT+0200 (Central European Summer Time)","470056","3","1","","null","","","","observe","","img/1to3/1.png","null","148","627","0.5","0.1","1","3","","",""
"animation","159","208263","0.0-5.0-2.77","63e5ffdf639ebdcf35aacb09","bdp_cybrbll","Sun Mar 26 2023 20:21:57 GMT+0200 (Central European Summer Time)","470056","3","1","","","","","","","","","","148","","","","1","3","[{""stimulus"":""img/1to3/1.png"",""time"":101},{""stimulus"":""img/1to3/2.png"",""time"":200},{""stimulus"":""img/1to3/3.png"",""time"":299},{""stimulus"":""img/1to3/4.png"",""time"":397},{""stimulus"":""img/1to3/5.png"",""time"":496},{""stimulus"":""img/1to3/6.png"",""time"":595},{""stimulus"":""img/1to3/7.png"",""time"":694},{""stimulus"":""img/1to3/8.png"",""time"":793},{""stimulus"":""img/1to3/9.png"",""time"":892},{""stimulus"":""img/1to3/10.png"",""time"":991},{""stimulus"":""img/1to3/11.png"",""time"":1090},{""stimulus"":""img/1to3/12.png"",""time"":1191}]","[]",""
"image-keyboard-response","160","209043","0.0-5.0-1.78","63e5ffdf639ebdcf35aacb09","bdp_cybrbll","Sun Mar 26 2023 20:21:57 GMT+0200 (Central European Summer Time)","470056","3","1","","null","","","","observe","","img/3to2/1.png","null","147","778","0.5","0.1","3","1","","",""
"animation","161","210331","0.0-5.0-2.78","63e5ffdf639ebdcf35aacb09","bdp_cybrbll","Sun Mar 26 2023 20:21:57 GMT+0200 (Central European Summer Time)","470056","3","1","","","","","","","","","","147","","","","3","1","[{""stimulus"":""img/3to1/1.png"",""time"":101},{""stimulus"":""img/3to1/2.png"",""time"":199},{""stimulus"":""img/3to1/3.png"",""time"":299},{""stimulus"":""img/3to1/4.png"",""time"":397},{""stimulus"":""img/3to1/5.png"",""time"":497},{""stimulus"":""img/3to1/6.png"",""time"":596},{""stimulus"":""img/3to1/7.png"",""time"":695},{""stimulus"":""img/3to1/8.png"",""time"":794},{""stimulus"":""img/3to1/9.png"",""time"":892},{""stimulus"":""img/3to1/10.png"",""time"":991},{""stimulus"":""img/3to1/11.png"",""time"":1091},{""stimulus"":""img/3to1/12.png"",""time"":1190}]","[]",""
"image-keyboard-response","162","211122","0.0-5.0-1.79","63e5ffdf639ebdcf35aacb09","bdp_cybrbll","Sun Mar 26 2023 20:21:57 GMT+0200 (Central European Summer Time)","470056","3","1","","null","","","","observe","","img/1to3/1.png","null","146","788","0.5","0.1","1","3","","",""
"animation","163","212410","0.0-5.0-2.79","63e5ffdf639ebdcf35aacb09","bdp_cybrbll","Sun Mar 26 2023 20:21:57 GMT+0200 (Central European Summer Time)","470056","3","1","","","","","","","","","","146","","","","1","3","[{""stimulus"":""img/1to3/1.png"",""time"":102},{""stimulus"":""img/1to3/2.png"",""time"":200},{""stimulus"":""img/1to3/3.png"",""time"":299},{""stimulus"":""img/1to3/4.png"",""time"":399},{""stimulus"":""img/1to3/5.png"",""time"":499},{""stimulus"":""img/1to3/6.png"",""time"":600},{""stimulus"":""img/1to3/7.png"",""time"":696},{""stimulus"":""img/1to3/8.png"",""time"":794},{""stimulus"":""img/1to3/9.png"",""time"":893},{""stimulus"":""img/1to3/10.png"",""time"":992},{""stimulus"":""img/1to3/11.png"",""time"":1092},{""stimulus"":""img/1to3/12.png"",""time"":1191}]","[]",""
"image-keyboard-response","164","213087","0.0-5.0-1.80","63e5ffdf639ebdcf35aacb09","bdp_cybrbll","Sun Mar 26 2023 20:21:57 GMT+0200 (Central European Summer Time)","470056","3","1","","null","","","","observe","","img/3to2/1.png","null","145","675","0.5","0.1","3","1","","",""
"animation","165","214375","0.0-5.0-2.80","63e5ffdf639ebdcf35aacb09","bdp_cybrbll","Sun Mar 26 2023 20:21:57 GMT+0200 (Central European Summer Time)","470056","3","1","","","","","","","","","","145","","","","3","1","[{""stimulus"":""img/3to1/1.png"",""time"":101},{""stimulus"":""img/3to1/2.png"",""time"":199},{""stimulus"":""img/3to1/3.png"",""time"":299},{""stimulus"":""img/3to1/4.png"",""time"":398},{""stimulus"":""img/3to1/5.png"",""time"":497},{""stimulus"":""img/3to1/6.png"",""time"":597},{""stimulus"":""img/3to1/7.png"",""time"":695},{""stimulus"":""img/3to1/8.png"",""time"":795},{""stimulus"":""img/3to1/9.png"",""time"":893},{""stimulus"":""img/3to1/10.png"",""time"":992},{""stimulus"":""img/3to1/11.png"",""time"":1106},{""stimulus"":""img/3to1/12.png"",""time"":1190}]","[]",""
"image-keyboard-response","166","215627","0.0-5.0-1.81","63e5ffdf639ebdcf35aacb09","bdp_cybrbll","Sun Mar 26 2023 20:21:57 GMT+0200 (Central European Summer Time)","470056","3","1","","null","","","","observe","","img/1to3/1.png","null","144","1249","0.5","0.1","1","3","","",""
"animation","167","216915","0.0-5.0-2.81","63e5ffdf639ebdcf35aacb09","bdp_cybrbll","Sun Mar 26 2023 20:21:57 GMT+0200 (Central European Summer Time)","470056","3","1","","","","","","","","","","144","","","","1","3","[{""stimulus"":""img/1to3/1.png"",""time"":100},{""stimulus"":""img/1to3/2.png"",""time"":200},{""stimulus"":""img/1to3/3.png"",""time"":299},{""stimulus"":""img/1to3/4.png"",""time"":399},{""stimulus"":""img/1to3/5.png"",""time"":498},{""stimulus"":""img/1to3/6.png"",""time"":596},{""stimulus"":""img/1to3/7.png"",""time"":694},{""stimulus"":""img/1to3/8.png"",""time"":793},{""stimulus"":""img/1to3/9.png"",""time"":893},{""stimulus"":""img/1to3/10.png"",""time"":992},{""stimulus"":""img/1to3/11.png"",""time"":1091},{""stimulus"":""img/1to3/12.png"",""time"":1191}]","[]",""
"image-keyboard-response","168","217107","0.0-5.0-1.82","63e5ffdf639ebdcf35aacb09","bdp_cybrbll","Sun Mar 26 2023 20:21:57 GMT+0200 (Central European Summer Time)","470056","3","1","","null","","","","observe","","img/3to2/1.png","null","143","189","0.5","0.1","3","2","","",""
"animation","169","218395","0.0-5.0-2.82","63e5ffdf639ebdcf35aacb09","bdp_cybrbll","Sun Mar 26 2023 20:21:57 GMT+0200 (Central European Summer Time)","470056","3","1","","","","","","","","","","143","","","","3","2","[{""stimulus"":""img/3to2/1.png"",""time"":101},{""stimulus"":""img/3to2/2.png"",""time"":200},{""stimulus"":""img/3to2/3.png"",""time"":299},{""stimulus"":""img/3to2/4.png"",""time"":398},{""stimulus"":""img/3to2/5.png"",""time"":497},{""stimulus"":""img/3to2/6.png"",""time"":595},{""stimulus"":""img/3to2/7.png"",""time"":694},{""stimulus"":""img/3to2/8.png"",""time"":794},{""stimulus"":""img/3to2/9.png"",""time"":893},{""stimulus"":""img/3to2/10.png"",""time"":999},{""stimulus"":""img/3to2/11.png"",""time"":1090},{""stimulus"":""img/3to2/12.png"",""time"":1189}]","[]",""
"image-keyboard-response","170","218472","0.0-5.0-1.83","63e5ffdf639ebdcf35aacb09","bdp_cybrbll","Sun Mar 26 2023 20:21:57 GMT+0200 (Central European Summer Time)","470056","3","1","","75","","","","choice","","img/2to1/1.png","1","142","355","0.5","0.1","2","1","","",""
"animation","171","219761","0.0-5.0-2.83","63e5ffdf639ebdcf35aacb09","bdp_cybrbll","Sun Mar 26 2023 20:21:57 GMT+0200 (Central European Summer Time)","470056","3","1","","","","","","","","","","142","","","","2","1","[{""stimulus"":""img/2to1/1.png"",""time"":101},{""stimulus"":""img/2to1/2.png"",""time"":200},{""stimulus"":""img/2to1/3.png"",""time"":299},{""stimulus"":""img/2to1/4.png"",""time"":399},{""stimulus"":""img/2to1/5.png"",""time"":497},{""stimulus"":""img/2to1/6.png"",""time"":596},{""stimulus"":""img/2to1/7.png"",""time"":695},{""stimulus"":""img/2to1/8.png"",""time"":794},{""stimulus"":""img/2to1/9.png"",""time"":893},{""stimulus"":""img/2to1/10.png"",""time"":993},{""stimulus"":""img/2to1/11.png"",""time"":1091},{""stimulus"":""img/2to1/12.png"",""time"":1190}]","[]",""
"image-keyboard-response","172","220118","0.0-5.0-1.84","63e5ffdf639ebdcf35aacb09","bdp_cybrbll","Sun Mar 26 2023 20:21:57 GMT+0200 (Central European Summer Time)","470056","3","1","","null","","","","observe","","img/1to3/1.png","null","141","354","0.5","0.1","1","3","","",""
"animation","173","221406","0.0-5.0-2.84","63e5ffdf639ebdcf35aacb09","bdp_cybrbll","Sun Mar 26 2023 20:21:57 GMT+0200 (Central European Summer Time)","470056","3","1","","","","","","","","","","141","","","","1","3","[{""stimulus"":""img/1to3/1.png"",""time"":101},{""stimulus"":""img/1to3/2.png"",""time"":201},{""stimulus"":""img/1to3/3.png"",""time"":299},{""stimulus"":""img/1to3/4.png"",""time"":398},{""stimulus"":""img/1to3/5.png"",""time"":497},{""stimulus"":""img/1to3/6.png"",""time"":598},{""stimulus"":""img/1to3/7.png"",""time"":694},{""stimulus"":""img/1to3/8.png"",""time"":794},{""stimulus"":""img/1to3/9.png"",""time"":893},{""stimulus"":""img/1to3/10.png"",""time"":993},{""stimulus"":""img/1to3/11.png"",""time"":1091},{""stimulus"":""img/1to3/12.png"",""time"":1190}]","[]",""
"image-keyboard-response","174","221917","0.0-5.0-1.85","63e5ffdf639ebdcf35aacb09","bdp_cybrbll","Sun Mar 26 2023 20:21:57 GMT+0200 (Central European Summer Time)","470056","3","1","","null","","","","observe","","img/3to2/1.png","null","140","509","0.5","0.1","3","1","","",""
"animation","175","223205","0.0-5.0-2.85","63e5ffdf639ebdcf35aacb09","bdp_cybrbll","Sun Mar 26 2023 20:21:57 GMT+0200 (Central European Summer Time)","470056","3","1","","","","","","","","","","140","","","","3","1","[{""stimulus"":""img/3to1/1.png"",""time"":101},{""stimulus"":""img/3to1/2.png"",""time"":200},{""stimulus"":""img/3to1/3.png"",""time"":299},{""stimulus"":""img/3to1/4.png"",""time"":398},{""stimulus"":""img/3to1/5.png"",""time"":497},{""stimulus"":""img/3to1/6.png"",""time"":596},{""stimulus"":""img/3to1/7.png"",""time"":696},{""stimulus"":""img/3to1/8.png"",""time"":794},{""stimulus"":""img/3to1/9.png"",""time"":893},{""stimulus"":""img/3to1/10.png"",""time"":992},{""stimulus"":""img/3to1/11.png"",""time"":1091},{""stimulus"":""img/3to1/12.png"",""time"":1190}]","[]",""
"image-keyboard-response","176","223515","0.0-5.0-1.86","63e5ffdf639ebdcf35aacb09","bdp_cybrbll","Sun Mar 26 2023 20:21:57 GMT+0200 (Central European Summer Time)","470056","3","1","","null","","","","observe","","img/1to3/1.png","null","139","307","0.5","0.1","1","3","","",""
"animation","177","224804","0.0-5.0-2.86","63e5ffdf639ebdcf35aacb09","bdp_cybrbll","Sun Mar 26 2023 20:21:57 GMT+0200 (Central European Summer Time)","470056","3","1","","","","","","","","","","139","","","","1","3","[{""stimulus"":""img/1to3/1.png"",""time"":101},{""stimulus"":""img/1to3/2.png"",""time"":200},{""stimulus"":""img/1to3/3.png"",""time"":300},{""stimulus"":""img/1to3/4.png"",""time"":399},{""stimulus"":""img/1to3/5.png"",""time"":497},{""stimulus"":""img/1to3/6.png"",""time"":596},{""stimulus"":""img/1to3/7.png"",""time"":695},{""stimulus"":""img/1to3/8.png"",""time"":794},{""stimulus"":""img/1to3/9.png"",""time"":894},{""stimulus"":""img/1to3/10.png"",""time"":992},{""stimulus"":""img/1to3/11.png"",""time"":1091},{""stimulus"":""img/1to3/12.png"",""time"":1191}]","[]",""
"image-keyboard-response","178","225067","0.0-5.0-1.87","63e5ffdf639ebdcf35aacb09","bdp_cybrbll","Sun Mar 26 2023 20:21:57 GMT+0200 (Central European Summer Time)","470056","3","1","","null","","","","observe","","img/3to2/1.png","null","138","262","0.5","0.1","3","2","","",""
"animation","179","226356","0.0-5.0-2.87","63e5ffdf639ebdcf35aacb09","bdp_cybrbll","Sun Mar 26 2023 20:21:57 GMT+0200 (Central European Summer Time)","470056","3","1","","","","","","","","","","138","","","","3","2","[{""stimulus"":""img/3to2/1.png"",""time"":117},{""stimulus"":""img/3to2/2.png"",""time"":200},{""stimulus"":""img/3to2/3.png"",""time"":299},{""stimulus"":""img/3to2/4.png"",""time"":398},{""stimulus"":""img/3to2/5.png"",""time"":497},{""stimulus"":""img/3to2/6.png"",""time"":597},{""stimulus"":""img/3to2/7.png"",""time"":695},{""stimulus"":""img/3to2/8.png"",""time"":794},{""stimulus"":""img/3to2/9.png"",""time"":893},{""stimulus"":""img/3to2/10.png"",""time"":992},{""stimulus"":""img/3to2/11.png"",""time"":1091},{""stimulus"":""img/3to2/12.png"",""time"":1190}]","[]",""
"image-keyboard-response","180","226456","0.0-5.0-1.88","63e5ffdf639ebdcf35aacb09","bdp_cybrbll","Sun Mar 26 2023 20:21:57 GMT+0200 (Central European Summer Time)","470056","3","1","","99","","","","choice","","img/2to1/1.png","2","137","269","0.5","0.1","2","3","","",""
"animation","181","227745","0.0-5.0-2.88","63e5ffdf639ebdcf35aacb09","bdp_cybrbll","Sun Mar 26 2023 20:21:57 GMT+0200 (Central European Summer Time)","470056","3","1","","","","","","","","","","137","","","","2","3","[{""stimulus"":""img/2to3/1.png"",""time"":100},{""stimulus"":""img/2to3/2.png"",""time"":199},{""stimulus"":""img/2to3/3.png"",""time"":299},{""stimulus"":""img/2to3/4.png"",""time"":398},{""stimulus"":""img/2to3/5.png"",""time"":496},{""stimulus"":""img/2to3/6.png"",""time"":595},{""stimulus"":""img/2to3/7.png"",""time"":694},{""stimulus"":""img/2to3/8.png"",""time"":794},{""stimulus"":""img/2to3/9.png"",""time"":892},{""stimulus"":""img/2to3/10.png"",""time"":992},{""stimulus"":""img/2to3/11.png"",""time"":1091},{""stimulus"":""img/2to3/12.png"",""time"":1190}]","[]",""
"image-keyboard-response","182","227997","0.0-5.0-1.89","63e5ffdf639ebdcf35aacb09","bdp_cybrbll","Sun Mar 26 2023 20:21:57 GMT+0200 (Central European Summer Time)","470056","3","1","","null","","","","observe","","img/3to2/1.png","null","136","249","0.5","0.1","3","1","","",""
"animation","183","229286","0.0-5.0-2.89","63e5ffdf639ebdcf35aacb09","bdp_cybrbll","Sun Mar 26 2023 20:21:57 GMT+0200 (Central European Summer Time)","470056","3","1","","","","","","","","","","136","","","","3","1","[{""stimulus"":""img/3to1/1.png"",""time"":100},{""stimulus"":""img/3to1/2.png"",""time"":200},{""stimulus"":""img/3to1/3.png"",""time"":299},{""stimulus"":""img/3to1/4.png"",""time"":399},{""stimulus"":""img/3to1/5.png"",""time"":496},{""stimulus"":""img/3to1/6.png"",""time"":595},{""stimulus"":""img/3to1/7.png"",""time"":694},{""stimulus"":""img/3to1/8.png"",""time"":794},{""stimulus"":""img/3to1/9.png"",""time"":893},{""stimulus"":""img/3to1/10.png"",""time"":992},{""stimulus"":""img/3to1/11.png"",""time"":1090},{""stimulus"":""img/3to1/12.png"",""time"":1190}]","[]",""
"image-keyboard-response","184","230200","0.0-5.0-1.90","63e5ffdf639ebdcf35aacb09","bdp_cybrbll","Sun Mar 26 2023 20:21:57 GMT+0200 (Central European Summer Time)","470056","3","1","","null","","","","observe","","img/1to3/1.png","null","135","911","0.5","0.1","1","3","","",""
"animation","185","231498","0.0-5.0-2.90","63e5ffdf639ebdcf35aacb09","bdp_cybrbll","Sun Mar 26 2023 20:21:57 GMT+0200 (Central European Summer Time)","470056","3","1","","","","","","","","","","135","","","","1","3","[{""stimulus"":""img/1to3/1.png"",""time"":101},{""stimulus"":""img/1to3/2.png"",""time"":199},{""stimulus"":""img/1to3/3.png"",""time"":299},{""stimulus"":""img/1to3/4.png"",""time"":398},{""stimulus"":""img/1to3/5.png"",""time"":498},{""stimulus"":""img/1to3/6.png"",""time"":610},{""stimulus"":""img/1to3/7.png"",""time"":694},{""stimulus"":""img/1to3/8.png"",""time"":794},{""stimulus"":""img/1to3/9.png"",""time"":893},{""stimulus"":""img/1to3/10.png"",""time"":992},{""stimulus"":""img/1to3/11.png"",""time"":1092},{""stimulus"":""img/1to3/12.png"",""time"":1190}]","[]",""
"image-keyboard-response","186","232080","0.0-5.0-1.91","63e5ffdf639ebdcf35aacb09","bdp_cybrbll","Sun Mar 26 2023 20:21:57 GMT+0200 (Central European Summer Time)","470056","3","1","","null","","","","observe","","img/3to2/1.png","null","134","579","0.5","0.1","3","2","","",""
