"event","trial","time","trialtype","numBlurs","subject_id","task","startTime","totalTime","fairPartner","unfairPartner","trial_type","trial_index","time_elapsed","internal_node_id","view_history","rt","success","stimulus","key_press","throwsLeft","rtDur","pFair","pUnfair","holder","receiver","animation_sequence","responses"
"blur","0","0","blurevent","1","63ed4bdcb1977e991fe4f095","bdp_cybrbll","Sat Mar 25 2023 21:16:59 GMT-0500 (Central Daylight Time)","476631","1","3","","","","","","","","","","","","","","","","",""
"focus","0","0","focusevent","","63ed4bdcb1977e991fe4f095","bdp_cybrbll","Sat Mar 25 2023 21:16:59 GMT-0500 (Central Daylight Time)","476631","1","3","","","","","","","","","","","","","","","","",""
"blur","0","0","blurevent","","63ed4bdcb1977e991fe4f095","bdp_cybrbll","Sat Mar 25 2023 21:16:59 GMT-0500 (Central Daylight Time)","476631","1","3","","","","","","","","","","","","","","","","",""
"focus","0","0","focusevent","","63ed4bdcb1977e991fe4f095","bdp_cybrbll","Sat Mar 25 2023 21:16:59 GMT-0500 (Central Daylight Time)","476631","1","3","","","","","","","","","","","","","","","","",""
"","","","","","63ed4bdcb1977e991fe4f095","bdp_cybrbll","Sat Mar 25 2023 21:16:59 GMT-0500 (Central Daylight Time)","476631","1","3","pavlovia","0","3","0.0-0.0","","","","","","","","","","","","",""
"","","","","","63ed4bdcb1977e991fe4f095","bdp_cybrbll","Sat Mar 25 2023 21:16:59 GMT-0500 (Central Daylight Time)","476631","1","3","instructions","1","12912","0.0-1.0","[{""page_index"":0,""viewing_time"":12908}]","12908","","","","","","","","","","",""
"fullscreenenter","2","15794","fullscreenenter","","63ed4bdcb1977e991fe4f095","bdp_cybrbll","Sat Mar 25 2023 21:16:59 GMT-0500 (Central Daylight Time)","476631","1","3","","","","","","","","","","","","","","","","",""
"","","","","","63ed4bdcb1977e991fe4f095","bdp_cybrbll","Sat Mar 25 2023 21:16:59 GMT-0500 (Central Daylight Time)","476631","1","3","fullscreen","2","16765","0.0-2.0","","","true","","","","","","","","","",""
"","","","","","63ed4bdcb1977e991fe4f095","bdp_cybrbll","Sat Mar 25 2023 21:16:59 GMT-0500 (Central Daylight Time)","476631","1","3","instructions","3","46992","0.0-4.0","[{""page_index"":0,""viewing_time"":30225}]","30225","","","","","","","","","","",""
"","","","blurwarn","1","63ed4bdcb1977e991fe4f095","bdp_cybrbll","Sat Mar 25 2023 21:16:59 GMT-0500 (Central Daylight Time)","476631","1","3","image-keyboard-response","4","58697","0.0-5.0-0.0-0.0","","11704","","","49","","","","","","","",""
"","","","choice","","63ed4bdcb1977e991fe4f095","bdp_cybrbll","Sat Mar 25 2023 21:16:59 GMT-0500 (Central Daylight Time)","476631","1","3","image-keyboard-response","5","64067","0.0-5.0-1.0","","5112","","img/2to1/1.png","1","225","263","0.5","0.5","2","1","",""
"","","","","","63ed4bdcb1977e991fe4f095","bdp_cybrbll","Sat Mar 25 2023 21:16:59 GMT-0500 (Central Daylight Time)","476631","1","3","animation","6","65356","0.0-5.0-2.0","","","","","","225","","","","2","1","[{""stimulus"":""img/2to1/1.png"",""time"":101},{""stimulus"":""img/2to1/2.png"",""time"":200},{""stimulus"":""img/2to1/3.png"",""time"":308},{""stimulus"":""img/2to1/4.png"",""time"":403},{""stimulus"":""img/2to1/5.png"",""time"":498},{""stimulus"":""img/2to1/6.png"",""time"":608},{""stimulus"":""img/2to1/7.png"",""time"":701},{""stimulus"":""img/2to1/8.png"",""time"":797},{""stimulus"":""img/2to1/9.png"",""time"":906},{""stimulus"":""img/2to1/10.png"",""time"":992},{""stimulus"":""img/2to1/11.png"",""time"":1094},{""stimulus"":""img/2to1/12.png"",""time"":1189}]","[]"
"","","","observe","","63ed4bdcb1977e991fe4f095","bdp_cybrbll","Sat Mar 25 2023 21:16:59 GMT-0500 (Central Daylight Time)","476631","1","3","image-keyboard-response","7","66204","0.0-5.0-1.1","","null","","img/1to3/1.png","null","224","834","0.5","0.5","1","2","",""
"","","","","","63ed4bdcb1977e991fe4f095","bdp_cybrbll","Sat Mar 25 2023 21:16:59 GMT-0500 (Central Daylight Time)","476631","1","3","animation","8","67492","0.0-5.0-2.1","","","","","","224","","","","1","2","[{""stimulus"":""img/1to2/1.png"",""time"":110},{""stimulus"":""img/1to2/2.png"",""time"":199},{""stimulus"":""img/1to2/3.png"",""time"":298},{""stimulus"":""img/1to2/4.png"",""time"":409},{""stimulus"":""img/1to2/5.png"",""time"":503},{""stimulus"":""img/1to2/6.png"",""time"":596},{""stimulus"":""img/1to2/7.png"",""time"":704},{""stimulus"":""img/1to2/8.png"",""time"":799},{""stimulus"":""img/1to2/9.png"",""time"":892},{""stimulus"":""img/1to2/10.png"",""time"":1002},{""stimulus"":""img/1to2/11.png"",""time"":1093},{""stimulus"":""img/1to2/12.png"",""time"":1202}]","[]"
"","","","choice","","63ed4bdcb1977e991fe4f095","bdp_cybrbll","Sat Mar 25 2023 21:16:59 GMT-0500 (Central Daylight Time)","476631","1","3","image-keyboard-response","9","67937","0.0-5.0-1.2","","445","","img/2to1/1.png","2","223","341","0.5","0.5","2","3","",""
"","","","","","63ed4bdcb1977e991fe4f095","bdp_cybrbll","Sat Mar 25 2023 21:16:59 GMT-0500 (Central Daylight Time)","476631","1","3","animation","10","69236","0.0-5.0-2.2","","","","","","223","","","","2","3","[{""stimulus"":""img/2to3/1.png"",""time"":109},{""stimulus"":""img/2to3/2.png"",""time"":204},{""stimulus"":""img/2to3/3.png"",""time"":313},{""stimulus"":""img/2to3/4.png"",""time"":405},{""stimulus"":""img/2to3/5.png"",""time"":499},{""stimulus"":""img/2to3/6.png"",""time"":608},{""stimulus"":""img/2to3/7.png"",""time"":694},{""stimulus"":""img/2to3/8.png"",""time"":799},{""stimulus"":""img/2to3/9.png"",""time"":893},{""stimulus"":""img/2to3/10.png"",""time"":1001},{""stimulus"":""img/2to3/11.png"",""time"":1096},{""stimulus"":""img/2to3/12.png"",""time"":1204}]","[]"
"","","","observe","","63ed4bdcb1977e991fe4f095","bdp_cybrbll","Sat Mar 25 2023 21:16:59 GMT-0500 (Central Daylight Time)","476631","1","3","image-keyboard-response","11","69576","0.0-5.0-1.3","","null","","img/3to2/1.png","null","222","339","0.5","0.5","3","2","",""
"","","","","","63ed4bdcb1977e991fe4f095","bdp_cybrbll","Sat Mar 25 2023 21:16:59 GMT-0500 (Central Daylight Time)","476631","1","3","animation","12","70870","0.0-5.0-2.3","","","","","","222","","","","3","2","[{""stimulus"":""img/3to2/1.png"",""time"":109},{""stimulus"":""img/3to2/2.png"",""time"":205},{""stimulus"":""img/3to2/3.png"",""time"":312},{""stimulus"":""img/3to2/4.png"",""time"":405},{""stimulus"":""img/3to2/5.png"",""time"":499},{""stimulus"":""img/3to2/6.png"",""time"":606},{""stimulus"":""img/3to2/7.png"",""time"":699},{""stimulus"":""img/3to2/8.png"",""time"":794},{""stimulus"":""img/3to2/9.png"",""time"":892},{""stimulus"":""img/3to2/10.png"",""time"":991},{""stimulus"":""img/3to2/11.png"",""time"":1089},{""stimulus"":""img/3to2/12.png"",""time"":1200}]","[]"
"","","","choice","","63ed4bdcb1977e991fe4f095","bdp_cybrbll","Sat Mar 25 2023 21:16:59 GMT-0500 (Central Daylight Time)","476631","1","3","image-keyboard-response","13","71517","0.0-5.0-1.4","","646","","img/2to1/1.png","1","221","131","0.5","0.5","2","1","",""
"","","","","","63ed4bdcb1977e991fe4f095","bdp_cybrbll","Sat Mar 25 2023 21:16:59 GMT-0500 (Central Daylight Time)","476631","1","3","animation","14","72815","0.0-5.0-2.4","","","","","","221","","","","2","1","[{""stimulus"":""img/2to1/1.png"",""time"":100},{""stimulus"":""img/2to1/2.png"",""time"":211},{""stimulus"":""img/2to1/3.png"",""time"":306},{""stimulus"":""img/2to1/4.png"",""time"":397},{""stimulus"":""img/2to1/5.png"",""time"":496},{""stimulus"":""img/2to1/6.png"",""time"":596},{""stimulus"":""img/2to1/7.png"",""time"":698},{""stimulus"":""img/2to1/8.png"",""time"":794},{""stimulus"":""img/2to1/9.png"",""time"":892},{""stimulus"":""img/2to1/10.png"",""time"":997},{""stimulus"":""img/2to1/11.png"",""time"":1091},{""stimulus"":""img/2to1/12.png"",""time"":1203}]","[]"
"","","","observe","","63ed4bdcb1977e991fe4f095","bdp_cybrbll","Sat Mar 25 2023 21:16:59 GMT-0500 (Central Daylight Time)","476631","1","3","image-keyboard-response","15","73002","0.0-5.0-1.5","","null","","img/1to3/1.png","null","220","185","0.5","0.5","1","2","",""
"","","","","","63ed4bdcb1977e991fe4f095","bdp_cybrbll","Sat Mar 25 2023 21:16:59 GMT-0500 (Central Daylight Time)","476631","1","3","animation","16","74299","0.0-5.0-2.5","","","","","","220","","","","1","2","[{""stimulus"":""img/1to2/1.png"",""time"":114},{""stimulus"":""img/1to2/2.png"",""time"":199},{""stimulus"":""img/1to2/3.png"",""time"":303},{""stimulus"":""img/1to2/4.png"",""time"":397},{""stimulus"":""img/1to2/5.png"",""time"":508},{""stimulus"":""img/1to2/6.png"",""time"":602},{""stimulus"":""img/1to2/7.png"",""time"":693},{""stimulus"":""img/1to2/8.png"",""time"":807},{""stimulus"":""img/1to2/9.png"",""time"":903},{""stimulus"":""img/1to2/10.png"",""time"":991},{""stimulus"":""img/1to2/11.png"",""time"":1093},{""stimulus"":""img/1to2/12.png"",""time"":1196}]","[]"
"","","","choice","","63ed4bdcb1977e991fe4f095","bdp_cybrbll","Sat Mar 25 2023 21:16:59 GMT-0500 (Central Daylight Time)","476631","1","3","image-keyboard-response","17","75560","0.0-5.0-1.6","","1260","","img/2to1/1.png","2","219","513","0.5","0.5","2","3","",""
"","","","","","63ed4bdcb1977e991fe4f095","bdp_cybrbll","Sat Mar 25 2023 21:16:59 GMT-0500 (Central Daylight Time)","476631","1","3","animation","18","76859","0.0-5.0-2.6","","","","","","219","","","","2","3","[{""stimulus"":""img/2to3/1.png"",""time"":100},{""stimulus"":""img/2to3/2.png"",""time"":202},{""stimulus"":""img/2to3/3.png"",""time"":312},{""stimulus"":""img/2to3/4.png"",""time"":397},{""stimulus"":""img/2to3/5.png"",""time"":500},{""stimulus"":""img/2to3/6.png"",""time"":595},{""stimulus"":""img/2to3/7.png"",""time"":704},{""stimulus"":""img/2to3/8.png"",""time"":793},{""stimulus"":""img/2to3/9.png"",""time"":892},{""stimulus"":""img/2to3/10.png"",""time"":991},{""stimulus"":""img/2to3/11.png"",""time"":1096},{""stimulus"":""img/2to3/12.png"",""time"":1189}]","[]"
"","","","observe","","63ed4bdcb1977e991fe4f095","bdp_cybrbll","Sat Mar 25 2023 21:16:59 GMT-0500 (Central Daylight Time)","476631","1","3","image-keyboard-response","19","77298","0.0-5.0-1.7","","null","","img/3to2/1.png","null","218","425","0.5","0.5","3","2","",""
"","","","","","63ed4bdcb1977e991fe4f095","bdp_cybrbll","Sat Mar 25 2023 21:16:59 GMT-0500 (Central Daylight Time)","476631","1","3","animation","20","78600","0.0-5.0-2.7","","","","","","218","","","","3","2","[{""stimulus"":""img/3to2/1.png"",""time"":107},{""stimulus"":""img/3to2/2.png"",""time"":198},{""stimulus"":""img/3to2/3.png"",""time"":298},{""stimulus"":""img/3to2/4.png"",""time"":401},{""stimulus"":""img/3to2/5.png"",""time"":496},{""stimulus"":""img/3to2/6.png"",""time"":604},{""stimulus"":""img/3to2/7.png"",""time"":694},{""stimulus"":""img/3to2/8.png"",""time"":793},{""stimulus"":""img/3to2/9.png"",""time"":891},{""stimulus"":""img/3to2/10.png"",""time"":993},{""stimulus"":""img/3to2/11.png"",""time"":1089},{""stimulus"":""img/3to2/12.png"",""time"":1189}]","[]"
"","","","choice","","63ed4bdcb1977e991fe4f095","bdp_cybrbll","Sat Mar 25 2023 21:16:59 GMT-0500 (Central Daylight Time)","476631","1","3","image-keyboard-response","21","78824","0.0-5.0-1.8","","223","","img/2to1/1.png","1","217","355","0.5","0.5","2","1","",""
"","","","","","63ed4bdcb1977e991fe4f095","bdp_cybrbll","Sat Mar 25 2023 21:16:59 GMT-0500 (Central Daylight Time)","476631","1","3","animation","22","80112","0.0-5.0-2.8","","","","","","217","","","","2","1","[{""stimulus"":""img/2to1/1.png"",""time"":100},{""stimulus"":""img/2to1/2.png"",""time"":212},{""stimulus"":""img/2to1/3.png"",""time"":306},{""stimulus"":""img/2to1/4.png"",""time"":397},{""stimulus"":""img/2to1/5.png"",""time"":508},{""stimulus"":""img/2to1/6.png"",""time"":596},{""stimulus"":""img/2to1/7.png"",""time"":697},{""stimulus"":""img/2to1/8.png"",""time"":807},{""stimulus"":""img/2to1/9.png"",""time"":892},{""stimulus"":""img/2to1/10.png"",""time"":991},{""stimulus"":""img/2to1/11.png"",""time"":1101},{""stimulus"":""img/2to1/12.png"",""time"":1189}]","[]"
"","","","observe","","63ed4bdcb1977e991fe4f095","bdp_cybrbll","Sat Mar 25 2023 21:16:59 GMT-0500 (Central Daylight Time)","476631","1","3","image-keyboard-response","23","80452","0.0-5.0-1.9","","null","","img/1to3/1.png","null","216","326","0.5","0.5","1","3","",""
"","","","","","63ed4bdcb1977e991fe4f095","bdp_cybrbll","Sat Mar 25 2023 21:16:59 GMT-0500 (Central Daylight Time)","476631","1","3","animation","24","81751","0.0-5.0-2.9","","","","","","216","","","","1","3","[{""stimulus"":""img/1to3/1.png"",""time"":110},{""stimulus"":""img/1to3/2.png"",""time"":200},{""stimulus"":""img/1to3/3.png"",""time"":298},{""stimulus"":""img/1to3/4.png"",""time"":409},{""stimulus"":""img/1to3/5.png"",""time"":496},{""stimulus"":""img/1to3/6.png"",""time"":595},{""stimulus"":""img/1to3/7.png"",""time"":708},{""stimulus"":""img/1to3/8.png"",""time"":801},{""stimulus"":""img/1to3/9.png"",""time"":896},{""stimulus"":""img/1to3/10.png"",""time"":992},{""stimulus"":""img/1to3/11.png"",""time"":1091},{""stimulus"":""img/1to3/12.png"",""time"":1192}]","[]"
"","","","observe","","63ed4bdcb1977e991fe4f095","bdp_cybrbll","Sat Mar 25 2023 21:16:59 GMT-0500 (Central Daylight Time)","476631","1","3","image-keyboard-response","25","82951","0.0-5.0-1.10","","null","","img/3to2/1.png","null","215","1188","0.5","0.5","3","1","",""
"","","","","","63ed4bdcb1977e991fe4f095","bdp_cybrbll","Sat Mar 25 2023 21:16:59 GMT-0500 (Central Daylight Time)","476631","1","3","animation","26","84250","0.0-5.0-2.10","","","","","","215","","","","3","1","[{""stimulus"":""img/3to1/1.png"",""time"":109},{""stimulus"":""img/3to1/2.png"",""time"":203},{""stimulus"":""img/3to1/3.png"",""time"":312},{""stimulus"":""img/3to1/4.png"",""time"":406},{""stimulus"":""img/3to1/5.png"",""time"":502},{""stimulus"":""img/3to1/6.png"",""time"":595},{""stimulus"":""img/3to1/7.png"",""time"":707},{""stimulus"":""img/3to1/8.png"",""time"":800},{""stimulus"":""img/3to1/9.png"",""time"":895},{""stimulus"":""img/3to1/10.png"",""time"":1002},{""stimulus"":""img/3to1/11.png"",""time"":1095},{""stimulus"":""img/3to1/12.png"",""time"":1189}]","[]"
"","","","observe","","63ed4bdcb1977e991fe4f095","bdp_cybrbll","Sat Mar 25 2023 21:16:59 GMT-0500 (Central Daylight Time)","476631","1","3","image-keyboard-response","27","85230","0.0-5.0-1.11","","null","","img/1to3/1.png","null","214","965","0.5","0.5","1","3","",""
"","","","","","63ed4bdcb1977e991fe4f095","bdp_cybrbll","Sat Mar 25 2023 21:16:59 GMT-0500 (Central Daylight Time)","476631","1","3","animation","28","86518","0.0-5.0-2.11","","","","","","214","","","","1","3","[{""stimulus"":""img/1to3/1.png"",""time"":109},{""stimulus"":""img/1to3/2.png"",""time"":199},{""stimulus"":""img/1to3/3.png"",""time"":299},{""stimulus"":""img/1to3/4.png"",""time"":405},{""stimulus"":""img/1to3/5.png"",""time"":497},{""stimulus"":""img/1to3/6.png"",""time"":595},{""stimulus"":""img/1to3/7.png"",""time"":699},{""stimulus"":""img/1to3/8.png"",""time"":793},{""stimulus"":""img/1to3/9.png"",""time"":893},{""stimulus"":""img/1to3/10.png"",""time"":995},{""stimulus"":""img/1to3/11.png"",""time"":1103},{""stimulus"":""img/1to3/12.png"",""time"":1189}]","[]"
"","","","observe","","63ed4bdcb1977e991fe4f095","bdp_cybrbll","Sat Mar 25 2023 21:16:59 GMT-0500 (Central Daylight Time)","476631","1","3","image-keyboard-response","29","86849","0.0-5.0-1.12","","null","","img/3to2/1.png","null","213","322","0.5","0.5","3","1","",""
"","","","","","63ed4bdcb1977e991fe4f095","bdp_cybrbll","Sat Mar 25 2023 21:16:59 GMT-0500 (Central Daylight Time)","476631","1","3","animation","30","88143","0.0-5.0-2.12","","","","","","213","","","","3","1","[{""stimulus"":""img/3to1/1.png"",""time"":110},{""stimulus"":""img/3to1/2.png"",""time"":205},{""stimulus"":""img/3to1/3.png"",""time"":298},{""stimulus"":""img/3to1/4.png"",""time"":397},{""stimulus"":""img/3to1/5.png"",""time"":501},{""stimulus"":""img/3to1/6.png"",""time"":594},{""stimulus"":""img/3to1/7.png"",""time"":693},{""stimulus"":""img/3to1/8.png"",""time"":794},{""stimulus"":""img/3to1/9.png"",""time"":903},{""stimulus"":""img/3to1/10.png"",""time"":996},{""stimulus"":""img/3to1/11.png"",""time"":1090},{""stimulus"":""img/3to1/12.png"",""time"":1201}]","[]"
"","","","observe","","63ed4bdcb1977e991fe4f095","bdp_cybrbll","Sat Mar 25 2023 21:16:59 GMT-0500 (Central Daylight Time)","476631","1","3","image-keyboard-response","31","88392","0.0-5.0-1.13","","null","","img/1to3/1.png","null","212","235","0.5","0.5","1","3","",""
"","","","","","63ed4bdcb1977e991fe4f095","bdp_cybrbll","Sat Mar 25 2023 21:16:59 GMT-0500 (Central Daylight Time)","476631","1","3","animation","32","89680","0.0-5.0-2.13","","","","","","212","","","","1","3","[{""stimulus"":""img/1to3/1.png"",""time"":110},{""stimulus"":""img/1to3/2.png"",""time"":199},{""stimulus"":""img/1to3/3.png"",""time"":298},{""stimulus"":""img/1to3/4.png"",""time"":398},{""stimulus"":""img/1to3/5.png"",""time"":500},{""stimulus"":""img/1to3/6.png"",""time"":609},{""stimulus"":""img/1to3/7.png"",""time"":694},{""stimulus"":""img/1to3/8.png"",""time"":793},{""stimulus"":""img/1to3/9.png"",""time"":901},{""stimulus"":""img/1to3/10.png"",""time"":994},{""stimulus"":""img/1to3/11.png"",""time"":1102},{""stimulus"":""img/1to3/12.png"",""time"":1189}]","[]"
"","","","observe","","63ed4bdcb1977e991fe4f095","bdp_cybrbll","Sat Mar 25 2023 21:16:59 GMT-0500 (Central Daylight Time)","476631","1","3","image-keyboard-response","33","90677","0.0-5.0-1.14","","null","","img/3to2/1.png","null","211","986","0.5","0.5","3","1","",""
"","","","","","63ed4bdcb1977e991fe4f095","bdp_cybrbll","Sat Mar 25 2023 21:16:59 GMT-0500 (Central Daylight Time)","476631","1","3","animation","34","91967","0.0-5.0-2.14","","","","","","211","","","","3","1","[{""stimulus"":""img/3to1/1.png"",""time"":109},{""stimulus"":""img/3to1/2.png"",""time"":204},{""stimulus"":""img/3to1/3.png"",""time"":311},{""stimulus"":""img/3to1/4.png"",""time"":403},{""stimulus"":""img/3to1/5.png"",""time"":510},{""stimulus"":""img/3to1/6.png"",""time"":603},{""stimulus"":""img/3to1/7.png"",""time"":697},{""stimulus"":""img/3to1/8.png"",""time"":807},{""stimulus"":""img/3to1/9.png"",""time"":892},{""stimulus"":""img/3to1/10.png"",""time"":995},{""stimulus"":""img/3to1/11.png"",""time"":1090},{""stimulus"":""img/3to1/12.png"",""time"":1189}]","[]"
"","","","observe","","63ed4bdcb1977e991fe4f095","bdp_cybrbll","Sat Mar 25 2023 21:16:59 GMT-0500 (Central Daylight Time)","476631","1","3","image-keyboard-response","35","92401","0.0-5.0-1.15","","null","","img/1to3/1.png","null","210","418","0.5","0.5","1","3","",""
"","","","","","63ed4bdcb1977e991fe4f095","bdp_cybrbll","Sat Mar 25 2023 21:16:59 GMT-0500 (Central Daylight Time)","476631","1","3","animation","36","93699","0.0-5.0-2.15","","","","","","210","","","","1","3","[{""stimulus"":""img/1to3/1.png"",""time"":111},{""stimulus"":""img/1to3/2.png"",""time"":199},{""stimulus"":""img/1to3/3.png"",""time"":298},{""stimulus"":""img/1to3/4.png"",""time"":406},{""stimulus"":""img/1to3/5.png"",""time"":501},{""stimulus"":""img/1to3/6.png"",""time"":609},{""stimulus"":""img/1to3/7.png"",""time"":695},{""stimulus"":""img/1to3/8.png"",""time"":793},{""stimulus"":""img/1to3/9.png"",""time"":905},{""stimulus"":""img/1to3/10.png"",""time"":999},{""stimulus"":""img/1to3/11.png"",""time"":1092},{""stimulus"":""img/1to3/12.png"",""time"":1189}]","[]"
"","","","observe","","63ed4bdcb1977e991fe4f095","bdp_cybrbll","Sat Mar 25 2023 21:16:59 GMT-0500 (Central Daylight Time)","476631","1","3","image-keyboard-response","37","93961","0.0-5.0-1.16","","null","","img/3to2/1.png","null","209","261","0.5","0.5","3","2","",""
"","","","","","63ed4bdcb1977e991fe4f095","bdp_cybrbll","Sat Mar 25 2023 21:16:59 GMT-0500 (Central Daylight Time)","476631","1","3","animation","38","95249","0.0-5.0-2.16","","","","","","209","","","","3","2","[{""stimulus"":""img/3to2/1.png"",""time"":111},{""stimulus"":""img/3to2/2.png"",""time"":199},{""stimulus"":""img/3to2/3.png"",""time"":298},{""stimulus"":""img/3to2/4.png"",""time"":397},{""stimulus"":""img/3to2/5.png"",""time"":501},{""stimulus"":""img/3to2/6.png"",""time"":608},{""stimulus"":""img/3to2/7.png"",""time"":694},{""stimulus"":""img/3to2/8.png"",""time"":793},{""stimulus"":""img/3to2/9.png"",""time"":903},{""stimulus"":""img/3to2/10.png"",""time"":991},{""stimulus"":""img/3to2/11.png"",""time"":1090},{""stimulus"":""img/3to2/12.png"",""time"":1190}]","[]"
"","","","choice","","63ed4bdcb1977e991fe4f095","bdp_cybrbll","Sat Mar 25 2023 21:16:59 GMT-0500 (Central Daylight Time)","476631","1","3","image-keyboard-response","39","95625","0.0-5.0-1.17","","376","","img/2to1/1.png","1","208","458","0.5","0.5","2","1","",""
"","","","","","63ed4bdcb1977e991fe4f095","bdp_cybrbll","Sat Mar 25 2023 21:16:59 GMT-0500 (Central Daylight Time)","476631","1","3","animation","40","96924","0.0-5.0-2.17","","","","","","208","","","","2","1","[{""stimulus"":""img/2to1/1.png"",""time"":100},{""stimulus"":""img/2to1/2.png"",""time"":206},{""stimulus"":""img/2to1/3.png"",""time"":299},{""stimulus"":""img/2to1/4.png"",""time"":408},{""stimulus"":""img/2to1/5.png"",""time"":496},{""stimulus"":""img/2to1/6.png"",""time"":594},{""stimulus"":""img/2to1/7.png"",""time"":694},{""stimulus"":""img/2to1/8.png"",""time"":797},{""stimulus"":""img/2to1/9.png"",""time"":892},{""stimulus"":""img/2to1/10.png"",""time"":991},{""stimulus"":""img/2to1/11.png"",""time"":1095},{""stimulus"":""img/2to1/12.png"",""time"":1189}]","[]"
"","","","observe","","63ed4bdcb1977e991fe4f095","bdp_cybrbll","Sat Mar 25 2023 21:16:59 GMT-0500 (Central Daylight Time)","476631","1","3","image-keyboard-response","41","97484","0.0-5.0-1.18","","null","","img/1to3/1.png","null","207","543","0.5","0.5","1","2","",""
"","","","","","63ed4bdcb1977e991fe4f095","bdp_cybrbll","Sat Mar 25 2023 21:16:59 GMT-0500 (Central Daylight Time)","476631","1","3","animation","42","98779","0.0-5.0-2.18","","","","","","207","","","","1","2","[{""stimulus"":""img/1to2/1.png"",""time"":109},{""stimulus"":""img/1to2/2.png"",""time"":198},{""stimulus"":""img/1to2/3.png"",""time"":313},{""stimulus"":""img/1to2/4.png"",""time"":406},{""stimulus"":""img/1to2/5.png"",""time"":499},{""stimulus"":""img/1to2/6.png"",""time"":595},{""stimulus"":""img/1to2/7.png"",""time"":694},{""stimulus"":""img/1to2/8.png"",""time"":800},{""stimulus"":""img/1to2/9.png"",""time"":891},{""stimulus"":""img/1to2/10.png"",""time"":1000},{""stimulus"":""img/1to2/11.png"",""time"":1090},{""stimulus"":""img/1to2/12.png"",""time"":1188}]","[]"
"","","","choice","","63ed4bdcb1977e991fe4f095","bdp_cybrbll","Sat Mar 25 2023 21:16:59 GMT-0500 (Central Daylight Time)","476631","1","3","image-keyboard-response","43","98931","0.0-5.0-1.19","","152","","img/2to1/1.png","1","206","431","0.5","0.5","2","1","",""
"","","","","","63ed4bdcb1977e991fe4f095","bdp_cybrbll","Sat Mar 25 2023 21:16:59 GMT-0500 (Central Daylight Time)","476631","1","3","animation","44","100219","0.0-5.0-2.19","","","","","","206","","","","2","1","[{""stimulus"":""img/2to1/1.png"",""time"":111},{""stimulus"":""img/2to1/2.png"",""time"":204},{""stimulus"":""img/2to1/3.png"",""time"":300},{""stimulus"":""img/2to1/4.png"",""time"":407},{""stimulus"":""img/2to1/5.png"",""time"":500},{""stimulus"":""img/2to1/6.png"",""time"":595},{""stimulus"":""img/2to1/7.png"",""time"":703},{""stimulus"":""img/2to1/8.png"",""time"":797},{""stimulus"":""img/2to1/9.png"",""time"":906},{""stimulus"":""img/2to1/10.png"",""time"":999},{""stimulus"":""img/2to1/11.png"",""time"":1090},{""stimulus"":""img/2to1/12.png"",""time"":1203}]","[]"
"","","","observe","","63ed4bdcb1977e991fe4f095","bdp_cybrbll","Sat Mar 25 2023 21:16:59 GMT-0500 (Central Daylight Time)","476631","1","3","image-keyboard-response","45","100695","0.0-5.0-1.20","","null","","img/1to3/1.png","null","205","468","0.5","0.5","1","3","",""
"","","","","","63ed4bdcb1977e991fe4f095","bdp_cybrbll","Sat Mar 25 2023 21:16:59 GMT-0500 (Central Daylight Time)","476631","1","3","animation","46","101998","0.0-5.0-2.20","","","","","","205","","","","1","3","[{""stimulus"":""img/1to3/1.png"",""time"":109},{""stimulus"":""img/1to3/2.png"",""time"":205},{""stimulus"":""img/1to3/3.png"",""time"":312},{""stimulus"":""img/1to3/4.png"",""time"":405},{""stimulus"":""img/1to3/5.png"",""time"":496},{""stimulus"":""img/1to3/6.png"",""time"":595},{""stimulus"":""img/1to3/7.png"",""time"":693},{""stimulus"":""img/1to3/8.png"",""time"":793},{""stimulus"":""img/1to3/9.png"",""time"":900},{""stimulus"":""img/1to3/10.png"",""time"":992},{""stimulus"":""img/1to3/11.png"",""time"":1100},{""stimulus"":""img/1to3/12.png"",""time"":1194}]","[]"
"","","","observe","","63ed4bdcb1977e991fe4f095","bdp_cybrbll","Sat Mar 25 2023 21:16:59 GMT-0500 (Central Daylight Time)","476631","1","3","image-keyboard-response","47","102615","0.0-5.0-1.21","","null","","img/3to2/1.png","null","204","610","0.5","0.5","3","2","",""
"","","","","","63ed4bdcb1977e991fe4f095","bdp_cybrbll","Sat Mar 25 2023 21:16:59 GMT-0500 (Central Daylight Time)","476631","1","3","animation","48","103902","0.0-5.0-2.21","","","","","","204","","","","3","2","[{""stimulus"":""img/3to2/1.png"",""time"":108},{""stimulus"":""img/3to2/2.png"",""time"":199},{""stimulus"":""img/3to2/3.png"",""time"":311},{""stimulus"":""img/3to2/4.png"",""time"":404},{""stimulus"":""img/3to2/5.png"",""time"":498},{""stimulus"":""img/3to2/6.png"",""time"":607},{""stimulus"":""img/3to2/7.png"",""time"":699},{""stimulus"":""img/3to2/8.png"",""time"":793},{""stimulus"":""img/3to2/9.png"",""time"":893},{""stimulus"":""img/3to2/10.png"",""time"":994},{""stimulus"":""img/3to2/11.png"",""time"":1091},{""stimulus"":""img/3to2/12.png"",""time"":1189}]","[]"
"","","","choice","","63ed4bdcb1977e991fe4f095","bdp_cybrbll","Sat Mar 25 2023 21:16:59 GMT-0500 (Central Daylight Time)","476631","1","3","image-keyboard-response","49","104313","0.0-5.0-1.22","","410","","img/2to1/1.png","2","203","229","0.5","0.5","2","3","",""
"","","","","","63ed4bdcb1977e991fe4f095","bdp_cybrbll","Sat Mar 25 2023 21:16:59 GMT-0500 (Central Daylight Time)","476631","1","3","animation","50","105601","0.0-5.0-2.22","","","","","","203","","","","2","3","[{""stimulus"":""img/2to3/1.png"",""time"":112},{""stimulus"":""img/2to3/2.png"",""time"":206},{""stimulus"":""img/2to3/3.png"",""time"":304},{""stimulus"":""img/2to3/4.png"",""time"":408},{""stimulus"":""img/2to3/5.png"",""time"":497},{""stimulus"":""img/2to3/6.png"",""time"":595},{""stimulus"":""img/2to3/7.png"",""time"":704},{""stimulus"":""img/2to3/8.png"",""time"":797},{""stimulus"":""img/2to3/9.png"",""time"":892},{""stimulus"":""img/2to3/10.png"",""time"":1001},{""stimulus"":""img/2to3/11.png"",""time"":1090},{""stimulus"":""img/2to3/12.png"",""time"":1201}]","[]"
"","","","observe","","63ed4bdcb1977e991fe4f095","bdp_cybrbll","Sat Mar 25 2023 21:16:59 GMT-0500 (Central Daylight Time)","476631","1","3","image-keyboard-response","51","105851","0.0-5.0-1.23","","null","","img/3to2/1.png","null","202","249","0.5","0.5","3","1","",""
"","","","","","63ed4bdcb1977e991fe4f095","bdp_cybrbll","Sat Mar 25 2023 21:16:59 GMT-0500 (Central Daylight Time)","476631","1","3","animation","52","107139","0.0-5.0-2.23","","","","","","202","","","","3","1","[{""stimulus"":""img/3to1/1.png"",""time"":114},{""stimulus"":""img/3to1/2.png"",""time"":199},{""stimulus"":""img/3to1/3.png"",""time"":302},{""stimulus"":""img/3to1/4.png"",""time"":398},{""stimulus"":""img/3to1/5.png"",""time"":496},{""stimulus"":""img/3to1/6.png"",""time"":605},{""stimulus"":""img/3to1/7.png"",""time"":694},{""stimulus"":""img/3to1/8.png"",""time"":807},{""stimulus"":""img/3to1/9.png"",""time"":902},{""stimulus"":""img/3to1/10.png"",""time"":994},{""stimulus"":""img/3to1/11.png"",""time"":1091},{""stimulus"":""img/3to1/12.png"",""time"":1196}]","[]"
"","","","observe","","63ed4bdcb1977e991fe4f095","bdp_cybrbll","Sat Mar 25 2023 21:16:59 GMT-0500 (Central Daylight Time)","476631","1","3","image-keyboard-response","53","107720","0.0-5.0-1.24","","null","","img/1to3/1.png","null","201","579","0.5","0.5","1","2","",""
"","","","","","63ed4bdcb1977e991fe4f095","bdp_cybrbll","Sat Mar 25 2023 21:16:59 GMT-0500 (Central Daylight Time)","476631","1","3","animation","54","109019","0.0-5.0-2.24","","","","","","201","","","","1","2","[{""stimulus"":""img/1to2/1.png"",""time"":108},{""stimulus"":""img/1to2/2.png"",""time"":199},{""stimulus"":""img/1to2/3.png"",""time"":299},{""stimulus"":""img/1to2/4.png"",""time"":408},{""stimulus"":""img/1to2/5.png"",""time"":497},{""stimulus"":""img/1to2/6.png"",""time"":609},{""stimulus"":""img/1to2/7.png"",""time"":694},{""stimulus"":""img/1to2/8.png"",""time"":794},{""stimulus"":""img/1to2/9.png"",""time"":893},{""stimulus"":""img/1to2/10.png"",""time"":991},{""stimulus"":""img/1to2/11.png"",""time"":1090},{""stimulus"":""img/1to2/12.png"",""time"":1204}]","[]"
"","","","choice","","63ed4bdcb1977e991fe4f095","bdp_cybrbll","Sat Mar 25 2023 21:16:59 GMT-0500 (Central Daylight Time)","476631","1","3","image-keyboard-response","55","109506","0.0-5.0-1.25","","487","","img/2to1/1.png","2","200","406","0.5","0.5","2","3","",""
"","","","","","63ed4bdcb1977e991fe4f095","bdp_cybrbll","Sat Mar 25 2023 21:16:59 GMT-0500 (Central Daylight Time)","476631","1","3","animation","56","110794","0.0-5.0-2.25","","","","","","200","","","","2","3","[{""stimulus"":""img/2to3/1.png"",""time"":100},{""stimulus"":""img/2to3/2.png"",""time"":199},{""stimulus"":""img/2to3/3.png"",""time"":306},{""stimulus"":""img/2to3/4.png"",""time"":397},{""stimulus"":""img/2to3/5.png"",""time"":495},{""stimulus"":""img/2to3/6.png"",""time"":595},{""stimulus"":""img/2to3/7.png"",""time"":697},{""stimulus"":""img/2to3/8.png"",""time"":793},{""stimulus"":""img/2to3/9.png"",""time"":892},{""stimulus"":""img/2to3/10.png"",""time"":993},{""stimulus"":""img/2to3/11.png"",""time"":1102},{""stimulus"":""img/2to3/12.png"",""time"":1198}]","[]"
"","","","observe","","63ed4bdcb1977e991fe4f095","bdp_cybrbll","Sat Mar 25 2023 21:16:59 GMT-0500 (Central Daylight Time)","476631","1","3","image-keyboard-response","57","111291","0.0-5.0-1.26","","null","","img/3to2/1.png","null","199","481","0.5","0.5","3","1","",""
"","","","","","63ed4bdcb1977e991fe4f095","bdp_cybrbll","Sat Mar 25 2023 21:16:59 GMT-0500 (Central Daylight Time)","476631","1","3","animation","58","112587","0.0-5.0-2.26","","","","","","199","","","","3","1","[{""stimulus"":""img/3to1/1.png"",""time"":110},{""stimulus"":""img/3to1/2.png"",""time"":205},{""stimulus"":""img/3to1/3.png"",""time"":299},{""stimulus"":""img/3to1/4.png"",""time"":397},{""stimulus"":""img/3to1/5.png"",""time"":496},{""stimulus"":""img/3to1/6.png"",""time"":608},{""stimulus"":""img/3to1/7.png"",""time"":702},{""stimulus"":""img/3to1/8.png"",""time"":793},{""stimulus"":""img/3to1/9.png"",""time"":892},{""stimulus"":""img/3to1/10.png"",""time"":998},{""stimulus"":""img/3to1/11.png"",""time"":1091},{""stimulus"":""img/3to1/12.png"",""time"":1201}]","[]"
"","","","observe","","63ed4bdcb1977e991fe4f095","bdp_cybrbll","Sat Mar 25 2023 21:16:59 GMT-0500 (Central Daylight Time)","476631","1","3","image-keyboard-response","59","112990","0.0-5.0-1.27","","null","","img/1to3/1.png","null","198","391","0.5","0.5","1","2","",""
"","","","","","63ed4bdcb1977e991fe4f095","bdp_cybrbll","Sat Mar 25 2023 21:16:59 GMT-0500 (Central Daylight Time)","476631","1","3","animation","60","114286","0.0-5.0-2.27","","","","","","198","","","","1","2","[{""stimulus"":""img/1to2/1.png"",""time"":107},{""stimulus"":""img/1to2/2.png"",""time"":199},{""stimulus"":""img/1to2/3.png"",""time"":297},{""stimulus"":""img/1to2/4.png"",""time"":396},{""stimulus"":""img/1to2/5.png"",""time"":500},{""stimulus"":""img/1to2/6.png"",""time"":609},{""stimulus"":""img/1to2/7.png"",""time"":702},{""stimulus"":""img/1to2/8.png"",""time"":796},{""stimulus"":""img/1to2/9.png"",""time"":892},{""stimulus"":""img/1to2/10.png"",""time"":991},{""stimulus"":""img/1to2/11.png"",""time"":1093},{""stimulus"":""img/1to2/12.png"",""time"":1202}]","[]"
"","","","choice","","63ed4bdcb1977e991fe4f095","bdp_cybrbll","Sat Mar 25 2023 21:16:59 GMT-0500 (Central Daylight Time)","476631","1","3","image-keyboard-response","61","115369","0.0-5.0-1.28","","1083","","img/2to1/1.png","2","197","199","0.5","0.5","2","3","",""
"","","","","","63ed4bdcb1977e991fe4f095","bdp_cybrbll","Sat Mar 25 2023 21:16:59 GMT-0500 (Central Daylight Time)","476631","1","3","animation","62","116662","0.0-5.0-2.28","","","","","","197","","","","2","3","[{""stimulus"":""img/2to3/1.png"",""time"":115},{""stimulus"":""img/2to3/2.png"",""time"":210},{""stimulus"":""img/2to3/3.png"",""time"":301},{""stimulus"":""img/2to3/4.png"",""time"":397},{""stimulus"":""img/2to3/5.png"",""time"":503},{""stimulus"":""img/2to3/6.png"",""time"":595},{""stimulus"":""img/2to3/7.png"",""time"":704},{""stimulus"":""img/2to3/8.png"",""time"":798},{""stimulus"":""img/2to3/9.png"",""time"":892},{""stimulus"":""img/2to3/10.png"",""time"":998},{""stimulus"":""img/2to3/11.png"",""time"":1091},{""stimulus"":""img/2to3/12.png"",""time"":1200}]","[]"
"","","","observe","","63ed4bdcb1977e991fe4f095","bdp_cybrbll","Sat Mar 25 2023 21:16:59 GMT-0500 (Central Daylight Time)","476631","1","3","image-keyboard-response","63","117005","0.0-5.0-1.29","","null","","img/3to2/1.png","null","196","334","0.5","0.5","3","2","",""
"","","","","","63ed4bdcb1977e991fe4f095","bdp_cybrbll","Sat Mar 25 2023 21:16:59 GMT-0500 (Central Daylight Time)","476631","1","3","animation","64","118305","0.0-5.0-2.29","","","","","","196","","","","3","2","[{""stimulus"":""img/3to2/1.png"",""time"":107},{""stimulus"":""img/3to2/2.png"",""time"":199},{""stimulus"":""img/3to2/3.png"",""time"":297},{""stimulus"":""img/3to2/4.png"",""time"":397},{""stimulus"":""img/3to2/5.png"",""time"":495},{""stimulus"":""img/3to2/6.png"",""time"":602},{""stimulus"":""img/3to2/7.png"",""time"":697},{""stimulus"":""img/3to2/8.png"",""time"":793},{""stimulus"":""img/3to2/9.png"",""time"":898},{""stimulus"":""img/3to2/10.png"",""time"":1005},{""stimulus"":""img/3to2/11.png"",""time"":1090},{""stimulus"":""img/3to2/12.png"",""time"":1189}]","[]"
"","","","choice","","63ed4bdcb1977e991fe4f095","bdp_cybrbll","Sat Mar 25 2023 21:16:59 GMT-0500 (Central Daylight Time)","476631","1","3","image-keyboard-response","65","118345","0.0-5.0-1.30","","40","","img/2to1/1.png","1","195","195","0.5","0.5","2","1","",""
"","","","","","63ed4bdcb1977e991fe4f095","bdp_cybrbll","Sat Mar 25 2023 21:16:59 GMT-0500 (Central Daylight Time)","476631","1","3","animation","66","119646","0.0-5.0-2.30","","","","","","195","","","","2","1","[{""stimulus"":""img/2to1/1.png"",""time"":100},{""stimulus"":""img/2to1/2.png"",""time"":209},{""stimulus"":""img/2to1/3.png"",""time"":303},{""stimulus"":""img/2to1/4.png"",""time"":410},{""stimulus"":""img/2to1/5.png"",""time"":505},{""stimulus"":""img/2to1/6.png"",""time"":600},{""stimulus"":""img/2to1/7.png"",""time"":695},{""stimulus"":""img/2to1/8.png"",""time"":801},{""stimulus"":""img/2to1/9.png"",""time"":891},{""stimulus"":""img/2to1/10.png"",""time"":1002},{""stimulus"":""img/2to1/11.png"",""time"":1089},{""stimulus"":""img/2to1/12.png"",""time"":1189}]","[]"
"","","","observe","","63ed4bdcb1977e991fe4f095","bdp_cybrbll","Sat Mar 25 2023 21:16:59 GMT-0500 (Central Daylight Time)","476631","1","3","image-keyboard-response","67","120157","0.0-5.0-1.31","","null","","img/1to3/1.png","null","194","510","0.5","0.5","1","3","",""
"","","","","","63ed4bdcb1977e991fe4f095","bdp_cybrbll","Sat Mar 25 2023 21:16:59 GMT-0500 (Central Daylight Time)","476631","1","3","animation","68","121455","0.0-5.0-2.31","","","","","","194","","","","1","3","[{""stimulus"":""img/1to3/1.png"",""time"":109},{""stimulus"":""img/1to3/2.png"",""time"":199},{""stimulus"":""img/1to3/3.png"",""time"":313},{""stimulus"":""img/1to3/4.png"",""time"":406},{""stimulus"":""img/1to3/5.png"",""time"":501},{""stimulus"":""img/1to3/6.png"",""time"":595},{""stimulus"":""img/1to3/7.png"",""time"":707},{""stimulus"":""img/1to3/8.png"",""time"":801},{""stimulus"":""img/1to3/9.png"",""time"":894},{""stimulus"":""img/1to3/10.png"",""time"":991},{""stimulus"":""img/1to3/11.png"",""time"":1090},{""stimulus"":""img/1to3/12.png"",""time"":1204}]","[]"
"","","","observe","","63ed4bdcb1977e991fe4f095","bdp_cybrbll","Sat Mar 25 2023 21:16:59 GMT-0500 (Central Daylight Time)","476631","1","3","image-keyboard-response","69","121877","0.0-5.0-1.32","","null","","img/3to2/1.png","null","193","408","0.5","0.5","3","1","",""
"","","","","","63ed4bdcb1977e991fe4f095","bdp_cybrbll","Sat Mar 25 2023 21:16:59 GMT-0500 (Central Daylight Time)","476631","1","3","animation","70","123164","0.0-5.0-2.32","","","","","","193","","","","3","1","[{""stimulus"":""img/3to1/1.png"",""time"":107},{""stimulus"":""img/3to1/2.png"",""time"":202},{""stimulus"":""img/3to1/3.png"",""time"":298},{""stimulus"":""img/3to1/4.png"",""time"":404},{""stimulus"":""img/3to1/5.png"",""time"":496},{""stimulus"":""img/3to1/6.png"",""time"":594},{""stimulus"":""img/3to1/7.png"",""time"":702},{""stimulus"":""img/3to1/8.png"",""time"":795},{""stimulus"":""img/3to1/9.png"",""time"":892},{""stimulus"":""img/3to1/10.png"",""time"":1001},{""stimulus"":""img/3to1/11.png"",""time"":1093},{""stimulus"":""img/3to1/12.png"",""time"":1202}]","[]"
"","","","observe","","63ed4bdcb1977e991fe4f095","bdp_cybrbll","Sat Mar 25 2023 21:16:59 GMT-0500 (Central Daylight Time)","476631","1","3","image-keyboard-response","71","123314","0.0-5.0-1.33","","null","","img/1to3/1.png","null","192","149","0.5","0.5","1","2","",""
"","","","","","63ed4bdcb1977e991fe4f095","bdp_cybrbll","Sat Mar 25 2023 21:16:59 GMT-0500 (Central Daylight Time)","476631","1","3","animation","72","124603","0.0-5.0-2.33","","","","","","192","","","","1","2","[{""stimulus"":""img/1to2/1.png"",""time"":107},{""stimulus"":""img/1to2/2.png"",""time"":199},{""stimulus"":""img/1to2/3.png"",""time"":308},{""stimulus"":""img/1to2/4.png"",""time"":402},{""stimulus"":""img/1to2/5.png"",""time"":496},{""stimulus"":""img/1to2/6.png"",""time"":604},{""stimulus"":""img/1to2/7.png"",""time"":697},{""stimulus"":""img/1to2/8.png"",""time"":794},{""stimulus"":""img/1to2/9.png"",""time"":892},{""stimulus"":""img/1to2/10.png"",""time"":994},{""stimulus"":""img/1to2/11.png"",""time"":1089},{""stimulus"":""img/1to2/12.png"",""time"":1189}]","[]"
"","","","choice","","63ed4bdcb1977e991fe4f095","bdp_cybrbll","Sat Mar 25 2023 21:16:59 GMT-0500 (Central Daylight Time)","476631","1","3","image-keyboard-response","73","125618","0.0-5.0-1.34","","1015","","img/2to1/1.png","2","191","718","0.5","0.5","2","3","",""
"","","","","","63ed4bdcb1977e991fe4f095","bdp_cybrbll","Sat Mar 25 2023 21:16:59 GMT-0500 (Central Daylight Time)","476631","1","3","animation","74","126909","0.0-5.0-2.34","","","","","","191","","","","2","3","[{""stimulus"":""img/2to3/1.png"",""time"":107},{""stimulus"":""img/2to3/2.png"",""time"":199},{""stimulus"":""img/2to3/3.png"",""time"":311},{""stimulus"":""img/2to3/4.png"",""time"":397},{""stimulus"":""img/2to3/5.png"",""time"":496},{""stimulus"":""img/2to3/6.png"",""time"":595},{""stimulus"":""img/2to3/7.png"",""time"":699},{""stimulus"":""img/2to3/8.png"",""time"":807},{""stimulus"":""img/2to3/9.png"",""time"":901},{""stimulus"":""img/2to3/10.png"",""time"":995},{""stimulus"":""img/2to3/11.png"",""time"":1089},{""stimulus"":""img/2to3/12.png"",""time"":1198}]","[]"
"","","","observe","","63ed4bdcb1977e991fe4f095","bdp_cybrbll","Sat Mar 25 2023 21:16:59 GMT-0500 (Central Daylight Time)","476631","1","3","image-keyboard-response","75","127149","0.0-5.0-1.35","","null","","img/3to2/1.png","null","190","239","0.5","0.5","3","1","",""
"","","","","","63ed4bdcb1977e991fe4f095","bdp_cybrbll","Sat Mar 25 2023 21:16:59 GMT-0500 (Central Daylight Time)","476631","1","3","animation","76","128437","0.0-5.0-2.35","","","","","","190","","","","3","1","[{""stimulus"":""img/3to1/1.png"",""time"":104},{""stimulus"":""img/3to1/2.png"",""time"":200},{""stimulus"":""img/3to1/3.png"",""time"":308},{""stimulus"":""img/3to1/4.png"",""time"":397},{""stimulus"":""img/3to1/5.png"",""time"":508},{""stimulus"":""img/3to1/6.png"",""time"":601},{""stimulus"":""img/3to1/7.png"",""time"":695},{""stimulus"":""img/3to1/8.png"",""time"":793},{""stimulus"":""img/3to1/9.png"",""time"":898},{""stimulus"":""img/3to1/10.png"",""time"":1006},{""stimulus"":""img/3to1/11.png"",""time"":1101},{""stimulus"":""img/3to1/12.png"",""time"":1190}]","[]"
"","","","observe","","63ed4bdcb1977e991fe4f095","bdp_cybrbll","Sat Mar 25 2023 21:16:59 GMT-0500 (Central Daylight Time)","476631","1","3","image-keyboard-response","77","128983","0.0-5.0-1.36","","null","","img/1to3/1.png","null","189","541","0.5","0.5","1","2","",""
"","","","","","63ed4bdcb1977e991fe4f095","bdp_cybrbll","Sat Mar 25 2023 21:16:59 GMT-0500 (Central Daylight Time)","476631","1","3","animation","78","130277","0.0-5.0-2.36","","","","","","189","","","","1","2","[{""stimulus"":""img/1to2/1.png"",""time"":110},{""stimulus"":""img/1to2/2.png"",""time"":199},{""stimulus"":""img/1to2/3.png"",""time"":312},{""stimulus"":""img/1to2/4.png"",""time"":405},{""stimulus"":""img/1to2/5.png"",""time"":496},{""stimulus"":""img/1to2/6.png"",""time"":608},{""stimulus"":""img/1to2/7.png"",""time"":702},{""stimulus"":""img/1to2/8.png"",""time"":796},{""stimulus"":""img/1to2/9.png"",""time"":893},{""stimulus"":""img/1to2/10.png"",""time"":998},{""stimulus"":""img/1to2/11.png"",""time"":1092},{""stimulus"":""img/1to2/12.png"",""time"":1201}]","[]"
"","","","choice","","63ed4bdcb1977e991fe4f095","bdp_cybrbll","Sat Mar 25 2023 21:16:59 GMT-0500 (Central Daylight Time)","476631","1","3","image-keyboard-response","79","131624","0.0-5.0-1.37","","1347","","img/2to1/1.png","2","188","946","0.5","0.5","2","3","",""
"","","","","","63ed4bdcb1977e991fe4f095","bdp_cybrbll","Sat Mar 25 2023 21:16:59 GMT-0500 (Central Daylight Time)","476631","1","3","animation","80","132913","0.0-5.0-2.37","","","","","","188","","","","2","3","[{""stimulus"":""img/2to3/1.png"",""time"":100},{""stimulus"":""img/2to3/2.png"",""time"":206},{""stimulus"":""img/2to3/3.png"",""time"":301},{""stimulus"":""img/2to3/4.png"",""time"":409},{""stimulus"":""img/2to3/5.png"",""time"":496},{""stimulus"":""img/2to3/6.png"",""time"":595},{""stimulus"":""img/2to3/7.png"",""time"":694},{""stimulus"":""img/2to3/8.png"",""time"":801},{""stimulus"":""img/2to3/9.png"",""time"":892},{""stimulus"":""img/2to3/10.png"",""time"":1005},{""stimulus"":""img/2to3/11.png"",""time"":1090},{""stimulus"":""img/2to3/12.png"",""time"":1195}]","[]"
"","","","observe","","63ed4bdcb1977e991fe4f095","bdp_cybrbll","Sat Mar 25 2023 21:16:59 GMT-0500 (Central Daylight Time)","476631","1","3","image-keyboard-response","81","133446","0.0-5.0-1.38","","null","","img/3to2/1.png","null","187","532","0.5","0.5","3","2","",""
"","","","","","63ed4bdcb1977e991fe4f095","bdp_cybrbll","Sat Mar 25 2023 21:16:59 GMT-0500 (Central Daylight Time)","476631","1","3","animation","82","134735","0.0-5.0-2.38","","","","","","187","","","","3","2","[{""stimulus"":""img/3to2/1.png"",""time"":101},{""stimulus"":""img/3to2/2.png"",""time"":199},{""stimulus"":""img/3to2/3.png"",""time"":305},{""stimulus"":""img/3to2/4.png"",""time"":397},{""stimulus"":""img/3to2/5.png"",""time"":497},{""stimulus"":""img/3to2/6.png"",""time"":595},{""stimulus"":""img/3to2/7.png"",""time"":694},{""stimulus"":""img/3to2/8.png"",""time"":793},{""stimulus"":""img/3to2/9.png"",""time"":900},{""stimulus"":""img/3to2/10.png"",""time"":991},{""stimulus"":""img/3to2/11.png"",""time"":1091},{""stimulus"":""img/3to2/12.png"",""time"":1189}]","[]"
"","","","choice","","63ed4bdcb1977e991fe4f095","bdp_cybrbll","Sat Mar 25 2023 21:16:59 GMT-0500 (Central Daylight Time)","476631","1","3","image-keyboard-response","83","134878","0.0-5.0-1.39","","142","","img/2to1/1.png","1","186","343","0.5","0.5","2","1","",""
"","","","","","63ed4bdcb1977e991fe4f095","bdp_cybrbll","Sat Mar 25 2023 21:16:59 GMT-0500 (Central Daylight Time)","476631","1","3","animation","84","136165","0.0-5.0-2.39","","","","","","186","","","","2","1","[{""stimulus"":""img/2to1/1.png"",""time"":105},{""stimulus"":""img/2to1/2.png"",""time"":199},{""stimulus"":""img/2to1/3.png"",""time"":308},{""stimulus"":""img/2to1/4.png"",""time"":397},{""stimulus"":""img/2to1/5.png"",""time"":496},{""stimulus"":""img/2to1/6.png"",""time"":595},{""stimulus"":""img/2to1/7.png"",""time"":695},{""stimulus"":""img/2to1/8.png"",""time"":806},{""stimulus"":""img/2to1/9.png"",""time"":900},{""stimulus"":""img/2to1/10.png"",""time"":993},{""stimulus"":""img/2to1/11.png"",""time"":1091},{""stimulus"":""img/2to1/12.png"",""time"":1188}]","[]"
"","","","observe","","63ed4bdcb1977e991fe4f095","bdp_cybrbll","Sat Mar 25 2023 21:16:59 GMT-0500 (Central Daylight Time)","476631","1","3","image-keyboard-response","85","136928","0.0-5.0-1.40","","null","","img/1to3/1.png","null","185","751","0.5","0.5","1","2","",""
"","","","","","63ed4bdcb1977e991fe4f095","bdp_cybrbll","Sat Mar 25 2023 21:16:59 GMT-0500 (Central Daylight Time)","476631","1","3","animation","86","138219","0.0-5.0-2.40","","","","","","185","","","","1","2","[{""stimulus"":""img/1to2/1.png"",""time"":109},{""stimulus"":""img/1to2/2.png"",""time"":199},{""stimulus"":""img/1to2/3.png"",""time"":297},{""stimulus"":""img/1to2/4.png"",""time"":397},{""stimulus"":""img/1to2/5.png"",""time"":496},{""stimulus"":""img/1to2/6.png"",""time"":596},{""stimulus"":""img/1to2/7.png"",""time"":700},{""stimulus"":""img/1to2/8.png"",""time"":793},{""stimulus"":""img/1to2/9.png"",""time"":901},{""stimulus"":""img/1to2/10.png"",""time"":997},{""stimulus"":""img/1to2/11.png"",""time"":1090},{""stimulus"":""img/1to2/12.png"",""time"":1199}]","[]"
"","","","choice","","63ed4bdcb1977e991fe4f095","bdp_cybrbll","Sat Mar 25 2023 21:16:59 GMT-0500 (Central Daylight Time)","476631","1","3","image-keyboard-response","87","139300","0.0-5.0-1.41","","1080","","img/2to1/1.png","2","184","226","0.5","0.5","2","3","",""
"","","","","","63ed4bdcb1977e991fe4f095","bdp_cybrbll","Sat Mar 25 2023 21:16:59 GMT-0500 (Central Daylight Time)","476631","1","3","animation","88","140588","0.0-5.0-2.41","","","","","","184","","","","2","3","[{""stimulus"":""img/2to3/1.png"",""time"":100},{""stimulus"":""img/2to3/2.png"",""time"":205},{""stimulus"":""img/2to3/3.png"",""time"":298},{""stimulus"":""img/2to3/4.png"",""time"":396},{""stimulus"":""img/2to3/5.png"",""time"":500},{""stimulus"":""img/2to3/6.png"",""time"":609},{""stimulus"":""img/2to3/7.png"",""time"":694},{""stimulus"":""img/2to3/8.png"",""time"":795},{""stimulus"":""img/2to3/9.png"",""time"":904},{""stimulus"":""img/2to3/10.png"",""time"":991},{""stimulus"":""img/2to3/11.png"",""time"":1089},{""stimulus"":""img/2to3/12.png"",""time"":1200}]","[]"
"","","","observe","","63ed4bdcb1977e991fe4f095","bdp_cybrbll","Sat Mar 25 2023 21:16:59 GMT-0500 (Central Daylight Time)","476631","1","3","image-keyboard-response","89","140874","0.0-5.0-1.42","","null","","img/3to2/1.png","null","183","270","0.5","0.5","3","1","",""
"","","","","","63ed4bdcb1977e991fe4f095","bdp_cybrbll","Sat Mar 25 2023 21:16:59 GMT-0500 (Central Daylight Time)","476631","1","3","animation","90","142162","0.0-5.0-2.42","","","","","","183","","","","3","1","[{""stimulus"":""img/3to1/1.png"",""time"":108},{""stimulus"":""img/3to1/2.png"",""time"":199},{""stimulus"":""img/3to1/3.png"",""time"":298},{""stimulus"":""img/3to1/4.png"",""time"":406},{""stimulus"":""img/3to1/5.png"",""time"":496},{""stimulus"":""img/3to1/6.png"",""time"":605},{""stimulus"":""img/3to1/7.png"",""time"":697},{""stimulus"":""img/3to1/8.png"",""time"":793},{""stimulus"":""img/3to1/9.png"",""time"":893},{""stimulus"":""img/3to1/10.png"",""time"":992},{""stimulus"":""img/3to1/11.png"",""time"":1099},{""stimulus"":""img/3to1/12.png"",""time"":1189}]","[]"
"","","","observe","","63ed4bdcb1977e991fe4f095","bdp_cybrbll","Sat Mar 25 2023 21:16:59 GMT-0500 (Central Daylight Time)","476631","1","3","image-keyboard-response","91","142325","0.0-5.0-1.43","","null","","img/1to3/1.png","null","182","162","0.5","0.5","1","2","",""
"","","","","","63ed4bdcb1977e991fe4f095","bdp_cybrbll","Sat Mar 25 2023 21:16:59 GMT-0500 (Central Daylight Time)","476631","1","3","animation","92","143613","0.0-5.0-2.43","","","","","","182","","","","1","2","[{""stimulus"":""img/1to2/1.png"",""time"":101},{""stimulus"":""img/1to2/2.png"",""time"":199},{""stimulus"":""img/1to2/3.png"",""time"":299},{""stimulus"":""img/1to2/4.png"",""time"":412},{""stimulus"":""img/1to2/5.png"",""time"":505},{""stimulus"":""img/1to2/6.png"",""time"":599},{""stimulus"":""img/1to2/7.png"",""time"":708},{""stimulus"":""img/1to2/8.png"",""time"":797},{""stimulus"":""img/1to2/9.png"",""time"":896},{""stimulus"":""img/1to2/10.png"",""time"":1004},{""stimulus"":""img/1to2/11.png"",""time"":1098},{""stimulus"":""img/1to2/12.png"",""time"":1189}]","[]"
"","","","choice","","63ed4bdcb1977e991fe4f095","bdp_cybrbll","Sat Mar 25 2023 21:16:59 GMT-0500 (Central Daylight Time)","476631","1","3","image-keyboard-response","93","143880","0.0-5.0-1.44","","266","","img/2to1/1.png","2","181","595","0.5","0.5","2","3","",""
"","","","","","63ed4bdcb1977e991fe4f095","bdp_cybrbll","Sat Mar 25 2023 21:16:59 GMT-0500 (Central Daylight Time)","476631","1","3","animation","94","145169","0.0-5.0-2.44","","","","","","181","","","","2","3","[{""stimulus"":""img/2to3/1.png"",""time"":101},{""stimulus"":""img/2to3/2.png"",""time"":212},{""stimulus"":""img/2to3/3.png"",""time"":306},{""stimulus"":""img/2to3/4.png"",""time"":399},{""stimulus"":""img/2to3/5.png"",""time"":509},{""stimulus"":""img/2to3/6.png"",""time"":602},{""stimulus"":""img/2to3/7.png"",""time"":694},{""stimulus"":""img/2to3/8.png"",""time"":793},{""stimulus"":""img/2to3/9.png"",""time"":897},{""stimulus"":""img/2to3/10.png"",""time"":1006},{""stimulus"":""img/2to3/11.png"",""time"":1091},{""stimulus"":""img/2to3/12.png"",""time"":1189}]","[]"
"","","","observe","","63ed4bdcb1977e991fe4f095","bdp_cybrbll","Sat Mar 25 2023 21:16:59 GMT-0500 (Central Daylight Time)","476631","1","3","image-keyboard-response","95","145579","0.0-5.0-1.45","","null","","img/3to2/1.png","null","180","408","0.5","0.5","3","2","",""
"","","","","","63ed4bdcb1977e991fe4f095","bdp_cybrbll","Sat Mar 25 2023 21:16:59 GMT-0500 (Central Daylight Time)","476631","1","3","animation","96","146878","0.0-5.0-2.45","","","","","","180","","","","3","2","[{""stimulus"":""img/3to2/1.png"",""time"":100},{""stimulus"":""img/3to2/2.png"",""time"":208},{""stimulus"":""img/3to2/3.png"",""time"":303},{""stimulus"":""img/3to2/4.png"",""time"":396},{""stimulus"":""img/3to2/5.png"",""time"":495},{""stimulus"":""img/3to2/6.png"",""time"":594},{""stimulus"":""img/3to2/7.png"",""time"":708},{""stimulus"":""img/3to2/8.png"",""time"":800},{""stimulus"":""img/3to2/9.png"",""time"":892},{""stimulus"":""img/3to2/10.png"",""time"":1002},{""stimulus"":""img/3to2/11.png"",""time"":1097},{""stimulus"":""img/3to2/12.png"",""time"":1189}]","[]"
"","","","choice","","63ed4bdcb1977e991fe4f095","bdp_cybrbll","Sat Mar 25 2023 21:16:59 GMT-0500 (Central Daylight Time)","476631","1","3","image-keyboard-response","97","147004","0.0-5.0-1.46","","125","","img/2to1/1.png","1","179","317","0.5","0.5","2","1","",""
"","","","","","63ed4bdcb1977e991fe4f095","bdp_cybrbll","Sat Mar 25 2023 21:16:59 GMT-0500 (Central Daylight Time)","476631","1","3","animation","98","148305","0.0-5.0-2.46","","","","","","179","","","","2","1","[{""stimulus"":""img/2to1/1.png"",""time"":100},{""stimulus"":""img/2to1/2.png"",""time"":203},{""stimulus"":""img/2to1/3.png"",""time"":314},{""stimulus"":""img/2to1/4.png"",""time"":398},{""stimulus"":""img/2to1/5.png"",""time"":501},{""stimulus"":""img/2to1/6.png"",""time"":596},{""stimulus"":""img/2to1/7.png"",""time"":704},{""stimulus"":""img/2to1/8.png"",""time"":798},{""stimulus"":""img/2to1/9.png"",""time"":894},{""stimulus"":""img/2to1/10.png"",""time"":1002},{""stimulus"":""img/2to1/11.png"",""time"":1090},{""stimulus"":""img/2to1/12.png"",""time"":1190}]","[]"
"","","","observe","","63ed4bdcb1977e991fe4f095","bdp_cybrbll","Sat Mar 25 2023 21:16:59 GMT-0500 (Central Daylight Time)","476631","1","3","image-keyboard-response","99","148643","0.0-5.0-1.47","","null","","img/1to3/1.png","null","178","337","0.5","0.5","1","2","",""
"","","","","","63ed4bdcb1977e991fe4f095","bdp_cybrbll","Sat Mar 25 2023 21:16:59 GMT-0500 (Central Daylight Time)","476631","1","3","animation","100","149941","0.0-5.0-2.47","","","","","","178","","","","1","2","[{""stimulus"":""img/1to2/1.png"",""time"":100},{""stimulus"":""img/1to2/2.png"",""time"":210},{""stimulus"":""img/1to2/3.png"",""time"":303},{""stimulus"":""img/1to2/4.png"",""time"":412},{""stimulus"":""img/1to2/5.png"",""time"":497},{""stimulus"":""img/1to2/6.png"",""time"":599},{""stimulus"":""img/1to2/7.png"",""time"":694},{""stimulus"":""img/1to2/8.png"",""time"":793},{""stimulus"":""img/1to2/9.png"",""time"":892},{""stimulus"":""img/1to2/10.png"",""time"":1004},{""stimulus"":""img/1to2/11.png"",""time"":1094},{""stimulus"":""img/1to2/12.png"",""time"":1204}]","[]"
"","","","choice","","63ed4bdcb1977e991fe4f095","bdp_cybrbll","Sat Mar 25 2023 21:16:59 GMT-0500 (Central Daylight Time)","476631","1","3","image-keyboard-response","101","150103","0.0-5.0-1.48","","161","","img/2to1/1.png","2","177","577","0.5","0.5","2","3","",""
"","","","","","63ed4bdcb1977e991fe4f095","bdp_cybrbll","Sat Mar 25 2023 21:16:59 GMT-0500 (Central Daylight Time)","476631","1","3","animation","102","151395","0.0-5.0-2.48","","","","","","177","","","","2","3","[{""stimulus"":""img/2to3/1.png"",""time"":99},{""stimulus"":""img/2to3/2.png"",""time"":209},{""stimulus"":""img/2to3/3.png"",""time"":304},{""stimulus"":""img/2to3/4.png"",""time"":397},{""stimulus"":""img/2to3/5.png"",""time"":509},{""stimulus"":""img/2to3/6.png"",""time"":595},{""stimulus"":""img/2to3/7.png"",""time"":694},{""stimulus"":""img/2to3/8.png"",""time"":804},{""stimulus"":""img/2to3/9.png"",""time"":899},{""stimulus"":""img/2to3/10.png"",""time"":991},{""stimulus"":""img/2to3/11.png"",""time"":1089},{""stimulus"":""img/2to3/12.png"",""time"":1198}]","[]"
"","","","observe","","63ed4bdcb1977e991fe4f095","bdp_cybrbll","Sat Mar 25 2023 21:16:59 GMT-0500 (Central Daylight Time)","476631","1","3","image-keyboard-response","103","151679","0.0-5.0-1.49","","null","","img/3to2/1.png","null","176","283","0.5","0.5","3","2","",""
"","","","","","63ed4bdcb1977e991fe4f095","bdp_cybrbll","Sat Mar 25 2023 21:16:59 GMT-0500 (Central Daylight Time)","476631","1","3","animation","104","152968","0.0-5.0-2.49","","","","","","176","","","","3","2","[{""stimulus"":""img/3to2/1.png"",""time"":107},{""stimulus"":""img/3to2/2.png"",""time"":199},{""stimulus"":""img/3to2/3.png"",""time"":311},{""stimulus"":""img/3to2/4.png"",""time"":405},{""stimulus"":""img/3to2/5.png"",""time"":496},{""stimulus"":""img/3to2/6.png"",""time"":605},{""stimulus"":""img/3to2/7.png"",""time"":695},{""stimulus"":""img/3to2/8.png"",""time"":792},{""stimulus"":""img/3to2/9.png"",""time"":892},{""stimulus"":""img/3to2/10.png"",""time"":994},{""stimulus"":""img/3to2/11.png"",""time"":1102},{""stimulus"":""img/3to2/12.png"",""time"":1197}]","[]"
"","","","choice","","63ed4bdcb1977e991fe4f095","bdp_cybrbll","Sat Mar 25 2023 21:16:59 GMT-0500 (Central Daylight Time)","476631","1","3","image-keyboard-response","105","153689","0.0-5.0-1.50","","719","","img/2to1/1.png","1","175","392","0.5","0.5","2","1","",""
"","","","","","63ed4bdcb1977e991fe4f095","bdp_cybrbll","Sat Mar 25 2023 21:16:59 GMT-0500 (Central Daylight Time)","476631","1","3","animation","106","154978","0.0-5.0-2.50","","","","","","175","","","","2","1","[{""stimulus"":""img/2to1/1.png"",""time"":100},{""stimulus"":""img/2to1/2.png"",""time"":212},{""stimulus"":""img/2to1/3.png"",""time"":305},{""stimulus"":""img/2to1/4.png"",""time"":397},{""stimulus"":""img/2to1/5.png"",""time"":496},{""stimulus"":""img/2to1/6.png"",""time"":603},{""stimulus"":""img/2to1/7.png"",""time"":694},{""stimulus"":""img/2to1/8.png"",""time"":793},{""stimulus"":""img/2to1/9.png"",""time"":902},{""stimulus"":""img/2to1/10.png"",""time"":991},{""stimulus"":""img/2to1/11.png"",""time"":1089},{""stimulus"":""img/2to1/12.png"",""time"":1196}]","[]"
"","","","observe","","63ed4bdcb1977e991fe4f095","bdp_cybrbll","Sat Mar 25 2023 21:16:59 GMT-0500 (Central Daylight Time)","476631","1","3","image-keyboard-response","107","155273","0.0-5.0-1.51","","null","","img/1to3/1.png","null","174","293","0.5","0.5","1","2","",""
"","","","","","63ed4bdcb1977e991fe4f095","bdp_cybrbll","Sat Mar 25 2023 21:16:59 GMT-0500 (Central Daylight Time)","476631","1","3","animation","108","156561","0.0-5.0-2.51","","","","","","174","","","","1","2","[{""stimulus"":""img/1to2/1.png"",""time"":110},{""stimulus"":""img/1to2/2.png"",""time"":199},{""stimulus"":""img/1to2/3.png"",""time"":298},{""stimulus"":""img/1to2/4.png"",""time"":397},{""stimulus"":""img/1to2/5.png"",""time"":496},{""stimulus"":""img/1to2/6.png"",""time"":608},{""stimulus"":""img/1to2/7.png"",""time"":701},{""stimulus"":""img/1to2/8.png"",""time"":795},{""stimulus"":""img/1to2/9.png"",""time"":892},{""stimulus"":""img/1to2/10.png"",""time"":991},{""stimulus"":""img/1to2/11.png"",""time"":1090},{""stimulus"":""img/1to2/12.png"",""time"":1190}]","[]"
"","","","choice","","63ed4bdcb1977e991fe4f095","bdp_cybrbll","Sat Mar 25 2023 21:16:59 GMT-0500 (Central Daylight Time)","476631","1","3","image-keyboard-response","109","156737","0.0-5.0-1.52","","175","","img/2to1/1.png","2","173","321","0.5","0.5","2","3","",""
"","","","","","63ed4bdcb1977e991fe4f095","bdp_cybrbll","Sat Mar 25 2023 21:16:59 GMT-0500 (Central Daylight Time)","476631","1","3","animation","110","158036","0.0-5.0-2.52","","","","","","173","","","","2","3","[{""stimulus"":""img/2to3/1.png"",""time"":101},{""stimulus"":""img/2to3/2.png"",""time"":207},{""stimulus"":""img/2to3/3.png"",""time"":303},{""stimulus"":""img/2to3/4.png"",""time"":412},{""stimulus"":""img/2to3/5.png"",""time"":505},{""stimulus"":""img/2to3/6.png"",""time"":595},{""stimulus"":""img/2to3/7.png"",""time"":694},{""stimulus"":""img/2to3/8.png"",""time"":793},{""stimulus"":""img/2to3/9.png"",""time"":896},{""stimulus"":""img/2to3/10.png"",""time"":1004},{""stimulus"":""img/2to3/11.png"",""time"":1096},{""stimulus"":""img/2to3/12.png"",""time"":1189}]","[]"
"","","","observe","","63ed4bdcb1977e991fe4f095","bdp_cybrbll","Sat Mar 25 2023 21:16:59 GMT-0500 (Central Daylight Time)","476631","1","3","image-keyboard-response","111","158251","0.0-5.0-1.53","","null","","img/3to2/1.png","null","172","214","0.5","0.5","3","1","",""
"","","","","","63ed4bdcb1977e991fe4f095","bdp_cybrbll","Sat Mar 25 2023 21:16:59 GMT-0500 (Central Daylight Time)","476631","1","3","animation","112","159546","0.0-5.0-2.53","","","","","","172","","","","3","1","[{""stimulus"":""img/3to1/1.png"",""time"":115},{""stimulus"":""img/3to1/2.png"",""time"":199},{""stimulus"":""img/3to1/3.png"",""time"":299},{""stimulus"":""img/3to1/4.png"",""time"":397},{""stimulus"":""img/3to1/5.png"",""time"":505},{""stimulus"":""img/3to1/6.png"",""time"":597},{""stimulus"":""img/3to1/7.png"",""time"":705},{""stimulus"":""img/3to1/8.png"",""time"":797},{""stimulus"":""img/3to1/9.png"",""time"":893},{""stimulus"":""img/3to1/10.png"",""time"":1000},{""stimulus"":""img/3to1/11.png"",""time"":1091},{""stimulus"":""img/3to1/12.png"",""time"":1189}]","[]"
"","","","observe","","63ed4bdcb1977e991fe4f095","bdp_cybrbll","Sat Mar 25 2023 21:16:59 GMT-0500 (Central Daylight Time)","476631","1","3","image-keyboard-response","113","160173","0.0-5.0-1.54","","null","","img/1to3/1.png","null","171","616","0.5","0.5","1","2","",""
"","","","","","63ed4bdcb1977e991fe4f095","bdp_cybrbll","Sat Mar 25 2023 21:16:59 GMT-0500 (Central Daylight Time)","476631","1","3","animation","114","161463","0.0-5.0-2.54","","","","","","171","","","","1","2","[{""stimulus"":""img/1to2/1.png"",""time"":108},{""stimulus"":""img/1to2/2.png"",""time"":203},{""stimulus"":""img/1to2/3.png"",""time"":311},{""stimulus"":""img/1to2/4.png"",""time"":397},{""stimulus"":""img/1to2/5.png"",""time"":496},{""stimulus"":""img/1to2/6.png"",""time"":606},{""stimulus"":""img/1to2/7.png"",""time"":700},{""stimulus"":""img/1to2/8.png"",""time"":794},{""stimulus"":""img/1to2/9.png"",""time"":903},{""stimulus"":""img/1to2/10.png"",""time"":995},{""stimulus"":""img/1to2/11.png"",""time"":1091},{""stimulus"":""img/1to2/12.png"",""time"":1196}]","[]"
"","","","choice","","63ed4bdcb1977e991fe4f095","bdp_cybrbll","Sat Mar 25 2023 21:16:59 GMT-0500 (Central Daylight Time)","476631","1","3","image-keyboard-response","115","162089","0.0-5.0-1.55","","626","","img/2to1/1.png","2","170","785","0.5","0.5","2","3","",""
"","","","","","63ed4bdcb1977e991fe4f095","bdp_cybrbll","Sat Mar 25 2023 21:16:59 GMT-0500 (Central Daylight Time)","476631","1","3","animation","116","163383","0.0-5.0-2.55","","","","","","170","","","","2","3","[{""stimulus"":""img/2to3/1.png"",""time"":100},{""stimulus"":""img/2to3/2.png"",""time"":213},{""stimulus"":""img/2to3/3.png"",""time"":307},{""stimulus"":""img/2to3/4.png"",""time"":401},{""stimulus"":""img/2to3/5.png"",""time"":495},{""stimulus"":""img/2to3/6.png"",""time"":602},{""stimulus"":""img/2to3/7.png"",""time"":694},{""stimulus"":""img/2to3/8.png"",""time"":805},{""stimulus"":""img/2to3/9.png"",""time"":891},{""stimulus"":""img/2to3/10.png"",""time"":994},{""stimulus"":""img/2to3/11.png"",""time"":1090},{""stimulus"":""img/2to3/12.png"",""time"":1196}]","[]"
"","","","observe","","63ed4bdcb1977e991fe4f095","bdp_cybrbll","Sat Mar 25 2023 21:16:59 GMT-0500 (Central Daylight Time)","476631","1","3","image-keyboard-response","117","163942","0.0-5.0-1.56","","null","","img/3to2/1.png","null","169","556","0.5","0.5","3","2","",""
"","","","","","63ed4bdcb1977e991fe4f095","bdp_cybrbll","Sat Mar 25 2023 21:16:59 GMT-0500 (Central Daylight Time)","476631","1","3","animation","118","165229","0.0-5.0-2.56","","","","","","169","","","","3","2","[{""stimulus"":""img/3to2/1.png"",""time"":110},{""stimulus"":""img/3to2/2.png"",""time"":198},{""stimulus"":""img/3to2/3.png"",""time"":298},{""stimulus"":""img/3to2/4.png"",""time"":408},{""stimulus"":""img/3to2/5.png"",""time"":496},{""stimulus"":""img/3to2/6.png"",""time"":596},{""stimulus"":""img/3to2/7.png"",""time"":694},{""stimulus"":""img/3to2/8.png"",""time"":793},{""stimulus"":""img/3to2/9.png"",""time"":892},{""stimulus"":""img/3to2/10.png"",""time"":1001},{""stimulus"":""img/3to2/11.png"",""time"":1093},{""stimulus"":""img/3to2/12.png"",""time"":1203}]","[]"
"","","","choice","","63ed4bdcb1977e991fe4f095","bdp_cybrbll","Sat Mar 25 2023 21:16:59 GMT-0500 (Central Daylight Time)","476631","1","3","image-keyboard-response","119","167233","0.0-5.0-1.57","","2003","","img/2to1/1.png","1","168","260","0.5","0.5","2","1","",""
"","","","","","63ed4bdcb1977e991fe4f095","bdp_cybrbll","Sat Mar 25 2023 21:16:59 GMT-0500 (Central Daylight Time)","476631","1","3","animation","120","168526","0.0-5.0-2.57","","","","","","168","","","","2","1","[{""stimulus"":""img/2to1/1.png"",""time"":100},{""stimulus"":""img/2to1/2.png"",""time"":202},{""stimulus"":""img/2to1/3.png"",""time"":310},{""stimulus"":""img/2to1/4.png"",""time"":397},{""stimulus"":""img/2to1/5.png"",""time"":495},{""stimulus"":""img/2to1/6.png"",""time"":595},{""stimulus"":""img/2to1/7.png"",""time"":695},{""stimulus"":""img/2to1/8.png"",""time"":807},{""stimulus"":""img/2to1/9.png"",""time"":892},{""stimulus"":""img/2to1/10.png"",""time"":992},{""stimulus"":""img/2to1/11.png"",""time"":1090},{""stimulus"":""img/2to1/12.png"",""time"":1198}]","[]"
"","","","observe","","63ed4bdcb1977e991fe4f095","bdp_cybrbll","Sat Mar 25 2023 21:16:59 GMT-0500 (Central Daylight Time)","476631","1","3","image-keyboard-response","121","169317","0.0-5.0-1.58","","null","","img/1to3/1.png","null","167","789","0.5","0.5","1","2","",""
"","","","","","63ed4bdcb1977e991fe4f095","bdp_cybrbll","Sat Mar 25 2023 21:16:59 GMT-0500 (Central Daylight Time)","476631","1","3","animation","122","170615","0.0-5.0-2.58","","","","","","167","","","","1","2","[{""stimulus"":""img/1to2/1.png"",""time"":110},{""stimulus"":""img/1to2/2.png"",""time"":199},{""stimulus"":""img/1to2/3.png"",""time"":298},{""stimulus"":""img/1to2/4.png"",""time"":397},{""stimulus"":""img/1to2/5.png"",""time"":498},{""stimulus"":""img/1to2/6.png"",""time"":595},{""stimulus"":""img/1to2/7.png"",""time"":693},{""stimulus"":""img/1to2/8.png"",""time"":792},{""stimulus"":""img/1to2/9.png"",""time"":906},{""stimulus"":""img/1to2/10.png"",""time"":1001},{""stimulus"":""img/1to2/11.png"",""time"":1097},{""stimulus"":""img/1to2/12.png"",""time"":1189}]","[]"
"","","","choice","","63ed4bdcb1977e991fe4f095","bdp_cybrbll","Sat Mar 25 2023 21:16:59 GMT-0500 (Central Daylight Time)","476631","1","3","image-keyboard-response","123","170638","0.0-5.0-1.59","","23","","img/2to1/1.png","2","166","1472","0.5","0.5","2","3","",""
"","","","","","63ed4bdcb1977e991fe4f095","bdp_cybrbll","Sat Mar 25 2023 21:16:59 GMT-0500 (Central Daylight Time)","476631","1","3","animation","124","171938","0.0-5.0-2.59","","","","","","166","","","","2","3","[{""stimulus"":""img/2to3/1.png"",""time"":100},{""stimulus"":""img/2to3/2.png"",""time"":207},{""stimulus"":""img/2to3/3.png"",""time"":300},{""stimulus"":""img/2to3/4.png"",""time"":408},{""stimulus"":""img/2to3/5.png"",""time"":495},{""stimulus"":""img/2to3/6.png"",""time"":597},{""stimulus"":""img/2to3/7.png"",""time"":705},{""stimulus"":""img/2to3/8.png"",""time"":800},{""stimulus"":""img/2to3/9.png"",""time"":892},{""stimulus"":""img/2to3/10.png"",""time"":991},{""stimulus"":""img/2to3/11.png"",""time"":1090},{""stimulus"":""img/2to3/12.png"",""time"":1191}]","[]"
"","","","observe","","63ed4bdcb1977e991fe4f095","bdp_cybrbll","Sat Mar 25 2023 21:16:59 GMT-0500 (Central Daylight Time)","476631","1","3","image-keyboard-response","125","172332","0.0-5.0-1.60","","null","","img/3to2/1.png","null","165","393","0.5","0.5","3","2","",""
"","","","","","63ed4bdcb1977e991fe4f095","bdp_cybrbll","Sat Mar 25 2023 21:16:59 GMT-0500 (Central Daylight Time)","476631","1","3","animation","126","173619","0.0-5.0-2.60","","","","","","165","","","","3","2","[{""stimulus"":""img/3to2/1.png"",""time"":112},{""stimulus"":""img/3to2/2.png"",""time"":207},{""stimulus"":""img/3to2/3.png"",""time"":297},{""stimulus"":""img/3to2/4.png"",""time"":411},{""stimulus"":""img/3to2/5.png"",""time"":496},{""stimulus"":""img/3to2/6.png"",""time"":595},{""stimulus"":""img/3to2/7.png"",""time"":705},{""stimulus"":""img/3to2/8.png"",""time"":793},{""stimulus"":""img/3to2/9.png"",""time"":907},{""stimulus"":""img/3to2/10.png"",""time"":1001},{""stimulus"":""img/3to2/11.png"",""time"":1094},{""stimulus"":""img/3to2/12.png"",""time"":1190}]","[]"
"","","","choice","","63ed4bdcb1977e991fe4f095","bdp_cybrbll","Sat Mar 25 2023 21:16:59 GMT-0500 (Central Daylight Time)","476631","1","3","image-keyboard-response","127","177042","0.0-5.0-1.61","","3422","","img/2to1/1.png","1","164","599","0.5","0.5","2","1","",""
"","","","","","63ed4bdcb1977e991fe4f095","bdp_cybrbll","Sat Mar 25 2023 21:16:59 GMT-0500 (Central Daylight Time)","476631","1","3","animation","128","178331","0.0-5.0-2.61","","","","","","164","","","","2","1","[{""stimulus"":""img/2to1/1.png"",""time"":103},{""stimulus"":""img/2to1/2.png"",""time"":213},{""stimulus"":""img/2to1/3.png"",""time"":307},{""stimulus"":""img/2to1/4.png"",""time"":401},{""stimulus"":""img/2to1/5.png"",""time"":496},{""stimulus"":""img/2to1/6.png"",""time"":607},{""stimulus"":""img/2to1/7.png"",""time"":693},{""stimulus"":""img/2to1/8.png"",""time"":794},{""stimulus"":""img/2to1/9.png"",""time"":892},{""stimulus"":""img/2to1/10.png"",""time"":990},{""stimulus"":""img/2to1/11.png"",""time"":1089},{""stimulus"":""img/2to1/12.png"",""time"":1200}]","[]"
"","","","observe","","63ed4bdcb1977e991fe4f095","bdp_cybrbll","Sat Mar 25 2023 21:16:59 GMT-0500 (Central Daylight Time)","476631","1","3","image-keyboard-response","129","178618","0.0-5.0-1.62","","null","","img/1to3/1.png","null","163","272","0.5","0.5","1","3","",""
"","","","","","63ed4bdcb1977e991fe4f095","bdp_cybrbll","Sat Mar 25 2023 21:16:59 GMT-0500 (Central Daylight Time)","476631","1","3","animation","130","179911","0.0-5.0-2.62","","","","","","163","","","","1","3","[{""stimulus"":""img/1to3/1.png"",""time"":109},{""stimulus"":""img/1to3/2.png"",""time"":199},{""stimulus"":""img/1to3/3.png"",""time"":312},{""stimulus"":""img/1to3/4.png"",""time"":404},{""stimulus"":""img/1to3/5.png"",""time"":499},{""stimulus"":""img/1to3/6.png"",""time"":608},{""stimulus"":""img/1to3/7.png"",""time"":694},{""stimulus"":""img/1to3/8.png"",""time"":793},{""stimulus"":""img/1to3/9.png"",""time"":905},{""stimulus"":""img/1to3/10.png"",""time"":998},{""stimulus"":""img/1to3/11.png"",""time"":1090},{""stimulus"":""img/1to3/12.png"",""time"":1188}]","[]"
"","","","observe","","63ed4bdcb1977e991fe4f095","bdp_cybrbll","Sat Mar 25 2023 21:16:59 GMT-0500 (Central Daylight Time)","476631","1","3","image-keyboard-response","131","181478","0.0-5.0-1.63","","null","","img/3to2/1.png","null","162","1560","0.5","0.5","3","2","",""
"","","","","","63ed4bdcb1977e991fe4f095","bdp_cybrbll","Sat Mar 25 2023 21:16:59 GMT-0500 (Central Daylight Time)","476631","1","3","animation","132","182772","0.0-5.0-2.63","","","","","","162","","","","3","2","[{""stimulus"":""img/3to2/1.png"",""time"":110},{""stimulus"":""img/3to2/2.png"",""time"":204},{""stimulus"":""img/3to2/3.png"",""time"":298},{""stimulus"":""img/3to2/4.png"",""time"":396},{""stimulus"":""img/3to2/5.png"",""time"":495},{""stimulus"":""img/3to2/6.png"",""time"":608},{""stimulus"":""img/3to2/7.png"",""time"":694},{""stimulus"":""img/3to2/8.png"",""time"":792},{""stimulus"":""img/3to2/9.png"",""time"":904},{""stimulus"":""img/3to2/10.png"",""time"":991},{""stimulus"":""img/3to2/11.png"",""time"":1091},{""stimulus"":""img/3to2/12.png"",""time"":1200}]","[]"
"","","","choice","","63ed4bdcb1977e991fe4f095","bdp_cybrbll","Sat Mar 25 2023 21:16:59 GMT-0500 (Central Daylight Time)","476631","1","3","image-keyboard-response","133","183058","0.0-5.0-1.64","","286","","img/2to1/1.png","1","161","388","0.5","0.5","2","1","",""
"","","","","","63ed4bdcb1977e991fe4f095","bdp_cybrbll","Sat Mar 25 2023 21:16:59 GMT-0500 (Central Daylight Time)","476631","1","3","animation","134","184345","0.0-5.0-2.64","","","","","","161","","","","2","1","[{""stimulus"":""img/2to1/1.png"",""time"":114},{""stimulus"":""img/2to1/2.png"",""time"":208},{""stimulus"":""img/2to1/3.png"",""time"":302},{""stimulus"":""img/2to1/4.png"",""time"":397},{""stimulus"":""img/2to1/5.png"",""time"":497},{""stimulus"":""img/2to1/6.png"",""time"":598},{""stimulus"":""img/2to1/7.png"",""time"":706},{""stimulus"":""img/2to1/8.png"",""time"":793},{""stimulus"":""img/2to1/9.png"",""time"":892},{""stimulus"":""img/2to1/10.png"",""time"":992},{""stimulus"":""img/2to1/11.png"",""time"":1094},{""stimulus"":""img/2to1/12.png"",""time"":1189}]","[]"
"","","","observe","","63ed4bdcb1977e991fe4f095","bdp_cybrbll","Sat Mar 25 2023 21:16:59 GMT-0500 (Central Daylight Time)","476631","1","3","image-keyboard-response","135","184555","0.0-5.0-1.65","","null","","img/1to3/1.png","null","160","197","0.5","0.5","1","2","",""
"","","","","","63ed4bdcb1977e991fe4f095","bdp_cybrbll","Sat Mar 25 2023 21:16:59 GMT-0500 (Central Daylight Time)","476631","1","3","animation","136","185852","0.0-5.0-2.65","","","","","","160","","","","1","2","[{""stimulus"":""img/1to2/1.png"",""time"":111},{""stimulus"":""img/1to2/2.png"",""time"":199},{""stimulus"":""img/1to2/3.png"",""time"":298},{""stimulus"":""img/1to2/4.png"",""time"":398},{""stimulus"":""img/1to2/5.png"",""time"":496},{""stimulus"":""img/1to2/6.png"",""time"":609},{""stimulus"":""img/1to2/7.png"",""time"":694},{""stimulus"":""img/1to2/8.png"",""time"":794},{""stimulus"":""img/1to2/9.png"",""time"":892},{""stimulus"":""img/1to2/10.png"",""time"":1000},{""stimulus"":""img/1to2/11.png"",""time"":1094},{""stimulus"":""img/1to2/12.png"",""time"":1203}]","[]"
"","","","choice","","63ed4bdcb1977e991fe4f095","bdp_cybrbll","Sat Mar 25 2023 21:16:59 GMT-0500 (Central Daylight Time)","476631","1","3","image-keyboard-response","137","186077","0.0-5.0-1.66","","225","","img/2to1/1.png","2","159","444","0.5","0.5","2","3","",""
"","","","","","63ed4bdcb1977e991fe4f095","bdp_cybrbll","Sat Mar 25 2023 21:16:59 GMT-0500 (Central Daylight Time)","476631","1","3","animation","138","187366","0.0-5.0-2.66","","","","","","159","","","","2","3","[{""stimulus"":""img/2to3/1.png"",""time"":100},{""stimulus"":""img/2to3/2.png"",""time"":210},{""stimulus"":""img/2to3/3.png"",""time"":303},{""stimulus"":""img/2to3/4.png"",""time"":397},{""stimulus"":""img/2to3/5.png"",""time"":501},{""stimulus"":""img/2to3/6.png"",""time"":611},{""stimulus"":""img/2to3/7.png"",""time"":705},{""stimulus"":""img/2to3/8.png"",""time"":794},{""stimulus"":""img/2to3/9.png"",""time"":892},{""stimulus"":""img/2to3/10.png"",""time"":1003},{""stimulus"":""img/2to3/11.png"",""time"":1097},{""stimulus"":""img/2to3/12.png"",""time"":1191}]","[]"
"","","","observe","","63ed4bdcb1977e991fe4f095","bdp_cybrbll","Sat Mar 25 2023 21:16:59 GMT-0500 (Central Daylight Time)","476631","1","3","image-keyboard-response","139","187674","0.0-5.0-1.67","","null","","img/3to2/1.png","null","158","307","0.5","0.5","3","2","",""
"","","","","","63ed4bdcb1977e991fe4f095","bdp_cybrbll","Sat Mar 25 2023 21:16:59 GMT-0500 (Central Daylight Time)","476631","1","3","animation","140","188962","0.0-5.0-2.67","","","","","","158","","","","3","2","[{""stimulus"":""img/3to2/1.png"",""time"":108},{""stimulus"":""img/3to2/2.png"",""time"":199},{""stimulus"":""img/3to2/3.png"",""time"":298},{""stimulus"":""img/3to2/4.png"",""time"":397},{""stimulus"":""img/3to2/5.png"",""time"":497},{""stimulus"":""img/3to2/6.png"",""time"":606},{""stimulus"":""img/3to2/7.png"",""time"":694},{""stimulus"":""img/3to2/8.png"",""time"":794},{""stimulus"":""img/3to2/9.png"",""time"":903},{""stimulus"":""img/3to2/10.png"",""time"":996},{""stimulus"":""img/3to2/11.png"",""time"":1105},{""stimulus"":""img/3to2/12.png"",""time"":1189}]","[]"
"","","","choice","","63ed4bdcb1977e991fe4f095","bdp_cybrbll","Sat Mar 25 2023 21:16:59 GMT-0500 (Central Daylight Time)","476631","1","3","image-keyboard-response","141","190424","0.0-5.0-1.68","","1460","","img/2to1/1.png","1","157","1010","0.5","0.5","2","1","",""
"","","","","","63ed4bdcb1977e991fe4f095","bdp_cybrbll","Sat Mar 25 2023 21:16:59 GMT-0500 (Central Daylight Time)","476631","1","3","animation","142","191724","0.0-5.0-2.68","","","","","","157","","","","2","1","[{""stimulus"":""img/2to1/1.png"",""time"":101},{""stimulus"":""img/2to1/2.png"",""time"":210},{""stimulus"":""img/2to1/3.png"",""time"":303},{""stimulus"":""img/2to1/4.png"",""time"":412},{""stimulus"":""img/2to1/5.png"",""time"":504},{""stimulus"":""img/2to1/6.png"",""time"":598},{""stimulus"":""img/2to1/7.png"",""time"":708},{""stimulus"":""img/2to1/8.png"",""time"":793},{""stimulus"":""img/2to1/9.png"",""time"":895},{""stimulus"":""img/2to1/10.png"",""time"":992},{""stimulus"":""img/2to1/11.png"",""time"":1098},{""stimulus"":""img/2to1/12.png"",""time"":1190}]","[]"
"","","","observe","","63ed4bdcb1977e991fe4f095","bdp_cybrbll","Sat Mar 25 2023 21:16:59 GMT-0500 (Central Daylight Time)","476631","1","3","image-keyboard-response","143","192372","0.0-5.0-1.69","","null","","img/1to3/1.png","null","156","647","0.5","0.5","1","3","",""
"","","","","","63ed4bdcb1977e991fe4f095","bdp_cybrbll","Sat Mar 25 2023 21:16:59 GMT-0500 (Central Daylight Time)","476631","1","3","animation","144","193671","0.0-5.0-2.69","","","","","","156","","","","1","3","[{""stimulus"":""img/1to3/1.png"",""time"":103},{""stimulus"":""img/1to3/2.png"",""time"":199},{""stimulus"":""img/1to3/3.png"",""time"":304},{""stimulus"":""img/1to3/4.png"",""time"":412},{""stimulus"":""img/1to3/5.png"",""time"":496},{""stimulus"":""img/1to3/6.png"",""time"":599},{""stimulus"":""img/1to3/7.png"",""time"":709},{""stimulus"":""img/1to3/8.png"",""time"":803},{""stimulus"":""img/1to3/9.png"",""time"":896},{""stimulus"":""img/1to3/10.png"",""time"":991},{""stimulus"":""img/1to3/11.png"",""time"":1098},{""stimulus"":""img/1to3/12.png"",""time"":1191}]","[]"
"","","","observe","","63ed4bdcb1977e991fe4f095","bdp_cybrbll","Sat Mar 25 2023 21:16:59 GMT-0500 (Central Daylight Time)","476631","1","3","image-keyboard-response","145","194186","0.0-5.0-1.70","","null","","img/3to2/1.png","null","155","500","0.5","0.5","3","2","",""
"","","","","","63ed4bdcb1977e991fe4f095","bdp_cybrbll","Sat Mar 25 2023 21:16:59 GMT-0500 (Central Daylight Time)","476631","1","3","animation","146","195479","0.0-5.0-2.70","","","","","","155","","","","3","2","[{""stimulus"":""img/3to2/1.png"",""time"":111},{""stimulus"":""img/3to2/2.png"",""time"":200},{""stimulus"":""img/3to2/3.png"",""time"":312},{""stimulus"":""img/3to2/4.png"",""time"":406},{""stimulus"":""img/3to2/5.png"",""time"":499},{""stimulus"":""img/3to2/6.png"",""time"":609},{""stimulus"":""img/3to2/7.png"",""time"":694},{""stimulus"":""img/3to2/8.png"",""time"":793},{""stimulus"":""img/3to2/9.png"",""time"":892},{""stimulus"":""img/3to2/10.png"",""time"":999},{""stimulus"":""img/3to2/11.png"",""time"":1090},{""stimulus"":""img/3to2/12.png"",""time"":1201}]","[]"
"","","","choice","","63ed4bdcb1977e991fe4f095","bdp_cybrbll","Sat Mar 25 2023 21:16:59 GMT-0500 (Central Daylight Time)","476631","1","3","image-keyboard-response","147","195489","0.0-5.0-1.71","","9","","img/2to1/1.png","1","154","310","0.5","0.5","2","1","",""
"","","","","","63ed4bdcb1977e991fe4f095","bdp_cybrbll","Sat Mar 25 2023 21:16:59 GMT-0500 (Central Daylight Time)","476631","1","3","animation","148","196787","0.0-5.0-2.71","","","","","","154","","","","2","1","[{""stimulus"":""img/2to1/1.png"",""time"":100},{""stimulus"":""img/2to1/2.png"",""time"":205},{""stimulus"":""img/2to1/3.png"",""time"":301},{""stimulus"":""img/2to1/4.png"",""time"":411},{""stimulus"":""img/2to1/5.png"",""time"":496},{""stimulus"":""img/2to1/6.png"",""time"":597},{""stimulus"":""img/2to1/7.png"",""time"":694},{""stimulus"":""img/2to1/8.png"",""time"":797},{""stimulus"":""img/2to1/9.png"",""time"":907},{""stimulus"":""img/2to1/10.png"",""time"":991},{""stimulus"":""img/2to1/11.png"",""time"":1090},{""stimulus"":""img/2to1/12.png"",""time"":1190}]","[]"
"","","","observe","","63ed4bdcb1977e991fe4f095","bdp_cybrbll","Sat Mar 25 2023 21:16:59 GMT-0500 (Central Daylight Time)","476631","1","3","image-keyboard-response","149","197055","0.0-5.0-1.72","","null","","img/1to3/1.png","null","153","266","0.5","0.5","1","3","",""
"","","","","","63ed4bdcb1977e991fe4f095","bdp_cybrbll","Sat Mar 25 2023 21:16:59 GMT-0500 (Central Daylight Time)","476631","1","3","animation","150","198343","0.0-5.0-2.72","","","","","","153","","","","1","3","[{""stimulus"":""img/1to3/1.png"",""time"":103},{""stimulus"":""img/1to3/2.png"",""time"":199},{""stimulus"":""img/1to3/3.png"",""time"":297},{""stimulus"":""img/1to3/4.png"",""time"":397},{""stimulus"":""img/1to3/5.png"",""time"":496},{""stimulus"":""img/1to3/6.png"",""time"":600},{""stimulus"":""img/1to3/7.png"",""time"":694},{""stimulus"":""img/1to3/8.png"",""time"":803},{""stimulus"":""img/1to3/9.png"",""time"":892},{""stimulus"":""img/1to3/10.png"",""time"":992},{""stimulus"":""img/1to3/11.png"",""time"":1089},{""stimulus"":""img/1to3/12.png"",""time"":1189}]","[]"
"","","","observe","","63ed4bdcb1977e991fe4f095","bdp_cybrbll","Sat Mar 25 2023 21:16:59 GMT-0500 (Central Daylight Time)","476631","1","3","image-keyboard-response","151","199193","0.0-5.0-1.73","","null","","img/3to2/1.png","null","152","841","0.5","0.5","3","1","",""
"","","","","","63ed4bdcb1977e991fe4f095","bdp_cybrbll","Sat Mar 25 2023 21:16:59 GMT-0500 (Central Daylight Time)","476631","1","3","animation","152","200489","0.0-5.0-2.73","","","","","","152","","","","3","1","[{""stimulus"":""img/3to1/1.png"",""time"":110},{""stimulus"":""img/3to1/2.png"",""time"":199},{""stimulus"":""img/3to1/3.png"",""time"":298},{""stimulus"":""img/3to1/4.png"",""time"":398},{""stimulus"":""img/3to1/5.png"",""time"":500},{""stimulus"":""img/3to1/6.png"",""time"":596},{""stimulus"":""img/3to1/7.png"",""time"":701},{""stimulus"":""img/3to1/8.png"",""time"":794},{""stimulus"":""img/3to1/9.png"",""time"":906},{""stimulus"":""img/3to1/10.png"",""time"":1000},{""stimulus"":""img/3to1/11.png"",""time"":1091},{""stimulus"":""img/3to1/12.png"",""time"":1189}]","[]"
"","","","observe","","63ed4bdcb1977e991fe4f095","bdp_cybrbll","Sat Mar 25 2023 21:16:59 GMT-0500 (Central Daylight Time)","476631","1","3","image-keyboard-response","153","201232","0.0-5.0-1.74","","null","","img/1to3/1.png","null","151","736","0.5","0.5","1","3","",""
"","","","","","63ed4bdcb1977e991fe4f095","bdp_cybrbll","Sat Mar 25 2023 21:16:59 GMT-0500 (Central Daylight Time)","476631","1","3","animation","154","202519","0.0-5.0-2.74","","","","","","151","","","","1","3","[{""stimulus"":""img/1to3/1.png"",""time"":110},{""stimulus"":""img/1to3/2.png"",""time"":203},{""stimulus"":""img/1to3/3.png"",""time"":313},{""stimulus"":""img/1to3/4.png"",""time"":397},{""stimulus"":""img/1to3/5.png"",""time"":499},{""stimulus"":""img/1to3/6.png"",""time"":609},{""stimulus"":""img/1to3/7.png"",""time"":701},{""stimulus"":""img/1to3/8.png"",""time"":793},{""stimulus"":""img/1to3/9.png"",""time"":893},{""stimulus"":""img/1to3/10.png"",""time"":991},{""stimulus"":""img/1to3/11.png"",""time"":1104},{""stimulus"":""img/1to3/12.png"",""time"":1188}]","[]"
"","","","observe","","63ed4bdcb1977e991fe4f095","bdp_cybrbll","Sat Mar 25 2023 21:16:59 GMT-0500 (Central Daylight Time)","476631","1","3","image-keyboard-response","155","203226","0.0-5.0-1.75","","null","","img/3to2/1.png","null","150","693","0.5","0.5","3","2","",""
"","","","","","63ed4bdcb1977e991fe4f095","bdp_cybrbll","Sat Mar 25 2023 21:16:59 GMT-0500 (Central Daylight Time)","476631","1","3","animation","156","204516","0.0-5.0-2.75","","","","","","150","","","","3","2","[{""stimulus"":""img/3to2/1.png"",""time"":108},{""stimulus"":""img/3to2/2.png"",""time"":199},{""stimulus"":""img/3to2/3.png"",""time"":310},{""stimulus"":""img/3to2/4.png"",""time"":398},{""stimulus"":""img/3to2/5.png"",""time"":497},{""stimulus"":""img/3to2/6.png"",""time"":607},{""stimulus"":""img/3to2/7.png"",""time"":699},{""stimulus"":""img/3to2/8.png"",""time"":794},{""stimulus"":""img/3to2/9.png"",""time"":900},{""stimulus"":""img/3to2/10.png"",""time"":992},{""stimulus"":""img/3to2/11.png"",""time"":1091},{""stimulus"":""img/3to2/12.png"",""time"":1189}]","[]"
"","","","choice","","63ed4bdcb1977e991fe4f095","bdp_cybrbll","Sat Mar 25 2023 21:16:59 GMT-0500 (Central Daylight Time)","476631","1","3","image-keyboard-response","157","204599","0.0-5.0-1.76","","82","","img/2to1/1.png","1","149","581","0.5","0.1","2","1","",""
"","","","","","63ed4bdcb1977e991fe4f095","bdp_cybrbll","Sat Mar 25 2023 21:16:59 GMT-0500 (Central Daylight Time)","476631","1","3","animation","158","205901","0.0-5.0-2.76","","","","","","149","","","","2","1","[{""stimulus"":""img/2to1/1.png"",""time"":102},{""stimulus"":""img/2to1/2.png"",""time"":210},{""stimulus"":""img/2to1/3.png"",""time"":305},{""stimulus"":""img/2to1/4.png"",""time"":398},{""stimulus"":""img/2to1/5.png"",""time"":507},{""stimulus"":""img/2to1/6.png"",""time"":600},{""stimulus"":""img/2to1/7.png"",""time"":693},{""stimulus"":""img/2to1/8.png"",""time"":804},{""stimulus"":""img/2to1/9.png"",""time"":899},{""stimulus"":""img/2to1/10.png"",""time"":990},{""stimulus"":""img/2to1/11.png"",""time"":1100},{""stimulus"":""img/2to1/12.png"",""time"":1189}]","[]"
"","","","observe","","63ed4bdcb1977e991fe4f095","bdp_cybrbll","Sat Mar 25 2023 21:16:59 GMT-0500 (Central Daylight Time)","476631","1","3","image-keyboard-response","159","206351","0.0-5.0-1.77","","null","","img/1to3/1.png","null","148","450","0.5","0.1","1","2","",""
"","","","","","63ed4bdcb1977e991fe4f095","bdp_cybrbll","Sat Mar 25 2023 21:16:59 GMT-0500 (Central Daylight Time)","476631","1","3","animation","160","207649","0.0-5.0-2.77","","","","","","148","","","","1","2","[{""stimulus"":""img/1to2/1.png"",""time"":112},{""stimulus"":""img/1to2/2.png"",""time"":205},{""stimulus"":""img/1to2/3.png"",""time"":298},{""stimulus"":""img/1to2/4.png"",""time"":407},{""stimulus"":""img/1to2/5.png"",""time"":501},{""stimulus"":""img/1to2/6.png"",""time"":611},{""stimulus"":""img/1to2/7.png"",""time"":695},{""stimulus"":""img/1to2/8.png"",""time"":798},{""stimulus"":""img/1to2/9.png"",""time"":892},{""stimulus"":""img/1to2/10.png"",""time"":1003},{""stimulus"":""img/1to2/11.png"",""time"":1091},{""stimulus"":""img/1to2/12.png"",""time"":1190}]","[]"
"","","","choice","","63ed4bdcb1977e991fe4f095","bdp_cybrbll","Sat Mar 25 2023 21:16:59 GMT-0500 (Central Daylight Time)","476631","1","3","image-keyboard-response","161","208364","0.0-5.0-1.78","","715","","img/2to1/1.png","2","147","378","0.5","0.1","2","3","",""
"","","","","","63ed4bdcb1977e991fe4f095","bdp_cybrbll","Sat Mar 25 2023 21:16:59 GMT-0500 (Central Daylight Time)","476631","1","3","animation","162","209652","0.0-5.0-2.78","","","","","","147","","","","2","3","[{""stimulus"":""img/2to3/1.png"",""time"":100},{""stimulus"":""img/2to3/2.png"",""time"":205},{""stimulus"":""img/2to3/3.png"",""time"":298},{""stimulus"":""img/2to3/4.png"",""time"":407},{""stimulus"":""img/2to3/5.png"",""time"":496},{""stimulus"":""img/2to3/6.png"",""time"":608},{""stimulus"":""img/2to3/7.png"",""time"":703},{""stimulus"":""img/2to3/8.png"",""time"":795},{""stimulus"":""img/2to3/9.png"",""time"":893},{""stimulus"":""img/2to3/10.png"",""time"":991},{""stimulus"":""img/2to3/11.png"",""time"":1091},{""stimulus"":""img/2to3/12.png"",""time"":1201}]","[]"
"","","","observe","","63ed4bdcb1977e991fe4f095","bdp_cybrbll","Sat Mar 25 2023 21:16:59 GMT-0500 (Central Daylight Time)","476631","1","3","image-keyboard-response","163","209924","0.0-5.0-1.79","","null","","img/3to2/1.png","null","146","255","0.5","0.1","3","1","",""
"","","","","","63ed4bdcb1977e991fe4f095","bdp_cybrbll","Sat Mar 25 2023 21:16:59 GMT-0500 (Central Daylight Time)","476631","1","3","animation","164","211226","0.0-5.0-2.79","","","","","","146","","","","3","1","[{""stimulus"":""img/3to1/1.png"",""time"":110},{""stimulus"":""img/3to1/2.png"",""time"":199},{""stimulus"":""img/3to1/3.png"",""time"":299},{""stimulus"":""img/3to1/4.png"",""time"":397},{""stimulus"":""img/3to1/5.png"",""time"":496},{""stimulus"":""img/3to1/6.png"",""time"":600},{""stimulus"":""img/3to1/7.png"",""time"":694},{""stimulus"":""img/3to1/8.png"",""time"":804},{""stimulus"":""img/3to1/9.png"",""time"":892},{""stimulus"":""img/3to1/10.png"",""time"":991},{""stimulus"":""img/3to1/11.png"",""time"":1102},{""stimulus"":""img/3to1/12.png"",""time"":1189}]","[]"
"","","","observe","","63ed4bdcb1977e991fe4f095","bdp_cybrbll","Sat Mar 25 2023 21:16:59 GMT-0500 (Central Daylight Time)","476631","1","3","image-keyboard-response","165","211566","0.0-5.0-1.80","","null","","img/1to3/1.png","null","145","340","0.5","0.1","1","3","",""
"","","","","","63ed4bdcb1977e991fe4f095","bdp_cybrbll","Sat Mar 25 2023 21:16:59 GMT-0500 (Central Daylight Time)","476631","1","3","animation","166","212854","0.0-5.0-2.80","","","","","","145","","","","1","3","[{""stimulus"":""img/1to3/1.png"",""time"":106},{""stimulus"":""img/1to3/2.png"",""time"":214},{""stimulus"":""img/1to3/3.png"",""time"":308},{""stimulus"":""img/1to3/4.png"",""time"":403},{""stimulus"":""img/1to3/5.png"",""time"":495},{""stimulus"":""img/1to3/6.png"",""time"":595},{""stimulus"":""img/1to3/7.png"",""time"":694},{""stimulus"":""img/1to3/8.png"",""time"":805},{""stimulus"":""img/1to3/9.png"",""time"":901},{""stimulus"":""img/1to3/10.png"",""time"":994},{""stimulus"":""img/1to3/11.png"",""time"":1089},{""stimulus"":""img/1to3/12.png"",""time"":1194}]","[]"
"","","","observe","","63ed4bdcb1977e991fe4f095","bdp_cybrbll","Sat Mar 25 2023 21:16:59 GMT-0500 (Central Daylight Time)","476631","1","3","image-keyboard-response","167","213275","0.0-5.0-1.81","","null","","img/3to2/1.png","null","144","409","0.5","0.1","3","1","",""
"","","","","","63ed4bdcb1977e991fe4f095","bdp_cybrbll","Sat Mar 25 2023 21:16:59 GMT-0500 (Central Daylight Time)","476631","1","3","animation","168","214568","0.0-5.0-2.81","","","","","","144","","","","3","1","[{""stimulus"":""img/3to1/1.png"",""time"":109},{""stimulus"":""img/3to1/2.png"",""time"":199},{""stimulus"":""img/3to1/3.png"",""time"":312},{""stimulus"":""img/3to1/4.png"",""time"":405},{""stimulus"":""img/3to1/5.png"",""time"":499},{""stimulus"":""img/3to1/6.png"",""time"":595},{""stimulus"":""img/3to1/7.png"",""time"":703},{""stimulus"":""img/3to1/8.png"",""time"":798},{""stimulus"":""img/3to1/9.png"",""time"":906},{""stimulus"":""img/3to1/10.png"",""time"":991},{""stimulus"":""img/3to1/11.png"",""time"":1091},{""stimulus"":""img/3to1/12.png"",""time"":1189}]","[]"
"","","","observe","","63ed4bdcb1977e991fe4f095","bdp_cybrbll","Sat Mar 25 2023 21:16:59 GMT-0500 (Central Daylight Time)","476631","1","3","image-keyboard-response","169","215117","0.0-5.0-1.82","","null","","img/1to3/1.png","null","143","544","0.5","0.1","1","3","",""
"","","","","","63ed4bdcb1977e991fe4f095","bdp_cybrbll","Sat Mar 25 2023 21:16:59 GMT-0500 (Central Daylight Time)","476631","1","3","animation","170","216405","0.0-5.0-2.82","","","","","","143","","","","1","3","[{""stimulus"":""img/1to3/1.png"",""time"":110},{""stimulus"":""img/1to3/2.png"",""time"":204},{""stimulus"":""img/1to3/3.png"",""time"":298},{""stimulus"":""img/1to3/4.png"",""time"":397},{""stimulus"":""img/1to3/5.png"",""time"":496},{""stimulus"":""img/1to3/6.png"",""time"":605},{""stimulus"":""img/1to3/7.png"",""time"":693},{""stimulus"":""img/1to3/8.png"",""time"":793},{""stimulus"":""img/1to3/9.png"",""time"":902},{""stimulus"":""img/1to3/10.png"",""time"":993},{""stimulus"":""img/1to3/11.png"",""time"":1090},{""stimulus"":""img/1to3/12.png"",""time"":1189}]","[]"
"","","","observe","","63ed4bdcb1977e991fe4f095","bdp_cybrbll","Sat Mar 25 2023 21:16:59 GMT-0500 (Central Daylight Time)","476631","1","3","image-keyboard-response","171","216965","0.0-5.0-1.83","","null","","img/3to2/1.png","null","142","558","0.5","0.1","3","1","",""
"","","","","","63ed4bdcb1977e991fe4f095","bdp_cybrbll","Sat Mar 25 2023 21:16:59 GMT-0500 (Central Daylight Time)","476631","1","3","animation","172","218253","0.0-5.0-2.83","","","","","","142","","","","3","1","[{""stimulus"":""img/3to1/1.png"",""time"":110},{""stimulus"":""img/3to1/2.png"",""time"":200},{""stimulus"":""img/3to1/3.png"",""time"":298},{""stimulus"":""img/3to1/4.png"",""time"":397},{""stimulus"":""img/3to1/5.png"",""time"":500},{""stimulus"":""img/3to1/6.png"",""time"":596},{""stimulus"":""img/3to1/7.png"",""time"":694},{""stimulus"":""img/3to1/8.png"",""time"":799},{""stimulus"":""img/3to1/9.png"",""time"":893},{""stimulus"":""img/3to1/10.png"",""time"":992},{""stimulus"":""img/3to1/11.png"",""time"":1093},{""stimulus"":""img/3to1/12.png"",""time"":1201}]","[]"
"","","","observe","","63ed4bdcb1977e991fe4f095","bdp_cybrbll","Sat Mar 25 2023 21:16:59 GMT-0500 (Central Daylight Time)","476631","1","3","image-keyboard-response","173","219040","0.0-5.0-1.84","","null","","img/1to3/1.png","null","141","779","0.5","0.1","1","3","",""
"","","","","","63ed4bdcb1977e991fe4f095","bdp_cybrbll","Sat Mar 25 2023 21:16:59 GMT-0500 (Central Daylight Time)","476631","1","3","animation","174","220327","0.0-5.0-2.84","","","","","","141","","","","1","3","[{""stimulus"":""img/1to3/1.png"",""time"":111},{""stimulus"":""img/1to3/2.png"",""time"":200},{""stimulus"":""img/1to3/3.png"",""time"":311},{""stimulus"":""img/1to3/4.png"",""time"":397},{""stimulus"":""img/1to3/5.png"",""time"":498},{""stimulus"":""img/1to3/6.png"",""time"":595},{""stimulus"":""img/1to3/7.png"",""time"":695},{""stimulus"":""img/1to3/8.png"",""time"":797},{""stimulus"":""img/1to3/9.png"",""time"":892},{""stimulus"":""img/1to3/10.png"",""time"":1002},{""stimulus"":""img/1to3/11.png"",""time"":1089},{""stimulus"":""img/1to3/12.png"",""time"":1190}]","[]"
"","","","observe","","63ed4bdcb1977e991fe4f095","bdp_cybrbll","Sat Mar 25 2023 21:16:59 GMT-0500 (Central Daylight Time)","476631","1","3","image-keyboard-response","175","220938","0.0-5.0-1.85","","null","","img/3to2/1.png","null","140","599","0.5","0.1","3","1","",""
"","","","","","63ed4bdcb1977e991fe4f095","bdp_cybrbll","Sat Mar 25 2023 21:16:59 GMT-0500 (Central Daylight Time)","476631","1","3","animation","176","222226","0.0-5.0-2.85","","","","","","140","","","","3","1","[{""stimulus"":""img/3to1/1.png"",""time"":112},{""stimulus"":""img/3to1/2.png"",""time"":199},{""stimulus"":""img/3to1/3.png"",""time"":302},{""stimulus"":""img/3to1/4.png"",""time"":397},{""stimulus"":""img/3to1/5.png"",""time"":507},{""stimulus"":""img/3to1/6.png"",""time"":595},{""stimulus"":""img/3to1/7.png"",""time"":707},{""stimulus"":""img/3to1/8.png"",""time"":794},{""stimulus"":""img/3to1/9.png"",""time"":894},{""stimulus"":""img/3to1/10.png"",""time"":1004},{""stimulus"":""img/3to1/11.png"",""time"":1099},{""stimulus"":""img/3to1/12.png"",""time"":1189}]","[]"
"","","","observe","","63ed4bdcb1977e991fe4f095","bdp_cybrbll","Sat Mar 25 2023 21:16:59 GMT-0500 (Central Daylight Time)","476631","1","3","image-keyboard-response","177","223391","0.0-5.0-1.86","","null","","img/1to3/1.png","null","139","1161","0.5","0.1","1","3","",""
"","","","","","63ed4bdcb1977e991fe4f095","bdp_cybrbll","Sat Mar 25 2023 21:16:59 GMT-0500 (Central Daylight Time)","476631","1","3","animation","178","224680","0.0-5.0-2.86","","","","","","139","","","","1","3","[{""stimulus"":""img/1to3/1.png"",""time"":108},{""stimulus"":""img/1to3/2.png"",""time"":200},{""stimulus"":""img/1to3/3.png"",""time"":309},{""stimulus"":""img/1to3/4.png"",""time"":402},{""stimulus"":""img/1to3/5.png"",""time"":497},{""stimulus"":""img/1to3/6.png"",""time"":604},{""stimulus"":""img/1to3/7.png"",""time"":699},{""stimulus"":""img/1to3/8.png"",""time"":793},{""stimulus"":""img/1to3/9.png"",""time"":893},{""stimulus"":""img/1to3/10.png"",""time"":991},{""stimulus"":""img/1to3/11.png"",""time"":1090},{""stimulus"":""img/1to3/12.png"",""time"":1189}]","[]"
"","","","observe","","63ed4bdcb1977e991fe4f095","bdp_cybrbll","Sat Mar 25 2023 21:16:59 GMT-0500 (Central Daylight Time)","476631","1","3","image-keyboard-response","179","225320","0.0-5.0-1.87","","null","","img/3to2/1.png","null","138","628","0.5","0.1","3","1","",""
"","","","","","63ed4bdcb1977e991fe4f095","bdp_cybrbll","Sat Mar 25 2023 21:16:59 GMT-0500 (Central Daylight Time)","476631","1","3","animation","180","226614","0.0-5.0-2.87","","","","","","138","","","","3","1","[{""stimulus"":""img/3to1/1.png"",""time"":109},{""stimulus"":""img/3to1/2.png"",""time"":199},{""stimulus"":""img/3to1/3.png"",""time"":311},{""stimulus"":""img/3to1/4.png"",""time"":403},{""stimulus"":""img/3to1/5.png"",""time"":497},{""stimulus"":""img/3to1/6.png"",""time"":605},{""stimulus"":""img/3to1/7.png"",""time"":693},{""stimulus"":""img/3to1/8.png"",""time"":807},{""stimulus"":""img/3to1/9.png"",""time"":892},{""stimulus"":""img/3to1/10.png"",""time"":991},{""stimulus"":""img/3to1/11.png"",""time"":1090},{""stimulus"":""img/3to1/12.png"",""time"":1201}]","[]"
"","","","observe","","63ed4bdcb1977e991fe4f095","bdp_cybrbll","Sat Mar 25 2023 21:16:59 GMT-0500 (Central Daylight Time)","476631","1","3","image-keyboard-response","181","226960","0.0-5.0-1.88","","null","","img/1to3/1.png","null","137","329","0.5","0.1","1","2","",""
"","","","","","63ed4bdcb1977e991fe4f095","bdp_cybrbll","Sat Mar 25 2023 21:16:59 GMT-0500 (Central Daylight Time)","476631","1","3","animation","182","228248","0.0-5.0-2.88","","","","","","137","","","","1","2","[{""stimulus"":""img/1to2/1.png"",""time"":105},{""stimulus"":""img/1to2/2.png"",""time"":199},{""stimulus"":""img/1to2/3.png"",""time"":308},{""stimulus"":""img/1to2/4.png"",""time"":401},{""stimulus"":""img/1to2/5.png"",""time"":495},{""stimulus"":""img/1to2/6.png"",""time"":604},{""stimulus"":""img/1to2/7.png"",""time"":695},{""stimulus"":""img/1to2/8.png"",""time"":793},{""stimulus"":""img/1to2/9.png"",""time"":891},{""stimulus"":""img/1to2/10.png"",""time"":991},{""stimulus"":""img/1to2/11.png"",""time"":1101},{""stimulus"":""img/1to2/12.png"",""time"":1188}]","[]"
"","","","choice","","63ed4bdcb1977e991fe4f095","bdp_cybrbll","Sat Mar 25 2023 21:16:59 GMT-0500 (Central Daylight Time)","476631","1","3","image-keyboard-response","183","228939","0.0-5.0-1.89","","691","","img/2to1/1.png","2","136","522","0.5","0.1","2","3","",""
"","","","","","63ed4bdcb1977e991fe4f095","bdp_cybrbll","Sat Mar 25 2023 21:16:59 GMT-0500 (Central Daylight Time)","476631","1","3","animation","184","230239","0.0-5.0-2.89","","","","","","136","","","","2","3","[{""stimulus"":""img/2to3/1.png"",""time"":100},{""stimulus"":""img/2to3/2.png"",""time"":209},{""stimulus"":""img/2to3/3.png"",""time"":302},{""stimulus"":""img/2to3/4.png"",""time"":397},{""stimulus"":""img/2to3/5.png"",""time"":495},{""stimulus"":""img/2to3/6.png"",""time"":601},{""stimulus"":""img/2to3/7.png"",""time"":709},{""stimulus"":""img/2to3/8.png"",""time"":792},{""stimulus"":""img/2to3/9.png"",""time"":896},{""stimulus"":""img/2to3/10.png"",""time"":991},{""stimulus"":""img/2to3/11.png"",""time"":1096},{""stimulus"":""img/2to3/12.png"",""time"":1192}]","[]"
"","","","observe","","63ed4bdcb1977e991fe4f095","bdp_cybrbll","Sat Mar 25 2023 21:16:59 GMT-0500 (Central Daylight Time)","476631","1","3","image-keyboard-response","185","230866","0.0-5.0-1.90","","null","","img/3to2/1.png","null","135","619","0.5","0.1","3","2","",""
"","","","","","63ed4bdcb1977e991fe4f095","bdp_cybrbll","Sat Mar 25 2023 21:16:59 GMT-0500 (Central Daylight Time)","476631","1","3","animation","186","232168","0.0-5.0-2.90","","","","","","135","","","","3","2","[{""stimulus"":""img/3to2/1.png"",""time"":108},{""stimulus"":""img/3to2/2.png"",""time"":198},{""stimulus"":""img/3to2/3.png"",""time"":309},{""stimulus"":""img/3to2/4.png"",""time"":402},{""stimulus"":""img/3to2/5.png"",""time"":496},{""stimulus"":""img/3to2/6.png"",""time"":605},{""stimulus"":""img/3to2/7.png"",""time"":698},{""stimulus"":""img/3to2/8.png"",""time"":806},{""stimulus"":""img/3to2/9.png"",""time"":891},{""stimulus"":""img/3to2/10.png"",""time"":991},{""stimulus"":""img/3to2/11.png"",""time"":1099},{""stimulus"":""img/3to2/12.png"",""time"":1190}]","[]"
"","","","choice","","63ed4bdcb1977e991fe4f095","bdp_cybrbll","Sat Mar 25 2023 21:16:59 GMT-0500 (Central Daylight Time)","476631","1","3","image-keyboard-response","187","233246","0.0-5.0-1.91","","1077","","img/2to1/1.png","1","134","281","0.5","0.1","2","1","",""
"","","","","","63ed4bdcb1977e991fe4f095","bdp_cybrbll","Sat Mar 25 2023 21:16:59 GMT-0500 (Central Daylight Time)","476631","1","3","animation","188","234536","0.0-5.0-2.91","","","","","","134","","","","2","1","[{""stimulus"":""img/2to1/1.png"",""time"":106},{""stimulus"":""img/2to1/2.png"",""time"":200},{""stimulus"":""img/2to1/3.png"",""time"":309},{""stimulus"":""img/2to1/4.png"",""time"":397},{""stimulus"":""img/2to1/5.png"",""time"":496},{""stimulus"":""img/2to1/6.png"",""time"":607},{""stimulus"":""img/2to1/7.png"",""time"":694},{""stimulus"":""img/2to1/8.png"",""time"":793},{""stimulus"":""img/2to1/9.png"",""time"":892},{""stimulus"":""img/2to1/10.png"",""time"":994},{""stimulus"":""img/2to1/11.png"",""time"":1091},{""stimulus"":""img/2to1/12.png"",""time"":1190}]","[]"
