"trial_type","trial_index","time_elapsed","internal_node_id","subject_id","task","startTime","totalTime","fairPartner","unfairPartner","view_history","rt","event","trial","time","trialtype","success","stimulus","key_press","throwsLeft","rtDur","pFair","pUnfair","holder","receiver","animation_sequence","responses"
"pavlovia","0","6","0.0-0.0","5ee71ce25f11c84a3e909b09","bdp_cybrbll","Sun Apr 02 2023 11:13:05 GMT-0500 (Central Daylight Time)","744916","3","1","","","","","","","","","","","","","","","","",""
"instructions","1","75891","0.0-1.0","5ee71ce25f11c84a3e909b09","bdp_cybrbll","Sun Apr 02 2023 11:13:05 GMT-0500 (Central Daylight Time)","744916","3","1","[{""page_index"":0,""viewing_time"":75884}]","75884","","","","","","","","","","","","","","",""
"","","","","5ee71ce25f11c84a3e909b09","bdp_cybrbll","Sun Apr 02 2023 11:13:05 GMT-0500 (Central Daylight Time)","744916","3","1","","","fullscreenenter","2","78425","fullscreenenter","","","","","","","","","","",""
"fullscreen","2","79329","0.0-2.0","5ee71ce25f11c84a3e909b09","bdp_cybrbll","Sun Apr 02 2023 11:13:05 GMT-0500 (Central Daylight Time)","744916","3","1","","","","","","","true","","","","","","","","","",""
"instructions","3","104948","0.0-4.0","5ee71ce25f11c84a3e909b09","bdp_cybrbll","Sun Apr 02 2023 11:13:05 GMT-0500 (Central Daylight Time)","744916","3","1","[{""page_index"":0,""viewing_time"":25617}]","25618","","","","","","","","","","","","","","",""
"image-keyboard-response","4","108387","0.0-5.0-1.0","5ee71ce25f11c84a3e909b09","bdp_cybrbll","Sun Apr 02 2023 11:13:05 GMT-0500 (Central Daylight Time)","744916","3","1","","3436","","","","choice","","img/2to1/1.png","2","225","734","0.5","0.5","2","3","",""
"animation","5","109679","0.0-5.0-2.0","5ee71ce25f11c84a3e909b09","bdp_cybrbll","Sun Apr 02 2023 11:13:05 GMT-0500 (Central Daylight Time)","744916","3","1","","","","","","","","","","225","","","","2","3","[{""stimulus"":""img/2to3/1.png"",""time"":102},{""stimulus"":""img/2to3/2.png"",""time"":201},{""stimulus"":""img/2to3/3.png"",""time"":299},{""stimulus"":""img/2to3/4.png"",""time"":407},{""stimulus"":""img/2to3/5.png"",""time"":497},{""stimulus"":""img/2to3/6.png"",""time"":596},{""stimulus"":""img/2to3/7.png"",""time"":694},{""stimulus"":""img/2to3/8.png"",""time"":795},{""stimulus"":""img/2to3/9.png"",""time"":895},{""stimulus"":""img/2to3/10.png"",""time"":992},{""stimulus"":""img/2to3/11.png"",""time"":1089},{""stimulus"":""img/2to3/12.png"",""time"":1191}]","[]"
"image-keyboard-response","6","109910","0.0-5.0-1.1","5ee71ce25f11c84a3e909b09","bdp_cybrbll","Sun Apr 02 2023 11:13:05 GMT-0500 (Central Daylight Time)","744916","3","1","","null","","","","observe","","img/3to2/1.png","null","224","226","0.5","0.5","3","2","",""
"animation","7","111199","0.0-5.0-2.1","5ee71ce25f11c84a3e909b09","bdp_cybrbll","Sun Apr 02 2023 11:13:05 GMT-0500 (Central Daylight Time)","744916","3","1","","","","","","","","","","224","","","","3","2","[{""stimulus"":""img/3to2/1.png"",""time"":101},{""stimulus"":""img/3to2/2.png"",""time"":199},{""stimulus"":""img/3to2/3.png"",""time"":301},{""stimulus"":""img/3to2/4.png"",""time"":397},{""stimulus"":""img/3to2/5.png"",""time"":499},{""stimulus"":""img/3to2/6.png"",""time"":595},{""stimulus"":""img/3to2/7.png"",""time"":697},{""stimulus"":""img/3to2/8.png"",""time"":793},{""stimulus"":""img/3to2/9.png"",""time"":893},{""stimulus"":""img/3to2/10.png"",""time"":993},{""stimulus"":""img/3to2/11.png"",""time"":1090},{""stimulus"":""img/3to2/12.png"",""time"":1203}]","[]"
"image-keyboard-response","8","111858","0.0-5.0-1.2","5ee71ce25f11c84a3e909b09","bdp_cybrbll","Sun Apr 02 2023 11:13:05 GMT-0500 (Central Daylight Time)","744916","3","1","","658","","","","choice","","img/2to1/1.png","1","223","413","0.5","0.5","2","1","",""
"animation","9","113148","0.0-5.0-2.2","5ee71ce25f11c84a3e909b09","bdp_cybrbll","Sun Apr 02 2023 11:13:05 GMT-0500 (Central Daylight Time)","744916","3","1","","","","","","","","","","223","","","","2","1","[{""stimulus"":""img/2to1/1.png"",""time"":102},{""stimulus"":""img/2to1/2.png"",""time"":200},{""stimulus"":""img/2to1/3.png"",""time"":306},{""stimulus"":""img/2to1/4.png"",""time"":400},{""stimulus"":""img/2to1/5.png"",""time"":497},{""stimulus"":""img/2to1/6.png"",""time"":596},{""stimulus"":""img/2to1/7.png"",""time"":698},{""stimulus"":""img/2to1/8.png"",""time"":797},{""stimulus"":""img/2to1/9.png"",""time"":893},{""stimulus"":""img/2to1/10.png"",""time"":991},{""stimulus"":""img/2to1/11.png"",""time"":1091},{""stimulus"":""img/2to1/12.png"",""time"":1193}]","[]"
"image-keyboard-response","10","113520","0.0-5.0-1.3","5ee71ce25f11c84a3e909b09","bdp_cybrbll","Sun Apr 02 2023 11:13:05 GMT-0500 (Central Daylight Time)","744916","3","1","","null","","","","observe","","img/1to3/1.png","null","222","371","0.5","0.5","1","2","",""
"animation","11","114808","0.0-5.0-2.3","5ee71ce25f11c84a3e909b09","bdp_cybrbll","Sun Apr 02 2023 11:13:05 GMT-0500 (Central Daylight Time)","744916","3","1","","","","","","","","","","222","","","","1","2","[{""stimulus"":""img/1to2/1.png"",""time"":102},{""stimulus"":""img/1to2/2.png"",""time"":199},{""stimulus"":""img/1to2/3.png"",""time"":297},{""stimulus"":""img/1to2/4.png"",""time"":399},{""stimulus"":""img/1to2/5.png"",""time"":497},{""stimulus"":""img/1to2/6.png"",""time"":595},{""stimulus"":""img/1to2/7.png"",""time"":694},{""stimulus"":""img/1to2/8.png"",""time"":796},{""stimulus"":""img/1to2/9.png"",""time"":898},{""stimulus"":""img/1to2/10.png"",""time"":994},{""stimulus"":""img/1to2/11.png"",""time"":1093},{""stimulus"":""img/1to2/12.png"",""time"":1190}]","[]"
"image-keyboard-response","12","115376","0.0-5.0-1.4","5ee71ce25f11c84a3e909b09","bdp_cybrbll","Sun Apr 02 2023 11:13:05 GMT-0500 (Central Daylight Time)","744916","3","1","","567","","","","choice","","img/2to1/1.png","2","221","800","0.5","0.5","2","3","",""
"animation","13","116666","0.0-5.0-2.4","5ee71ce25f11c84a3e909b09","bdp_cybrbll","Sun Apr 02 2023 11:13:05 GMT-0500 (Central Daylight Time)","744916","3","1","","","","","","","","","","221","","","","2","3","[{""stimulus"":""img/2to3/1.png"",""time"":101},{""stimulus"":""img/2to3/2.png"",""time"":200},{""stimulus"":""img/2to3/3.png"",""time"":300},{""stimulus"":""img/2to3/4.png"",""time"":399},{""stimulus"":""img/2to3/5.png"",""time"":498},{""stimulus"":""img/2to3/6.png"",""time"":595},{""stimulus"":""img/2to3/7.png"",""time"":697},{""stimulus"":""img/2to3/8.png"",""time"":795},{""stimulus"":""img/2to3/9.png"",""time"":895},{""stimulus"":""img/2to3/10.png"",""time"":993},{""stimulus"":""img/2to3/11.png"",""time"":1093},{""stimulus"":""img/2to3/12.png"",""time"":1192}]","[]"
"image-keyboard-response","14","116998","0.0-5.0-1.5","5ee71ce25f11c84a3e909b09","bdp_cybrbll","Sun Apr 02 2023 11:13:05 GMT-0500 (Central Daylight Time)","744916","3","1","","null","","","","observe","","img/3to2/1.png","null","220","330","0.5","0.5","3","1","",""
"animation","15","118286","0.0-5.0-2.5","5ee71ce25f11c84a3e909b09","bdp_cybrbll","Sun Apr 02 2023 11:13:05 GMT-0500 (Central Daylight Time)","744916","3","1","","","","","","","","","","220","","","","3","1","[{""stimulus"":""img/3to1/1.png"",""time"":102},{""stimulus"":""img/3to1/2.png"",""time"":200},{""stimulus"":""img/3to1/3.png"",""time"":298},{""stimulus"":""img/3to1/4.png"",""time"":414},{""stimulus"":""img/3to1/5.png"",""time"":502},{""stimulus"":""img/3to1/6.png"",""time"":595},{""stimulus"":""img/3to1/7.png"",""time"":697},{""stimulus"":""img/3to1/8.png"",""time"":794},{""stimulus"":""img/3to1/9.png"",""time"":893},{""stimulus"":""img/3to1/10.png"",""time"":991},{""stimulus"":""img/3to1/11.png"",""time"":1094},{""stimulus"":""img/3to1/12.png"",""time"":1193}]","[]"
"image-keyboard-response","16","118576","0.0-5.0-1.6","5ee71ce25f11c84a3e909b09","bdp_cybrbll","Sun Apr 02 2023 11:13:05 GMT-0500 (Central Daylight Time)","744916","3","1","","null","","","","observe","","img/1to3/1.png","null","219","285","0.5","0.5","1","2","",""
"animation","17","119864","0.0-5.0-2.6","5ee71ce25f11c84a3e909b09","bdp_cybrbll","Sun Apr 02 2023 11:13:05 GMT-0500 (Central Daylight Time)","744916","3","1","","","","","","","","","","219","","","","1","2","[{""stimulus"":""img/1to2/1.png"",""time"":101},{""stimulus"":""img/1to2/2.png"",""time"":200},{""stimulus"":""img/1to2/3.png"",""time"":297},{""stimulus"":""img/1to2/4.png"",""time"":399},{""stimulus"":""img/1to2/5.png"",""time"":506},{""stimulus"":""img/1to2/6.png"",""time"":596},{""stimulus"":""img/1to2/7.png"",""time"":696},{""stimulus"":""img/1to2/8.png"",""time"":795},{""stimulus"":""img/1to2/9.png"",""time"":893},{""stimulus"":""img/1to2/10.png"",""time"":992},{""stimulus"":""img/1to2/11.png"",""time"":1090},{""stimulus"":""img/1to2/12.png"",""time"":1191}]","[]"
"image-keyboard-response","18","120700","0.0-5.0-1.7","5ee71ce25f11c84a3e909b09","bdp_cybrbll","Sun Apr 02 2023 11:13:05 GMT-0500 (Central Daylight Time)","744916","3","1","","836","","","","choice","","img/2to1/1.png","2","218","1474","0.5","0.5","2","3","",""
"animation","19","121990","0.0-5.0-2.7","5ee71ce25f11c84a3e909b09","bdp_cybrbll","Sun Apr 02 2023 11:13:05 GMT-0500 (Central Daylight Time)","744916","3","1","","","","","","","","","","218","","","","2","3","[{""stimulus"":""img/2to3/1.png"",""time"":112},{""stimulus"":""img/2to3/2.png"",""time"":199},{""stimulus"":""img/2to3/3.png"",""time"":300},{""stimulus"":""img/2to3/4.png"",""time"":399},{""stimulus"":""img/2to3/5.png"",""time"":497},{""stimulus"":""img/2to3/6.png"",""time"":595},{""stimulus"":""img/2to3/7.png"",""time"":696},{""stimulus"":""img/2to3/8.png"",""time"":792},{""stimulus"":""img/2to3/9.png"",""time"":892},{""stimulus"":""img/2to3/10.png"",""time"":991},{""stimulus"":""img/2to3/11.png"",""time"":1092},{""stimulus"":""img/2to3/12.png"",""time"":1191}]","[]"
"image-keyboard-response","20","122412","0.0-5.0-1.8","5ee71ce25f11c84a3e909b09","bdp_cybrbll","Sun Apr 02 2023 11:13:05 GMT-0500 (Central Daylight Time)","744916","3","1","","null","","","","observe","","img/3to2/1.png","null","217","416","0.5","0.5","3","1","",""
"animation","21","123702","0.0-5.0-2.8","5ee71ce25f11c84a3e909b09","bdp_cybrbll","Sun Apr 02 2023 11:13:05 GMT-0500 (Central Daylight Time)","744916","3","1","","","","","","","","","","217","","","","3","1","[{""stimulus"":""img/3to1/1.png"",""time"":103},{""stimulus"":""img/3to1/2.png"",""time"":201},{""stimulus"":""img/3to1/3.png"",""time"":299},{""stimulus"":""img/3to1/4.png"",""time"":401},{""stimulus"":""img/3to1/5.png"",""time"":496},{""stimulus"":""img/3to1/6.png"",""time"":598},{""stimulus"":""img/3to1/7.png"",""time"":696},{""stimulus"":""img/3to1/8.png"",""time"":796},{""stimulus"":""img/3to1/9.png"",""time"":895},{""stimulus"":""img/3to1/10.png"",""time"":999},{""stimulus"":""img/3to1/11.png"",""time"":1093},{""stimulus"":""img/3to1/12.png"",""time"":1200}]","[]"
"image-keyboard-response","22","123940","0.0-5.0-1.9","5ee71ce25f11c84a3e909b09","bdp_cybrbll","Sun Apr 02 2023 11:13:05 GMT-0500 (Central Daylight Time)","744916","3","1","","null","","","","observe","","img/1to3/1.png","null","216","236","0.5","0.5","1","2","",""
"animation","23","125228","0.0-5.0-2.9","5ee71ce25f11c84a3e909b09","bdp_cybrbll","Sun Apr 02 2023 11:13:05 GMT-0500 (Central Daylight Time)","744916","3","1","","","","","","","","","","216","","","","1","2","[{""stimulus"":""img/1to2/1.png"",""time"":101},{""stimulus"":""img/1to2/2.png"",""time"":199},{""stimulus"":""img/1to2/3.png"",""time"":298},{""stimulus"":""img/1to2/4.png"",""time"":399},{""stimulus"":""img/1to2/5.png"",""time"":497},{""stimulus"":""img/1to2/6.png"",""time"":595},{""stimulus"":""img/1to2/7.png"",""time"":693},{""stimulus"":""img/1to2/8.png"",""time"":796},{""stimulus"":""img/1to2/9.png"",""time"":896},{""stimulus"":""img/1to2/10.png"",""time"":993},{""stimulus"":""img/1to2/11.png"",""time"":1091},{""stimulus"":""img/1to2/12.png"",""time"":1190}]","[]"
"image-keyboard-response","24","125459","0.0-5.0-1.10","5ee71ce25f11c84a3e909b09","bdp_cybrbll","Sun Apr 02 2023 11:13:05 GMT-0500 (Central Daylight Time)","744916","3","1","","230","","","","choice","","img/2to1/1.png","2","215","836","0.5","0.5","2","3","",""
"animation","25","126750","0.0-5.0-2.10","5ee71ce25f11c84a3e909b09","bdp_cybrbll","Sun Apr 02 2023 11:13:05 GMT-0500 (Central Daylight Time)","744916","3","1","","","","","","","","","","215","","","","2","3","[{""stimulus"":""img/2to3/1.png"",""time"":101},{""stimulus"":""img/2to3/2.png"",""time"":199},{""stimulus"":""img/2to3/3.png"",""time"":302},{""stimulus"":""img/2to3/4.png"",""time"":400},{""stimulus"":""img/2to3/5.png"",""time"":498},{""stimulus"":""img/2to3/6.png"",""time"":598},{""stimulus"":""img/2to3/7.png"",""time"":697},{""stimulus"":""img/2to3/8.png"",""time"":796},{""stimulus"":""img/2to3/9.png"",""time"":895},{""stimulus"":""img/2to3/10.png"",""time"":992},{""stimulus"":""img/2to3/11.png"",""time"":1091},{""stimulus"":""img/2to3/12.png"",""time"":1192}]","[]"
"image-keyboard-response","26","127102","0.0-5.0-1.11","5ee71ce25f11c84a3e909b09","bdp_cybrbll","Sun Apr 02 2023 11:13:05 GMT-0500 (Central Daylight Time)","744916","3","1","","null","","","","observe","","img/3to2/1.png","null","214","347","0.5","0.5","3","2","",""
"animation","27","128392","0.0-5.0-2.11","5ee71ce25f11c84a3e909b09","bdp_cybrbll","Sun Apr 02 2023 11:13:05 GMT-0500 (Central Daylight Time)","744916","3","1","","","","","","","","","","214","","","","3","2","[{""stimulus"":""img/3to2/1.png"",""time"":102},{""stimulus"":""img/3to2/2.png"",""time"":200},{""stimulus"":""img/3to2/3.png"",""time"":299},{""stimulus"":""img/3to2/4.png"",""time"":397},{""stimulus"":""img/3to2/5.png"",""time"":500},{""stimulus"":""img/3to2/6.png"",""time"":602},{""stimulus"":""img/3to2/7.png"",""time"":695},{""stimulus"":""img/3to2/8.png"",""time"":796},{""stimulus"":""img/3to2/9.png"",""time"":893},{""stimulus"":""img/3to2/10.png"",""time"":1007},{""stimulus"":""img/3to2/11.png"",""time"":1092},{""stimulus"":""img/3to2/12.png"",""time"":1190}]","[]"
"image-keyboard-response","28","128761","0.0-5.0-1.12","5ee71ce25f11c84a3e909b09","bdp_cybrbll","Sun Apr 02 2023 11:13:05 GMT-0500 (Central Daylight Time)","744916","3","1","","367","","","","choice","","img/2to1/1.png","1","213","731","0.5","0.5","2","1","",""
"animation","29","130053","0.0-5.0-2.12","5ee71ce25f11c84a3e909b09","bdp_cybrbll","Sun Apr 02 2023 11:13:05 GMT-0500 (Central Daylight Time)","744916","3","1","","","","","","","","","","213","","","","2","1","[{""stimulus"":""img/2to1/1.png"",""time"":101},{""stimulus"":""img/2to1/2.png"",""time"":199},{""stimulus"":""img/2to1/3.png"",""time"":298},{""stimulus"":""img/2to1/4.png"",""time"":401},{""stimulus"":""img/2to1/5.png"",""time"":498},{""stimulus"":""img/2to1/6.png"",""time"":595},{""stimulus"":""img/2to1/7.png"",""time"":697},{""stimulus"":""img/2to1/8.png"",""time"":803},{""stimulus"":""img/2to1/9.png"",""time"":893},{""stimulus"":""img/2to1/10.png"",""time"":992},{""stimulus"":""img/2to1/11.png"",""time"":1090},{""stimulus"":""img/2to1/12.png"",""time"":1189}]","[]"
"image-keyboard-response","30","130252","0.0-5.0-1.13","5ee71ce25f11c84a3e909b09","bdp_cybrbll","Sun Apr 02 2023 11:13:05 GMT-0500 (Central Daylight Time)","744916","3","1","","null","","","","observe","","img/1to3/1.png","null","212","196","0.5","0.5","1","2","",""
"animation","31","131544","0.0-5.0-2.13","5ee71ce25f11c84a3e909b09","bdp_cybrbll","Sun Apr 02 2023 11:13:05 GMT-0500 (Central Daylight Time)","744916","3","1","","","","","","","","","","212","","","","1","2","[{""stimulus"":""img/1to2/1.png"",""time"":102},{""stimulus"":""img/1to2/2.png"",""time"":200},{""stimulus"":""img/1to2/3.png"",""time"":300},{""stimulus"":""img/1to2/4.png"",""time"":397},{""stimulus"":""img/1to2/5.png"",""time"":501},{""stimulus"":""img/1to2/6.png"",""time"":598},{""stimulus"":""img/1to2/7.png"",""time"":693},{""stimulus"":""img/1to2/8.png"",""time"":795},{""stimulus"":""img/1to2/9.png"",""time"":892},{""stimulus"":""img/1to2/10.png"",""time"":1002},{""stimulus"":""img/1to2/11.png"",""time"":1091},{""stimulus"":""img/1to2/12.png"",""time"":1192}]","[]"
"image-keyboard-response","32","132340","0.0-5.0-1.14","5ee71ce25f11c84a3e909b09","bdp_cybrbll","Sun Apr 02 2023 11:13:05 GMT-0500 (Central Daylight Time)","744916","3","1","","795","","","","choice","","img/2to1/1.png","1","211","1101","0.5","0.5","2","1","",""
"animation","33","133643","0.0-5.0-2.14","5ee71ce25f11c84a3e909b09","bdp_cybrbll","Sun Apr 02 2023 11:13:05 GMT-0500 (Central Daylight Time)","744916","3","1","","","","","","","","","","211","","","","2","1","[{""stimulus"":""img/2to1/1.png"",""time"":101},{""stimulus"":""img/2to1/2.png"",""time"":199},{""stimulus"":""img/2to1/3.png"",""time"":302},{""stimulus"":""img/2to1/4.png"",""time"":397},{""stimulus"":""img/2to1/5.png"",""time"":500},{""stimulus"":""img/2to1/6.png"",""time"":599},{""stimulus"":""img/2to1/7.png"",""time"":698},{""stimulus"":""img/2to1/8.png"",""time"":806},{""stimulus"":""img/2to1/9.png"",""time"":895},{""stimulus"":""img/2to1/10.png"",""time"":997},{""stimulus"":""img/2to1/11.png"",""time"":1093},{""stimulus"":""img/2to1/12.png"",""time"":1189}]","[]"
"image-keyboard-response","34","134434","0.0-5.0-1.15","5ee71ce25f11c84a3e909b09","bdp_cybrbll","Sun Apr 02 2023 11:13:05 GMT-0500 (Central Daylight Time)","744916","3","1","","null","","","","observe","","img/1to3/1.png","null","210","787","0.5","0.5","1","2","",""
"animation","35","135722","0.0-5.0-2.15","5ee71ce25f11c84a3e909b09","bdp_cybrbll","Sun Apr 02 2023 11:13:05 GMT-0500 (Central Daylight Time)","744916","3","1","","","","","","","","","","210","","","","1","2","[{""stimulus"":""img/1to2/1.png"",""time"":102},{""stimulus"":""img/1to2/2.png"",""time"":201},{""stimulus"":""img/1to2/3.png"",""time"":298},{""stimulus"":""img/1to2/4.png"",""time"":397},{""stimulus"":""img/1to2/5.png"",""time"":498},{""stimulus"":""img/1to2/6.png"",""time"":595},{""stimulus"":""img/1to2/7.png"",""time"":696},{""stimulus"":""img/1to2/8.png"",""time"":794},{""stimulus"":""img/1to2/9.png"",""time"":892},{""stimulus"":""img/1to2/10.png"",""time"":991},{""stimulus"":""img/1to2/11.png"",""time"":1093},{""stimulus"":""img/1to2/12.png"",""time"":1191}]","[]"
"image-keyboard-response","36","136782","0.0-5.0-1.16","5ee71ce25f11c84a3e909b09","bdp_cybrbll","Sun Apr 02 2023 11:13:05 GMT-0500 (Central Daylight Time)","744916","3","1","","1059","","","","choice","","img/2to1/1.png","2","209","354","0.5","0.5","2","3","",""
"animation","37","138074","0.0-5.0-2.16","5ee71ce25f11c84a3e909b09","bdp_cybrbll","Sun Apr 02 2023 11:13:05 GMT-0500 (Central Daylight Time)","744916","3","1","","","","","","","","","","209","","","","2","3","[{""stimulus"":""img/2to3/1.png"",""time"":101},{""stimulus"":""img/2to3/2.png"",""time"":201},{""stimulus"":""img/2to3/3.png"",""time"":299},{""stimulus"":""img/2to3/4.png"",""time"":400},{""stimulus"":""img/2to3/5.png"",""time"":499},{""stimulus"":""img/2to3/6.png"",""time"":595},{""stimulus"":""img/2to3/7.png"",""time"":694},{""stimulus"":""img/2to3/8.png"",""time"":797},{""stimulus"":""img/2to3/9.png"",""time"":894},{""stimulus"":""img/2to3/10.png"",""time"":992},{""stimulus"":""img/2to3/11.png"",""time"":1091},{""stimulus"":""img/2to3/12.png"",""time"":1193}]","[]"
"image-keyboard-response","38","138427","0.0-5.0-1.17","5ee71ce25f11c84a3e909b09","bdp_cybrbll","Sun Apr 02 2023 11:13:05 GMT-0500 (Central Daylight Time)","744916","3","1","","null","","","","observe","","img/3to2/1.png","null","208","351","0.5","0.5","3","1","",""
"animation","39","139717","0.0-5.0-2.17","5ee71ce25f11c84a3e909b09","bdp_cybrbll","Sun Apr 02 2023 11:13:05 GMT-0500 (Central Daylight Time)","744916","3","1","","","","","","","","","","208","","","","3","1","[{""stimulus"":""img/3to1/1.png"",""time"":104},{""stimulus"":""img/3to1/2.png"",""time"":202},{""stimulus"":""img/3to1/3.png"",""time"":298},{""stimulus"":""img/3to1/4.png"",""time"":400},{""stimulus"":""img/3to1/5.png"",""time"":499},{""stimulus"":""img/3to1/6.png"",""time"":596},{""stimulus"":""img/3to1/7.png"",""time"":696},{""stimulus"":""img/3to1/8.png"",""time"":794},{""stimulus"":""img/3to1/9.png"",""time"":892},{""stimulus"":""img/3to1/10.png"",""time"":994},{""stimulus"":""img/3to1/11.png"",""time"":1092},{""stimulus"":""img/3to1/12.png"",""time"":1192}]","[]"
"image-keyboard-response","40","140901","0.0-5.0-1.18","5ee71ce25f11c84a3e909b09","bdp_cybrbll","Sun Apr 02 2023 11:13:05 GMT-0500 (Central Daylight Time)","744916","3","1","","null","","","","observe","","img/1to3/1.png","null","207","1180","0.5","0.5","1","3","",""
"animation","41","142193","0.0-5.0-2.18","5ee71ce25f11c84a3e909b09","bdp_cybrbll","Sun Apr 02 2023 11:13:05 GMT-0500 (Central Daylight Time)","744916","3","1","","","","","","","","","","207","","","","1","3","[{""stimulus"":""img/1to3/1.png"",""time"":111},{""stimulus"":""img/1to3/2.png"",""time"":202},{""stimulus"":""img/1to3/3.png"",""time"":298},{""stimulus"":""img/1to3/4.png"",""time"":401},{""stimulus"":""img/1to3/5.png"",""time"":498},{""stimulus"":""img/1to3/6.png"",""time"":596},{""stimulus"":""img/1to3/7.png"",""time"":697},{""stimulus"":""img/1to3/8.png"",""time"":794},{""stimulus"":""img/1to3/9.png"",""time"":892},{""stimulus"":""img/1to3/10.png"",""time"":1002},{""stimulus"":""img/1to3/11.png"",""time"":1092},{""stimulus"":""img/1to3/12.png"",""time"":1189}]","[]"
"image-keyboard-response","42","142499","0.0-5.0-1.19","5ee71ce25f11c84a3e909b09","bdp_cybrbll","Sun Apr 02 2023 11:13:05 GMT-0500 (Central Daylight Time)","744916","3","1","","null","","","","observe","","img/3to2/1.png","null","206","302","0.5","0.5","3","2","",""
"animation","43","143790","0.0-5.0-2.19","5ee71ce25f11c84a3e909b09","bdp_cybrbll","Sun Apr 02 2023 11:13:05 GMT-0500 (Central Daylight Time)","744916","3","1","","","","","","","","","","206","","","","3","2","[{""stimulus"":""img/3to2/1.png"",""time"":101},{""stimulus"":""img/3to2/2.png"",""time"":202},{""stimulus"":""img/3to2/3.png"",""time"":298},{""stimulus"":""img/3to2/4.png"",""time"":399},{""stimulus"":""img/3to2/5.png"",""time"":497},{""stimulus"":""img/3to2/6.png"",""time"":599},{""stimulus"":""img/3to2/7.png"",""time"":697},{""stimulus"":""img/3to2/8.png"",""time"":796},{""stimulus"":""img/3to2/9.png"",""time"":892},{""stimulus"":""img/3to2/10.png"",""time"":994},{""stimulus"":""img/3to2/11.png"",""time"":1093},{""stimulus"":""img/3to2/12.png"",""time"":1190}]","[]"
"image-keyboard-response","44","144436","0.0-5.0-1.20","5ee71ce25f11c84a3e909b09","bdp_cybrbll","Sun Apr 02 2023 11:13:05 GMT-0500 (Central Daylight Time)","744916","3","1","","645","","","","choice","","img/2to1/1.png","2","205","370","0.5","0.5","2","3","",""
"animation","45","145728","0.0-5.0-2.20","5ee71ce25f11c84a3e909b09","bdp_cybrbll","Sun Apr 02 2023 11:13:05 GMT-0500 (Central Daylight Time)","744916","3","1","","","","","","","","","","205","","","","2","3","[{""stimulus"":""img/2to3/1.png"",""time"":103},{""stimulus"":""img/2to3/2.png"",""time"":202},{""stimulus"":""img/2to3/3.png"",""time"":311},{""stimulus"":""img/2to3/4.png"",""time"":398},{""stimulus"":""img/2to3/5.png"",""time"":496},{""stimulus"":""img/2to3/6.png"",""time"":598},{""stimulus"":""img/2to3/7.png"",""time"":696},{""stimulus"":""img/2to3/8.png"",""time"":794},{""stimulus"":""img/2to3/9.png"",""time"":894},{""stimulus"":""img/2to3/10.png"",""time"":994},{""stimulus"":""img/2to3/11.png"",""time"":1093},{""stimulus"":""img/2to3/12.png"",""time"":1188}]","[]"
"image-keyboard-response","46","146000","0.0-5.0-1.21","5ee71ce25f11c84a3e909b09","bdp_cybrbll","Sun Apr 02 2023 11:13:05 GMT-0500 (Central Daylight Time)","744916","3","1","","null","","","","observe","","img/3to2/1.png","null","204","268","0.5","0.5","3","1","",""
"animation","47","147288","0.0-5.0-2.21","5ee71ce25f11c84a3e909b09","bdp_cybrbll","Sun Apr 02 2023 11:13:05 GMT-0500 (Central Daylight Time)","744916","3","1","","","","","","","","","","204","","","","3","1","[{""stimulus"":""img/3to1/1.png"",""time"":103},{""stimulus"":""img/3to1/2.png"",""time"":199},{""stimulus"":""img/3to1/3.png"",""time"":301},{""stimulus"":""img/3to1/4.png"",""time"":398},{""stimulus"":""img/3to1/5.png"",""time"":499},{""stimulus"":""img/3to1/6.png"",""time"":598},{""stimulus"":""img/3to1/7.png"",""time"":703},{""stimulus"":""img/3to1/8.png"",""time"":800},{""stimulus"":""img/3to1/9.png"",""time"":895},{""stimulus"":""img/3to1/10.png"",""time"":992},{""stimulus"":""img/3to1/11.png"",""time"":1089},{""stimulus"":""img/3to1/12.png"",""time"":1191}]","[]"
"image-keyboard-response","48","147793","0.0-5.0-1.22","5ee71ce25f11c84a3e909b09","bdp_cybrbll","Sun Apr 02 2023 11:13:05 GMT-0500 (Central Daylight Time)","744916","3","1","","null","","","","observe","","img/1to3/1.png","null","203","500","0.5","0.5","1","2","",""
"animation","49","149084","0.0-5.0-2.22","5ee71ce25f11c84a3e909b09","bdp_cybrbll","Sun Apr 02 2023 11:13:05 GMT-0500 (Central Daylight Time)","744916","3","1","","","","","","","","","","203","","","","1","2","[{""stimulus"":""img/1to2/1.png"",""time"":101},{""stimulus"":""img/1to2/2.png"",""time"":215},{""stimulus"":""img/1to2/3.png"",""time"":300},{""stimulus"":""img/1to2/4.png"",""time"":399},{""stimulus"":""img/1to2/5.png"",""time"":498},{""stimulus"":""img/1to2/6.png"",""time"":595},{""stimulus"":""img/1to2/7.png"",""time"":696},{""stimulus"":""img/1to2/8.png"",""time"":794},{""stimulus"":""img/1to2/9.png"",""time"":904},{""stimulus"":""img/1to2/10.png"",""time"":993},{""stimulus"":""img/1to2/11.png"",""time"":1091},{""stimulus"":""img/1to2/12.png"",""time"":1189}]","[]"
"image-keyboard-response","50","149433","0.0-5.0-1.23","5ee71ce25f11c84a3e909b09","bdp_cybrbll","Sun Apr 02 2023 11:13:05 GMT-0500 (Central Daylight Time)","744916","3","1","","349","","","","choice","","img/2to1/1.png","1","202","326","0.5","0.5","2","1","",""
"animation","51","150721","0.0-5.0-2.23","5ee71ce25f11c84a3e909b09","bdp_cybrbll","Sun Apr 02 2023 11:13:05 GMT-0500 (Central Daylight Time)","744916","3","1","","","","","","","","","","202","","","","2","1","[{""stimulus"":""img/2to1/1.png"",""time"":102},{""stimulus"":""img/2to1/2.png"",""time"":201},{""stimulus"":""img/2to1/3.png"",""time"":301},{""stimulus"":""img/2to1/4.png"",""time"":401},{""stimulus"":""img/2to1/5.png"",""time"":498},{""stimulus"":""img/2to1/6.png"",""time"":598},{""stimulus"":""img/2to1/7.png"",""time"":695},{""stimulus"":""img/2to1/8.png"",""time"":795},{""stimulus"":""img/2to1/9.png"",""time"":892},{""stimulus"":""img/2to1/10.png"",""time"":994},{""stimulus"":""img/2to1/11.png"",""time"":1095},{""stimulus"":""img/2to1/12.png"",""time"":1190}]","[]"
"image-keyboard-response","52","151429","0.0-5.0-1.24","5ee71ce25f11c84a3e909b09","bdp_cybrbll","Sun Apr 02 2023 11:13:05 GMT-0500 (Central Daylight Time)","744916","3","1","","null","","","","observe","","img/1to3/1.png","null","201","706","0.5","0.5","1","3","",""
"animation","53","152720","0.0-5.0-2.24","5ee71ce25f11c84a3e909b09","bdp_cybrbll","Sun Apr 02 2023 11:13:05 GMT-0500 (Central Daylight Time)","744916","3","1","","","","","","","","","","201","","","","1","3","[{""stimulus"":""img/1to3/1.png"",""time"":101},{""stimulus"":""img/1to3/2.png"",""time"":202},{""stimulus"":""img/1to3/3.png"",""time"":299},{""stimulus"":""img/1to3/4.png"",""time"":398},{""stimulus"":""img/1to3/5.png"",""time"":499},{""stimulus"":""img/1to3/6.png"",""time"":599},{""stimulus"":""img/1to3/7.png"",""time"":696},{""stimulus"":""img/1to3/8.png"",""time"":796},{""stimulus"":""img/1to3/9.png"",""time"":893},{""stimulus"":""img/1to3/10.png"",""time"":990},{""stimulus"":""img/1to3/11.png"",""time"":1092},{""stimulus"":""img/1to3/12.png"",""time"":1192}]","[]"
"image-keyboard-response","54","153564","0.0-5.0-1.25","5ee71ce25f11c84a3e909b09","bdp_cybrbll","Sun Apr 02 2023 11:13:05 GMT-0500 (Central Daylight Time)","744916","3","1","","null","","","","observe","","img/3to2/1.png","null","200","839","0.5","0.5","3","2","",""
"animation","55","154856","0.0-5.0-2.25","5ee71ce25f11c84a3e909b09","bdp_cybrbll","Sun Apr 02 2023 11:13:05 GMT-0500 (Central Daylight Time)","744916","3","1","","","","","","","","","","200","","","","3","2","[{""stimulus"":""img/3to2/1.png"",""time"":103},{""stimulus"":""img/3to2/2.png"",""time"":201},{""stimulus"":""img/3to2/3.png"",""time"":300},{""stimulus"":""img/3to2/4.png"",""time"":405},{""stimulus"":""img/3to2/5.png"",""time"":500},{""stimulus"":""img/3to2/6.png"",""time"":595},{""stimulus"":""img/3to2/7.png"",""time"":696},{""stimulus"":""img/3to2/8.png"",""time"":794},{""stimulus"":""img/3to2/9.png"",""time"":893},{""stimulus"":""img/3to2/10.png"",""time"":994},{""stimulus"":""img/3to2/11.png"",""time"":1091},{""stimulus"":""img/3to2/12.png"",""time"":1191}]","[]"
"image-keyboard-response","56","154909","0.0-5.0-1.26","5ee71ce25f11c84a3e909b09","bdp_cybrbll","Sun Apr 02 2023 11:13:05 GMT-0500 (Central Daylight Time)","744916","3","1","","52","","","","choice","","img/2to1/1.png","2","199","518","0.5","0.5","2","3","",""
"animation","57","156199","0.0-5.0-2.26","5ee71ce25f11c84a3e909b09","bdp_cybrbll","Sun Apr 02 2023 11:13:05 GMT-0500 (Central Daylight Time)","744916","3","1","","","","","","","","","","199","","","","2","3","[{""stimulus"":""img/2to3/1.png"",""time"":101},{""stimulus"":""img/2to3/2.png"",""time"":200},{""stimulus"":""img/2to3/3.png"",""time"":299},{""stimulus"":""img/2to3/4.png"",""time"":400},{""stimulus"":""img/2to3/5.png"",""time"":498},{""stimulus"":""img/2to3/6.png"",""time"":596},{""stimulus"":""img/2to3/7.png"",""time"":697},{""stimulus"":""img/2to3/8.png"",""time"":796},{""stimulus"":""img/2to3/9.png"",""time"":895},{""stimulus"":""img/2to3/10.png"",""time"":993},{""stimulus"":""img/2to3/11.png"",""time"":1092},{""stimulus"":""img/2to3/12.png"",""time"":1191}]","[]"
"image-keyboard-response","58","156559","0.0-5.0-1.27","5ee71ce25f11c84a3e909b09","bdp_cybrbll","Sun Apr 02 2023 11:13:05 GMT-0500 (Central Daylight Time)","744916","3","1","","null","","","","observe","","img/3to2/1.png","null","198","356","0.5","0.5","3","2","",""
"animation","59","157850","0.0-5.0-2.27","5ee71ce25f11c84a3e909b09","bdp_cybrbll","Sun Apr 02 2023 11:13:05 GMT-0500 (Central Daylight Time)","744916","3","1","","","","","","","","","","198","","","","3","2","[{""stimulus"":""img/3to2/1.png"",""time"":102},{""stimulus"":""img/3to2/2.png"",""time"":200},{""stimulus"":""img/3to2/3.png"",""time"":298},{""stimulus"":""img/3to2/4.png"",""time"":397},{""stimulus"":""img/3to2/5.png"",""time"":496},{""stimulus"":""img/3to2/6.png"",""time"":595},{""stimulus"":""img/3to2/7.png"",""time"":696},{""stimulus"":""img/3to2/8.png"",""time"":794},{""stimulus"":""img/3to2/9.png"",""time"":893},{""stimulus"":""img/3to2/10.png"",""time"":991},{""stimulus"":""img/3to2/11.png"",""time"":1090},{""stimulus"":""img/3to2/12.png"",""time"":1191}]","[]"
"image-keyboard-response","60","160934","0.0-5.0-1.28","5ee71ce25f11c84a3e909b09","bdp_cybrbll","Sun Apr 02 2023 11:13:05 GMT-0500 (Central Daylight Time)","744916","3","1","","3083","","","","choice","","img/2to1/1.png","2","197","730","0.5","0.5","2","3","",""
"animation","61","162225","0.0-5.0-2.28","5ee71ce25f11c84a3e909b09","bdp_cybrbll","Sun Apr 02 2023 11:13:05 GMT-0500 (Central Daylight Time)","744916","3","1","","","","","","","","","","197","","","","2","3","[{""stimulus"":""img/2to3/1.png"",""time"":100},{""stimulus"":""img/2to3/2.png"",""time"":209},{""stimulus"":""img/2to3/3.png"",""time"":299},{""stimulus"":""img/2to3/4.png"",""time"":400},{""stimulus"":""img/2to3/5.png"",""time"":499},{""stimulus"":""img/2to3/6.png"",""time"":597},{""stimulus"":""img/2to3/7.png"",""time"":695},{""stimulus"":""img/2to3/8.png"",""time"":794},{""stimulus"":""img/2to3/9.png"",""time"":893},{""stimulus"":""img/2to3/10.png"",""time"":992},{""stimulus"":""img/2to3/11.png"",""time"":1092},{""stimulus"":""img/2to3/12.png"",""time"":1192}]","[]"
"image-keyboard-response","62","163108","0.0-5.0-1.29","5ee71ce25f11c84a3e909b09","bdp_cybrbll","Sun Apr 02 2023 11:13:05 GMT-0500 (Central Daylight Time)","744916","3","1","","null","","","","observe","","img/3to2/1.png","null","196","880","0.5","0.5","3","1","",""
"animation","63","164403","0.0-5.0-2.29","5ee71ce25f11c84a3e909b09","bdp_cybrbll","Sun Apr 02 2023 11:13:05 GMT-0500 (Central Daylight Time)","744916","3","1","","","","","","","","","","196","","","","3","1","[{""stimulus"":""img/3to1/1.png"",""time"":102},{""stimulus"":""img/3to1/2.png"",""time"":201},{""stimulus"":""img/3to1/3.png"",""time"":301},{""stimulus"":""img/3to1/4.png"",""time"":399},{""stimulus"":""img/3to1/5.png"",""time"":497},{""stimulus"":""img/3to1/6.png"",""time"":598},{""stimulus"":""img/3to1/7.png"",""time"":708},{""stimulus"":""img/3to1/8.png"",""time"":797},{""stimulus"":""img/3to1/9.png"",""time"":895},{""stimulus"":""img/3to1/10.png"",""time"":992},{""stimulus"":""img/3to1/11.png"",""time"":1092},{""stimulus"":""img/3to1/12.png"",""time"":1188}]","[]"
"image-keyboard-response","64","164822","0.0-5.0-1.30","5ee71ce25f11c84a3e909b09","bdp_cybrbll","Sun Apr 02 2023 11:13:05 GMT-0500 (Central Daylight Time)","744916","3","1","","null","","","","observe","","img/1to3/1.png","null","195","414","0.5","0.5","1","2","",""
"animation","65","166114","0.0-5.0-2.30","5ee71ce25f11c84a3e909b09","bdp_cybrbll","Sun Apr 02 2023 11:13:05 GMT-0500 (Central Daylight Time)","744916","3","1","","","","","","","","","","195","","","","1","2","[{""stimulus"":""img/1to2/1.png"",""time"":103},{""stimulus"":""img/1to2/2.png"",""time"":200},{""stimulus"":""img/1to2/3.png"",""time"":300},{""stimulus"":""img/1to2/4.png"",""time"":397},{""stimulus"":""img/1to2/5.png"",""time"":496},{""stimulus"":""img/1to2/6.png"",""time"":596},{""stimulus"":""img/1to2/7.png"",""time"":698},{""stimulus"":""img/1to2/8.png"",""time"":796},{""stimulus"":""img/1to2/9.png"",""time"":894},{""stimulus"":""img/1to2/10.png"",""time"":992},{""stimulus"":""img/1to2/11.png"",""time"":1090},{""stimulus"":""img/1to2/12.png"",""time"":1192}]","[]"
"image-keyboard-response","66","166351","0.0-5.0-1.31","5ee71ce25f11c84a3e909b09","bdp_cybrbll","Sun Apr 02 2023 11:13:05 GMT-0500 (Central Daylight Time)","744916","3","1","","236","","","","choice","","img/2to1/1.png","1","194","345","0.5","0.5","2","1","",""
"animation","67","167642","0.0-5.0-2.31","5ee71ce25f11c84a3e909b09","bdp_cybrbll","Sun Apr 02 2023 11:13:05 GMT-0500 (Central Daylight Time)","744916","3","1","","","","","","","","","","194","","","","2","1","[{""stimulus"":""img/2to1/1.png"",""time"":102},{""stimulus"":""img/2to1/2.png"",""time"":201},{""stimulus"":""img/2to1/3.png"",""time"":300},{""stimulus"":""img/2to1/4.png"",""time"":400},{""stimulus"":""img/2to1/5.png"",""time"":498},{""stimulus"":""img/2to1/6.png"",""time"":595},{""stimulus"":""img/2to1/7.png"",""time"":706},{""stimulus"":""img/2to1/8.png"",""time"":793},{""stimulus"":""img/2to1/9.png"",""time"":894},{""stimulus"":""img/2to1/10.png"",""time"":991},{""stimulus"":""img/2to1/11.png"",""time"":1092},{""stimulus"":""img/2to1/12.png"",""time"":1192}]","[]"
"image-keyboard-response","68","168333","0.0-5.0-1.32","5ee71ce25f11c84a3e909b09","bdp_cybrbll","Sun Apr 02 2023 11:13:05 GMT-0500 (Central Daylight Time)","744916","3","1","","null","","","","observe","","img/1to3/1.png","null","193","687","0.5","0.5","1","3","",""
"animation","69","169623","0.0-5.0-2.32","5ee71ce25f11c84a3e909b09","bdp_cybrbll","Sun Apr 02 2023 11:13:05 GMT-0500 (Central Daylight Time)","744916","3","1","","","","","","","","","","193","","","","1","3","[{""stimulus"":""img/1to3/1.png"",""time"":101},{""stimulus"":""img/1to3/2.png"",""time"":202},{""stimulus"":""img/1to3/3.png"",""time"":301},{""stimulus"":""img/1to3/4.png"",""time"":399},{""stimulus"":""img/1to3/5.png"",""time"":506},{""stimulus"":""img/1to3/6.png"",""time"":595},{""stimulus"":""img/1to3/7.png"",""time"":697},{""stimulus"":""img/1to3/8.png"",""time"":796},{""stimulus"":""img/1to3/9.png"",""time"":892},{""stimulus"":""img/1to3/10.png"",""time"":994},{""stimulus"":""img/1to3/11.png"",""time"":1093},{""stimulus"":""img/1to3/12.png"",""time"":1188}]","[]"
"image-keyboard-response","70","170073","0.0-5.0-1.33","5ee71ce25f11c84a3e909b09","bdp_cybrbll","Sun Apr 02 2023 11:13:05 GMT-0500 (Central Daylight Time)","744916","3","1","","null","","","","observe","","img/3to2/1.png","null","192","449","0.5","0.5","3","1","",""
"animation","71","171362","0.0-5.0-2.33","5ee71ce25f11c84a3e909b09","bdp_cybrbll","Sun Apr 02 2023 11:13:05 GMT-0500 (Central Daylight Time)","744916","3","1","","","","","","","","","","192","","","","3","1","[{""stimulus"":""img/3to1/1.png"",""time"":103},{""stimulus"":""img/3to1/2.png"",""time"":201},{""stimulus"":""img/3to1/3.png"",""time"":300},{""stimulus"":""img/3to1/4.png"",""time"":402},{""stimulus"":""img/3to1/5.png"",""time"":497},{""stimulus"":""img/3to1/6.png"",""time"":597},{""stimulus"":""img/3to1/7.png"",""time"":696},{""stimulus"":""img/3to1/8.png"",""time"":794},{""stimulus"":""img/3to1/9.png"",""time"":896},{""stimulus"":""img/3to1/10.png"",""time"":994},{""stimulus"":""img/3to1/11.png"",""time"":1093},{""stimulus"":""img/3to1/12.png"",""time"":1191}]","[]"
"image-keyboard-response","72","171900","0.0-5.0-1.34","5ee71ce25f11c84a3e909b09","bdp_cybrbll","Sun Apr 02 2023 11:13:05 GMT-0500 (Central Daylight Time)","744916","3","1","","null","","","","observe","","img/1to3/1.png","null","191","535","0.5","0.5","1","2","",""
"animation","73","173190","0.0-5.0-2.34","5ee71ce25f11c84a3e909b09","bdp_cybrbll","Sun Apr 02 2023 11:13:05 GMT-0500 (Central Daylight Time)","744916","3","1","","","","","","","","","","191","","","","1","2","[{""stimulus"":""img/1to2/1.png"",""time"":102},{""stimulus"":""img/1to2/2.png"",""time"":202},{""stimulus"":""img/1to2/3.png"",""time"":301},{""stimulus"":""img/1to2/4.png"",""time"":398},{""stimulus"":""img/1to2/5.png"",""time"":496},{""stimulus"":""img/1to2/6.png"",""time"":596},{""stimulus"":""img/1to2/7.png"",""time"":705},{""stimulus"":""img/1to2/8.png"",""time"":793},{""stimulus"":""img/1to2/9.png"",""time"":892},{""stimulus"":""img/1to2/10.png"",""time"":994},{""stimulus"":""img/1to2/11.png"",""time"":1092},{""stimulus"":""img/1to2/12.png"",""time"":1189}]","[]"
"image-keyboard-response","74","173438","0.0-5.0-1.35","5ee71ce25f11c84a3e909b09","bdp_cybrbll","Sun Apr 02 2023 11:13:05 GMT-0500 (Central Daylight Time)","744916","3","1","","247","","","","choice","","img/2to1/1.png","2","190","490","0.5","0.5","2","3","",""
"animation","75","174727","0.0-5.0-2.35","5ee71ce25f11c84a3e909b09","bdp_cybrbll","Sun Apr 02 2023 11:13:05 GMT-0500 (Central Daylight Time)","744916","3","1","","","","","","","","","","190","","","","2","3","[{""stimulus"":""img/2to3/1.png"",""time"":104},{""stimulus"":""img/2to3/2.png"",""time"":203},{""stimulus"":""img/2to3/3.png"",""time"":299},{""stimulus"":""img/2to3/4.png"",""time"":399},{""stimulus"":""img/2to3/5.png"",""time"":496},{""stimulus"":""img/2to3/6.png"",""time"":607},{""stimulus"":""img/2to3/7.png"",""time"":698},{""stimulus"":""img/2to3/8.png"",""time"":795},{""stimulus"":""img/2to3/9.png"",""time"":893},{""stimulus"":""img/2to3/10.png"",""time"":995},{""stimulus"":""img/2to3/11.png"",""time"":1101},{""stimulus"":""img/2to3/12.png"",""time"":1189}]","[]"
"image-keyboard-response","76","175507","0.0-5.0-1.36","5ee71ce25f11c84a3e909b09","bdp_cybrbll","Sun Apr 02 2023 11:13:05 GMT-0500 (Central Daylight Time)","744916","3","1","","null","","","","observe","","img/3to2/1.png","null","189","777","0.5","0.5","3","2","",""
"animation","77","176796","0.0-5.0-2.36","5ee71ce25f11c84a3e909b09","bdp_cybrbll","Sun Apr 02 2023 11:13:05 GMT-0500 (Central Daylight Time)","744916","3","1","","","","","","","","","","189","","","","3","2","[{""stimulus"":""img/3to2/1.png"",""time"":102},{""stimulus"":""img/3to2/2.png"",""time"":203},{""stimulus"":""img/3to2/3.png"",""time"":299},{""stimulus"":""img/3to2/4.png"",""time"":398},{""stimulus"":""img/3to2/5.png"",""time"":496},{""stimulus"":""img/3to2/6.png"",""time"":595},{""stimulus"":""img/3to2/7.png"",""time"":697},{""stimulus"":""img/3to2/8.png"",""time"":795},{""stimulus"":""img/3to2/9.png"",""time"":894},{""stimulus"":""img/3to2/10.png"",""time"":992},{""stimulus"":""img/3to2/11.png"",""time"":1092},{""stimulus"":""img/3to2/12.png"",""time"":1189}]","[]"
"image-keyboard-response","78","178703","0.0-5.0-1.37","5ee71ce25f11c84a3e909b09","bdp_cybrbll","Sun Apr 02 2023 11:13:05 GMT-0500 (Central Daylight Time)","744916","3","1","","1906","","","","choice","","img/2to1/1.png","2","188","639","0.5","0.5","2","3","",""
"animation","79","179994","0.0-5.0-2.37","5ee71ce25f11c84a3e909b09","bdp_cybrbll","Sun Apr 02 2023 11:13:05 GMT-0500 (Central Daylight Time)","744916","3","1","","","","","","","","","","188","","","","2","3","[{""stimulus"":""img/2to3/1.png"",""time"":104},{""stimulus"":""img/2to3/2.png"",""time"":201},{""stimulus"":""img/2to3/3.png"",""time"":300},{""stimulus"":""img/2to3/4.png"",""time"":407},{""stimulus"":""img/2to3/5.png"",""time"":497},{""stimulus"":""img/2to3/6.png"",""time"":596},{""stimulus"":""img/2to3/7.png"",""time"":695},{""stimulus"":""img/2to3/8.png"",""time"":793},{""stimulus"":""img/2to3/9.png"",""time"":892},{""stimulus"":""img/2to3/10.png"",""time"":994},{""stimulus"":""img/2to3/11.png"",""time"":1092},{""stimulus"":""img/2to3/12.png"",""time"":1190}]","[]"
"image-keyboard-response","80","180330","0.0-5.0-1.38","5ee71ce25f11c84a3e909b09","bdp_cybrbll","Sun Apr 02 2023 11:13:05 GMT-0500 (Central Daylight Time)","744916","3","1","","null","","","","observe","","img/3to2/1.png","null","187","333","0.5","0.5","3","1","",""
"animation","81","181621","0.0-5.0-2.38","5ee71ce25f11c84a3e909b09","bdp_cybrbll","Sun Apr 02 2023 11:13:05 GMT-0500 (Central Daylight Time)","744916","3","1","","","","","","","","","","187","","","","3","1","[{""stimulus"":""img/3to1/1.png"",""time"":102},{""stimulus"":""img/3to1/2.png"",""time"":200},{""stimulus"":""img/3to1/3.png"",""time"":298},{""stimulus"":""img/3to1/4.png"",""time"":396},{""stimulus"":""img/3to1/5.png"",""time"":496},{""stimulus"":""img/3to1/6.png"",""time"":598},{""stimulus"":""img/3to1/7.png"",""time"":696},{""stimulus"":""img/3to1/8.png"",""time"":802},{""stimulus"":""img/3to1/9.png"",""time"":893},{""stimulus"":""img/3to1/10.png"",""time"":993},{""stimulus"":""img/3to1/11.png"",""time"":1090},{""stimulus"":""img/3to1/12.png"",""time"":1192}]","[]"
"image-keyboard-response","82","182175","0.0-5.0-1.39","5ee71ce25f11c84a3e909b09","bdp_cybrbll","Sun Apr 02 2023 11:13:05 GMT-0500 (Central Daylight Time)","744916","3","1","","null","","","","observe","","img/1to3/1.png","null","186","550","0.5","0.5","1","3","",""
"animation","83","183463","0.0-5.0-2.39","5ee71ce25f11c84a3e909b09","bdp_cybrbll","Sun Apr 02 2023 11:13:05 GMT-0500 (Central Daylight Time)","744916","3","1","","","","","","","","","","186","","","","1","3","[{""stimulus"":""img/1to3/1.png"",""time"":103},{""stimulus"":""img/1to3/2.png"",""time"":202},{""stimulus"":""img/1to3/3.png"",""time"":300},{""stimulus"":""img/1to3/4.png"",""time"":399},{""stimulus"":""img/1to3/5.png"",""time"":497},{""stimulus"":""img/1to3/6.png"",""time"":597},{""stimulus"":""img/1to3/7.png"",""time"":697},{""stimulus"":""img/1to3/8.png"",""time"":795},{""stimulus"":""img/1to3/9.png"",""time"":896},{""stimulus"":""img/1to3/10.png"",""time"":992},{""stimulus"":""img/1to3/11.png"",""time"":1091},{""stimulus"":""img/1to3/12.png"",""time"":1190}]","[]"
"image-keyboard-response","84","183839","0.0-5.0-1.40","5ee71ce25f11c84a3e909b09","bdp_cybrbll","Sun Apr 02 2023 11:13:05 GMT-0500 (Central Daylight Time)","744916","3","1","","null","","","","observe","","img/3to2/1.png","null","185","372","0.5","0.5","3","2","",""
"animation","85","185127","0.0-5.0-2.40","5ee71ce25f11c84a3e909b09","bdp_cybrbll","Sun Apr 02 2023 11:13:05 GMT-0500 (Central Daylight Time)","744916","3","1","","","","","","","","","","185","","","","3","2","[{""stimulus"":""img/3to2/1.png"",""time"":102},{""stimulus"":""img/3to2/2.png"",""time"":200},{""stimulus"":""img/3to2/3.png"",""time"":300},{""stimulus"":""img/3to2/4.png"",""time"":399},{""stimulus"":""img/3to2/5.png"",""time"":498},{""stimulus"":""img/3to2/6.png"",""time"":597},{""stimulus"":""img/3to2/7.png"",""time"":694},{""stimulus"":""img/3to2/8.png"",""time"":805},{""stimulus"":""img/3to2/9.png"",""time"":895},{""stimulus"":""img/3to2/10.png"",""time"":993},{""stimulus"":""img/3to2/11.png"",""time"":1092},{""stimulus"":""img/3to2/12.png"",""time"":1191}]","[]"
"image-keyboard-response","86","185984","0.0-5.0-1.41","5ee71ce25f11c84a3e909b09","bdp_cybrbll","Sun Apr 02 2023 11:13:05 GMT-0500 (Central Daylight Time)","744916","3","1","","856","","","","choice","","img/2to1/1.png","1","184","168","0.5","0.5","2","1","",""
"animation","87","187275","0.0-5.0-2.41","5ee71ce25f11c84a3e909b09","bdp_cybrbll","Sun Apr 02 2023 11:13:05 GMT-0500 (Central Daylight Time)","744916","3","1","","","","","","","","","","184","","","","2","1","[{""stimulus"":""img/2to1/1.png"",""time"":100},{""stimulus"":""img/2to1/2.png"",""time"":201},{""stimulus"":""img/2to1/3.png"",""time"":298},{""stimulus"":""img/2to1/4.png"",""time"":398},{""stimulus"":""img/2to1/5.png"",""time"":497},{""stimulus"":""img/2to1/6.png"",""time"":597},{""stimulus"":""img/2to1/7.png"",""time"":694},{""stimulus"":""img/2to1/8.png"",""time"":792},{""stimulus"":""img/2to1/9.png"",""time"":894},{""stimulus"":""img/2to1/10.png"",""time"":991},{""stimulus"":""img/2to1/11.png"",""time"":1099},{""stimulus"":""img/2to1/12.png"",""time"":1191}]","[]"
"image-keyboard-response","88","187507","0.0-5.0-1.42","5ee71ce25f11c84a3e909b09","bdp_cybrbll","Sun Apr 02 2023 11:13:05 GMT-0500 (Central Daylight Time)","744916","3","1","","null","","","","observe","","img/1to3/1.png","null","183","230","0.5","0.5","1","3","",""
"animation","89","188796","0.0-5.0-2.42","5ee71ce25f11c84a3e909b09","bdp_cybrbll","Sun Apr 02 2023 11:13:05 GMT-0500 (Central Daylight Time)","744916","3","1","","","","","","","","","","183","","","","1","3","[{""stimulus"":""img/1to3/1.png"",""time"":102},{""stimulus"":""img/1to3/2.png"",""time"":202},{""stimulus"":""img/1to3/3.png"",""time"":299},{""stimulus"":""img/1to3/4.png"",""time"":403},{""stimulus"":""img/1to3/5.png"",""time"":496},{""stimulus"":""img/1to3/6.png"",""time"":597},{""stimulus"":""img/1to3/7.png"",""time"":695},{""stimulus"":""img/1to3/8.png"",""time"":793},{""stimulus"":""img/1to3/9.png"",""time"":895},{""stimulus"":""img/1to3/10.png"",""time"":993},{""stimulus"":""img/1to3/11.png"",""time"":1092},{""stimulus"":""img/1to3/12.png"",""time"":1189}]","[]"
"image-keyboard-response","90","190616","0.0-5.0-1.43","5ee71ce25f11c84a3e909b09","bdp_cybrbll","Sun Apr 02 2023 11:13:05 GMT-0500 (Central Daylight Time)","744916","3","1","","null","","","","observe","","img/3to2/1.png","null","182","1818","0.5","0.5","3","2","",""
"animation","91","191907","0.0-5.0-2.43","5ee71ce25f11c84a3e909b09","bdp_cybrbll","Sun Apr 02 2023 11:13:05 GMT-0500 (Central Daylight Time)","744916","3","1","","","","","","","","","","182","","","","3","2","[{""stimulus"":""img/3to2/1.png"",""time"":103},{""stimulus"":""img/3to2/2.png"",""time"":201},{""stimulus"":""img/3to2/3.png"",""time"":298},{""stimulus"":""img/3to2/4.png"",""time"":404},{""stimulus"":""img/3to2/5.png"",""time"":498},{""stimulus"":""img/3to2/6.png"",""time"":596},{""stimulus"":""img/3to2/7.png"",""time"":697},{""stimulus"":""img/3to2/8.png"",""time"":794},{""stimulus"":""img/3to2/9.png"",""time"":892},{""stimulus"":""img/3to2/10.png"",""time"":994},{""stimulus"":""img/3to2/11.png"",""time"":1092},{""stimulus"":""img/3to2/12.png"",""time"":1191}]","[]"
"image-keyboard-response","92","192544","0.0-5.0-1.44","5ee71ce25f11c84a3e909b09","bdp_cybrbll","Sun Apr 02 2023 11:13:05 GMT-0500 (Central Daylight Time)","744916","3","1","","637","","","","choice","","img/2to1/1.png","1","181","819","0.5","0.5","2","1","",""
"animation","93","193832","0.0-5.0-2.44","5ee71ce25f11c84a3e909b09","bdp_cybrbll","Sun Apr 02 2023 11:13:05 GMT-0500 (Central Daylight Time)","744916","3","1","","","","","","","","","","181","","","","2","1","[{""stimulus"":""img/2to1/1.png"",""time"":101},{""stimulus"":""img/2to1/2.png"",""time"":199},{""stimulus"":""img/2to1/3.png"",""time"":300},{""stimulus"":""img/2to1/4.png"",""time"":398},{""stimulus"":""img/2to1/5.png"",""time"":496},{""stimulus"":""img/2to1/6.png"",""time"":599},{""stimulus"":""img/2to1/7.png"",""time"":698},{""stimulus"":""img/2to1/8.png"",""time"":804},{""stimulus"":""img/2to1/9.png"",""time"":893},{""stimulus"":""img/2to1/10.png"",""time"":993},{""stimulus"":""img/2to1/11.png"",""time"":1091},{""stimulus"":""img/2to1/12.png"",""time"":1190}]","[]"
"image-keyboard-response","94","194250","0.0-5.0-1.45","5ee71ce25f11c84a3e909b09","bdp_cybrbll","Sun Apr 02 2023 11:13:05 GMT-0500 (Central Daylight Time)","744916","3","1","","null","","","","observe","","img/1to3/1.png","null","180","416","0.5","0.5","1","2","",""
"animation","95","195539","0.0-5.0-2.45","5ee71ce25f11c84a3e909b09","bdp_cybrbll","Sun Apr 02 2023 11:13:05 GMT-0500 (Central Daylight Time)","744916","3","1","","","","","","","","","","180","","","","1","2","[{""stimulus"":""img/1to2/1.png"",""time"":102},{""stimulus"":""img/1to2/2.png"",""time"":202},{""stimulus"":""img/1to2/3.png"",""time"":300},{""stimulus"":""img/1to2/4.png"",""time"":399},{""stimulus"":""img/1to2/5.png"",""time"":499},{""stimulus"":""img/1to2/6.png"",""time"":598},{""stimulus"":""img/1to2/7.png"",""time"":695},{""stimulus"":""img/1to2/8.png"",""time"":793},{""stimulus"":""img/1to2/9.png"",""time"":892},{""stimulus"":""img/1to2/10.png"",""time"":991},{""stimulus"":""img/1to2/11.png"",""time"":1093},{""stimulus"":""img/1to2/12.png"",""time"":1190}]","[]"
"image-keyboard-response","96","199546","0.0-5.0-1.46","5ee71ce25f11c84a3e909b09","bdp_cybrbll","Sun Apr 02 2023 11:13:05 GMT-0500 (Central Daylight Time)","744916","3","1","","4007","","","","choice","","img/2to1/1.png","1","179","264","0.5","0.5","2","1","",""
"animation","97","200835","0.0-5.0-2.46","5ee71ce25f11c84a3e909b09","bdp_cybrbll","Sun Apr 02 2023 11:13:05 GMT-0500 (Central Daylight Time)","744916","3","1","","","","","","","","","","179","","","","2","1","[{""stimulus"":""img/2to1/1.png"",""time"":102},{""stimulus"":""img/2to1/2.png"",""time"":199},{""stimulus"":""img/2to1/3.png"",""time"":299},{""stimulus"":""img/2to1/4.png"",""time"":411},{""stimulus"":""img/2to1/5.png"",""time"":506},{""stimulus"":""img/2to1/6.png"",""time"":595},{""stimulus"":""img/2to1/7.png"",""time"":696},{""stimulus"":""img/2to1/8.png"",""time"":796},{""stimulus"":""img/2to1/9.png"",""time"":895},{""stimulus"":""img/2to1/10.png"",""time"":993},{""stimulus"":""img/2to1/11.png"",""time"":1093},{""stimulus"":""img/2to1/12.png"",""time"":1190}]","[]"
"image-keyboard-response","98","201327","0.0-5.0-1.47","5ee71ce25f11c84a3e909b09","bdp_cybrbll","Sun Apr 02 2023 11:13:05 GMT-0500 (Central Daylight Time)","744916","3","1","","null","","","","observe","","img/1to3/1.png","null","178","490","0.5","0.5","1","2","",""
"animation","99","202619","0.0-5.0-2.47","5ee71ce25f11c84a3e909b09","bdp_cybrbll","Sun Apr 02 2023 11:13:05 GMT-0500 (Central Daylight Time)","744916","3","1","","","","","","","","","","178","","","","1","2","[{""stimulus"":""img/1to2/1.png"",""time"":103},{""stimulus"":""img/1to2/2.png"",""time"":201},{""stimulus"":""img/1to2/3.png"",""time"":298},{""stimulus"":""img/1to2/4.png"",""time"":401},{""stimulus"":""img/1to2/5.png"",""time"":499},{""stimulus"":""img/1to2/6.png"",""time"":598},{""stimulus"":""img/1to2/7.png"",""time"":696},{""stimulus"":""img/1to2/8.png"",""time"":793},{""stimulus"":""img/1to2/9.png"",""time"":895},{""stimulus"":""img/1to2/10.png"",""time"":994},{""stimulus"":""img/1to2/11.png"",""time"":1092},{""stimulus"":""img/1to2/12.png"",""time"":1189}]","[]"
"image-keyboard-response","100","206041","0.0-5.0-1.48","5ee71ce25f11c84a3e909b09","bdp_cybrbll","Sun Apr 02 2023 11:13:05 GMT-0500 (Central Daylight Time)","744916","3","1","","3421","","","","choice","","img/2to1/1.png","1","177","350","0.5","0.5","2","1","",""
"animation","101","207331","0.0-5.0-2.48","5ee71ce25f11c84a3e909b09","bdp_cybrbll","Sun Apr 02 2023 11:13:05 GMT-0500 (Central Daylight Time)","744916","3","1","","","","","","","","","","177","","","","2","1","[{""stimulus"":""img/2to1/1.png"",""time"":100},{""stimulus"":""img/2to1/2.png"",""time"":199},{""stimulus"":""img/2to1/3.png"",""time"":300},{""stimulus"":""img/2to1/4.png"",""time"":398},{""stimulus"":""img/2to1/5.png"",""time"":497},{""stimulus"":""img/2to1/6.png"",""time"":597},{""stimulus"":""img/2to1/7.png"",""time"":695},{""stimulus"":""img/2to1/8.png"",""time"":795},{""stimulus"":""img/2to1/9.png"",""time"":893},{""stimulus"":""img/2to1/10.png"",""time"":993},{""stimulus"":""img/2to1/11.png"",""time"":1092},{""stimulus"":""img/2to1/12.png"",""time"":1190}]","[]"
"image-keyboard-response","102","207894","0.0-5.0-1.49","5ee71ce25f11c84a3e909b09","bdp_cybrbll","Sun Apr 02 2023 11:13:05 GMT-0500 (Central Daylight Time)","744916","3","1","","null","","","","observe","","img/1to3/1.png","null","176","559","0.5","0.5","1","2","",""
"animation","103","209182","0.0-5.0-2.49","5ee71ce25f11c84a3e909b09","bdp_cybrbll","Sun Apr 02 2023 11:13:05 GMT-0500 (Central Daylight Time)","744916","3","1","","","","","","","","","","176","","","","1","2","[{""stimulus"":""img/1to2/1.png"",""time"":102},{""stimulus"":""img/1to2/2.png"",""time"":201},{""stimulus"":""img/1to2/3.png"",""time"":300},{""stimulus"":""img/1to2/4.png"",""time"":397},{""stimulus"":""img/1to2/5.png"",""time"":495},{""stimulus"":""img/1to2/6.png"",""time"":597},{""stimulus"":""img/1to2/7.png"",""time"":695},{""stimulus"":""img/1to2/8.png"",""time"":795},{""stimulus"":""img/1to2/9.png"",""time"":892},{""stimulus"":""img/1to2/10.png"",""time"":991},{""stimulus"":""img/1to2/11.png"",""time"":1093},{""stimulus"":""img/1to2/12.png"",""time"":1191}]","[]"
"image-keyboard-response","104","210250","0.0-5.0-1.50","5ee71ce25f11c84a3e909b09","bdp_cybrbll","Sun Apr 02 2023 11:13:05 GMT-0500 (Central Daylight Time)","744916","3","1","","1067","","","","choice","","img/2to1/1.png","2","175","921","0.5","0.5","2","3","",""
"animation","105","211540","0.0-5.0-2.50","5ee71ce25f11c84a3e909b09","bdp_cybrbll","Sun Apr 02 2023 11:13:05 GMT-0500 (Central Daylight Time)","744916","3","1","","","","","","","","","","175","","","","2","3","[{""stimulus"":""img/2to3/1.png"",""time"":103},{""stimulus"":""img/2to3/2.png"",""time"":201},{""stimulus"":""img/2to3/3.png"",""time"":299},{""stimulus"":""img/2to3/4.png"",""time"":399},{""stimulus"":""img/2to3/5.png"",""time"":497},{""stimulus"":""img/2to3/6.png"",""time"":594},{""stimulus"":""img/2to3/7.png"",""time"":696},{""stimulus"":""img/2to3/8.png"",""time"":794},{""stimulus"":""img/2to3/9.png"",""time"":891},{""stimulus"":""img/2to3/10.png"",""time"":994},{""stimulus"":""img/2to3/11.png"",""time"":1092},{""stimulus"":""img/2to3/12.png"",""time"":1191}]","[]"
"image-keyboard-response","106","211951","0.0-5.0-1.51","5ee71ce25f11c84a3e909b09","bdp_cybrbll","Sun Apr 02 2023 11:13:05 GMT-0500 (Central Daylight Time)","744916","3","1","","null","","","","observe","","img/3to2/1.png","null","174","408","0.5","0.5","3","1","",""
"animation","107","213243","0.0-5.0-2.51","5ee71ce25f11c84a3e909b09","bdp_cybrbll","Sun Apr 02 2023 11:13:05 GMT-0500 (Central Daylight Time)","744916","3","1","","","","","","","","","","174","","","","3","1","[{""stimulus"":""img/3to1/1.png"",""time"":102},{""stimulus"":""img/3to1/2.png"",""time"":202},{""stimulus"":""img/3to1/3.png"",""time"":301},{""stimulus"":""img/3to1/4.png"",""time"":400},{""stimulus"":""img/3to1/5.png"",""time"":498},{""stimulus"":""img/3to1/6.png"",""time"":596},{""stimulus"":""img/3to1/7.png"",""time"":698},{""stimulus"":""img/3to1/8.png"",""time"":796},{""stimulus"":""img/3to1/9.png"",""time"":896},{""stimulus"":""img/3to1/10.png"",""time"":994},{""stimulus"":""img/3to1/11.png"",""time"":1093},{""stimulus"":""img/3to1/12.png"",""time"":1190}]","[]"
"image-keyboard-response","108","213981","0.0-5.0-1.52","5ee71ce25f11c84a3e909b09","bdp_cybrbll","Sun Apr 02 2023 11:13:05 GMT-0500 (Central Daylight Time)","744916","3","1","","null","","","","observe","","img/1to3/1.png","null","173","735","0.5","0.5","1","3","",""
"animation","109","215272","0.0-5.0-2.52","5ee71ce25f11c84a3e909b09","bdp_cybrbll","Sun Apr 02 2023 11:13:05 GMT-0500 (Central Daylight Time)","744916","3","1","","","","","","","","","","173","","","","1","3","[{""stimulus"":""img/1to3/1.png"",""time"":102},{""stimulus"":""img/1to3/2.png"",""time"":201},{""stimulus"":""img/1to3/3.png"",""time"":298},{""stimulus"":""img/1to3/4.png"",""time"":400},{""stimulus"":""img/1to3/5.png"",""time"":499},{""stimulus"":""img/1to3/6.png"",""time"":597},{""stimulus"":""img/1to3/7.png"",""time"":695},{""stimulus"":""img/1to3/8.png"",""time"":796},{""stimulus"":""img/1to3/9.png"",""time"":893},{""stimulus"":""img/1to3/10.png"",""time"":993},{""stimulus"":""img/1to3/11.png"",""time"":1093},{""stimulus"":""img/1to3/12.png"",""time"":1191}]","[]"
"image-keyboard-response","110","215769","0.0-5.0-1.53","5ee71ce25f11c84a3e909b09","bdp_cybrbll","Sun Apr 02 2023 11:13:05 GMT-0500 (Central Daylight Time)","744916","3","1","","null","","","","observe","","img/3to2/1.png","null","172","481","0.5","0.5","3","2","",""
"animation","111","217057","0.0-5.0-2.53","5ee71ce25f11c84a3e909b09","bdp_cybrbll","Sun Apr 02 2023 11:13:05 GMT-0500 (Central Daylight Time)","744916","3","1","","","","","","","","","","172","","","","3","2","[{""stimulus"":""img/3to2/1.png"",""time"":101},{""stimulus"":""img/3to2/2.png"",""time"":199},{""stimulus"":""img/3to2/3.png"",""time"":298},{""stimulus"":""img/3to2/4.png"",""time"":398},{""stimulus"":""img/3to2/5.png"",""time"":500},{""stimulus"":""img/3to2/6.png"",""time"":597},{""stimulus"":""img/3to2/7.png"",""time"":698},{""stimulus"":""img/3to2/8.png"",""time"":805},{""stimulus"":""img/3to2/9.png"",""time"":894},{""stimulus"":""img/3to2/10.png"",""time"":994},{""stimulus"":""img/3to2/11.png"",""time"":1092},{""stimulus"":""img/3to2/12.png"",""time"":1190}]","[]"
"image-keyboard-response","112","217356","0.0-5.0-1.54","5ee71ce25f11c84a3e909b09","bdp_cybrbll","Sun Apr 02 2023 11:13:05 GMT-0500 (Central Daylight Time)","744916","3","1","","298","","","","choice","","img/2to1/1.png","2","171","534","0.5","0.5","2","3","",""
"animation","113","218645","0.0-5.0-2.54","5ee71ce25f11c84a3e909b09","bdp_cybrbll","Sun Apr 02 2023 11:13:05 GMT-0500 (Central Daylight Time)","744916","3","1","","","","","","","","","","171","","","","2","3","[{""stimulus"":""img/2to3/1.png"",""time"":103},{""stimulus"":""img/2to3/2.png"",""time"":213},{""stimulus"":""img/2to3/3.png"",""time"":298},{""stimulus"":""img/2to3/4.png"",""time"":399},{""stimulus"":""img/2to3/5.png"",""time"":496},{""stimulus"":""img/2to3/6.png"",""time"":597},{""stimulus"":""img/2to3/7.png"",""time"":700},{""stimulus"":""img/2to3/8.png"",""time"":794},{""stimulus"":""img/2to3/9.png"",""time"":894},{""stimulus"":""img/2to3/10.png"",""time"":992},{""stimulus"":""img/2to3/11.png"",""time"":1091},{""stimulus"":""img/2to3/12.png"",""time"":1192}]","[]"
"image-keyboard-response","114","219525","0.0-5.0-1.55","5ee71ce25f11c84a3e909b09","bdp_cybrbll","Sun Apr 02 2023 11:13:05 GMT-0500 (Central Daylight Time)","744916","3","1","","null","","","","observe","","img/3to2/1.png","null","170","878","0.5","0.5","3","2","",""
"animation","115","220816","0.0-5.0-2.55","5ee71ce25f11c84a3e909b09","bdp_cybrbll","Sun Apr 02 2023 11:13:05 GMT-0500 (Central Daylight Time)","744916","3","1","","","","","","","","","","170","","","","3","2","[{""stimulus"":""img/3to2/1.png"",""time"":102},{""stimulus"":""img/3to2/2.png"",""time"":200},{""stimulus"":""img/3to2/3.png"",""time"":301},{""stimulus"":""img/3to2/4.png"",""time"":400},{""stimulus"":""img/3to2/5.png"",""time"":499},{""stimulus"":""img/3to2/6.png"",""time"":597},{""stimulus"":""img/3to2/7.png"",""time"":698},{""stimulus"":""img/3to2/8.png"",""time"":796},{""stimulus"":""img/3to2/9.png"",""time"":895},{""stimulus"":""img/3to2/10.png"",""time"":993},{""stimulus"":""img/3to2/11.png"",""time"":1091},{""stimulus"":""img/3to2/12.png"",""time"":1190}]","[]"
"image-keyboard-response","116","222409","0.0-5.0-1.56","5ee71ce25f11c84a3e909b09","bdp_cybrbll","Sun Apr 02 2023 11:13:05 GMT-0500 (Central Daylight Time)","744916","3","1","","1592","","","","choice","","img/2to1/1.png","1","169","914","0.5","0.5","2","1","",""
"animation","117","223698","0.0-5.0-2.56","5ee71ce25f11c84a3e909b09","bdp_cybrbll","Sun Apr 02 2023 11:13:05 GMT-0500 (Central Daylight Time)","744916","3","1","","","","","","","","","","169","","","","2","1","[{""stimulus"":""img/2to1/1.png"",""time"":105},{""stimulus"":""img/2to1/2.png"",""time"":200},{""stimulus"":""img/2to1/3.png"",""time"":299},{""stimulus"":""img/2to1/4.png"",""time"":402},{""stimulus"":""img/2to1/5.png"",""time"":500},{""stimulus"":""img/2to1/6.png"",""time"":599},{""stimulus"":""img/2to1/7.png"",""time"":698},{""stimulus"":""img/2to1/8.png"",""time"":808},{""stimulus"":""img/2to1/9.png"",""time"":894},{""stimulus"":""img/2to1/10.png"",""time"":992},{""stimulus"":""img/2to1/11.png"",""time"":1094},{""stimulus"":""img/2to1/12.png"",""time"":1191}]","[]"
"image-keyboard-response","118","224151","0.0-5.0-1.57","5ee71ce25f11c84a3e909b09","bdp_cybrbll","Sun Apr 02 2023 11:13:05 GMT-0500 (Central Daylight Time)","744916","3","1","","null","","","","observe","","img/1to3/1.png","null","168","439","0.5","0.5","1","2","",""
"animation","119","225442","0.0-5.0-2.57","5ee71ce25f11c84a3e909b09","bdp_cybrbll","Sun Apr 02 2023 11:13:05 GMT-0500 (Central Daylight Time)","744916","3","1","","","","","","","","","","168","","","","1","2","[{""stimulus"":""img/1to2/1.png"",""time"":103},{""stimulus"":""img/1to2/2.png"",""time"":200},{""stimulus"":""img/1to2/3.png"",""time"":302},{""stimulus"":""img/1to2/4.png"",""time"":400},{""stimulus"":""img/1to2/5.png"",""time"":498},{""stimulus"":""img/1to2/6.png"",""time"":596},{""stimulus"":""img/1to2/7.png"",""time"":695},{""stimulus"":""img/1to2/8.png"",""time"":793},{""stimulus"":""img/1to2/9.png"",""time"":895},{""stimulus"":""img/1to2/10.png"",""time"":997},{""stimulus"":""img/1to2/11.png"",""time"":1092},{""stimulus"":""img/1to2/12.png"",""time"":1190}]","[]"
"image-keyboard-response","120","226219","0.0-5.0-1.58","5ee71ce25f11c84a3e909b09","bdp_cybrbll","Sun Apr 02 2023 11:13:05 GMT-0500 (Central Daylight Time)","744916","3","1","","776","","","","choice","","img/2to1/1.png","2","167","807","0.5","0.5","2","3","",""
"animation","121","227507","0.0-5.0-2.58","5ee71ce25f11c84a3e909b09","bdp_cybrbll","Sun Apr 02 2023 11:13:05 GMT-0500 (Central Daylight Time)","744916","3","1","","","","","","","","","","167","","","","2","3","[{""stimulus"":""img/2to3/1.png"",""time"":101},{""stimulus"":""img/2to3/2.png"",""time"":199},{""stimulus"":""img/2to3/3.png"",""time"":299},{""stimulus"":""img/2to3/4.png"",""time"":397},{""stimulus"":""img/2to3/5.png"",""time"":500},{""stimulus"":""img/2to3/6.png"",""time"":598},{""stimulus"":""img/2to3/7.png"",""time"":695},{""stimulus"":""img/2to3/8.png"",""time"":797},{""stimulus"":""img/2to3/9.png"",""time"":895},{""stimulus"":""img/2to3/10.png"",""time"":994},{""stimulus"":""img/2to3/11.png"",""time"":1092},{""stimulus"":""img/2to3/12.png"",""time"":1190}]","[]"
"image-keyboard-response","122","228013","0.0-5.0-1.59","5ee71ce25f11c84a3e909b09","bdp_cybrbll","Sun Apr 02 2023 11:13:05 GMT-0500 (Central Daylight Time)","744916","3","1","","null","","","","observe","","img/3to2/1.png","null","166","499","0.5","0.5","3","2","",""
"animation","123","229301","0.0-5.0-2.59","5ee71ce25f11c84a3e909b09","bdp_cybrbll","Sun Apr 02 2023 11:13:05 GMT-0500 (Central Daylight Time)","744916","3","1","","","","","","","","","","166","","","","3","2","[{""stimulus"":""img/3to2/1.png"",""time"":101},{""stimulus"":""img/3to2/2.png"",""time"":200},{""stimulus"":""img/3to2/3.png"",""time"":300},{""stimulus"":""img/3to2/4.png"",""time"":399},{""stimulus"":""img/3to2/5.png"",""time"":497},{""stimulus"":""img/3to2/6.png"",""time"":596},{""stimulus"":""img/3to2/7.png"",""time"":694},{""stimulus"":""img/3to2/8.png"",""time"":794},{""stimulus"":""img/3to2/9.png"",""time"":892},{""stimulus"":""img/3to2/10.png"",""time"":994},{""stimulus"":""img/3to2/11.png"",""time"":1092},{""stimulus"":""img/3to2/12.png"",""time"":1191}]","[]"
"image-keyboard-response","124","232228","0.0-5.0-1.60","5ee71ce25f11c84a3e909b09","bdp_cybrbll","Sun Apr 02 2023 11:13:05 GMT-0500 (Central Daylight Time)","744916","3","1","","2926","","","","choice","","img/2to1/1.png","1","165","434","0.5","0.5","2","1","",""
"animation","125","233519","0.0-5.0-2.60","5ee71ce25f11c84a3e909b09","bdp_cybrbll","Sun Apr 02 2023 11:13:05 GMT-0500 (Central Daylight Time)","744916","3","1","","","","","","","","","","165","","","","2","1","[{""stimulus"":""img/2to1/1.png"",""time"":102},{""stimulus"":""img/2to1/2.png"",""time"":201},{""stimulus"":""img/2to1/3.png"",""time"":298},{""stimulus"":""img/2to1/4.png"",""time"":400},{""stimulus"":""img/2to1/5.png"",""time"":496},{""stimulus"":""img/2to1/6.png"",""time"":603},{""stimulus"":""img/2to1/7.png"",""time"":697},{""stimulus"":""img/2to1/8.png"",""time"":799},{""stimulus"":""img/2to1/9.png"",""time"":895},{""stimulus"":""img/2to1/10.png"",""time"":993},{""stimulus"":""img/2to1/11.png"",""time"":1091},{""stimulus"":""img/2to1/12.png"",""time"":1189}]","[]"
"image-keyboard-response","126","233975","0.0-5.0-1.61","5ee71ce25f11c84a3e909b09","bdp_cybrbll","Sun Apr 02 2023 11:13:05 GMT-0500 (Central Daylight Time)","744916","3","1","","null","","","","observe","","img/1to3/1.png","null","164","451","0.5","0.5","1","3","",""
"animation","127","235265","0.0-5.0-2.61","5ee71ce25f11c84a3e909b09","bdp_cybrbll","Sun Apr 02 2023 11:13:05 GMT-0500 (Central Daylight Time)","744916","3","1","","","","","","","","","","164","","","","1","3","[{""stimulus"":""img/1to3/1.png"",""time"":101},{""stimulus"":""img/1to3/2.png"",""time"":199},{""stimulus"":""img/1to3/3.png"",""time"":301},{""stimulus"":""img/1to3/4.png"",""time"":400},{""stimulus"":""img/1to3/5.png"",""time"":499},{""stimulus"":""img/1to3/6.png"",""time"":596},{""stimulus"":""img/1to3/7.png"",""time"":695},{""stimulus"":""img/1to3/8.png"",""time"":793},{""stimulus"":""img/1to3/9.png"",""time"":896},{""stimulus"":""img/1to3/10.png"",""time"":993},{""stimulus"":""img/1to3/11.png"",""time"":1091},{""stimulus"":""img/1to3/12.png"",""time"":1193}]","[]"
"image-keyboard-response","128","235475","0.0-5.0-1.62","5ee71ce25f11c84a3e909b09","bdp_cybrbll","Sun Apr 02 2023 11:13:05 GMT-0500 (Central Daylight Time)","744916","3","1","","null","","","","observe","","img/3to2/1.png","null","163","206","0.5","0.5","3","2","",""
"animation","129","236764","0.0-5.0-2.62","5ee71ce25f11c84a3e909b09","bdp_cybrbll","Sun Apr 02 2023 11:13:05 GMT-0500 (Central Daylight Time)","744916","3","1","","","","","","","","","","163","","","","3","2","[{""stimulus"":""img/3to2/1.png"",""time"":102},{""stimulus"":""img/3to2/2.png"",""time"":211},{""stimulus"":""img/3to2/3.png"",""time"":306},{""stimulus"":""img/3to2/4.png"",""time"":400},{""stimulus"":""img/3to2/5.png"",""time"":498},{""stimulus"":""img/3to2/6.png"",""time"":599},{""stimulus"":""img/3to2/7.png"",""time"":695},{""stimulus"":""img/3to2/8.png"",""time"":793},{""stimulus"":""img/3to2/9.png"",""time"":892},{""stimulus"":""img/3to2/10.png"",""time"":994},{""stimulus"":""img/3to2/11.png"",""time"":1090},{""stimulus"":""img/3to2/12.png"",""time"":1192}]","[]"
"image-keyboard-response","130","239042","0.0-5.0-1.63","5ee71ce25f11c84a3e909b09","bdp_cybrbll","Sun Apr 02 2023 11:13:05 GMT-0500 (Central Daylight Time)","744916","3","1","","2277","","","","choice","","img/2to1/1.png","2","162","911","0.5","0.5","2","3","",""
"animation","131","240331","0.0-5.0-2.63","5ee71ce25f11c84a3e909b09","bdp_cybrbll","Sun Apr 02 2023 11:13:05 GMT-0500 (Central Daylight Time)","744916","3","1","","","","","","","","","","162","","","","2","3","[{""stimulus"":""img/2to3/1.png"",""time"":103},{""stimulus"":""img/2to3/2.png"",""time"":201},{""stimulus"":""img/2to3/3.png"",""time"":299},{""stimulus"":""img/2to3/4.png"",""time"":398},{""stimulus"":""img/2to3/5.png"",""time"":500},{""stimulus"":""img/2to3/6.png"",""time"":598},{""stimulus"":""img/2to3/7.png"",""time"":695},{""stimulus"":""img/2to3/8.png"",""time"":794},{""stimulus"":""img/2to3/9.png"",""time"":895},{""stimulus"":""img/2to3/10.png"",""time"":991},{""stimulus"":""img/2to3/11.png"",""time"":1091},{""stimulus"":""img/2to3/12.png"",""time"":1192}]","[]"
"image-keyboard-response","132","240835","0.0-5.0-1.64","5ee71ce25f11c84a3e909b09","bdp_cybrbll","Sun Apr 02 2023 11:13:05 GMT-0500 (Central Daylight Time)","744916","3","1","","null","","","","observe","","img/3to2/1.png","null","161","498","0.5","0.5","3","2","",""
"animation","133","242124","0.0-5.0-2.64","5ee71ce25f11c84a3e909b09","bdp_cybrbll","Sun Apr 02 2023 11:13:05 GMT-0500 (Central Daylight Time)","744916","3","1","","","","","","","","","","161","","","","3","2","[{""stimulus"":""img/3to2/1.png"",""time"":103},{""stimulus"":""img/3to2/2.png"",""time"":201},{""stimulus"":""img/3to2/3.png"",""time"":299},{""stimulus"":""img/3to2/4.png"",""time"":401},{""stimulus"":""img/3to2/5.png"",""time"":499},{""stimulus"":""img/3to2/6.png"",""time"":597},{""stimulus"":""img/3to2/7.png"",""time"":695},{""stimulus"":""img/3to2/8.png"",""time"":795},{""stimulus"":""img/3to2/9.png"",""time"":895},{""stimulus"":""img/3to2/10.png"",""time"":992},{""stimulus"":""img/3to2/11.png"",""time"":1090},{""stimulus"":""img/3to2/12.png"",""time"":1191}]","[]"
"image-keyboard-response","134","244644","0.0-5.0-1.65","5ee71ce25f11c84a3e909b09","bdp_cybrbll","Sun Apr 02 2023 11:13:05 GMT-0500 (Central Daylight Time)","744916","3","1","","2519","","","","choice","","img/2to1/1.png","1","160","274","0.5","0.5","2","1","",""
"animation","135","245944","0.0-5.0-2.65","5ee71ce25f11c84a3e909b09","bdp_cybrbll","Sun Apr 02 2023 11:13:05 GMT-0500 (Central Daylight Time)","744916","3","1","","","","","","","","","","160","","","","2","1","[{""stimulus"":""img/2to1/1.png"",""time"":100},{""stimulus"":""img/2to1/2.png"",""time"":203},{""stimulus"":""img/2to1/3.png"",""time"":301},{""stimulus"":""img/2to1/4.png"",""time"":399},{""stimulus"":""img/2to1/5.png"",""time"":499},{""stimulus"":""img/2to1/6.png"",""time"":596},{""stimulus"":""img/2to1/7.png"",""time"":698},{""stimulus"":""img/2to1/8.png"",""time"":793},{""stimulus"":""img/2to1/9.png"",""time"":895},{""stimulus"":""img/2to1/10.png"",""time"":994},{""stimulus"":""img/2to1/11.png"",""time"":1090},{""stimulus"":""img/2to1/12.png"",""time"":1189}]","[]"
"image-keyboard-response","136","246150","0.0-5.0-1.66","5ee71ce25f11c84a3e909b09","bdp_cybrbll","Sun Apr 02 2023 11:13:05 GMT-0500 (Central Daylight Time)","744916","3","1","","null","","","","observe","","img/1to3/1.png","null","159","192","0.5","0.5","1","2","",""
"animation","137","247437","0.0-5.0-2.66","5ee71ce25f11c84a3e909b09","bdp_cybrbll","Sun Apr 02 2023 11:13:05 GMT-0500 (Central Daylight Time)","744916","3","1","","","","","","","","","","159","","","","1","2","[{""stimulus"":""img/1to2/1.png"",""time"":102},{""stimulus"":""img/1to2/2.png"",""time"":200},{""stimulus"":""img/1to2/3.png"",""time"":301},{""stimulus"":""img/1to2/4.png"",""time"":400},{""stimulus"":""img/1to2/5.png"",""time"":498},{""stimulus"":""img/1to2/6.png"",""time"":595},{""stimulus"":""img/1to2/7.png"",""time"":701},{""stimulus"":""img/1to2/8.png"",""time"":795},{""stimulus"":""img/1to2/9.png"",""time"":894},{""stimulus"":""img/1to2/10.png"",""time"":997},{""stimulus"":""img/1to2/11.png"",""time"":1091},{""stimulus"":""img/1to2/12.png"",""time"":1190}]","[]"
"image-keyboard-response","138","247840","0.0-5.0-1.67","5ee71ce25f11c84a3e909b09","bdp_cybrbll","Sun Apr 02 2023 11:13:05 GMT-0500 (Central Daylight Time)","744916","3","1","","402","","","","choice","","img/2to1/1.png","2","158","409","0.5","0.5","2","3","",""
"animation","139","249141","0.0-5.0-2.67","5ee71ce25f11c84a3e909b09","bdp_cybrbll","Sun Apr 02 2023 11:13:05 GMT-0500 (Central Daylight Time)","744916","3","1","","","","","","","","","","158","","","","2","3","[{""stimulus"":""img/2to3/1.png"",""time"":104},{""stimulus"":""img/2to3/2.png"",""time"":202},{""stimulus"":""img/2to3/3.png"",""time"":301},{""stimulus"":""img/2to3/4.png"",""time"":399},{""stimulus"":""img/2to3/5.png"",""time"":499},{""stimulus"":""img/2to3/6.png"",""time"":597},{""stimulus"":""img/2to3/7.png"",""time"":697},{""stimulus"":""img/2to3/8.png"",""time"":809},{""stimulus"":""img/2to3/9.png"",""time"":895},{""stimulus"":""img/2to3/10.png"",""time"":993},{""stimulus"":""img/2to3/11.png"",""time"":1091},{""stimulus"":""img/2to3/12.png"",""time"":1193}]","[]"
"image-keyboard-response","140","249440","0.0-5.0-1.68","5ee71ce25f11c84a3e909b09","bdp_cybrbll","Sun Apr 02 2023 11:13:05 GMT-0500 (Central Daylight Time)","744916","3","1","","null","","","","observe","","img/3to2/1.png","null","157","284","0.5","0.5","3","2","",""
"animation","141","250730","0.0-5.0-2.68","5ee71ce25f11c84a3e909b09","bdp_cybrbll","Sun Apr 02 2023 11:13:05 GMT-0500 (Central Daylight Time)","744916","3","1","","","","","","","","","","157","","","","3","2","[{""stimulus"":""img/3to2/1.png"",""time"":101},{""stimulus"":""img/3to2/2.png"",""time"":200},{""stimulus"":""img/3to2/3.png"",""time"":298},{""stimulus"":""img/3to2/4.png"",""time"":398},{""stimulus"":""img/3to2/5.png"",""time"":499},{""stimulus"":""img/3to2/6.png"",""time"":597},{""stimulus"":""img/3to2/7.png"",""time"":695},{""stimulus"":""img/3to2/8.png"",""time"":793},{""stimulus"":""img/3to2/9.png"",""time"":894},{""stimulus"":""img/3to2/10.png"",""time"":993},{""stimulus"":""img/3to2/11.png"",""time"":1092},{""stimulus"":""img/3to2/12.png"",""time"":1194}]","[]"
"image-keyboard-response","142","250922","0.0-5.0-1.69","5ee71ce25f11c84a3e909b09","bdp_cybrbll","Sun Apr 02 2023 11:13:05 GMT-0500 (Central Daylight Time)","744916","3","1","","191","","","","choice","","img/2to1/1.png","1","156","500","0.5","0.5","2","1","",""
"animation","143","252210","0.0-5.0-2.69","5ee71ce25f11c84a3e909b09","bdp_cybrbll","Sun Apr 02 2023 11:13:05 GMT-0500 (Central Daylight Time)","744916","3","1","","","","","","","","","","156","","","","2","1","[{""stimulus"":""img/2to1/1.png"",""time"":101},{""stimulus"":""img/2to1/2.png"",""time"":200},{""stimulus"":""img/2to1/3.png"",""time"":298},{""stimulus"":""img/2to1/4.png"",""time"":400},{""stimulus"":""img/2to1/5.png"",""time"":498},{""stimulus"":""img/2to1/6.png"",""time"":597},{""stimulus"":""img/2to1/7.png"",""time"":696},{""stimulus"":""img/2to1/8.png"",""time"":793},{""stimulus"":""img/2to1/9.png"",""time"":901},{""stimulus"":""img/2to1/10.png"",""time"":993},{""stimulus"":""img/2to1/11.png"",""time"":1091},{""stimulus"":""img/2to1/12.png"",""time"":1190}]","[]"
"image-keyboard-response","144","252582","0.0-5.0-1.70","5ee71ce25f11c84a3e909b09","bdp_cybrbll","Sun Apr 02 2023 11:13:05 GMT-0500 (Central Daylight Time)","744916","3","1","","null","","","","observe","","img/1to3/1.png","null","155","369","0.5","0.5","1","2","",""
"animation","145","253870","0.0-5.0-2.70","5ee71ce25f11c84a3e909b09","bdp_cybrbll","Sun Apr 02 2023 11:13:05 GMT-0500 (Central Daylight Time)","744916","3","1","","","","","","","","","","155","","","","1","2","[{""stimulus"":""img/1to2/1.png"",""time"":102},{""stimulus"":""img/1to2/2.png"",""time"":203},{""stimulus"":""img/1to2/3.png"",""time"":302},{""stimulus"":""img/1to2/4.png"",""time"":401},{""stimulus"":""img/1to2/5.png"",""time"":498},{""stimulus"":""img/1to2/6.png"",""time"":604},{""stimulus"":""img/1to2/7.png"",""time"":697},{""stimulus"":""img/1to2/8.png"",""time"":795},{""stimulus"":""img/1to2/9.png"",""time"":895},{""stimulus"":""img/1to2/10.png"",""time"":991},{""stimulus"":""img/1to2/11.png"",""time"":1090},{""stimulus"":""img/1to2/12.png"",""time"":1192}]","[]"
"image-keyboard-response","146","254816","0.0-5.0-1.71","5ee71ce25f11c84a3e909b09","bdp_cybrbll","Sun Apr 02 2023 11:13:05 GMT-0500 (Central Daylight Time)","744916","3","1","","945","","","","choice","","img/2to1/1.png","2","154","636","0.5","0.5","2","3","",""
"animation","147","256104","0.0-5.0-2.71","5ee71ce25f11c84a3e909b09","bdp_cybrbll","Sun Apr 02 2023 11:13:05 GMT-0500 (Central Daylight Time)","744916","3","1","","","","","","","","","","154","","","","2","3","[{""stimulus"":""img/2to3/1.png"",""time"":104},{""stimulus"":""img/2to3/2.png"",""time"":201},{""stimulus"":""img/2to3/3.png"",""time"":299},{""stimulus"":""img/2to3/4.png"",""time"":399},{""stimulus"":""img/2to3/5.png"",""time"":497},{""stimulus"":""img/2to3/6.png"",""time"":596},{""stimulus"":""img/2to3/7.png"",""time"":706},{""stimulus"":""img/2to3/8.png"",""time"":793},{""stimulus"":""img/2to3/9.png"",""time"":895},{""stimulus"":""img/2to3/10.png"",""time"":993},{""stimulus"":""img/2to3/11.png"",""time"":1105},{""stimulus"":""img/2to3/12.png"",""time"":1191}]","[]"
"image-keyboard-response","148","256904","0.0-5.0-1.72","5ee71ce25f11c84a3e909b09","bdp_cybrbll","Sun Apr 02 2023 11:13:05 GMT-0500 (Central Daylight Time)","744916","3","1","","null","","","","observe","","img/3to2/1.png","null","153","795","0.5","0.5","3","2","",""
"animation","149","258194","0.0-5.0-2.72","5ee71ce25f11c84a3e909b09","bdp_cybrbll","Sun Apr 02 2023 11:13:05 GMT-0500 (Central Daylight Time)","744916","3","1","","","","","","","","","","153","","","","3","2","[{""stimulus"":""img/3to2/1.png"",""time"":102},{""stimulus"":""img/3to2/2.png"",""time"":199},{""stimulus"":""img/3to2/3.png"",""time"":301},{""stimulus"":""img/3to2/4.png"",""time"":398},{""stimulus"":""img/3to2/5.png"",""time"":498},{""stimulus"":""img/3to2/6.png"",""time"":598},{""stimulus"":""img/3to2/7.png"",""time"":696},{""stimulus"":""img/3to2/8.png"",""time"":794},{""stimulus"":""img/3to2/9.png"",""time"":892},{""stimulus"":""img/3to2/10.png"",""time"":993},{""stimulus"":""img/3to2/11.png"",""time"":1093},{""stimulus"":""img/3to2/12.png"",""time"":1192}]","[]"
"image-keyboard-response","150","258541","0.0-5.0-1.73","5ee71ce25f11c84a3e909b09","bdp_cybrbll","Sun Apr 02 2023 11:13:05 GMT-0500 (Central Daylight Time)","744916","3","1","","346","","","","choice","","img/2to1/1.png","2","152","242","0.5","0.5","2","3","",""
"animation","151","259839","0.0-5.0-2.73","5ee71ce25f11c84a3e909b09","bdp_cybrbll","Sun Apr 02 2023 11:13:05 GMT-0500 (Central Daylight Time)","744916","3","1","","","","","","","","","","152","","","","2","3","[{""stimulus"":""img/2to3/1.png"",""time"":100},{""stimulus"":""img/2to3/2.png"",""time"":202},{""stimulus"":""img/2to3/3.png"",""time"":302},{""stimulus"":""img/2to3/4.png"",""time"":399},{""stimulus"":""img/2to3/5.png"",""time"":495},{""stimulus"":""img/2to3/6.png"",""time"":597},{""stimulus"":""img/2to3/7.png"",""time"":696},{""stimulus"":""img/2to3/8.png"",""time"":794},{""stimulus"":""img/2to3/9.png"",""time"":892},{""stimulus"":""img/2to3/10.png"",""time"":991},{""stimulus"":""img/2to3/11.png"",""time"":1093},{""stimulus"":""img/2to3/12.png"",""time"":1191}]","[]"
"image-keyboard-response","152","260130","0.0-5.0-1.74","5ee71ce25f11c84a3e909b09","bdp_cybrbll","Sun Apr 02 2023 11:13:05 GMT-0500 (Central Daylight Time)","744916","3","1","","null","","","","observe","","img/3to2/1.png","null","151","286","0.5","0.5","3","2","",""
"animation","153","261419","0.0-5.0-2.74","5ee71ce25f11c84a3e909b09","bdp_cybrbll","Sun Apr 02 2023 11:13:05 GMT-0500 (Central Daylight Time)","744916","3","1","","","","","","","","","","151","","","","3","2","[{""stimulus"":""img/3to2/1.png"",""time"":102},{""stimulus"":""img/3to2/2.png"",""time"":201},{""stimulus"":""img/3to2/3.png"",""time"":300},{""stimulus"":""img/3to2/4.png"",""time"":398},{""stimulus"":""img/3to2/5.png"",""time"":496},{""stimulus"":""img/3to2/6.png"",""time"":599},{""stimulus"":""img/3to2/7.png"",""time"":697},{""stimulus"":""img/3to2/8.png"",""time"":796},{""stimulus"":""img/3to2/9.png"",""time"":892},{""stimulus"":""img/3to2/10.png"",""time"":993},{""stimulus"":""img/3to2/11.png"",""time"":1092},{""stimulus"":""img/3to2/12.png"",""time"":1190}]","[]"
"image-keyboard-response","154","264123","0.0-5.0-1.75","5ee71ce25f11c84a3e909b09","bdp_cybrbll","Sun Apr 02 2023 11:13:05 GMT-0500 (Central Daylight Time)","744916","3","1","","2703","","","","choice","","img/2to1/1.png","1","150","175","0.5","0.5","2","1","",""
"animation","155","265413","0.0-5.0-2.75","5ee71ce25f11c84a3e909b09","bdp_cybrbll","Sun Apr 02 2023 11:13:05 GMT-0500 (Central Daylight Time)","744916","3","1","","","","","","","","","","150","","","","2","1","[{""stimulus"":""img/2to1/1.png"",""time"":101},{""stimulus"":""img/2to1/2.png"",""time"":199},{""stimulus"":""img/2to1/3.png"",""time"":310},{""stimulus"":""img/2to1/4.png"",""time"":400},{""stimulus"":""img/2to1/5.png"",""time"":498},{""stimulus"":""img/2to1/6.png"",""time"":598},{""stimulus"":""img/2to1/7.png"",""time"":696},{""stimulus"":""img/2to1/8.png"",""time"":795},{""stimulus"":""img/2to1/9.png"",""time"":892},{""stimulus"":""img/2to1/10.png"",""time"":994},{""stimulus"":""img/2to1/11.png"",""time"":1092},{""stimulus"":""img/2to1/12.png"",""time"":1191}]","[]"
"image-keyboard-response","156","266013","0.0-5.0-1.76","5ee71ce25f11c84a3e909b09","bdp_cybrbll","Sun Apr 02 2023 11:13:05 GMT-0500 (Central Daylight Time)","744916","3","1","","null","","","","observe","","img/1to3/1.png","null","149","598","0.5","0.1","1","3","",""
"animation","157","267302","0.0-5.0-2.76","5ee71ce25f11c84a3e909b09","bdp_cybrbll","Sun Apr 02 2023 11:13:05 GMT-0500 (Central Daylight Time)","744916","3","1","","","","","","","","","","149","","","","1","3","[{""stimulus"":""img/1to3/1.png"",""time"":102},{""stimulus"":""img/1to3/2.png"",""time"":201},{""stimulus"":""img/1to3/3.png"",""time"":300},{""stimulus"":""img/1to3/4.png"",""time"":398},{""stimulus"":""img/1to3/5.png"",""time"":498},{""stimulus"":""img/1to3/6.png"",""time"":596},{""stimulus"":""img/1to3/7.png"",""time"":697},{""stimulus"":""img/1to3/8.png"",""time"":796},{""stimulus"":""img/1to3/9.png"",""time"":894},{""stimulus"":""img/1to3/10.png"",""time"":992},{""stimulus"":""img/1to3/11.png"",""time"":1093},{""stimulus"":""img/1to3/12.png"",""time"":1192}]","[]"
"image-keyboard-response","158","267830","0.0-5.0-1.77","5ee71ce25f11c84a3e909b09","bdp_cybrbll","Sun Apr 02 2023 11:13:05 GMT-0500 (Central Daylight Time)","744916","3","1","","null","","","","observe","","img/3to2/1.png","null","148","523","0.5","0.1","3","2","",""
"animation","159","269120","0.0-5.0-2.77","5ee71ce25f11c84a3e909b09","bdp_cybrbll","Sun Apr 02 2023 11:13:05 GMT-0500 (Central Daylight Time)","744916","3","1","","","","","","","","","","148","","","","3","2","[{""stimulus"":""img/3to2/1.png"",""time"":102},{""stimulus"":""img/3to2/2.png"",""time"":201},{""stimulus"":""img/3to2/3.png"",""time"":299},{""stimulus"":""img/3to2/4.png"",""time"":396},{""stimulus"":""img/3to2/5.png"",""time"":499},{""stimulus"":""img/3to2/6.png"",""time"":597},{""stimulus"":""img/3to2/7.png"",""time"":696},{""stimulus"":""img/3to2/8.png"",""time"":794},{""stimulus"":""img/3to2/9.png"",""time"":892},{""stimulus"":""img/3to2/10.png"",""time"":994},{""stimulus"":""img/3to2/11.png"",""time"":1093},{""stimulus"":""img/3to2/12.png"",""time"":1192}]","[]"
"image-keyboard-response","160","271500","0.0-5.0-1.78","5ee71ce25f11c84a3e909b09","bdp_cybrbll","Sun Apr 02 2023 11:13:05 GMT-0500 (Central Daylight Time)","744916","3","1","","2380","","","","choice","","img/2to1/1.png","1","147","281","0.5","0.1","2","1","",""
"animation","161","272789","0.0-5.0-2.78","5ee71ce25f11c84a3e909b09","bdp_cybrbll","Sun Apr 02 2023 11:13:05 GMT-0500 (Central Daylight Time)","744916","3","1","","","","","","","","","","147","","","","2","1","[{""stimulus"":""img/2to1/1.png"",""time"":103},{""stimulus"":""img/2to1/2.png"",""time"":201},{""stimulus"":""img/2to1/3.png"",""time"":299},{""stimulus"":""img/2to1/4.png"",""time"":399},{""stimulus"":""img/2to1/5.png"",""time"":497},{""stimulus"":""img/2to1/6.png"",""time"":596},{""stimulus"":""img/2to1/7.png"",""time"":696},{""stimulus"":""img/2to1/8.png"",""time"":793},{""stimulus"":""img/2to1/9.png"",""time"":893},{""stimulus"":""img/2to1/10.png"",""time"":994},{""stimulus"":""img/2to1/11.png"",""time"":1090},{""stimulus"":""img/2to1/12.png"",""time"":1192}]","[]"
"image-keyboard-response","162","273165","0.0-5.0-1.79","5ee71ce25f11c84a3e909b09","bdp_cybrbll","Sun Apr 02 2023 11:13:05 GMT-0500 (Central Daylight Time)","744916","3","1","","null","","","","observe","","img/1to3/1.png","null","146","372","0.5","0.1","1","3","",""
"animation","163","274456","0.0-5.0-2.79","5ee71ce25f11c84a3e909b09","bdp_cybrbll","Sun Apr 02 2023 11:13:05 GMT-0500 (Central Daylight Time)","744916","3","1","","","","","","","","","","146","","","","1","3","[{""stimulus"":""img/1to3/1.png"",""time"":110},{""stimulus"":""img/1to3/2.png"",""time"":201},{""stimulus"":""img/1to3/3.png"",""time"":298},{""stimulus"":""img/1to3/4.png"",""time"":401},{""stimulus"":""img/1to3/5.png"",""time"":500},{""stimulus"":""img/1to3/6.png"",""time"":596},{""stimulus"":""img/1to3/7.png"",""time"":696},{""stimulus"":""img/1to3/8.png"",""time"":795},{""stimulus"":""img/1to3/9.png"",""time"":894},{""stimulus"":""img/1to3/10.png"",""time"":991},{""stimulus"":""img/1to3/11.png"",""time"":1092},{""stimulus"":""img/1to3/12.png"",""time"":1194}]","[]"
"image-keyboard-response","164","274933","0.0-5.0-1.80","5ee71ce25f11c84a3e909b09","bdp_cybrbll","Sun Apr 02 2023 11:13:05 GMT-0500 (Central Daylight Time)","744916","3","1","","null","","","","observe","","img/3to2/1.png","null","145","472","0.5","0.1","3","1","",""
"animation","165","276224","0.0-5.0-2.80","5ee71ce25f11c84a3e909b09","bdp_cybrbll","Sun Apr 02 2023 11:13:05 GMT-0500 (Central Daylight Time)","744916","3","1","","","","","","","","","","145","","","","3","1","[{""stimulus"":""img/3to1/1.png"",""time"":102},{""stimulus"":""img/3to1/2.png"",""time"":200},{""stimulus"":""img/3to1/3.png"",""time"":301},{""stimulus"":""img/3to1/4.png"",""time"":398},{""stimulus"":""img/3to1/5.png"",""time"":495},{""stimulus"":""img/3to1/6.png"",""time"":594},{""stimulus"":""img/3to1/7.png"",""time"":703},{""stimulus"":""img/3to1/8.png"",""time"":794},{""stimulus"":""img/3to1/9.png"",""time"":893},{""stimulus"":""img/3to1/10.png"",""time"":991},{""stimulus"":""img/3to1/11.png"",""time"":1090},{""stimulus"":""img/3to1/12.png"",""time"":1192}]","[]"
"image-keyboard-response","166","277830","0.0-5.0-1.81","5ee71ce25f11c84a3e909b09","bdp_cybrbll","Sun Apr 02 2023 11:13:05 GMT-0500 (Central Daylight Time)","744916","3","1","","null","","","","observe","","img/1to3/1.png","null","144","1603","0.5","0.1","1","3","",""
"animation","167","279122","0.0-5.0-2.81","5ee71ce25f11c84a3e909b09","bdp_cybrbll","Sun Apr 02 2023 11:13:05 GMT-0500 (Central Daylight Time)","744916","3","1","","","","","","","","","","144","","","","1","3","[{""stimulus"":""img/1to3/1.png"",""time"":103},{""stimulus"":""img/1to3/2.png"",""time"":210},{""stimulus"":""img/1to3/3.png"",""time"":301},{""stimulus"":""img/1to3/4.png"",""time"":400},{""stimulus"":""img/1to3/5.png"",""time"":500},{""stimulus"":""img/1to3/6.png"",""time"":597},{""stimulus"":""img/1to3/7.png"",""time"":694},{""stimulus"":""img/1to3/8.png"",""time"":800},{""stimulus"":""img/1to3/9.png"",""time"":895},{""stimulus"":""img/1to3/10.png"",""time"":994},{""stimulus"":""img/1to3/11.png"",""time"":1092},{""stimulus"":""img/1to3/12.png"",""time"":1190}]","[]"
"image-keyboard-response","168","279419","0.0-5.0-1.82","5ee71ce25f11c84a3e909b09","bdp_cybrbll","Sun Apr 02 2023 11:13:05 GMT-0500 (Central Daylight Time)","744916","3","1","","null","","","","observe","","img/3to2/1.png","null","143","293","0.5","0.1","3","1","",""
"animation","169","280707","0.0-5.0-2.82","5ee71ce25f11c84a3e909b09","bdp_cybrbll","Sun Apr 02 2023 11:13:05 GMT-0500 (Central Daylight Time)","744916","3","1","","","","","","","","","","143","","","","3","1","[{""stimulus"":""img/3to1/1.png"",""time"":102},{""stimulus"":""img/3to1/2.png"",""time"":200},{""stimulus"":""img/3to1/3.png"",""time"":303},{""stimulus"":""img/3to1/4.png"",""time"":401},{""stimulus"":""img/3to1/5.png"",""time"":507},{""stimulus"":""img/3to1/6.png"",""time"":597},{""stimulus"":""img/3to1/7.png"",""time"":694},{""stimulus"":""img/3to1/8.png"",""time"":796},{""stimulus"":""img/3to1/9.png"",""time"":892},{""stimulus"":""img/3to1/10.png"",""time"":994},{""stimulus"":""img/3to1/11.png"",""time"":1091},{""stimulus"":""img/3to1/12.png"",""time"":1189}]","[]"
"image-keyboard-response","170","280994","0.0-5.0-1.83","5ee71ce25f11c84a3e909b09","bdp_cybrbll","Sun Apr 02 2023 11:13:05 GMT-0500 (Central Daylight Time)","744916","3","1","","null","","","","observe","","img/1to3/1.png","null","142","282","0.5","0.1","1","3","",""
"animation","171","282282","0.0-5.0-2.83","5ee71ce25f11c84a3e909b09","bdp_cybrbll","Sun Apr 02 2023 11:13:05 GMT-0500 (Central Daylight Time)","744916","3","1","","","","","","","","","","142","","","","1","3","[{""stimulus"":""img/1to3/1.png"",""time"":110},{""stimulus"":""img/1to3/2.png"",""time"":199},{""stimulus"":""img/1to3/3.png"",""time"":301},{""stimulus"":""img/1to3/4.png"",""time"":398},{""stimulus"":""img/1to3/5.png"",""time"":498},{""stimulus"":""img/1to3/6.png"",""time"":597},{""stimulus"":""img/1to3/7.png"",""time"":694},{""stimulus"":""img/1to3/8.png"",""time"":794},{""stimulus"":""img/1to3/9.png"",""time"":892},{""stimulus"":""img/1to3/10.png"",""time"":991},{""stimulus"":""img/1to3/11.png"",""time"":1094},{""stimulus"":""img/1to3/12.png"",""time"":1200}]","[]"
"image-keyboard-response","172","282703","0.0-5.0-1.84","5ee71ce25f11c84a3e909b09","bdp_cybrbll","Sun Apr 02 2023 11:13:05 GMT-0500 (Central Daylight Time)","744916","3","1","","null","","","","observe","","img/3to2/1.png","null","141","417","0.5","0.1","3","1","",""
"animation","173","283994","0.0-5.0-2.84","5ee71ce25f11c84a3e909b09","bdp_cybrbll","Sun Apr 02 2023 11:13:05 GMT-0500 (Central Daylight Time)","744916","3","1","","","","","","","","","","141","","","","3","1","[{""stimulus"":""img/3to1/1.png"",""time"":101},{""stimulus"":""img/3to1/2.png"",""time"":201},{""stimulus"":""img/3to1/3.png"",""time"":299},{""stimulus"":""img/3to1/4.png"",""time"":397},{""stimulus"":""img/3to1/5.png"",""time"":499},{""stimulus"":""img/3to1/6.png"",""time"":595},{""stimulus"":""img/3to1/7.png"",""time"":697},{""stimulus"":""img/3to1/8.png"",""time"":795},{""stimulus"":""img/3to1/9.png"",""time"":893},{""stimulus"":""img/3to1/10.png"",""time"":999},{""stimulus"":""img/3to1/11.png"",""time"":1093},{""stimulus"":""img/3to1/12.png"",""time"":1191}]","[]"
"image-keyboard-response","174","284768","0.0-5.0-1.85","5ee71ce25f11c84a3e909b09","bdp_cybrbll","Sun Apr 02 2023 11:13:05 GMT-0500 (Central Daylight Time)","744916","3","1","","null","","","","observe","","img/1to3/1.png","null","140","771","0.5","0.1","1","3","",""
"animation","175","286057","0.0-5.0-2.85","5ee71ce25f11c84a3e909b09","bdp_cybrbll","Sun Apr 02 2023 11:13:05 GMT-0500 (Central Daylight Time)","744916","3","1","","","","","","","","","","140","","","","1","3","[{""stimulus"":""img/1to3/1.png"",""time"":101},{""stimulus"":""img/1to3/2.png"",""time"":203},{""stimulus"":""img/1to3/3.png"",""time"":302},{""stimulus"":""img/1to3/4.png"",""time"":401},{""stimulus"":""img/1to3/5.png"",""time"":499},{""stimulus"":""img/1to3/6.png"",""time"":596},{""stimulus"":""img/1to3/7.png"",""time"":696},{""stimulus"":""img/1to3/8.png"",""time"":794},{""stimulus"":""img/1to3/9.png"",""time"":894},{""stimulus"":""img/1to3/10.png"",""time"":994},{""stimulus"":""img/1to3/11.png"",""time"":1092},{""stimulus"":""img/1to3/12.png"",""time"":1190}]","[]"
"image-keyboard-response","176","286352","0.0-5.0-1.86","5ee71ce25f11c84a3e909b09","bdp_cybrbll","Sun Apr 02 2023 11:13:05 GMT-0500 (Central Daylight Time)","744916","3","1","","null","","","","observe","","img/3to2/1.png","null","139","291","0.5","0.1","3","1","",""
"animation","177","287643","0.0-5.0-2.86","5ee71ce25f11c84a3e909b09","bdp_cybrbll","Sun Apr 02 2023 11:13:05 GMT-0500 (Central Daylight Time)","744916","3","1","","","","","","","","","","139","","","","3","1","[{""stimulus"":""img/3to1/1.png"",""time"":103},{""stimulus"":""img/3to1/2.png"",""time"":200},{""stimulus"":""img/3to1/3.png"",""time"":302},{""stimulus"":""img/3to1/4.png"",""time"":398},{""stimulus"":""img/3to1/5.png"",""time"":496},{""stimulus"":""img/3to1/6.png"",""time"":598},{""stimulus"":""img/3to1/7.png"",""time"":695},{""stimulus"":""img/3to1/8.png"",""time"":793},{""stimulus"":""img/3to1/9.png"",""time"":894},{""stimulus"":""img/3to1/10.png"",""time"":991},{""stimulus"":""img/3to1/11.png"",""time"":1093},{""stimulus"":""img/3to1/12.png"",""time"":1193}]","[]"
"image-keyboard-response","178","288147","0.0-5.0-1.87","5ee71ce25f11c84a3e909b09","bdp_cybrbll","Sun Apr 02 2023 11:13:05 GMT-0500 (Central Daylight Time)","744916","3","1","","null","","","","observe","","img/1to3/1.png","null","138","503","0.5","0.1","1","3","",""
"animation","179","289438","0.0-5.0-2.87","5ee71ce25f11c84a3e909b09","bdp_cybrbll","Sun Apr 02 2023 11:13:05 GMT-0500 (Central Daylight Time)","744916","3","1","","","","","","","","","","138","","","","1","3","[{""stimulus"":""img/1to3/1.png"",""time"":102},{""stimulus"":""img/1to3/2.png"",""time"":199},{""stimulus"":""img/1to3/3.png"",""time"":300},{""stimulus"":""img/1to3/4.png"",""time"":397},{""stimulus"":""img/1to3/5.png"",""time"":499},{""stimulus"":""img/1to3/6.png"",""time"":598},{""stimulus"":""img/1to3/7.png"",""time"":697},{""stimulus"":""img/1to3/8.png"",""time"":794},{""stimulus"":""img/1to3/9.png"",""time"":895},{""stimulus"":""img/1to3/10.png"",""time"":995},{""stimulus"":""img/1to3/11.png"",""time"":1092},{""stimulus"":""img/1to3/12.png"",""time"":1194}]","[]"
"image-keyboard-response","180","289942","0.0-5.0-1.88","5ee71ce25f11c84a3e909b09","bdp_cybrbll","Sun Apr 02 2023 11:13:05 GMT-0500 (Central Daylight Time)","744916","3","1","","null","","","","observe","","img/3to2/1.png","null","137","502","0.5","0.1","3","1","",""
"animation","181","291231","0.0-5.0-2.88","5ee71ce25f11c84a3e909b09","bdp_cybrbll","Sun Apr 02 2023 11:13:05 GMT-0500 (Central Daylight Time)","744916","3","1","","","","","","","","","","137","","","","3","1","[{""stimulus"":""img/3to1/1.png"",""time"":102},{""stimulus"":""img/3to1/2.png"",""time"":200},{""stimulus"":""img/3to1/3.png"",""time"":301},{""stimulus"":""img/3to1/4.png"",""time"":398},{""stimulus"":""img/3to1/5.png"",""time"":500},{""stimulus"":""img/3to1/6.png"",""time"":596},{""stimulus"":""img/3to1/7.png"",""time"":705},{""stimulus"":""img/3to1/8.png"",""time"":795},{""stimulus"":""img/3to1/9.png"",""time"":893},{""stimulus"":""img/3to1/10.png"",""time"":995},{""stimulus"":""img/3to1/11.png"",""time"":1094},{""stimulus"":""img/3to1/12.png"",""time"":1191}]","[]"
"image-keyboard-response","182","292625","0.0-5.0-1.89","5ee71ce25f11c84a3e909b09","bdp_cybrbll","Sun Apr 02 2023 11:13:05 GMT-0500 (Central Daylight Time)","744916","3","1","","null","","","","observe","","img/1to3/1.png","null","136","1390","0.5","0.1","1","3","",""
"animation","183","293916","0.0-5.0-2.89","5ee71ce25f11c84a3e909b09","bdp_cybrbll","Sun Apr 02 2023 11:13:05 GMT-0500 (Central Daylight Time)","744916","3","1","","","","","","","","","","136","","","","1","3","[{""stimulus"":""img/1to3/1.png"",""time"":101},{""stimulus"":""img/1to3/2.png"",""time"":202},{""stimulus"":""img/1to3/3.png"",""time"":299},{""stimulus"":""img/1to3/4.png"",""time"":398},{""stimulus"":""img/1to3/5.png"",""time"":500},{""stimulus"":""img/1to3/6.png"",""time"":598},{""stimulus"":""img/1to3/7.png"",""time"":695},{""stimulus"":""img/1to3/8.png"",""time"":794},{""stimulus"":""img/1to3/9.png"",""time"":895},{""stimulus"":""img/1to3/10.png"",""time"":994},{""stimulus"":""img/1to3/11.png"",""time"":1094},{""stimulus"":""img/1to3/12.png"",""time"":1192}]","[]"
"image-keyboard-response","184","294581","0.0-5.0-1.90","5ee71ce25f11c84a3e909b09","bdp_cybrbll","Sun Apr 02 2023 11:13:05 GMT-0500 (Central Daylight Time)","744916","3","1","","null","","","","observe","","img/3to2/1.png","null","135","663","0.5","0.1","3","2","",""
"animation","185","295872","0.0-5.0-2.90","5ee71ce25f11c84a3e909b09","bdp_cybrbll","Sun Apr 02 2023 11:13:05 GMT-0500 (Central Daylight Time)","744916","3","1","","","","","","","","","","135","","","","3","2","[{""stimulus"":""img/3to2/1.png"",""time"":102},{""stimulus"":""img/3to2/2.png"",""time"":201},{""stimulus"":""img/3to2/3.png"",""time"":300},{""stimulus"":""img/3to2/4.png"",""time"":398},{""stimulus"":""img/3to2/5.png"",""time"":496},{""stimulus"":""img/3to2/6.png"",""time"":595},{""stimulus"":""img/3to2/7.png"",""time"":697},{""stimulus"":""img/3to2/8.png"",""time"":795},{""stimulus"":""img/3to2/9.png"",""time"":893},{""stimulus"":""img/3to2/10.png"",""time"":995},{""stimulus"":""img/3to2/11.png"",""time"":1090},{""stimulus"":""img/3to2/12.png"",""time"":1191}]","[]"
"image-keyboard-response","186","296546","0.0-5.0-1.91","5ee71ce25f11c84a3e909b09","bdp_cybrbll","Sun Apr 02 2023 11:13:05 GMT-0500 (Central Daylight Time)","744916","3","1","","673","","","","choice","","img/2to1/1.png","2","134","514","0.5","0.1","2","3","",""
"animation","187","297836","0.0-5.0-2.91","5ee71ce25f11c84a3e909b09","bdp_cybrbll","Sun Apr 02 2023 11:13:05 GMT-0500 (Central Daylight Time)","744916","3","1","","","","","","","","","","134","","","","2","3","[{""stimulus"":""img/2to3/1.png"",""time"":101},{""stimulus"":""img/2to3/2.png"",""time"":200},{""stimulus"":""img/2to3/3.png"",""time"":302},{""stimulus"":""img/2to3/4.png"",""time"":400},{""stimulus"":""img/2to3/5.png"",""time"":498},{""stimulus"":""img/2to3/6.png"",""time"":596},{""stimulus"":""img/2to3/7.png"",""time"":707},{""stimulus"":""img/2to3/8.png"",""time"":793},{""stimulus"":""img/2to3/9.png"",""time"":892},{""stimulus"":""img/2to3/10.png"",""time"":1006},{""stimulus"":""img/2to3/11.png"",""time"":1091},{""stimulus"":""img/2to3/12.png"",""time"":1190}]","[]"
"image-keyboard-response","188","298171","0.0-5.0-1.92","5ee71ce25f11c84a3e909b09","bdp_cybrbll","Sun Apr 02 2023 11:13:05 GMT-0500 (Central Daylight Time)","744916","3","1","","null","","","","observe","","img/3to2/1.png","null","133","333","0.5","0.1","3","2","",""
"animation","189","299462","0.0-5.0-2.92","5ee71ce25f11c84a3e909b09","bdp_cybrbll","Sun Apr 02 2023 11:13:05 GMT-0500 (Central Daylight Time)","744916","3","1","","","","","","","","","","133","","","","3","2","[{""stimulus"":""img/3to2/1.png"",""time"":101},{""stimulus"":""img/3to2/2.png"",""time"":200},{""stimulus"":""img/3to2/3.png"",""time"":302},{""stimulus"":""img/3to2/4.png"",""time"":399},{""stimulus"":""img/3to2/5.png"",""time"":497},{""stimulus"":""img/3to2/6.png"",""time"":595},{""stimulus"":""img/3to2/7.png"",""time"":694},{""stimulus"":""img/3to2/8.png"",""time"":794},{""stimulus"":""img/3to2/9.png"",""time"":893},{""stimulus"":""img/3to2/10.png"",""time"":993},{""stimulus"":""img/3to2/11.png"",""time"":1093},{""stimulus"":""img/3to2/12.png"",""time"":1191}]","[]"
"image-keyboard-response","190","303855","0.0-5.0-1.93","5ee71ce25f11c84a3e909b09","bdp_cybrbll","Sun Apr 02 2023 11:13:05 GMT-0500 (Central Daylight Time)","744916","3","1","","4393","","","","choice","","img/2to1/1.png","2","132","1267","0.5","0.1","2","3","",""
