"trial_type","trial_index","time_elapsed","internal_node_id","subject_id","task","startTime","totalTime","fairPartner","unfairPartner","view_history","rt","event","trial","time","trialtype","success","stimulus","key_press","throwsLeft","rtDur","pFair","pUnfair","holder","receiver","animation_sequence","responses"
"pavlovia","0","16","0.0-0.0","5ede9b80b8a141131edabbe1","bdp_cybrbll","Wed Mar 29 2023 19:47:09 GMT-0700 (Pacific Daylight Time)","434138","1","3","","","","","","","","","","","","","","","","",""
"instructions","1","3673","0.0-1.0","5ede9b80b8a141131edabbe1","bdp_cybrbll","Wed Mar 29 2023 19:47:09 GMT-0700 (Pacific Daylight Time)","434138","1","3","[{""page_index"":0,""viewing_time"":3654}]","3654","","","","","","","","","","","","","","",""
"","","","","5ede9b80b8a141131edabbe1","bdp_cybrbll","Wed Mar 29 2023 19:47:09 GMT-0700 (Pacific Daylight Time)","434138","1","3","","","fullscreenenter","2","6184","fullscreenenter","","","","","","","","","","",""
"fullscreen","2","7153","0.0-2.0","5ede9b80b8a141131edabbe1","bdp_cybrbll","Wed Mar 29 2023 19:47:09 GMT-0700 (Pacific Daylight Time)","434138","1","3","","","","","","","true","","","","","","","","","",""
"instructions","3","36139","0.0-4.0","5ede9b80b8a141131edabbe1","bdp_cybrbll","Wed Mar 29 2023 19:47:09 GMT-0700 (Pacific Daylight Time)","434138","1","3","[{""page_index"":0,""viewing_time"":28982}]","28982","","","","","","","","","","","","","","",""
"image-keyboard-response","4","38624","0.0-5.0-1.0","5ede9b80b8a141131edabbe1","bdp_cybrbll","Wed Mar 29 2023 19:47:09 GMT-0700 (Pacific Daylight Time)","434138","1","3","","2477","","","","choice","","img/2to1/1.png","2","225","422","0.5","0.5","2","3","",""
"animation","5","39915","0.0-5.0-2.0","5ede9b80b8a141131edabbe1","bdp_cybrbll","Wed Mar 29 2023 19:47:09 GMT-0700 (Pacific Daylight Time)","434138","1","3","","","","","","","","","","225","","","","2","3","[{""stimulus"":""img/2to3/1.png"",""time"":102},{""stimulus"":""img/2to3/2.png"",""time"":200},{""stimulus"":""img/2to3/3.png"",""time"":299},{""stimulus"":""img/2to3/4.png"",""time"":399},{""stimulus"":""img/2to3/5.png"",""time"":498},{""stimulus"":""img/2to3/6.png"",""time"":596},{""stimulus"":""img/2to3/7.png"",""time"":699},{""stimulus"":""img/2to3/8.png"",""time"":795},{""stimulus"":""img/2to3/9.png"",""time"":893},{""stimulus"":""img/2to3/10.png"",""time"":992},{""stimulus"":""img/2to3/11.png"",""time"":1092},{""stimulus"":""img/2to3/12.png"",""time"":1191}]","[]"
"image-keyboard-response","6","40245","0.0-5.0-1.1","5ede9b80b8a141131edabbe1","bdp_cybrbll","Wed Mar 29 2023 19:47:09 GMT-0700 (Pacific Daylight Time)","434138","1","3","","null","","","","observe","","img/3to2/1.png","null","224","325","0.5","0.5","3","2","",""
"animation","7","41534","0.0-5.0-2.1","5ede9b80b8a141131edabbe1","bdp_cybrbll","Wed Mar 29 2023 19:47:09 GMT-0700 (Pacific Daylight Time)","434138","1","3","","","","","","","","","","224","","","","3","2","[{""stimulus"":""img/3to2/1.png"",""time"":103},{""stimulus"":""img/3to2/2.png"",""time"":201},{""stimulus"":""img/3to2/3.png"",""time"":300},{""stimulus"":""img/3to2/4.png"",""time"":398},{""stimulus"":""img/3to2/5.png"",""time"":498},{""stimulus"":""img/3to2/6.png"",""time"":596},{""stimulus"":""img/3to2/7.png"",""time"":695},{""stimulus"":""img/3to2/8.png"",""time"":794},{""stimulus"":""img/3to2/9.png"",""time"":893},{""stimulus"":""img/3to2/10.png"",""time"":992},{""stimulus"":""img/3to2/11.png"",""time"":1092},{""stimulus"":""img/3to2/12.png"",""time"":1191}]","[]"
"image-keyboard-response","8","41954","0.0-5.0-1.2","5ede9b80b8a141131edabbe1","bdp_cybrbll","Wed Mar 29 2023 19:47:09 GMT-0700 (Pacific Daylight Time)","434138","1","3","","417","","","","choice","","img/2to1/1.png","2","223","544","0.5","0.5","2","3","",""
"animation","9","43243","0.0-5.0-2.2","5ede9b80b8a141131edabbe1","bdp_cybrbll","Wed Mar 29 2023 19:47:09 GMT-0700 (Pacific Daylight Time)","434138","1","3","","","","","","","","","","223","","","","2","3","[{""stimulus"":""img/2to3/1.png"",""time"":101},{""stimulus"":""img/2to3/2.png"",""time"":201},{""stimulus"":""img/2to3/3.png"",""time"":299},{""stimulus"":""img/2to3/4.png"",""time"":398},{""stimulus"":""img/2to3/5.png"",""time"":497},{""stimulus"":""img/2to3/6.png"",""time"":596},{""stimulus"":""img/2to3/7.png"",""time"":696},{""stimulus"":""img/2to3/8.png"",""time"":794},{""stimulus"":""img/2to3/9.png"",""time"":893},{""stimulus"":""img/2to3/10.png"",""time"":993},{""stimulus"":""img/2to3/11.png"",""time"":1091},{""stimulus"":""img/2to3/12.png"",""time"":1190}]","[]"
"image-keyboard-response","10","43824","0.0-5.0-1.3","5ede9b80b8a141131edabbe1","bdp_cybrbll","Wed Mar 29 2023 19:47:09 GMT-0700 (Pacific Daylight Time)","434138","1","3","","null","","","","observe","","img/3to2/1.png","null","222","577","0.5","0.5","3","1","",""
"animation","11","45112","0.0-5.0-2.3","5ede9b80b8a141131edabbe1","bdp_cybrbll","Wed Mar 29 2023 19:47:09 GMT-0700 (Pacific Daylight Time)","434138","1","3","","","","","","","","","","222","","","","3","1","[{""stimulus"":""img/3to1/1.png"",""time"":102},{""stimulus"":""img/3to1/2.png"",""time"":199},{""stimulus"":""img/3to1/3.png"",""time"":298},{""stimulus"":""img/3to1/4.png"",""time"":398},{""stimulus"":""img/3to1/5.png"",""time"":497},{""stimulus"":""img/3to1/6.png"",""time"":596},{""stimulus"":""img/3to1/7.png"",""time"":695},{""stimulus"":""img/3to1/8.png"",""time"":793},{""stimulus"":""img/3to1/9.png"",""time"":893},{""stimulus"":""img/3to1/10.png"",""time"":992},{""stimulus"":""img/3to1/11.png"",""time"":1091},{""stimulus"":""img/3to1/12.png"",""time"":1190}]","[]"
"image-keyboard-response","12","45450","0.0-5.0-1.4","5ede9b80b8a141131edabbe1","bdp_cybrbll","Wed Mar 29 2023 19:47:09 GMT-0700 (Pacific Daylight Time)","434138","1","3","","null","","","","observe","","img/1to3/1.png","null","221","334","0.5","0.5","1","3","",""
"animation","13","46742","0.0-5.0-2.4","5ede9b80b8a141131edabbe1","bdp_cybrbll","Wed Mar 29 2023 19:47:09 GMT-0700 (Pacific Daylight Time)","434138","1","3","","","","","","","","","","221","","","","1","3","[{""stimulus"":""img/1to3/1.png"",""time"":103},{""stimulus"":""img/1to3/2.png"",""time"":199},{""stimulus"":""img/1to3/3.png"",""time"":299},{""stimulus"":""img/1to3/4.png"",""time"":398},{""stimulus"":""img/1to3/5.png"",""time"":498},{""stimulus"":""img/1to3/6.png"",""time"":595},{""stimulus"":""img/1to3/7.png"",""time"":709},{""stimulus"":""img/1to3/8.png"",""time"":794},{""stimulus"":""img/1to3/9.png"",""time"":894},{""stimulus"":""img/1to3/10.png"",""time"":1016},{""stimulus"":""img/1to3/11.png"",""time"":1091},{""stimulus"":""img/1to3/12.png"",""time"":1190}]","[]"
"image-keyboard-response","14","46952","0.0-5.0-1.5","5ede9b80b8a141131edabbe1","bdp_cybrbll","Wed Mar 29 2023 19:47:09 GMT-0700 (Pacific Daylight Time)","434138","1","3","","null","","","","observe","","img/3to2/1.png","null","220","206","0.5","0.5","3","1","",""
"animation","15","48240","0.0-5.0-2.5","5ede9b80b8a141131edabbe1","bdp_cybrbll","Wed Mar 29 2023 19:47:09 GMT-0700 (Pacific Daylight Time)","434138","1","3","","","","","","","","","","220","","","","3","1","[{""stimulus"":""img/3to1/1.png"",""time"":100},{""stimulus"":""img/3to1/2.png"",""time"":199},{""stimulus"":""img/3to1/3.png"",""time"":299},{""stimulus"":""img/3to1/4.png"",""time"":398},{""stimulus"":""img/3to1/5.png"",""time"":497},{""stimulus"":""img/3to1/6.png"",""time"":596},{""stimulus"":""img/3to1/7.png"",""time"":695},{""stimulus"":""img/3to1/8.png"",""time"":794},{""stimulus"":""img/3to1/9.png"",""time"":894},{""stimulus"":""img/3to1/10.png"",""time"":992},{""stimulus"":""img/3to1/11.png"",""time"":1091},{""stimulus"":""img/3to1/12.png"",""time"":1190}]","[]"
"image-keyboard-response","16","48490","0.0-5.0-1.6","5ede9b80b8a141131edabbe1","bdp_cybrbll","Wed Mar 29 2023 19:47:09 GMT-0700 (Pacific Daylight Time)","434138","1","3","","null","","","","observe","","img/1to3/1.png","null","219","247","0.5","0.5","1","2","",""
"animation","17","49779","0.0-5.0-2.6","5ede9b80b8a141131edabbe1","bdp_cybrbll","Wed Mar 29 2023 19:47:09 GMT-0700 (Pacific Daylight Time)","434138","1","3","","","","","","","","","","219","","","","1","2","[{""stimulus"":""img/1to2/1.png"",""time"":101},{""stimulus"":""img/1to2/2.png"",""time"":199},{""stimulus"":""img/1to2/3.png"",""time"":299},{""stimulus"":""img/1to2/4.png"",""time"":397},{""stimulus"":""img/1to2/5.png"",""time"":497},{""stimulus"":""img/1to2/6.png"",""time"":595},{""stimulus"":""img/1to2/7.png"",""time"":694},{""stimulus"":""img/1to2/8.png"",""time"":794},{""stimulus"":""img/1to2/9.png"",""time"":892},{""stimulus"":""img/1to2/10.png"",""time"":991},{""stimulus"":""img/1to2/11.png"",""time"":1091},{""stimulus"":""img/1to2/12.png"",""time"":1190}]","[]"
"image-keyboard-response","18","49927","0.0-5.0-1.7","5ede9b80b8a141131edabbe1","bdp_cybrbll","Wed Mar 29 2023 19:47:09 GMT-0700 (Pacific Daylight Time)","434138","1","3","","145","","","","choice","","img/2to1/1.png","1","218","208","0.5","0.5","2","1","",""
"animation","19","51217","0.0-5.0-2.7","5ede9b80b8a141131edabbe1","bdp_cybrbll","Wed Mar 29 2023 19:47:09 GMT-0700 (Pacific Daylight Time)","434138","1","3","","","","","","","","","","218","","","","2","1","[{""stimulus"":""img/2to1/1.png"",""time"":102},{""stimulus"":""img/2to1/2.png"",""time"":200},{""stimulus"":""img/2to1/3.png"",""time"":300},{""stimulus"":""img/2to1/4.png"",""time"":403},{""stimulus"":""img/2to1/5.png"",""time"":499},{""stimulus"":""img/2to1/6.png"",""time"":608},{""stimulus"":""img/2to1/7.png"",""time"":696},{""stimulus"":""img/2to1/8.png"",""time"":795},{""stimulus"":""img/2to1/9.png"",""time"":894},{""stimulus"":""img/2to1/10.png"",""time"":994},{""stimulus"":""img/2to1/11.png"",""time"":1094},{""stimulus"":""img/2to1/12.png"",""time"":1190}]","[]"
"image-keyboard-response","20","51773","0.0-5.0-1.8","5ede9b80b8a141131edabbe1","bdp_cybrbll","Wed Mar 29 2023 19:47:09 GMT-0700 (Pacific Daylight Time)","434138","1","3","","null","","","","observe","","img/1to3/1.png","null","217","554","0.5","0.5","1","3","",""
"animation","21","53062","0.0-5.0-2.8","5ede9b80b8a141131edabbe1","bdp_cybrbll","Wed Mar 29 2023 19:47:09 GMT-0700 (Pacific Daylight Time)","434138","1","3","","","","","","","","","","217","","","","1","3","[{""stimulus"":""img/1to3/1.png"",""time"":103},{""stimulus"":""img/1to3/2.png"",""time"":200},{""stimulus"":""img/1to3/3.png"",""time"":298},{""stimulus"":""img/1to3/4.png"",""time"":397},{""stimulus"":""img/1to3/5.png"",""time"":498},{""stimulus"":""img/1to3/6.png"",""time"":596},{""stimulus"":""img/1to3/7.png"",""time"":695},{""stimulus"":""img/1to3/8.png"",""time"":794},{""stimulus"":""img/1to3/9.png"",""time"":893},{""stimulus"":""img/1to3/10.png"",""time"":992},{""stimulus"":""img/1to3/11.png"",""time"":1092},{""stimulus"":""img/1to3/12.png"",""time"":1192}]","[]"
"image-keyboard-response","22","54255","0.0-5.0-1.9","5ede9b80b8a141131edabbe1","bdp_cybrbll","Wed Mar 29 2023 19:47:09 GMT-0700 (Pacific Daylight Time)","434138","1","3","","null","","","","observe","","img/3to2/1.png","null","216","1189","0.5","0.5","3","1","",""
"animation","23","55543","0.0-5.0-2.9","5ede9b80b8a141131edabbe1","bdp_cybrbll","Wed Mar 29 2023 19:47:09 GMT-0700 (Pacific Daylight Time)","434138","1","3","","","","","","","","","","216","","","","3","1","[{""stimulus"":""img/3to1/1.png"",""time"":101},{""stimulus"":""img/3to1/2.png"",""time"":199},{""stimulus"":""img/3to1/3.png"",""time"":299},{""stimulus"":""img/3to1/4.png"",""time"":398},{""stimulus"":""img/3to1/5.png"",""time"":498},{""stimulus"":""img/3to1/6.png"",""time"":597},{""stimulus"":""img/3to1/7.png"",""time"":695},{""stimulus"":""img/3to1/8.png"",""time"":794},{""stimulus"":""img/3to1/9.png"",""time"":892},{""stimulus"":""img/3to1/10.png"",""time"":991},{""stimulus"":""img/3to1/11.png"",""time"":1091},{""stimulus"":""img/3to1/12.png"",""time"":1190}]","[]"
"image-keyboard-response","24","55855","0.0-5.0-1.10","5ede9b80b8a141131edabbe1","bdp_cybrbll","Wed Mar 29 2023 19:47:09 GMT-0700 (Pacific Daylight Time)","434138","1","3","","null","","","","observe","","img/1to3/1.png","null","215","309","0.5","0.5","1","3","",""
"animation","25","57144","0.0-5.0-2.10","5ede9b80b8a141131edabbe1","bdp_cybrbll","Wed Mar 29 2023 19:47:09 GMT-0700 (Pacific Daylight Time)","434138","1","3","","","","","","","","","","215","","","","1","3","[{""stimulus"":""img/1to3/1.png"",""time"":101},{""stimulus"":""img/1to3/2.png"",""time"":199},{""stimulus"":""img/1to3/3.png"",""time"":299},{""stimulus"":""img/1to3/4.png"",""time"":398},{""stimulus"":""img/1to3/5.png"",""time"":497},{""stimulus"":""img/1to3/6.png"",""time"":596},{""stimulus"":""img/1to3/7.png"",""time"":695},{""stimulus"":""img/1to3/8.png"",""time"":794},{""stimulus"":""img/1to3/9.png"",""time"":893},{""stimulus"":""img/1to3/10.png"",""time"":992},{""stimulus"":""img/1to3/11.png"",""time"":1091},{""stimulus"":""img/1to3/12.png"",""time"":1190}]","[]"
"image-keyboard-response","26","57557","0.0-5.0-1.11","5ede9b80b8a141131edabbe1","bdp_cybrbll","Wed Mar 29 2023 19:47:09 GMT-0700 (Pacific Daylight Time)","434138","1","3","","null","","","","observe","","img/3to2/1.png","null","214","409","0.5","0.5","3","1","",""
"animation","27","58845","0.0-5.0-2.11","5ede9b80b8a141131edabbe1","bdp_cybrbll","Wed Mar 29 2023 19:47:09 GMT-0700 (Pacific Daylight Time)","434138","1","3","","","","","","","","","","214","","","","3","1","[{""stimulus"":""img/3to1/1.png"",""time"":101},{""stimulus"":""img/3to1/2.png"",""time"":201},{""stimulus"":""img/3to1/3.png"",""time"":299},{""stimulus"":""img/3to1/4.png"",""time"":398},{""stimulus"":""img/3to1/5.png"",""time"":502},{""stimulus"":""img/3to1/6.png"",""time"":596},{""stimulus"":""img/3to1/7.png"",""time"":697},{""stimulus"":""img/3to1/8.png"",""time"":795},{""stimulus"":""img/3to1/9.png"",""time"":895},{""stimulus"":""img/3to1/10.png"",""time"":992},{""stimulus"":""img/3to1/11.png"",""time"":1092},{""stimulus"":""img/3to1/12.png"",""time"":1190}]","[]"
"image-keyboard-response","28","59708","0.0-5.0-1.12","5ede9b80b8a141131edabbe1","bdp_cybrbll","Wed Mar 29 2023 19:47:09 GMT-0700 (Pacific Daylight Time)","434138","1","3","","null","","","","observe","","img/1to3/1.png","null","213","858","0.5","0.5","1","2","",""
"animation","29","60997","0.0-5.0-2.12","5ede9b80b8a141131edabbe1","bdp_cybrbll","Wed Mar 29 2023 19:47:09 GMT-0700 (Pacific Daylight Time)","434138","1","3","","","","","","","","","","213","","","","1","2","[{""stimulus"":""img/1to2/1.png"",""time"":103},{""stimulus"":""img/1to2/2.png"",""time"":201},{""stimulus"":""img/1to2/3.png"",""time"":299},{""stimulus"":""img/1to2/4.png"",""time"":398},{""stimulus"":""img/1to2/5.png"",""time"":497},{""stimulus"":""img/1to2/6.png"",""time"":597},{""stimulus"":""img/1to2/7.png"",""time"":695},{""stimulus"":""img/1to2/8.png"",""time"":795},{""stimulus"":""img/1to2/9.png"",""time"":893},{""stimulus"":""img/1to2/10.png"",""time"":992},{""stimulus"":""img/1to2/11.png"",""time"":1091},{""stimulus"":""img/1to2/12.png"",""time"":1190}]","[]"
"image-keyboard-response","30","61225","0.0-5.0-1.13","5ede9b80b8a141131edabbe1","bdp_cybrbll","Wed Mar 29 2023 19:47:09 GMT-0700 (Pacific Daylight Time)","434138","1","3","","226","","","","choice","","img/2to1/1.png","1","212","1087","0.5","0.5","2","1","",""
"animation","31","62515","0.0-5.0-2.13","5ede9b80b8a141131edabbe1","bdp_cybrbll","Wed Mar 29 2023 19:47:09 GMT-0700 (Pacific Daylight Time)","434138","1","3","","","","","","","","","","212","","","","2","1","[{""stimulus"":""img/2to1/1.png"",""time"":101},{""stimulus"":""img/2to1/2.png"",""time"":200},{""stimulus"":""img/2to1/3.png"",""time"":299},{""stimulus"":""img/2to1/4.png"",""time"":397},{""stimulus"":""img/2to1/5.png"",""time"":497},{""stimulus"":""img/2to1/6.png"",""time"":596},{""stimulus"":""img/2to1/7.png"",""time"":696},{""stimulus"":""img/2to1/8.png"",""time"":794},{""stimulus"":""img/2to1/9.png"",""time"":893},{""stimulus"":""img/2to1/10.png"",""time"":992},{""stimulus"":""img/2to1/11.png"",""time"":1091},{""stimulus"":""img/2to1/12.png"",""time"":1190}]","[]"
"image-keyboard-response","32","63147","0.0-5.0-1.14","5ede9b80b8a141131edabbe1","bdp_cybrbll","Wed Mar 29 2023 19:47:09 GMT-0700 (Pacific Daylight Time)","434138","1","3","","null","","","","observe","","img/1to3/1.png","null","211","628","0.5","0.5","1","2","",""
"animation","33","64436","0.0-5.0-2.14","5ede9b80b8a141131edabbe1","bdp_cybrbll","Wed Mar 29 2023 19:47:09 GMT-0700 (Pacific Daylight Time)","434138","1","3","","","","","","","","","","211","","","","1","2","[{""stimulus"":""img/1to2/1.png"",""time"":101},{""stimulus"":""img/1to2/2.png"",""time"":200},{""stimulus"":""img/1to2/3.png"",""time"":298},{""stimulus"":""img/1to2/4.png"",""time"":397},{""stimulus"":""img/1to2/5.png"",""time"":498},{""stimulus"":""img/1to2/6.png"",""time"":595},{""stimulus"":""img/1to2/7.png"",""time"":694},{""stimulus"":""img/1to2/8.png"",""time"":795},{""stimulus"":""img/1to2/9.png"",""time"":893},{""stimulus"":""img/1to2/10.png"",""time"":992},{""stimulus"":""img/1to2/11.png"",""time"":1090},{""stimulus"":""img/1to2/12.png"",""time"":1189}]","[]"
"image-keyboard-response","34","64800","0.0-5.0-1.15","5ede9b80b8a141131edabbe1","bdp_cybrbll","Wed Mar 29 2023 19:47:09 GMT-0700 (Pacific Daylight Time)","434138","1","3","","362","","","","choice","","img/2to1/1.png","2","210","674","0.5","0.5","2","3","",""
"animation","35","66088","0.0-5.0-2.15","5ede9b80b8a141131edabbe1","bdp_cybrbll","Wed Mar 29 2023 19:47:09 GMT-0700 (Pacific Daylight Time)","434138","1","3","","","","","","","","","","210","","","","2","3","[{""stimulus"":""img/2to3/1.png"",""time"":101},{""stimulus"":""img/2to3/2.png"",""time"":200},{""stimulus"":""img/2to3/3.png"",""time"":299},{""stimulus"":""img/2to3/4.png"",""time"":398},{""stimulus"":""img/2to3/5.png"",""time"":497},{""stimulus"":""img/2to3/6.png"",""time"":595},{""stimulus"":""img/2to3/7.png"",""time"":695},{""stimulus"":""img/2to3/8.png"",""time"":794},{""stimulus"":""img/2to3/9.png"",""time"":892},{""stimulus"":""img/2to3/10.png"",""time"":992},{""stimulus"":""img/2to3/11.png"",""time"":1092},{""stimulus"":""img/2to3/12.png"",""time"":1190}]","[]"
"image-keyboard-response","36","66366","0.0-5.0-1.16","5ede9b80b8a141131edabbe1","bdp_cybrbll","Wed Mar 29 2023 19:47:09 GMT-0700 (Pacific Daylight Time)","434138","1","3","","null","","","","observe","","img/3to2/1.png","null","209","272","0.5","0.5","3","1","",""
"animation","37","67654","0.0-5.0-2.16","5ede9b80b8a141131edabbe1","bdp_cybrbll","Wed Mar 29 2023 19:47:09 GMT-0700 (Pacific Daylight Time)","434138","1","3","","","","","","","","","","209","","","","3","1","[{""stimulus"":""img/3to1/1.png"",""time"":102},{""stimulus"":""img/3to1/2.png"",""time"":199},{""stimulus"":""img/3to1/3.png"",""time"":299},{""stimulus"":""img/3to1/4.png"",""time"":397},{""stimulus"":""img/3to1/5.png"",""time"":497},{""stimulus"":""img/3to1/6.png"",""time"":595},{""stimulus"":""img/3to1/7.png"",""time"":695},{""stimulus"":""img/3to1/8.png"",""time"":794},{""stimulus"":""img/3to1/9.png"",""time"":892},{""stimulus"":""img/3to1/10.png"",""time"":991},{""stimulus"":""img/3to1/11.png"",""time"":1091},{""stimulus"":""img/3to1/12.png"",""time"":1190}]","[]"
"image-keyboard-response","38","68898","0.0-5.0-1.17","5ede9b80b8a141131edabbe1","bdp_cybrbll","Wed Mar 29 2023 19:47:09 GMT-0700 (Pacific Daylight Time)","434138","1","3","","null","","","","observe","","img/1to3/1.png","null","208","1239","0.5","0.5","1","2","",""
"animation","39","70188","0.0-5.0-2.17","5ede9b80b8a141131edabbe1","bdp_cybrbll","Wed Mar 29 2023 19:47:09 GMT-0700 (Pacific Daylight Time)","434138","1","3","","","","","","","","","","208","","","","1","2","[{""stimulus"":""img/1to2/1.png"",""time"":105},{""stimulus"":""img/1to2/2.png"",""time"":200},{""stimulus"":""img/1to2/3.png"",""time"":299},{""stimulus"":""img/1to2/4.png"",""time"":399},{""stimulus"":""img/1to2/5.png"",""time"":498},{""stimulus"":""img/1to2/6.png"",""time"":596},{""stimulus"":""img/1to2/7.png"",""time"":694},{""stimulus"":""img/1to2/8.png"",""time"":794},{""stimulus"":""img/1to2/9.png"",""time"":897},{""stimulus"":""img/1to2/10.png"",""time"":992},{""stimulus"":""img/1to2/11.png"",""time"":1091},{""stimulus"":""img/1to2/12.png"",""time"":1190}]","[]"
"image-keyboard-response","40","70398","0.0-5.0-1.18","5ede9b80b8a141131edabbe1","bdp_cybrbll","Wed Mar 29 2023 19:47:09 GMT-0700 (Pacific Daylight Time)","434138","1","3","","208","","","","choice","","img/2to1/1.png","2","207","1180","0.5","0.5","2","3","",""
"animation","41","71688","0.0-5.0-2.18","5ede9b80b8a141131edabbe1","bdp_cybrbll","Wed Mar 29 2023 19:47:09 GMT-0700 (Pacific Daylight Time)","434138","1","3","","","","","","","","","","207","","","","2","3","[{""stimulus"":""img/2to3/1.png"",""time"":103},{""stimulus"":""img/2to3/2.png"",""time"":200},{""stimulus"":""img/2to3/3.png"",""time"":299},{""stimulus"":""img/2to3/4.png"",""time"":398},{""stimulus"":""img/2to3/5.png"",""time"":497},{""stimulus"":""img/2to3/6.png"",""time"":596},{""stimulus"":""img/2to3/7.png"",""time"":696},{""stimulus"":""img/2to3/8.png"",""time"":794},{""stimulus"":""img/2to3/9.png"",""time"":894},{""stimulus"":""img/2to3/10.png"",""time"":992},{""stimulus"":""img/2to3/11.png"",""time"":1091},{""stimulus"":""img/2to3/12.png"",""time"":1191}]","[]"
"image-keyboard-response","42","72203","0.0-5.0-1.19","5ede9b80b8a141131edabbe1","bdp_cybrbll","Wed Mar 29 2023 19:47:09 GMT-0700 (Pacific Daylight Time)","434138","1","3","","null","","","","observe","","img/3to2/1.png","null","206","512","0.5","0.5","3","2","",""
"animation","43","73492","0.0-5.0-2.19","5ede9b80b8a141131edabbe1","bdp_cybrbll","Wed Mar 29 2023 19:47:09 GMT-0700 (Pacific Daylight Time)","434138","1","3","","","","","","","","","","206","","","","3","2","[{""stimulus"":""img/3to2/1.png"",""time"":102},{""stimulus"":""img/3to2/2.png"",""time"":201},{""stimulus"":""img/3to2/3.png"",""time"":301},{""stimulus"":""img/3to2/4.png"",""time"":401},{""stimulus"":""img/3to2/5.png"",""time"":498},{""stimulus"":""img/3to2/6.png"",""time"":596},{""stimulus"":""img/3to2/7.png"",""time"":694},{""stimulus"":""img/3to2/8.png"",""time"":794},{""stimulus"":""img/3to2/9.png"",""time"":894},{""stimulus"":""img/3to2/10.png"",""time"":994},{""stimulus"":""img/3to2/11.png"",""time"":1091},{""stimulus"":""img/3to2/12.png"",""time"":1191}]","[]"
"image-keyboard-response","44","73731","0.0-5.0-1.20","5ede9b80b8a141131edabbe1","bdp_cybrbll","Wed Mar 29 2023 19:47:09 GMT-0700 (Pacific Daylight Time)","434138","1","3","","237","","","","choice","","img/2to1/1.png","1","205","245","0.5","0.5","2","1","",""
"animation","45","75021","0.0-5.0-2.20","5ede9b80b8a141131edabbe1","bdp_cybrbll","Wed Mar 29 2023 19:47:09 GMT-0700 (Pacific Daylight Time)","434138","1","3","","","","","","","","","","205","","","","2","1","[{""stimulus"":""img/2to1/1.png"",""time"":113},{""stimulus"":""img/2to1/2.png"",""time"":201},{""stimulus"":""img/2to1/3.png"",""time"":299},{""stimulus"":""img/2to1/4.png"",""time"":398},{""stimulus"":""img/2to1/5.png"",""time"":498},{""stimulus"":""img/2to1/6.png"",""time"":596},{""stimulus"":""img/2to1/7.png"",""time"":696},{""stimulus"":""img/2to1/8.png"",""time"":795},{""stimulus"":""img/2to1/9.png"",""time"":893},{""stimulus"":""img/2to1/10.png"",""time"":991},{""stimulus"":""img/2to1/11.png"",""time"":1091},{""stimulus"":""img/2to1/12.png"",""time"":1191}]","[]"
"image-keyboard-response","46","75582","0.0-5.0-1.21","5ede9b80b8a141131edabbe1","bdp_cybrbll","Wed Mar 29 2023 19:47:09 GMT-0700 (Pacific Daylight Time)","434138","1","3","","null","","","","observe","","img/1to3/1.png","null","204","558","0.5","0.5","1","3","",""
"animation","47","76871","0.0-5.0-2.21","5ede9b80b8a141131edabbe1","bdp_cybrbll","Wed Mar 29 2023 19:47:09 GMT-0700 (Pacific Daylight Time)","434138","1","3","","","","","","","","","","204","","","","1","3","[{""stimulus"":""img/1to3/1.png"",""time"":106},{""stimulus"":""img/1to3/2.png"",""time"":215},{""stimulus"":""img/1to3/3.png"",""time"":300},{""stimulus"":""img/1to3/4.png"",""time"":398},{""stimulus"":""img/1to3/5.png"",""time"":497},{""stimulus"":""img/1to3/6.png"",""time"":596},{""stimulus"":""img/1to3/7.png"",""time"":695},{""stimulus"":""img/1to3/8.png"",""time"":793},{""stimulus"":""img/1to3/9.png"",""time"":893},{""stimulus"":""img/1to3/10.png"",""time"":992},{""stimulus"":""img/1to3/11.png"",""time"":1091},{""stimulus"":""img/1to3/12.png"",""time"":1189}]","[]"
"image-keyboard-response","48","77175","0.0-5.0-1.22","5ede9b80b8a141131edabbe1","bdp_cybrbll","Wed Mar 29 2023 19:47:09 GMT-0700 (Pacific Daylight Time)","434138","1","3","","null","","","","observe","","img/3to2/1.png","null","203","301","0.5","0.5","3","1","",""
"animation","49","78464","0.0-5.0-2.22","5ede9b80b8a141131edabbe1","bdp_cybrbll","Wed Mar 29 2023 19:47:09 GMT-0700 (Pacific Daylight Time)","434138","1","3","","","","","","","","","","203","","","","3","1","[{""stimulus"":""img/3to1/1.png"",""time"":102},{""stimulus"":""img/3to1/2.png"",""time"":200},{""stimulus"":""img/3to1/3.png"",""time"":299},{""stimulus"":""img/3to1/4.png"",""time"":399},{""stimulus"":""img/3to1/5.png"",""time"":497},{""stimulus"":""img/3to1/6.png"",""time"":596},{""stimulus"":""img/3to1/7.png"",""time"":695},{""stimulus"":""img/3to1/8.png"",""time"":795},{""stimulus"":""img/3to1/9.png"",""time"":893},{""stimulus"":""img/3to1/10.png"",""time"":993},{""stimulus"":""img/3to1/11.png"",""time"":1091},{""stimulus"":""img/3to1/12.png"",""time"":1190}]","[]"
"image-keyboard-response","50","78737","0.0-5.0-1.23","5ede9b80b8a141131edabbe1","bdp_cybrbll","Wed Mar 29 2023 19:47:09 GMT-0700 (Pacific Daylight Time)","434138","1","3","","null","","","","observe","","img/1to3/1.png","null","202","270","0.5","0.5","1","3","",""
"animation","51","80026","0.0-5.0-2.23","5ede9b80b8a141131edabbe1","bdp_cybrbll","Wed Mar 29 2023 19:47:09 GMT-0700 (Pacific Daylight Time)","434138","1","3","","","","","","","","","","202","","","","1","3","[{""stimulus"":""img/1to3/1.png"",""time"":101},{""stimulus"":""img/1to3/2.png"",""time"":199},{""stimulus"":""img/1to3/3.png"",""time"":299},{""stimulus"":""img/1to3/4.png"",""time"":397},{""stimulus"":""img/1to3/5.png"",""time"":497},{""stimulus"":""img/1to3/6.png"",""time"":596},{""stimulus"":""img/1to3/7.png"",""time"":695},{""stimulus"":""img/1to3/8.png"",""time"":794},{""stimulus"":""img/1to3/9.png"",""time"":893},{""stimulus"":""img/1to3/10.png"",""time"":992},{""stimulus"":""img/1to3/11.png"",""time"":1095},{""stimulus"":""img/1to3/12.png"",""time"":1190}]","[]"
"image-keyboard-response","52","80417","0.0-5.0-1.24","5ede9b80b8a141131edabbe1","bdp_cybrbll","Wed Mar 29 2023 19:47:09 GMT-0700 (Pacific Daylight Time)","434138","1","3","","null","","","","observe","","img/3to2/1.png","null","201","389","0.5","0.5","3","2","",""
"animation","53","81706","0.0-5.0-2.24","5ede9b80b8a141131edabbe1","bdp_cybrbll","Wed Mar 29 2023 19:47:09 GMT-0700 (Pacific Daylight Time)","434138","1","3","","","","","","","","","","201","","","","3","2","[{""stimulus"":""img/3to2/1.png"",""time"":100},{""stimulus"":""img/3to2/2.png"",""time"":199},{""stimulus"":""img/3to2/3.png"",""time"":298},{""stimulus"":""img/3to2/4.png"",""time"":398},{""stimulus"":""img/3to2/5.png"",""time"":497},{""stimulus"":""img/3to2/6.png"",""time"":597},{""stimulus"":""img/3to2/7.png"",""time"":696},{""stimulus"":""img/3to2/8.png"",""time"":794},{""stimulus"":""img/3to2/9.png"",""time"":893},{""stimulus"":""img/3to2/10.png"",""time"":991},{""stimulus"":""img/3to2/11.png"",""time"":1092},{""stimulus"":""img/3to2/12.png"",""time"":1191}]","[]"
"image-keyboard-response","54","81864","0.0-5.0-1.25","5ede9b80b8a141131edabbe1","bdp_cybrbll","Wed Mar 29 2023 19:47:09 GMT-0700 (Pacific Daylight Time)","434138","1","3","","155","","","","choice","","img/2to1/1.png","1","200","189","0.5","0.5","2","1","",""
"animation","55","83152","0.0-5.0-2.25","5ede9b80b8a141131edabbe1","bdp_cybrbll","Wed Mar 29 2023 19:47:09 GMT-0700 (Pacific Daylight Time)","434138","1","3","","","","","","","","","","200","","","","2","1","[{""stimulus"":""img/2to1/1.png"",""time"":101},{""stimulus"":""img/2to1/2.png"",""time"":201},{""stimulus"":""img/2to1/3.png"",""time"":299},{""stimulus"":""img/2to1/4.png"",""time"":399},{""stimulus"":""img/2to1/5.png"",""time"":500},{""stimulus"":""img/2to1/6.png"",""time"":598},{""stimulus"":""img/2to1/7.png"",""time"":696},{""stimulus"":""img/2to1/8.png"",""time"":794},{""stimulus"":""img/2to1/9.png"",""time"":894},{""stimulus"":""img/2to1/10.png"",""time"":992},{""stimulus"":""img/2to1/11.png"",""time"":1092},{""stimulus"":""img/2to1/12.png"",""time"":1190}]","[]"
"image-keyboard-response","56","83482","0.0-5.0-1.26","5ede9b80b8a141131edabbe1","bdp_cybrbll","Wed Mar 29 2023 19:47:09 GMT-0700 (Pacific Daylight Time)","434138","1","3","","null","","","","observe","","img/1to3/1.png","null","199","325","0.5","0.5","1","2","",""
"animation","57","84771","0.0-5.0-2.26","5ede9b80b8a141131edabbe1","bdp_cybrbll","Wed Mar 29 2023 19:47:09 GMT-0700 (Pacific Daylight Time)","434138","1","3","","","","","","","","","","199","","","","1","2","[{""stimulus"":""img/1to2/1.png"",""time"":101},{""stimulus"":""img/1to2/2.png"",""time"":200},{""stimulus"":""img/1to2/3.png"",""time"":300},{""stimulus"":""img/1to2/4.png"",""time"":400},{""stimulus"":""img/1to2/5.png"",""time"":499},{""stimulus"":""img/1to2/6.png"",""time"":596},{""stimulus"":""img/1to2/7.png"",""time"":696},{""stimulus"":""img/1to2/8.png"",""time"":794},{""stimulus"":""img/1to2/9.png"",""time"":893},{""stimulus"":""img/1to2/10.png"",""time"":993},{""stimulus"":""img/1to2/11.png"",""time"":1091},{""stimulus"":""img/1to2/12.png"",""time"":1190}]","[]"
"image-keyboard-response","58","85317","0.0-5.0-1.27","5ede9b80b8a141131edabbe1","bdp_cybrbll","Wed Mar 29 2023 19:47:09 GMT-0700 (Pacific Daylight Time)","434138","1","3","","544","","","","choice","","img/2to1/1.png","2","198","534","0.5","0.5","2","3","",""
"animation","59","86607","0.0-5.0-2.27","5ede9b80b8a141131edabbe1","bdp_cybrbll","Wed Mar 29 2023 19:47:09 GMT-0700 (Pacific Daylight Time)","434138","1","3","","","","","","","","","","198","","","","2","3","[{""stimulus"":""img/2to3/1.png"",""time"":101},{""stimulus"":""img/2to3/2.png"",""time"":199},{""stimulus"":""img/2to3/3.png"",""time"":298},{""stimulus"":""img/2to3/4.png"",""time"":398},{""stimulus"":""img/2to3/5.png"",""time"":508},{""stimulus"":""img/2to3/6.png"",""time"":597},{""stimulus"":""img/2to3/7.png"",""time"":694},{""stimulus"":""img/2to3/8.png"",""time"":793},{""stimulus"":""img/2to3/9.png"",""time"":892},{""stimulus"":""img/2to3/10.png"",""time"":991},{""stimulus"":""img/2to3/11.png"",""time"":1090},{""stimulus"":""img/2to3/12.png"",""time"":1189}]","[]"
"image-keyboard-response","60","86910","0.0-5.0-1.28","5ede9b80b8a141131edabbe1","bdp_cybrbll","Wed Mar 29 2023 19:47:09 GMT-0700 (Pacific Daylight Time)","434138","1","3","","null","","","","observe","","img/3to2/1.png","null","197","300","0.5","0.5","3","1","",""
"animation","61","88199","0.0-5.0-2.28","5ede9b80b8a141131edabbe1","bdp_cybrbll","Wed Mar 29 2023 19:47:09 GMT-0700 (Pacific Daylight Time)","434138","1","3","","","","","","","","","","197","","","","3","1","[{""stimulus"":""img/3to1/1.png"",""time"":102},{""stimulus"":""img/3to1/2.png"",""time"":213},{""stimulus"":""img/3to1/3.png"",""time"":301},{""stimulus"":""img/3to1/4.png"",""time"":398},{""stimulus"":""img/3to1/5.png"",""time"":498},{""stimulus"":""img/3to1/6.png"",""time"":597},{""stimulus"":""img/3to1/7.png"",""time"":695},{""stimulus"":""img/3to1/8.png"",""time"":794},{""stimulus"":""img/3to1/9.png"",""time"":893},{""stimulus"":""img/3to1/10.png"",""time"":992},{""stimulus"":""img/3to1/11.png"",""time"":1092},{""stimulus"":""img/3to1/12.png"",""time"":1191}]","[]"
"image-keyboard-response","62","88637","0.0-5.0-1.29","5ede9b80b8a141131edabbe1","bdp_cybrbll","Wed Mar 29 2023 19:47:09 GMT-0700 (Pacific Daylight Time)","434138","1","3","","null","","","","observe","","img/1to3/1.png","null","196","434","0.5","0.5","1","3","",""
"animation","63","89928","0.0-5.0-2.29","5ede9b80b8a141131edabbe1","bdp_cybrbll","Wed Mar 29 2023 19:47:09 GMT-0700 (Pacific Daylight Time)","434138","1","3","","","","","","","","","","196","","","","1","3","[{""stimulus"":""img/1to3/1.png"",""time"":102},{""stimulus"":""img/1to3/2.png"",""time"":199},{""stimulus"":""img/1to3/3.png"",""time"":299},{""stimulus"":""img/1to3/4.png"",""time"":398},{""stimulus"":""img/1to3/5.png"",""time"":497},{""stimulus"":""img/1to3/6.png"",""time"":596},{""stimulus"":""img/1to3/7.png"",""time"":694},{""stimulus"":""img/1to3/8.png"",""time"":794},{""stimulus"":""img/1to3/9.png"",""time"":893},{""stimulus"":""img/1to3/10.png"",""time"":992},{""stimulus"":""img/1to3/11.png"",""time"":1091},{""stimulus"":""img/1to3/12.png"",""time"":1191}]","[]"
"image-keyboard-response","64","90861","0.0-5.0-1.30","5ede9b80b8a141131edabbe1","bdp_cybrbll","Wed Mar 29 2023 19:47:09 GMT-0700 (Pacific Daylight Time)","434138","1","3","","null","","","","observe","","img/3to2/1.png","null","195","916","0.5","0.5","3","2","",""
"animation","65","92151","0.0-5.0-2.30","5ede9b80b8a141131edabbe1","bdp_cybrbll","Wed Mar 29 2023 19:47:09 GMT-0700 (Pacific Daylight Time)","434138","1","3","","","","","","","","","","195","","","","3","2","[{""stimulus"":""img/3to2/1.png"",""time"":102},{""stimulus"":""img/3to2/2.png"",""time"":200},{""stimulus"":""img/3to2/3.png"",""time"":299},{""stimulus"":""img/3to2/4.png"",""time"":398},{""stimulus"":""img/3to2/5.png"",""time"":497},{""stimulus"":""img/3to2/6.png"",""time"":598},{""stimulus"":""img/3to2/7.png"",""time"":695},{""stimulus"":""img/3to2/8.png"",""time"":794},{""stimulus"":""img/3to2/9.png"",""time"":893},{""stimulus"":""img/3to2/10.png"",""time"":995},{""stimulus"":""img/3to2/11.png"",""time"":1091},{""stimulus"":""img/3to2/12.png"",""time"":1190}]","[]"
"image-keyboard-response","66","92383","0.0-5.0-1.31","5ede9b80b8a141131edabbe1","bdp_cybrbll","Wed Mar 29 2023 19:47:09 GMT-0700 (Pacific Daylight Time)","434138","1","3","","229","","","","choice","","img/2to1/1.png","1","194","671","0.5","0.5","2","1","",""
"animation","67","93672","0.0-5.0-2.31","5ede9b80b8a141131edabbe1","bdp_cybrbll","Wed Mar 29 2023 19:47:09 GMT-0700 (Pacific Daylight Time)","434138","1","3","","","","","","","","","","194","","","","2","1","[{""stimulus"":""img/2to1/1.png"",""time"":103},{""stimulus"":""img/2to1/2.png"",""time"":200},{""stimulus"":""img/2to1/3.png"",""time"":299},{""stimulus"":""img/2to1/4.png"",""time"":399},{""stimulus"":""img/2to1/5.png"",""time"":497},{""stimulus"":""img/2to1/6.png"",""time"":597},{""stimulus"":""img/2to1/7.png"",""time"":695},{""stimulus"":""img/2to1/8.png"",""time"":794},{""stimulus"":""img/2to1/9.png"",""time"":892},{""stimulus"":""img/2to1/10.png"",""time"":993},{""stimulus"":""img/2to1/11.png"",""time"":1091},{""stimulus"":""img/2to1/12.png"",""time"":1190}]","[]"
"image-keyboard-response","68","93917","0.0-5.0-1.32","5ede9b80b8a141131edabbe1","bdp_cybrbll","Wed Mar 29 2023 19:47:09 GMT-0700 (Pacific Daylight Time)","434138","1","3","","null","","","","observe","","img/1to3/1.png","null","193","242","0.5","0.5","1","3","",""
"animation","69","95206","0.0-5.0-2.32","5ede9b80b8a141131edabbe1","bdp_cybrbll","Wed Mar 29 2023 19:47:09 GMT-0700 (Pacific Daylight Time)","434138","1","3","","","","","","","","","","193","","","","1","3","[{""stimulus"":""img/1to3/1.png"",""time"":102},{""stimulus"":""img/1to3/2.png"",""time"":200},{""stimulus"":""img/1to3/3.png"",""time"":300},{""stimulus"":""img/1to3/4.png"",""time"":398},{""stimulus"":""img/1to3/5.png"",""time"":499},{""stimulus"":""img/1to3/6.png"",""time"":596},{""stimulus"":""img/1to3/7.png"",""time"":696},{""stimulus"":""img/1to3/8.png"",""time"":796},{""stimulus"":""img/1to3/9.png"",""time"":894},{""stimulus"":""img/1to3/10.png"",""time"":991},{""stimulus"":""img/1to3/11.png"",""time"":1090},{""stimulus"":""img/1to3/12.png"",""time"":1190}]","[]"
"image-keyboard-response","70","96020","0.0-5.0-1.33","5ede9b80b8a141131edabbe1","bdp_cybrbll","Wed Mar 29 2023 19:47:09 GMT-0700 (Pacific Daylight Time)","434138","1","3","","null","","","","observe","","img/3to2/1.png","null","192","811","0.5","0.5","3","1","",""
"animation","71","97308","0.0-5.0-2.33","5ede9b80b8a141131edabbe1","bdp_cybrbll","Wed Mar 29 2023 19:47:09 GMT-0700 (Pacific Daylight Time)","434138","1","3","","","","","","","","","","192","","","","3","1","[{""stimulus"":""img/3to1/1.png"",""time"":103},{""stimulus"":""img/3to1/2.png"",""time"":199},{""stimulus"":""img/3to1/3.png"",""time"":298},{""stimulus"":""img/3to1/4.png"",""time"":397},{""stimulus"":""img/3to1/5.png"",""time"":495},{""stimulus"":""img/3to1/6.png"",""time"":595},{""stimulus"":""img/3to1/7.png"",""time"":694},{""stimulus"":""img/3to1/8.png"",""time"":793},{""stimulus"":""img/3to1/9.png"",""time"":893},{""stimulus"":""img/3to1/10.png"",""time"":992},{""stimulus"":""img/3to1/11.png"",""time"":1090},{""stimulus"":""img/3to1/12.png"",""time"":1189}]","[]"
"image-keyboard-response","72","97869","0.0-5.0-1.34","5ede9b80b8a141131edabbe1","bdp_cybrbll","Wed Mar 29 2023 19:47:09 GMT-0700 (Pacific Daylight Time)","434138","1","3","","null","","","","observe","","img/1to3/1.png","null","191","550","0.5","0.5","1","3","",""
"animation","73","99157","0.0-5.0-2.34","5ede9b80b8a141131edabbe1","bdp_cybrbll","Wed Mar 29 2023 19:47:09 GMT-0700 (Pacific Daylight Time)","434138","1","3","","","","","","","","","","191","","","","1","3","[{""stimulus"":""img/1to3/1.png"",""time"":101},{""stimulus"":""img/1to3/2.png"",""time"":200},{""stimulus"":""img/1to3/3.png"",""time"":300},{""stimulus"":""img/1to3/4.png"",""time"":398},{""stimulus"":""img/1to3/5.png"",""time"":497},{""stimulus"":""img/1to3/6.png"",""time"":595},{""stimulus"":""img/1to3/7.png"",""time"":696},{""stimulus"":""img/1to3/8.png"",""time"":795},{""stimulus"":""img/1to3/9.png"",""time"":893},{""stimulus"":""img/1to3/10.png"",""time"":992},{""stimulus"":""img/1to3/11.png"",""time"":1092},{""stimulus"":""img/1to3/12.png"",""time"":1191}]","[]"
"image-keyboard-response","74","100228","0.0-5.0-1.35","5ede9b80b8a141131edabbe1","bdp_cybrbll","Wed Mar 29 2023 19:47:09 GMT-0700 (Pacific Daylight Time)","434138","1","3","","null","","","","observe","","img/3to2/1.png","null","190","1066","0.5","0.5","3","2","",""
"animation","75","101517","0.0-5.0-2.35","5ede9b80b8a141131edabbe1","bdp_cybrbll","Wed Mar 29 2023 19:47:09 GMT-0700 (Pacific Daylight Time)","434138","1","3","","","","","","","","","","190","","","","3","2","[{""stimulus"":""img/3to2/1.png"",""time"":102},{""stimulus"":""img/3to2/2.png"",""time"":199},{""stimulus"":""img/3to2/3.png"",""time"":299},{""stimulus"":""img/3to2/4.png"",""time"":398},{""stimulus"":""img/3to2/5.png"",""time"":496},{""stimulus"":""img/3to2/6.png"",""time"":595},{""stimulus"":""img/3to2/7.png"",""time"":695},{""stimulus"":""img/3to2/8.png"",""time"":794},{""stimulus"":""img/3to2/9.png"",""time"":892},{""stimulus"":""img/3to2/10.png"",""time"":992},{""stimulus"":""img/3to2/11.png"",""time"":1092},{""stimulus"":""img/3to2/12.png"",""time"":1190}]","[]"
"image-keyboard-response","76","101630","0.0-5.0-1.36","5ede9b80b8a141131edabbe1","bdp_cybrbll","Wed Mar 29 2023 19:47:09 GMT-0700 (Pacific Daylight Time)","434138","1","3","","110","","","","choice","","img/2to1/1.png","1","189","432","0.5","0.5","2","1","",""
"animation","77","102920","0.0-5.0-2.36","5ede9b80b8a141131edabbe1","bdp_cybrbll","Wed Mar 29 2023 19:47:09 GMT-0700 (Pacific Daylight Time)","434138","1","3","","","","","","","","","","189","","","","2","1","[{""stimulus"":""img/2to1/1.png"",""time"":103},{""stimulus"":""img/2to1/2.png"",""time"":200},{""stimulus"":""img/2to1/3.png"",""time"":299},{""stimulus"":""img/2to1/4.png"",""time"":399},{""stimulus"":""img/2to1/5.png"",""time"":498},{""stimulus"":""img/2to1/6.png"",""time"":597},{""stimulus"":""img/2to1/7.png"",""time"":695},{""stimulus"":""img/2to1/8.png"",""time"":794},{""stimulus"":""img/2to1/9.png"",""time"":893},{""stimulus"":""img/2to1/10.png"",""time"":993},{""stimulus"":""img/2to1/11.png"",""time"":1091},{""stimulus"":""img/2to1/12.png"",""time"":1190}]","[]"
"image-keyboard-response","78","103830","0.0-5.0-1.37","5ede9b80b8a141131edabbe1","bdp_cybrbll","Wed Mar 29 2023 19:47:09 GMT-0700 (Pacific Daylight Time)","434138","1","3","","null","","","","observe","","img/1to3/1.png","null","188","906","0.5","0.5","1","3","",""
"animation","79","105132","0.0-5.0-2.37","5ede9b80b8a141131edabbe1","bdp_cybrbll","Wed Mar 29 2023 19:47:09 GMT-0700 (Pacific Daylight Time)","434138","1","3","","","","","","","","","","188","","","","1","3","[{""stimulus"":""img/1to3/1.png"",""time"":102},{""stimulus"":""img/1to3/2.png"",""time"":201},{""stimulus"":""img/1to3/3.png"",""time"":299},{""stimulus"":""img/1to3/4.png"",""time"":400},{""stimulus"":""img/1to3/5.png"",""time"":497},{""stimulus"":""img/1to3/6.png"",""time"":598},{""stimulus"":""img/1to3/7.png"",""time"":695},{""stimulus"":""img/1to3/8.png"",""time"":794},{""stimulus"":""img/1to3/9.png"",""time"":894},{""stimulus"":""img/1to3/10.png"",""time"":992},{""stimulus"":""img/1to3/11.png"",""time"":1092},{""stimulus"":""img/1to3/12.png"",""time"":1194}]","[]"
"image-keyboard-response","80","105686","0.0-5.0-1.38","5ede9b80b8a141131edabbe1","bdp_cybrbll","Wed Mar 29 2023 19:47:09 GMT-0700 (Pacific Daylight Time)","434138","1","3","","null","","","","observe","","img/3to2/1.png","null","187","549","0.5","0.5","3","2","",""
"animation","81","106975","0.0-5.0-2.38","5ede9b80b8a141131edabbe1","bdp_cybrbll","Wed Mar 29 2023 19:47:09 GMT-0700 (Pacific Daylight Time)","434138","1","3","","","","","","","","","","187","","","","3","2","[{""stimulus"":""img/3to2/1.png"",""time"":102},{""stimulus"":""img/3to2/2.png"",""time"":201},{""stimulus"":""img/3to2/3.png"",""time"":299},{""stimulus"":""img/3to2/4.png"",""time"":398},{""stimulus"":""img/3to2/5.png"",""time"":498},{""stimulus"":""img/3to2/6.png"",""time"":597},{""stimulus"":""img/3to2/7.png"",""time"":695},{""stimulus"":""img/3to2/8.png"",""time"":794},{""stimulus"":""img/3to2/9.png"",""time"":894},{""stimulus"":""img/3to2/10.png"",""time"":992},{""stimulus"":""img/3to2/11.png"",""time"":1091},{""stimulus"":""img/3to2/12.png"",""time"":1190}]","[]"
"image-keyboard-response","82","107452","0.0-5.0-1.39","5ede9b80b8a141131edabbe1","bdp_cybrbll","Wed Mar 29 2023 19:47:09 GMT-0700 (Pacific Daylight Time)","434138","1","3","","475","","","","choice","","img/2to1/1.png","2","186","414","0.5","0.5","2","3","",""
"animation","83","108741","0.0-5.0-2.39","5ede9b80b8a141131edabbe1","bdp_cybrbll","Wed Mar 29 2023 19:47:09 GMT-0700 (Pacific Daylight Time)","434138","1","3","","","","","","","","","","186","","","","2","3","[{""stimulus"":""img/2to3/1.png"",""time"":101},{""stimulus"":""img/2to3/2.png"",""time"":200},{""stimulus"":""img/2to3/3.png"",""time"":299},{""stimulus"":""img/2to3/4.png"",""time"":398},{""stimulus"":""img/2to3/5.png"",""time"":498},{""stimulus"":""img/2to3/6.png"",""time"":602},{""stimulus"":""img/2to3/7.png"",""time"":725},{""stimulus"":""img/2to3/8.png"",""time"":796},{""stimulus"":""img/2to3/9.png"",""time"":896},{""stimulus"":""img/2to3/10.png"",""time"":992},{""stimulus"":""img/2to3/11.png"",""time"":1092},{""stimulus"":""img/2to3/12.png"",""time"":1189}]","[]"
"image-keyboard-response","84","109006","0.0-5.0-1.40","5ede9b80b8a141131edabbe1","bdp_cybrbll","Wed Mar 29 2023 19:47:09 GMT-0700 (Pacific Daylight Time)","434138","1","3","","null","","","","observe","","img/3to2/1.png","null","185","262","0.5","0.5","3","1","",""
"animation","85","110378","0.0-5.0-2.40","5ede9b80b8a141131edabbe1","bdp_cybrbll","Wed Mar 29 2023 19:47:09 GMT-0700 (Pacific Daylight Time)","434138","1","3","","","","","","","","","","185","","","","3","1","[{""stimulus"":""img/3to1/1.png"",""time"":101},{""stimulus"":""img/3to1/2.png"",""time"":200},{""stimulus"":""img/3to1/3.png"",""time"":298},{""stimulus"":""img/3to1/4.png"",""time"":397},{""stimulus"":""img/3to1/5.png"",""time"":497},{""stimulus"":""img/3to1/6.png"",""time"":596},{""stimulus"":""img/3to1/7.png"",""time"":694},{""stimulus"":""img/3to1/8.png"",""time"":795},{""stimulus"":""img/3to1/9.png"",""time"":892},{""stimulus"":""img/3to1/10.png"",""time"":991},{""stimulus"":""img/3to1/11.png"",""time"":1090},{""stimulus"":""img/3to1/12.png"",""time"":1217}]","[]"
"image-keyboard-response","86","110599","0.0-5.0-1.41","5ede9b80b8a141131edabbe1","bdp_cybrbll","Wed Mar 29 2023 19:47:09 GMT-0700 (Pacific Daylight Time)","434138","1","3","","null","","","","observe","","img/1to3/1.png","null","184","218","0.5","0.5","1","3","",""
"animation","87","111887","0.0-5.0-2.41","5ede9b80b8a141131edabbe1","bdp_cybrbll","Wed Mar 29 2023 19:47:09 GMT-0700 (Pacific Daylight Time)","434138","1","3","","","","","","","","","","184","","","","1","3","[{""stimulus"":""img/1to3/1.png"",""time"":101},{""stimulus"":""img/1to3/2.png"",""time"":201},{""stimulus"":""img/1to3/3.png"",""time"":298},{""stimulus"":""img/1to3/4.png"",""time"":397},{""stimulus"":""img/1to3/5.png"",""time"":497},{""stimulus"":""img/1to3/6.png"",""time"":597},{""stimulus"":""img/1to3/7.png"",""time"":695},{""stimulus"":""img/1to3/8.png"",""time"":794},{""stimulus"":""img/1to3/9.png"",""time"":896},{""stimulus"":""img/1to3/10.png"",""time"":994},{""stimulus"":""img/1to3/11.png"",""time"":1091},{""stimulus"":""img/1to3/12.png"",""time"":1191}]","[]"
"image-keyboard-response","88","112489","0.0-5.0-1.42","5ede9b80b8a141131edabbe1","bdp_cybrbll","Wed Mar 29 2023 19:47:09 GMT-0700 (Pacific Daylight Time)","434138","1","3","","null","","","","observe","","img/3to2/1.png","null","183","599","0.5","0.5","3","2","",""
"animation","89","113778","0.0-5.0-2.42","5ede9b80b8a141131edabbe1","bdp_cybrbll","Wed Mar 29 2023 19:47:09 GMT-0700 (Pacific Daylight Time)","434138","1","3","","","","","","","","","","183","","","","3","2","[{""stimulus"":""img/3to2/1.png"",""time"":101},{""stimulus"":""img/3to2/2.png"",""time"":200},{""stimulus"":""img/3to2/3.png"",""time"":300},{""stimulus"":""img/3to2/4.png"",""time"":399},{""stimulus"":""img/3to2/5.png"",""time"":498},{""stimulus"":""img/3to2/6.png"",""time"":595},{""stimulus"":""img/3to2/7.png"",""time"":695},{""stimulus"":""img/3to2/8.png"",""time"":794},{""stimulus"":""img/3to2/9.png"",""time"":893},{""stimulus"":""img/3to2/10.png"",""time"":992},{""stimulus"":""img/3to2/11.png"",""time"":1092},{""stimulus"":""img/3to2/12.png"",""time"":1190}]","[]"
"image-keyboard-response","90","113869","0.0-5.0-1.43","5ede9b80b8a141131edabbe1","bdp_cybrbll","Wed Mar 29 2023 19:47:09 GMT-0700 (Pacific Daylight Time)","434138","1","3","","89","","","","choice","","img/2to1/1.png","1","182","585","0.5","0.5","2","1","",""
"animation","91","115157","0.0-5.0-2.43","5ede9b80b8a141131edabbe1","bdp_cybrbll","Wed Mar 29 2023 19:47:09 GMT-0700 (Pacific Daylight Time)","434138","1","3","","","","","","","","","","182","","","","2","1","[{""stimulus"":""img/2to1/1.png"",""time"":102},{""stimulus"":""img/2to1/2.png"",""time"":199},{""stimulus"":""img/2to1/3.png"",""time"":300},{""stimulus"":""img/2to1/4.png"",""time"":398},{""stimulus"":""img/2to1/5.png"",""time"":497},{""stimulus"":""img/2to1/6.png"",""time"":596},{""stimulus"":""img/2to1/7.png"",""time"":695},{""stimulus"":""img/2to1/8.png"",""time"":793},{""stimulus"":""img/2to1/9.png"",""time"":893},{""stimulus"":""img/2to1/10.png"",""time"":992},{""stimulus"":""img/2to1/11.png"",""time"":1090},{""stimulus"":""img/2to1/12.png"",""time"":1189}]","[]"
"image-keyboard-response","92","115660","0.0-5.0-1.44","5ede9b80b8a141131edabbe1","bdp_cybrbll","Wed Mar 29 2023 19:47:09 GMT-0700 (Pacific Daylight Time)","434138","1","3","","null","","","","observe","","img/1to3/1.png","null","181","499","0.5","0.5","1","2","",""
"animation","93","116950","0.0-5.0-2.44","5ede9b80b8a141131edabbe1","bdp_cybrbll","Wed Mar 29 2023 19:47:09 GMT-0700 (Pacific Daylight Time)","434138","1","3","","","","","","","","","","181","","","","1","2","[{""stimulus"":""img/1to2/1.png"",""time"":101},{""stimulus"":""img/1to2/2.png"",""time"":200},{""stimulus"":""img/1to2/3.png"",""time"":299},{""stimulus"":""img/1to2/4.png"",""time"":399},{""stimulus"":""img/1to2/5.png"",""time"":499},{""stimulus"":""img/1to2/6.png"",""time"":602},{""stimulus"":""img/1to2/7.png"",""time"":696},{""stimulus"":""img/1to2/8.png"",""time"":794},{""stimulus"":""img/1to2/9.png"",""time"":893},{""stimulus"":""img/1to2/10.png"",""time"":992},{""stimulus"":""img/1to2/11.png"",""time"":1091},{""stimulus"":""img/1to2/12.png"",""time"":1190}]","[]"
"image-keyboard-response","94","117125","0.0-5.0-1.45","5ede9b80b8a141131edabbe1","bdp_cybrbll","Wed Mar 29 2023 19:47:09 GMT-0700 (Pacific Daylight Time)","434138","1","3","","172","","","","choice","","img/2to1/1.png","2","180","502","0.5","0.5","2","3","",""
"animation","95","118415","0.0-5.0-2.45","5ede9b80b8a141131edabbe1","bdp_cybrbll","Wed Mar 29 2023 19:47:09 GMT-0700 (Pacific Daylight Time)","434138","1","3","","","","","","","","","","180","","","","2","3","[{""stimulus"":""img/2to3/1.png"",""time"":101},{""stimulus"":""img/2to3/2.png"",""time"":200},{""stimulus"":""img/2to3/3.png"",""time"":299},{""stimulus"":""img/2to3/4.png"",""time"":398},{""stimulus"":""img/2to3/5.png"",""time"":507},{""stimulus"":""img/2to3/6.png"",""time"":597},{""stimulus"":""img/2to3/7.png"",""time"":698},{""stimulus"":""img/2to3/8.png"",""time"":802},{""stimulus"":""img/2to3/9.png"",""time"":894},{""stimulus"":""img/2to3/10.png"",""time"":991},{""stimulus"":""img/2to3/11.png"",""time"":1090},{""stimulus"":""img/2to3/12.png"",""time"":1189}]","[]"
"image-keyboard-response","96","119460","0.0-5.0-1.46","5ede9b80b8a141131edabbe1","bdp_cybrbll","Wed Mar 29 2023 19:47:09 GMT-0700 (Pacific Daylight Time)","434138","1","3","","null","","","","observe","","img/3to2/1.png","null","179","1042","0.5","0.5","3","2","",""
"animation","97","120749","0.0-5.0-2.46","5ede9b80b8a141131edabbe1","bdp_cybrbll","Wed Mar 29 2023 19:47:09 GMT-0700 (Pacific Daylight Time)","434138","1","3","","","","","","","","","","179","","","","3","2","[{""stimulus"":""img/3to2/1.png"",""time"":102},{""stimulus"":""img/3to2/2.png"",""time"":201},{""stimulus"":""img/3to2/3.png"",""time"":299},{""stimulus"":""img/3to2/4.png"",""time"":399},{""stimulus"":""img/3to2/5.png"",""time"":497},{""stimulus"":""img/3to2/6.png"",""time"":596},{""stimulus"":""img/3to2/7.png"",""time"":695},{""stimulus"":""img/3to2/8.png"",""time"":794},{""stimulus"":""img/3to2/9.png"",""time"":893},{""stimulus"":""img/3to2/10.png"",""time"":993},{""stimulus"":""img/3to2/11.png"",""time"":1090},{""stimulus"":""img/3to2/12.png"",""time"":1190}]","[]"
"image-keyboard-response","98","120952","0.0-5.0-1.47","5ede9b80b8a141131edabbe1","bdp_cybrbll","Wed Mar 29 2023 19:47:09 GMT-0700 (Pacific Daylight Time)","434138","1","3","","200","","","","choice","","img/2to1/1.png","1","178","197","0.5","0.5","2","1","",""
"animation","99","122241","0.0-5.0-2.47","5ede9b80b8a141131edabbe1","bdp_cybrbll","Wed Mar 29 2023 19:47:09 GMT-0700 (Pacific Daylight Time)","434138","1","3","","","","","","","","","","178","","","","2","1","[{""stimulus"":""img/2to1/1.png"",""time"":103},{""stimulus"":""img/2to1/2.png"",""time"":200},{""stimulus"":""img/2to1/3.png"",""time"":299},{""stimulus"":""img/2to1/4.png"",""time"":398},{""stimulus"":""img/2to1/5.png"",""time"":497},{""stimulus"":""img/2to1/6.png"",""time"":596},{""stimulus"":""img/2to1/7.png"",""time"":695},{""stimulus"":""img/2to1/8.png"",""time"":794},{""stimulus"":""img/2to1/9.png"",""time"":893},{""stimulus"":""img/2to1/10.png"",""time"":993},{""stimulus"":""img/2to1/11.png"",""time"":1093},{""stimulus"":""img/2to1/12.png"",""time"":1190}]","[]"
"image-keyboard-response","100","122771","0.0-5.0-1.48","5ede9b80b8a141131edabbe1","bdp_cybrbll","Wed Mar 29 2023 19:47:09 GMT-0700 (Pacific Daylight Time)","434138","1","3","","null","","","","observe","","img/1to3/1.png","null","177","526","0.5","0.5","1","3","",""
"animation","101","124060","0.0-5.0-2.48","5ede9b80b8a141131edabbe1","bdp_cybrbll","Wed Mar 29 2023 19:47:09 GMT-0700 (Pacific Daylight Time)","434138","1","3","","","","","","","","","","177","","","","1","3","[{""stimulus"":""img/1to3/1.png"",""time"":101},{""stimulus"":""img/1to3/2.png"",""time"":200},{""stimulus"":""img/1to3/3.png"",""time"":300},{""stimulus"":""img/1to3/4.png"",""time"":397},{""stimulus"":""img/1to3/5.png"",""time"":496},{""stimulus"":""img/1to3/6.png"",""time"":598},{""stimulus"":""img/1to3/7.png"",""time"":694},{""stimulus"":""img/1to3/8.png"",""time"":794},{""stimulus"":""img/1to3/9.png"",""time"":892},{""stimulus"":""img/1to3/10.png"",""time"":996},{""stimulus"":""img/1to3/11.png"",""time"":1091},{""stimulus"":""img/1to3/12.png"",""time"":1189}]","[]"
"image-keyboard-response","102","124782","0.0-5.0-1.49","5ede9b80b8a141131edabbe1","bdp_cybrbll","Wed Mar 29 2023 19:47:09 GMT-0700 (Pacific Daylight Time)","434138","1","3","","null","","","","observe","","img/3to2/1.png","null","176","720","0.5","0.5","3","1","",""
"animation","103","126071","0.0-5.0-2.49","5ede9b80b8a141131edabbe1","bdp_cybrbll","Wed Mar 29 2023 19:47:09 GMT-0700 (Pacific Daylight Time)","434138","1","3","","","","","","","","","","176","","","","3","1","[{""stimulus"":""img/3to1/1.png"",""time"":101},{""stimulus"":""img/3to1/2.png"",""time"":200},{""stimulus"":""img/3to1/3.png"",""time"":298},{""stimulus"":""img/3to1/4.png"",""time"":399},{""stimulus"":""img/3to1/5.png"",""time"":497},{""stimulus"":""img/3to1/6.png"",""time"":597},{""stimulus"":""img/3to1/7.png"",""time"":694},{""stimulus"":""img/3to1/8.png"",""time"":793},{""stimulus"":""img/3to1/9.png"",""time"":892},{""stimulus"":""img/3to1/10.png"",""time"":992},{""stimulus"":""img/3to1/11.png"",""time"":1100},{""stimulus"":""img/3to1/12.png"",""time"":1189}]","[]"
"image-keyboard-response","104","126911","0.0-5.0-1.50","5ede9b80b8a141131edabbe1","bdp_cybrbll","Wed Mar 29 2023 19:47:09 GMT-0700 (Pacific Daylight Time)","434138","1","3","","null","","","","observe","","img/1to3/1.png","null","175","836","0.5","0.5","1","2","",""
"animation","105","128201","0.0-5.0-2.50","5ede9b80b8a141131edabbe1","bdp_cybrbll","Wed Mar 29 2023 19:47:09 GMT-0700 (Pacific Daylight Time)","434138","1","3","","","","","","","","","","175","","","","1","2","[{""stimulus"":""img/1to2/1.png"",""time"":101},{""stimulus"":""img/1to2/2.png"",""time"":199},{""stimulus"":""img/1to2/3.png"",""time"":298},{""stimulus"":""img/1to2/4.png"",""time"":398},{""stimulus"":""img/1to2/5.png"",""time"":496},{""stimulus"":""img/1to2/6.png"",""time"":596},{""stimulus"":""img/1to2/7.png"",""time"":705},{""stimulus"":""img/1to2/8.png"",""time"":793},{""stimulus"":""img/1to2/9.png"",""time"":895},{""stimulus"":""img/1to2/10.png"",""time"":993},{""stimulus"":""img/1to2/11.png"",""time"":1090},{""stimulus"":""img/1to2/12.png"",""time"":1189}]","[]"
"image-keyboard-response","106","128352","0.0-5.0-1.51","5ede9b80b8a141131edabbe1","bdp_cybrbll","Wed Mar 29 2023 19:47:09 GMT-0700 (Pacific Daylight Time)","434138","1","3","","148","","","","choice","","img/2to1/1.png","2","174","526","0.5","0.5","2","3","",""
"animation","107","129641","0.0-5.0-2.51","5ede9b80b8a141131edabbe1","bdp_cybrbll","Wed Mar 29 2023 19:47:09 GMT-0700 (Pacific Daylight Time)","434138","1","3","","","","","","","","","","174","","","","2","3","[{""stimulus"":""img/2to3/1.png"",""time"":102},{""stimulus"":""img/2to3/2.png"",""time"":201},{""stimulus"":""img/2to3/3.png"",""time"":299},{""stimulus"":""img/2to3/4.png"",""time"":399},{""stimulus"":""img/2to3/5.png"",""time"":498},{""stimulus"":""img/2to3/6.png"",""time"":596},{""stimulus"":""img/2to3/7.png"",""time"":695},{""stimulus"":""img/2to3/8.png"",""time"":794},{""stimulus"":""img/2to3/9.png"",""time"":893},{""stimulus"":""img/2to3/10.png"",""time"":993},{""stimulus"":""img/2to3/11.png"",""time"":1092},{""stimulus"":""img/2to3/12.png"",""time"":1190}]","[]"
"image-keyboard-response","108","129976","0.0-5.0-1.52","5ede9b80b8a141131edabbe1","bdp_cybrbll","Wed Mar 29 2023 19:47:09 GMT-0700 (Pacific Daylight Time)","434138","1","3","","null","","","","observe","","img/3to2/1.png","null","173","328","0.5","0.5","3","1","",""
"animation","109","131264","0.0-5.0-2.52","5ede9b80b8a141131edabbe1","bdp_cybrbll","Wed Mar 29 2023 19:47:09 GMT-0700 (Pacific Daylight Time)","434138","1","3","","","","","","","","","","173","","","","3","1","[{""stimulus"":""img/3to1/1.png"",""time"":102},{""stimulus"":""img/3to1/2.png"",""time"":200},{""stimulus"":""img/3to1/3.png"",""time"":298},{""stimulus"":""img/3to1/4.png"",""time"":398},{""stimulus"":""img/3to1/5.png"",""time"":497},{""stimulus"":""img/3to1/6.png"",""time"":596},{""stimulus"":""img/3to1/7.png"",""time"":694},{""stimulus"":""img/3to1/8.png"",""time"":794},{""stimulus"":""img/3to1/9.png"",""time"":893},{""stimulus"":""img/3to1/10.png"",""time"":991},{""stimulus"":""img/3to1/11.png"",""time"":1090},{""stimulus"":""img/3to1/12.png"",""time"":1190}]","[]"
"image-keyboard-response","110","132205","0.0-5.0-1.53","5ede9b80b8a141131edabbe1","bdp_cybrbll","Wed Mar 29 2023 19:47:09 GMT-0700 (Pacific Daylight Time)","434138","1","3","","null","","","","observe","","img/1to3/1.png","null","172","935","0.5","0.5","1","2","",""
"animation","111","133494","0.0-5.0-2.53","5ede9b80b8a141131edabbe1","bdp_cybrbll","Wed Mar 29 2023 19:47:09 GMT-0700 (Pacific Daylight Time)","434138","1","3","","","","","","","","","","172","","","","1","2","[{""stimulus"":""img/1to2/1.png"",""time"":102},{""stimulus"":""img/1to2/2.png"",""time"":200},{""stimulus"":""img/1to2/3.png"",""time"":299},{""stimulus"":""img/1to2/4.png"",""time"":399},{""stimulus"":""img/1to2/5.png"",""time"":497},{""stimulus"":""img/1to2/6.png"",""time"":596},{""stimulus"":""img/1to2/7.png"",""time"":696},{""stimulus"":""img/1to2/8.png"",""time"":794},{""stimulus"":""img/1to2/9.png"",""time"":893},{""stimulus"":""img/1to2/10.png"",""time"":992},{""stimulus"":""img/1to2/11.png"",""time"":1091},{""stimulus"":""img/1to2/12.png"",""time"":1189}]","[]"
"image-keyboard-response","112","133719","0.0-5.0-1.54","5ede9b80b8a141131edabbe1","bdp_cybrbll","Wed Mar 29 2023 19:47:09 GMT-0700 (Pacific Daylight Time)","434138","1","3","","223","","","","choice","","img/2to1/1.png","2","171","222","0.5","0.5","2","3","",""
"animation","113","135008","0.0-5.0-2.54","5ede9b80b8a141131edabbe1","bdp_cybrbll","Wed Mar 29 2023 19:47:09 GMT-0700 (Pacific Daylight Time)","434138","1","3","","","","","","","","","","171","","","","2","3","[{""stimulus"":""img/2to3/1.png"",""time"":102},{""stimulus"":""img/2to3/2.png"",""time"":201},{""stimulus"":""img/2to3/3.png"",""time"":299},{""stimulus"":""img/2to3/4.png"",""time"":399},{""stimulus"":""img/2to3/5.png"",""time"":498},{""stimulus"":""img/2to3/6.png"",""time"":596},{""stimulus"":""img/2to3/7.png"",""time"":696},{""stimulus"":""img/2to3/8.png"",""time"":795},{""stimulus"":""img/2to3/9.png"",""time"":895},{""stimulus"":""img/2to3/10.png"",""time"":992},{""stimulus"":""img/2to3/11.png"",""time"":1091},{""stimulus"":""img/2to3/12.png"",""time"":1190}]","[]"
"image-keyboard-response","114","135720","0.0-5.0-1.55","5ede9b80b8a141131edabbe1","bdp_cybrbll","Wed Mar 29 2023 19:47:09 GMT-0700 (Pacific Daylight Time)","434138","1","3","","null","","","","observe","","img/3to2/1.png","null","170","709","0.5","0.5","3","2","",""
"animation","115","137009","0.0-5.0-2.55","5ede9b80b8a141131edabbe1","bdp_cybrbll","Wed Mar 29 2023 19:47:09 GMT-0700 (Pacific Daylight Time)","434138","1","3","","","","","","","","","","170","","","","3","2","[{""stimulus"":""img/3to2/1.png"",""time"":101},{""stimulus"":""img/3to2/2.png"",""time"":200},{""stimulus"":""img/3to2/3.png"",""time"":299},{""stimulus"":""img/3to2/4.png"",""time"":397},{""stimulus"":""img/3to2/5.png"",""time"":497},{""stimulus"":""img/3to2/6.png"",""time"":596},{""stimulus"":""img/3to2/7.png"",""time"":695},{""stimulus"":""img/3to2/8.png"",""time"":794},{""stimulus"":""img/3to2/9.png"",""time"":893},{""stimulus"":""img/3to2/10.png"",""time"":992},{""stimulus"":""img/3to2/11.png"",""time"":1091},{""stimulus"":""img/3to2/12.png"",""time"":1190}]","[]"
"image-keyboard-response","116","137133","0.0-5.0-1.56","5ede9b80b8a141131edabbe1","bdp_cybrbll","Wed Mar 29 2023 19:47:09 GMT-0700 (Pacific Daylight Time)","434138","1","3","","121","","","","choice","","img/2to1/1.png","1","169","546","0.5","0.5","2","1","",""
"animation","117","138423","0.0-5.0-2.56","5ede9b80b8a141131edabbe1","bdp_cybrbll","Wed Mar 29 2023 19:47:09 GMT-0700 (Pacific Daylight Time)","434138","1","3","","","","","","","","","","169","","","","2","1","[{""stimulus"":""img/2to1/1.png"",""time"":101},{""stimulus"":""img/2to1/2.png"",""time"":200},{""stimulus"":""img/2to1/3.png"",""time"":299},{""stimulus"":""img/2to1/4.png"",""time"":399},{""stimulus"":""img/2to1/5.png"",""time"":497},{""stimulus"":""img/2to1/6.png"",""time"":595},{""stimulus"":""img/2to1/7.png"",""time"":695},{""stimulus"":""img/2to1/8.png"",""time"":793},{""stimulus"":""img/2to1/9.png"",""time"":893},{""stimulus"":""img/2to1/10.png"",""time"":992},{""stimulus"":""img/2to1/11.png"",""time"":1091},{""stimulus"":""img/2to1/12.png"",""time"":1189}]","[]"
"image-keyboard-response","118","138673","0.0-5.0-1.57","5ede9b80b8a141131edabbe1","bdp_cybrbll","Wed Mar 29 2023 19:47:09 GMT-0700 (Pacific Daylight Time)","434138","1","3","","null","","","","observe","","img/1to3/1.png","null","168","247","0.5","0.5","1","2","",""
"animation","119","139961","0.0-5.0-2.57","5ede9b80b8a141131edabbe1","bdp_cybrbll","Wed Mar 29 2023 19:47:09 GMT-0700 (Pacific Daylight Time)","434138","1","3","","","","","","","","","","168","","","","1","2","[{""stimulus"":""img/1to2/1.png"",""time"":102},{""stimulus"":""img/1to2/2.png"",""time"":200},{""stimulus"":""img/1to2/3.png"",""time"":298},{""stimulus"":""img/1to2/4.png"",""time"":398},{""stimulus"":""img/1to2/5.png"",""time"":497},{""stimulus"":""img/1to2/6.png"",""time"":596},{""stimulus"":""img/1to2/7.png"",""time"":696},{""stimulus"":""img/1to2/8.png"",""time"":794},{""stimulus"":""img/1to2/9.png"",""time"":893},{""stimulus"":""img/1to2/10.png"",""time"":992},{""stimulus"":""img/1to2/11.png"",""time"":1091},{""stimulus"":""img/1to2/12.png"",""time"":1190}]","[]"
"image-keyboard-response","120","140333","0.0-5.0-1.58","5ede9b80b8a141131edabbe1","bdp_cybrbll","Wed Mar 29 2023 19:47:09 GMT-0700 (Pacific Daylight Time)","434138","1","3","","369","","","","choice","","img/2to1/1.png","2","167","445","0.5","0.5","2","3","",""
"animation","121","141622","0.0-5.0-2.58","5ede9b80b8a141131edabbe1","bdp_cybrbll","Wed Mar 29 2023 19:47:09 GMT-0700 (Pacific Daylight Time)","434138","1","3","","","","","","","","","","167","","","","2","3","[{""stimulus"":""img/2to3/1.png"",""time"":102},{""stimulus"":""img/2to3/2.png"",""time"":201},{""stimulus"":""img/2to3/3.png"",""time"":300},{""stimulus"":""img/2to3/4.png"",""time"":399},{""stimulus"":""img/2to3/5.png"",""time"":498},{""stimulus"":""img/2to3/6.png"",""time"":597},{""stimulus"":""img/2to3/7.png"",""time"":697},{""stimulus"":""img/2to3/8.png"",""time"":795},{""stimulus"":""img/2to3/9.png"",""time"":895},{""stimulus"":""img/2to3/10.png"",""time"":993},{""stimulus"":""img/2to3/11.png"",""time"":1092},{""stimulus"":""img/2to3/12.png"",""time"":1190}]","[]"
"image-keyboard-response","122","141984","0.0-5.0-1.59","5ede9b80b8a141131edabbe1","bdp_cybrbll","Wed Mar 29 2023 19:47:09 GMT-0700 (Pacific Daylight Time)","434138","1","3","","null","","","","observe","","img/3to2/1.png","null","166","358","0.5","0.5","3","1","",""
"animation","123","143272","0.0-5.0-2.59","5ede9b80b8a141131edabbe1","bdp_cybrbll","Wed Mar 29 2023 19:47:09 GMT-0700 (Pacific Daylight Time)","434138","1","3","","","","","","","","","","166","","","","3","1","[{""stimulus"":""img/3to1/1.png"",""time"":103},{""stimulus"":""img/3to1/2.png"",""time"":200},{""stimulus"":""img/3to1/3.png"",""time"":300},{""stimulus"":""img/3to1/4.png"",""time"":399},{""stimulus"":""img/3to1/5.png"",""time"":498},{""stimulus"":""img/3to1/6.png"",""time"":596},{""stimulus"":""img/3to1/7.png"",""time"":696},{""stimulus"":""img/3to1/8.png"",""time"":794},{""stimulus"":""img/3to1/9.png"",""time"":893},{""stimulus"":""img/3to1/10.png"",""time"":992},{""stimulus"":""img/3to1/11.png"",""time"":1091},{""stimulus"":""img/3to1/12.png"",""time"":1190}]","[]"
"image-keyboard-response","124","143578","0.0-5.0-1.60","5ede9b80b8a141131edabbe1","bdp_cybrbll","Wed Mar 29 2023 19:47:09 GMT-0700 (Pacific Daylight Time)","434138","1","3","","null","","","","observe","","img/1to3/1.png","null","165","302","0.5","0.5","1","2","",""
"animation","125","144867","0.0-5.0-2.60","5ede9b80b8a141131edabbe1","bdp_cybrbll","Wed Mar 29 2023 19:47:09 GMT-0700 (Pacific Daylight Time)","434138","1","3","","","","","","","","","","165","","","","1","2","[{""stimulus"":""img/1to2/1.png"",""time"":102},{""stimulus"":""img/1to2/2.png"",""time"":200},{""stimulus"":""img/1to2/3.png"",""time"":298},{""stimulus"":""img/1to2/4.png"",""time"":399},{""stimulus"":""img/1to2/5.png"",""time"":496},{""stimulus"":""img/1to2/6.png"",""time"":596},{""stimulus"":""img/1to2/7.png"",""time"":694},{""stimulus"":""img/1to2/8.png"",""time"":793},{""stimulus"":""img/1to2/9.png"",""time"":897},{""stimulus"":""img/1to2/10.png"",""time"":991},{""stimulus"":""img/1to2/11.png"",""time"":1091},{""stimulus"":""img/1to2/12.png"",""time"":1190}]","[]"
"image-keyboard-response","126","144993","0.0-5.0-1.61","5ede9b80b8a141131edabbe1","bdp_cybrbll","Wed Mar 29 2023 19:47:09 GMT-0700 (Pacific Daylight Time)","434138","1","3","","124","","","","choice","","img/2to1/1.png","1","164","280","0.5","0.5","2","1","",""
"animation","127","146283","0.0-5.0-2.61","5ede9b80b8a141131edabbe1","bdp_cybrbll","Wed Mar 29 2023 19:47:09 GMT-0700 (Pacific Daylight Time)","434138","1","3","","","","","","","","","","164","","","","2","1","[{""stimulus"":""img/2to1/1.png"",""time"":101},{""stimulus"":""img/2to1/2.png"",""time"":201},{""stimulus"":""img/2to1/3.png"",""time"":300},{""stimulus"":""img/2to1/4.png"",""time"":398},{""stimulus"":""img/2to1/5.png"",""time"":498},{""stimulus"":""img/2to1/6.png"",""time"":596},{""stimulus"":""img/2to1/7.png"",""time"":695},{""stimulus"":""img/2to1/8.png"",""time"":795},{""stimulus"":""img/2to1/9.png"",""time"":893},{""stimulus"":""img/2to1/10.png"",""time"":993},{""stimulus"":""img/2to1/11.png"",""time"":1091},{""stimulus"":""img/2to1/12.png"",""time"":1191}]","[]"
"image-keyboard-response","128","147065","0.0-5.0-1.62","5ede9b80b8a141131edabbe1","bdp_cybrbll","Wed Mar 29 2023 19:47:09 GMT-0700 (Pacific Daylight Time)","434138","1","3","","null","","","","observe","","img/1to3/1.png","null","163","778","0.5","0.5","1","2","",""
"animation","129","148354","0.0-5.0-2.62","5ede9b80b8a141131edabbe1","bdp_cybrbll","Wed Mar 29 2023 19:47:09 GMT-0700 (Pacific Daylight Time)","434138","1","3","","","","","","","","","","163","","","","1","2","[{""stimulus"":""img/1to2/1.png"",""time"":101},{""stimulus"":""img/1to2/2.png"",""time"":201},{""stimulus"":""img/1to2/3.png"",""time"":299},{""stimulus"":""img/1to2/4.png"",""time"":399},{""stimulus"":""img/1to2/5.png"",""time"":499},{""stimulus"":""img/1to2/6.png"",""time"":598},{""stimulus"":""img/1to2/7.png"",""time"":697},{""stimulus"":""img/1to2/8.png"",""time"":796},{""stimulus"":""img/1to2/9.png"",""time"":893},{""stimulus"":""img/1to2/10.png"",""time"":992},{""stimulus"":""img/1to2/11.png"",""time"":1091},{""stimulus"":""img/1to2/12.png"",""time"":1197}]","[]"
"image-keyboard-response","130","148527","0.0-5.0-1.63","5ede9b80b8a141131edabbe1","bdp_cybrbll","Wed Mar 29 2023 19:47:09 GMT-0700 (Pacific Daylight Time)","434138","1","3","","170","","","","choice","","img/2to1/1.png","2","162","1108","0.5","0.5","2","3","",""
"animation","131","149815","0.0-5.0-2.63","5ede9b80b8a141131edabbe1","bdp_cybrbll","Wed Mar 29 2023 19:47:09 GMT-0700 (Pacific Daylight Time)","434138","1","3","","","","","","","","","","162","","","","2","3","[{""stimulus"":""img/2to3/1.png"",""time"":103},{""stimulus"":""img/2to3/2.png"",""time"":200},{""stimulus"":""img/2to3/3.png"",""time"":299},{""stimulus"":""img/2to3/4.png"",""time"":398},{""stimulus"":""img/2to3/5.png"",""time"":498},{""stimulus"":""img/2to3/6.png"",""time"":596},{""stimulus"":""img/2to3/7.png"",""time"":695},{""stimulus"":""img/2to3/8.png"",""time"":795},{""stimulus"":""img/2to3/9.png"",""time"":893},{""stimulus"":""img/2to3/10.png"",""time"":992},{""stimulus"":""img/2to3/11.png"",""time"":1091},{""stimulus"":""img/2to3/12.png"",""time"":1192}]","[]"
"image-keyboard-response","132","150198","0.0-5.0-1.64","5ede9b80b8a141131edabbe1","bdp_cybrbll","Wed Mar 29 2023 19:47:09 GMT-0700 (Pacific Daylight Time)","434138","1","3","","null","","","","observe","","img/3to2/1.png","null","161","379","0.5","0.5","3","1","",""
"animation","133","151487","0.0-5.0-2.64","5ede9b80b8a141131edabbe1","bdp_cybrbll","Wed Mar 29 2023 19:47:09 GMT-0700 (Pacific Daylight Time)","434138","1","3","","","","","","","","","","161","","","","3","1","[{""stimulus"":""img/3to1/1.png"",""time"":102},{""stimulus"":""img/3to1/2.png"",""time"":202},{""stimulus"":""img/3to1/3.png"",""time"":299},{""stimulus"":""img/3to1/4.png"",""time"":398},{""stimulus"":""img/3to1/5.png"",""time"":498},{""stimulus"":""img/3to1/6.png"",""time"":596},{""stimulus"":""img/3to1/7.png"",""time"":695},{""stimulus"":""img/3to1/8.png"",""time"":794},{""stimulus"":""img/3to1/9.png"",""time"":893},{""stimulus"":""img/3to1/10.png"",""time"":992},{""stimulus"":""img/3to1/11.png"",""time"":1091},{""stimulus"":""img/3to1/12.png"",""time"":1190}]","[]"
"image-keyboard-response","134","152173","0.0-5.0-1.65","5ede9b80b8a141131edabbe1","bdp_cybrbll","Wed Mar 29 2023 19:47:09 GMT-0700 (Pacific Daylight Time)","434138","1","3","","null","","","","observe","","img/1to3/1.png","null","160","682","0.5","0.5","1","2","",""
"animation","135","153462","0.0-5.0-2.65","5ede9b80b8a141131edabbe1","bdp_cybrbll","Wed Mar 29 2023 19:47:09 GMT-0700 (Pacific Daylight Time)","434138","1","3","","","","","","","","","","160","","","","1","2","[{""stimulus"":""img/1to2/1.png"",""time"":102},{""stimulus"":""img/1to2/2.png"",""time"":200},{""stimulus"":""img/1to2/3.png"",""time"":299},{""stimulus"":""img/1to2/4.png"",""time"":398},{""stimulus"":""img/1to2/5.png"",""time"":497},{""stimulus"":""img/1to2/6.png"",""time"":596},{""stimulus"":""img/1to2/7.png"",""time"":695},{""stimulus"":""img/1to2/8.png"",""time"":794},{""stimulus"":""img/1to2/9.png"",""time"":894},{""stimulus"":""img/1to2/10.png"",""time"":992},{""stimulus"":""img/1to2/11.png"",""time"":1091},{""stimulus"":""img/1to2/12.png"",""time"":1192}]","[]"
"image-keyboard-response","136","153651","0.0-5.0-1.66","5ede9b80b8a141131edabbe1","bdp_cybrbll","Wed Mar 29 2023 19:47:09 GMT-0700 (Pacific Daylight Time)","434138","1","3","","187","","","","choice","","img/2to1/1.png","1","159","346","0.5","0.5","2","1","",""
"animation","137","154941","0.0-5.0-2.66","5ede9b80b8a141131edabbe1","bdp_cybrbll","Wed Mar 29 2023 19:47:09 GMT-0700 (Pacific Daylight Time)","434138","1","3","","","","","","","","","","159","","","","2","1","[{""stimulus"":""img/2to1/1.png"",""time"":102},{""stimulus"":""img/2to1/2.png"",""time"":200},{""stimulus"":""img/2to1/3.png"",""time"":299},{""stimulus"":""img/2to1/4.png"",""time"":399},{""stimulus"":""img/2to1/5.png"",""time"":497},{""stimulus"":""img/2to1/6.png"",""time"":596},{""stimulus"":""img/2to1/7.png"",""time"":695},{""stimulus"":""img/2to1/8.png"",""time"":795},{""stimulus"":""img/2to1/9.png"",""time"":893},{""stimulus"":""img/2to1/10.png"",""time"":992},{""stimulus"":""img/2to1/11.png"",""time"":1091},{""stimulus"":""img/2to1/12.png"",""time"":1190}]","[]"
"image-keyboard-response","138","155307","0.0-5.0-1.67","5ede9b80b8a141131edabbe1","bdp_cybrbll","Wed Mar 29 2023 19:47:09 GMT-0700 (Pacific Daylight Time)","434138","1","3","","null","","","","observe","","img/1to3/1.png","null","158","363","0.5","0.5","1","3","",""
"animation","139","156596","0.0-5.0-2.67","5ede9b80b8a141131edabbe1","bdp_cybrbll","Wed Mar 29 2023 19:47:09 GMT-0700 (Pacific Daylight Time)","434138","1","3","","","","","","","","","","158","","","","1","3","[{""stimulus"":""img/1to3/1.png"",""time"":101},{""stimulus"":""img/1to3/2.png"",""time"":200},{""stimulus"":""img/1to3/3.png"",""time"":300},{""stimulus"":""img/1to3/4.png"",""time"":398},{""stimulus"":""img/1to3/5.png"",""time"":497},{""stimulus"":""img/1to3/6.png"",""time"":596},{""stimulus"":""img/1to3/7.png"",""time"":695},{""stimulus"":""img/1to3/8.png"",""time"":794},{""stimulus"":""img/1to3/9.png"",""time"":893},{""stimulus"":""img/1to3/10.png"",""time"":992},{""stimulus"":""img/1to3/11.png"",""time"":1092},{""stimulus"":""img/1to3/12.png"",""time"":1191}]","[]"
"image-keyboard-response","140","156963","0.0-5.0-1.68","5ede9b80b8a141131edabbe1","bdp_cybrbll","Wed Mar 29 2023 19:47:09 GMT-0700 (Pacific Daylight Time)","434138","1","3","","null","","","","observe","","img/3to2/1.png","null","157","363","0.5","0.5","3","2","",""
"animation","141","158252","0.0-5.0-2.68","5ede9b80b8a141131edabbe1","bdp_cybrbll","Wed Mar 29 2023 19:47:09 GMT-0700 (Pacific Daylight Time)","434138","1","3","","","","","","","","","","157","","","","3","2","[{""stimulus"":""img/3to2/1.png"",""time"":102},{""stimulus"":""img/3to2/2.png"",""time"":201},{""stimulus"":""img/3to2/3.png"",""time"":301},{""stimulus"":""img/3to2/4.png"",""time"":399},{""stimulus"":""img/3to2/5.png"",""time"":498},{""stimulus"":""img/3to2/6.png"",""time"":596},{""stimulus"":""img/3to2/7.png"",""time"":695},{""stimulus"":""img/3to2/8.png"",""time"":794},{""stimulus"":""img/3to2/9.png"",""time"":893},{""stimulus"":""img/3to2/10.png"",""time"":992},{""stimulus"":""img/3to2/11.png"",""time"":1106},{""stimulus"":""img/3to2/12.png"",""time"":1190}]","[]"
"image-keyboard-response","142","158482","0.0-5.0-1.69","5ede9b80b8a141131edabbe1","bdp_cybrbll","Wed Mar 29 2023 19:47:09 GMT-0700 (Pacific Daylight Time)","434138","1","3","","227","","","","choice","","img/2to1/1.png","2","156","260","0.5","0.5","2","3","",""
"animation","143","159771","0.0-5.0-2.69","5ede9b80b8a141131edabbe1","bdp_cybrbll","Wed Mar 29 2023 19:47:09 GMT-0700 (Pacific Daylight Time)","434138","1","3","","","","","","","","","","156","","","","2","3","[{""stimulus"":""img/2to3/1.png"",""time"":102},{""stimulus"":""img/2to3/2.png"",""time"":200},{""stimulus"":""img/2to3/3.png"",""time"":299},{""stimulus"":""img/2to3/4.png"",""time"":398},{""stimulus"":""img/2to3/5.png"",""time"":497},{""stimulus"":""img/2to3/6.png"",""time"":595},{""stimulus"":""img/2to3/7.png"",""time"":695},{""stimulus"":""img/2to3/8.png"",""time"":794},{""stimulus"":""img/2to3/9.png"",""time"":893},{""stimulus"":""img/2to3/10.png"",""time"":992},{""stimulus"":""img/2to3/11.png"",""time"":1092},{""stimulus"":""img/2to3/12.png"",""time"":1190}]","[]"
"image-keyboard-response","144","160451","0.0-5.0-1.70","5ede9b80b8a141131edabbe1","bdp_cybrbll","Wed Mar 29 2023 19:47:09 GMT-0700 (Pacific Daylight Time)","434138","1","3","","null","","","","observe","","img/3to2/1.png","null","155","675","0.5","0.5","3","1","",""
"animation","145","161740","0.0-5.0-2.70","5ede9b80b8a141131edabbe1","bdp_cybrbll","Wed Mar 29 2023 19:47:09 GMT-0700 (Pacific Daylight Time)","434138","1","3","","","","","","","","","","155","","","","3","1","[{""stimulus"":""img/3to1/1.png"",""time"":102},{""stimulus"":""img/3to1/2.png"",""time"":199},{""stimulus"":""img/3to1/3.png"",""time"":299},{""stimulus"":""img/3to1/4.png"",""time"":397},{""stimulus"":""img/3to1/5.png"",""time"":497},{""stimulus"":""img/3to1/6.png"",""time"":595},{""stimulus"":""img/3to1/7.png"",""time"":695},{""stimulus"":""img/3to1/8.png"",""time"":793},{""stimulus"":""img/3to1/9.png"",""time"":893},{""stimulus"":""img/3to1/10.png"",""time"":991},{""stimulus"":""img/3to1/11.png"",""time"":1091},{""stimulus"":""img/3to1/12.png"",""time"":1189}]","[]"
"image-keyboard-response","146","161959","0.0-5.0-1.71","5ede9b80b8a141131edabbe1","bdp_cybrbll","Wed Mar 29 2023 19:47:09 GMT-0700 (Pacific Daylight Time)","434138","1","3","","null","","","","observe","","img/1to3/1.png","null","154","215","0.5","0.5","1","2","",""
"animation","147","163248","0.0-5.0-2.71","5ede9b80b8a141131edabbe1","bdp_cybrbll","Wed Mar 29 2023 19:47:09 GMT-0700 (Pacific Daylight Time)","434138","1","3","","","","","","","","","","154","","","","1","2","[{""stimulus"":""img/1to2/1.png"",""time"":102},{""stimulus"":""img/1to2/2.png"",""time"":200},{""stimulus"":""img/1to2/3.png"",""time"":299},{""stimulus"":""img/1to2/4.png"",""time"":399},{""stimulus"":""img/1to2/5.png"",""time"":496},{""stimulus"":""img/1to2/6.png"",""time"":596},{""stimulus"":""img/1to2/7.png"",""time"":694},{""stimulus"":""img/1to2/8.png"",""time"":794},{""stimulus"":""img/1to2/9.png"",""time"":892},{""stimulus"":""img/1to2/10.png"",""time"":991},{""stimulus"":""img/1to2/11.png"",""time"":1090},{""stimulus"":""img/1to2/12.png"",""time"":1190}]","[]"
"image-keyboard-response","148","163415","0.0-5.0-1.72","5ede9b80b8a141131edabbe1","bdp_cybrbll","Wed Mar 29 2023 19:47:09 GMT-0700 (Pacific Daylight Time)","434138","1","3","","165","","","","choice","","img/2to1/1.png","1","153","509","0.5","0.5","2","1","",""
"animation","149","164704","0.0-5.0-2.72","5ede9b80b8a141131edabbe1","bdp_cybrbll","Wed Mar 29 2023 19:47:09 GMT-0700 (Pacific Daylight Time)","434138","1","3","","","","","","","","","","153","","","","2","1","[{""stimulus"":""img/2to1/1.png"",""time"":101},{""stimulus"":""img/2to1/2.png"",""time"":200},{""stimulus"":""img/2to1/3.png"",""time"":299},{""stimulus"":""img/2to1/4.png"",""time"":398},{""stimulus"":""img/2to1/5.png"",""time"":498},{""stimulus"":""img/2to1/6.png"",""time"":596},{""stimulus"":""img/2to1/7.png"",""time"":695},{""stimulus"":""img/2to1/8.png"",""time"":794},{""stimulus"":""img/2to1/9.png"",""time"":893},{""stimulus"":""img/2to1/10.png"",""time"":992},{""stimulus"":""img/2to1/11.png"",""time"":1091},{""stimulus"":""img/2to1/12.png"",""time"":1190}]","[]"
"image-keyboard-response","150","165804","0.0-5.0-1.73","5ede9b80b8a141131edabbe1","bdp_cybrbll","Wed Mar 29 2023 19:47:09 GMT-0700 (Pacific Daylight Time)","434138","1","3","","null","","","","observe","","img/1to3/1.png","null","152","1097","0.5","0.5","1","3","",""
"animation","151","167093","0.0-5.0-2.73","5ede9b80b8a141131edabbe1","bdp_cybrbll","Wed Mar 29 2023 19:47:09 GMT-0700 (Pacific Daylight Time)","434138","1","3","","","","","","","","","","152","","","","1","3","[{""stimulus"":""img/1to3/1.png"",""time"":103},{""stimulus"":""img/1to3/2.png"",""time"":200},{""stimulus"":""img/1to3/3.png"",""time"":299},{""stimulus"":""img/1to3/4.png"",""time"":399},{""stimulus"":""img/1to3/5.png"",""time"":497},{""stimulus"":""img/1to3/6.png"",""time"":596},{""stimulus"":""img/1to3/7.png"",""time"":694},{""stimulus"":""img/1to3/8.png"",""time"":793},{""stimulus"":""img/1to3/9.png"",""time"":893},{""stimulus"":""img/1to3/10.png"",""time"":991},{""stimulus"":""img/1to3/11.png"",""time"":1091},{""stimulus"":""img/1to3/12.png"",""time"":1190}]","[]"
"image-keyboard-response","152","167539","0.0-5.0-1.74","5ede9b80b8a141131edabbe1","bdp_cybrbll","Wed Mar 29 2023 19:47:09 GMT-0700 (Pacific Daylight Time)","434138","1","3","","null","","","","observe","","img/3to2/1.png","null","151","443","0.5","0.5","3","2","",""
"animation","153","168828","0.0-5.0-2.74","5ede9b80b8a141131edabbe1","bdp_cybrbll","Wed Mar 29 2023 19:47:09 GMT-0700 (Pacific Daylight Time)","434138","1","3","","","","","","","","","","151","","","","3","2","[{""stimulus"":""img/3to2/1.png"",""time"":101},{""stimulus"":""img/3to2/2.png"",""time"":199},{""stimulus"":""img/3to2/3.png"",""time"":299},{""stimulus"":""img/3to2/4.png"",""time"":398},{""stimulus"":""img/3to2/5.png"",""time"":497},{""stimulus"":""img/3to2/6.png"",""time"":595},{""stimulus"":""img/3to2/7.png"",""time"":695},{""stimulus"":""img/3to2/8.png"",""time"":793},{""stimulus"":""img/3to2/9.png"",""time"":893},{""stimulus"":""img/3to2/10.png"",""time"":991},{""stimulus"":""img/3to2/11.png"",""time"":1090},{""stimulus"":""img/3to2/12.png"",""time"":1189}]","[]"
"image-keyboard-response","154","169402","0.0-5.0-1.75","5ede9b80b8a141131edabbe1","bdp_cybrbll","Wed Mar 29 2023 19:47:09 GMT-0700 (Pacific Daylight Time)","434138","1","3","","572","","","","choice","","img/2to1/1.png","2","150","303","0.5","0.5","2","3","",""
"animation","155","170692","0.0-5.0-2.75","5ede9b80b8a141131edabbe1","bdp_cybrbll","Wed Mar 29 2023 19:47:09 GMT-0700 (Pacific Daylight Time)","434138","1","3","","","","","","","","","","150","","","","2","3","[{""stimulus"":""img/2to3/1.png"",""time"":101},{""stimulus"":""img/2to3/2.png"",""time"":200},{""stimulus"":""img/2to3/3.png"",""time"":299},{""stimulus"":""img/2to3/4.png"",""time"":398},{""stimulus"":""img/2to3/5.png"",""time"":498},{""stimulus"":""img/2to3/6.png"",""time"":595},{""stimulus"":""img/2to3/7.png"",""time"":694},{""stimulus"":""img/2to3/8.png"",""time"":793},{""stimulus"":""img/2to3/9.png"",""time"":892},{""stimulus"":""img/2to3/10.png"",""time"":992},{""stimulus"":""img/2to3/11.png"",""time"":1090},{""stimulus"":""img/2to3/12.png"",""time"":1190}]","[]"
"image-keyboard-response","156","171546","0.0-5.0-1.76","5ede9b80b8a141131edabbe1","bdp_cybrbll","Wed Mar 29 2023 19:47:09 GMT-0700 (Pacific Daylight Time)","434138","1","3","","null","","","","observe","","img/3to2/1.png","null","149","850","0.5","0.1","3","1","",""
"animation","157","172836","0.0-5.0-2.76","5ede9b80b8a141131edabbe1","bdp_cybrbll","Wed Mar 29 2023 19:47:09 GMT-0700 (Pacific Daylight Time)","434138","1","3","","","","","","","","","","149","","","","3","1","[{""stimulus"":""img/3to1/1.png"",""time"":102},{""stimulus"":""img/3to1/2.png"",""time"":200},{""stimulus"":""img/3to1/3.png"",""time"":300},{""stimulus"":""img/3to1/4.png"",""time"":399},{""stimulus"":""img/3to1/5.png"",""time"":498},{""stimulus"":""img/3to1/6.png"",""time"":596},{""stimulus"":""img/3to1/7.png"",""time"":697},{""stimulus"":""img/3to1/8.png"",""time"":796},{""stimulus"":""img/3to1/9.png"",""time"":896},{""stimulus"":""img/3to1/10.png"",""time"":992},{""stimulus"":""img/3to1/11.png"",""time"":1092},{""stimulus"":""img/3to1/12.png"",""time"":1190}]","[]"
"image-keyboard-response","158","173322","0.0-5.0-1.77","5ede9b80b8a141131edabbe1","bdp_cybrbll","Wed Mar 29 2023 19:47:09 GMT-0700 (Pacific Daylight Time)","434138","1","3","","null","","","","observe","","img/1to3/1.png","null","148","483","0.5","0.1","1","2","",""
"animation","159","174611","0.0-5.0-2.77","5ede9b80b8a141131edabbe1","bdp_cybrbll","Wed Mar 29 2023 19:47:09 GMT-0700 (Pacific Daylight Time)","434138","1","3","","","","","","","","","","148","","","","1","2","[{""stimulus"":""img/1to2/1.png"",""time"":101},{""stimulus"":""img/1to2/2.png"",""time"":202},{""stimulus"":""img/1to2/3.png"",""time"":299},{""stimulus"":""img/1to2/4.png"",""time"":399},{""stimulus"":""img/1to2/5.png"",""time"":498},{""stimulus"":""img/1to2/6.png"",""time"":598},{""stimulus"":""img/1to2/7.png"",""time"":695},{""stimulus"":""img/1to2/8.png"",""time"":793},{""stimulus"":""img/1to2/9.png"",""time"":893},{""stimulus"":""img/1to2/10.png"",""time"":992},{""stimulus"":""img/1to2/11.png"",""time"":1093},{""stimulus"":""img/1to2/12.png"",""time"":1190}]","[]"
"image-keyboard-response","160","174777","0.0-5.0-1.78","5ede9b80b8a141131edabbe1","bdp_cybrbll","Wed Mar 29 2023 19:47:09 GMT-0700 (Pacific Daylight Time)","434138","1","3","","161","","","","choice","","img/2to1/1.png","2","147","314","0.5","0.1","2","3","",""
"animation","161","176067","0.0-5.0-2.78","5ede9b80b8a141131edabbe1","bdp_cybrbll","Wed Mar 29 2023 19:47:09 GMT-0700 (Pacific Daylight Time)","434138","1","3","","","","","","","","","","147","","","","2","3","[{""stimulus"":""img/2to3/1.png"",""time"":102},{""stimulus"":""img/2to3/2.png"",""time"":201},{""stimulus"":""img/2to3/3.png"",""time"":299},{""stimulus"":""img/2to3/4.png"",""time"":398},{""stimulus"":""img/2to3/5.png"",""time"":501},{""stimulus"":""img/2to3/6.png"",""time"":596},{""stimulus"":""img/2to3/7.png"",""time"":696},{""stimulus"":""img/2to3/8.png"",""time"":794},{""stimulus"":""img/2to3/9.png"",""time"":893},{""stimulus"":""img/2to3/10.png"",""time"":992},{""stimulus"":""img/2to3/11.png"",""time"":1092},{""stimulus"":""img/2to3/12.png"",""time"":1199}]","[]"
"image-keyboard-response","162","176267","0.0-5.0-1.79","5ede9b80b8a141131edabbe1","bdp_cybrbll","Wed Mar 29 2023 19:47:09 GMT-0700 (Pacific Daylight Time)","434138","1","3","","null","","","","observe","","img/3to2/1.png","null","146","195","0.5","0.1","3","1","",""
"animation","163","177556","0.0-5.0-2.79","5ede9b80b8a141131edabbe1","bdp_cybrbll","Wed Mar 29 2023 19:47:09 GMT-0700 (Pacific Daylight Time)","434138","1","3","","","","","","","","","","146","","","","3","1","[{""stimulus"":""img/3to1/1.png"",""time"":100},{""stimulus"":""img/3to1/2.png"",""time"":199},{""stimulus"":""img/3to1/3.png"",""time"":300},{""stimulus"":""img/3to1/4.png"",""time"":398},{""stimulus"":""img/3to1/5.png"",""time"":497},{""stimulus"":""img/3to1/6.png"",""time"":596},{""stimulus"":""img/3to1/7.png"",""time"":695},{""stimulus"":""img/3to1/8.png"",""time"":794},{""stimulus"":""img/3to1/9.png"",""time"":893},{""stimulus"":""img/3to1/10.png"",""time"":992},{""stimulus"":""img/3to1/11.png"",""time"":1091},{""stimulus"":""img/3to1/12.png"",""time"":1189}]","[]"
"image-keyboard-response","164","177889","0.0-5.0-1.80","5ede9b80b8a141131edabbe1","bdp_cybrbll","Wed Mar 29 2023 19:47:09 GMT-0700 (Pacific Daylight Time)","434138","1","3","","null","","","","observe","","img/1to3/1.png","null","145","330","0.5","0.1","1","2","",""
"animation","165","179178","0.0-5.0-2.80","5ede9b80b8a141131edabbe1","bdp_cybrbll","Wed Mar 29 2023 19:47:09 GMT-0700 (Pacific Daylight Time)","434138","1","3","","","","","","","","","","145","","","","1","2","[{""stimulus"":""img/1to2/1.png"",""time"":102},{""stimulus"":""img/1to2/2.png"",""time"":202},{""stimulus"":""img/1to2/3.png"",""time"":299},{""stimulus"":""img/1to2/4.png"",""time"":399},{""stimulus"":""img/1to2/5.png"",""time"":499},{""stimulus"":""img/1to2/6.png"",""time"":596},{""stimulus"":""img/1to2/7.png"",""time"":696},{""stimulus"":""img/1to2/8.png"",""time"":794},{""stimulus"":""img/1to2/9.png"",""time"":894},{""stimulus"":""img/1to2/10.png"",""time"":993},{""stimulus"":""img/1to2/11.png"",""time"":1093},{""stimulus"":""img/1to2/12.png"",""time"":1190}]","[]"
"image-keyboard-response","166","179536","0.0-5.0-1.81","5ede9b80b8a141131edabbe1","bdp_cybrbll","Wed Mar 29 2023 19:47:09 GMT-0700 (Pacific Daylight Time)","434138","1","3","","355","","","","choice","","img/2to1/1.png","1","144","839","0.5","0.1","2","1","",""
"animation","167","180825","0.0-5.0-2.81","5ede9b80b8a141131edabbe1","bdp_cybrbll","Wed Mar 29 2023 19:47:09 GMT-0700 (Pacific Daylight Time)","434138","1","3","","","","","","","","","","144","","","","2","1","[{""stimulus"":""img/2to1/1.png"",""time"":100},{""stimulus"":""img/2to1/2.png"",""time"":201},{""stimulus"":""img/2to1/3.png"",""time"":300},{""stimulus"":""img/2to1/4.png"",""time"":398},{""stimulus"":""img/2to1/5.png"",""time"":496},{""stimulus"":""img/2to1/6.png"",""time"":597},{""stimulus"":""img/2to1/7.png"",""time"":695},{""stimulus"":""img/2to1/8.png"",""time"":795},{""stimulus"":""img/2to1/9.png"",""time"":893},{""stimulus"":""img/2to1/10.png"",""time"":991},{""stimulus"":""img/2to1/11.png"",""time"":1090},{""stimulus"":""img/2to1/12.png"",""time"":1190}]","[]"
"image-keyboard-response","168","181086","0.0-5.0-1.82","5ede9b80b8a141131edabbe1","bdp_cybrbll","Wed Mar 29 2023 19:47:09 GMT-0700 (Pacific Daylight Time)","434138","1","3","","null","","","","observe","","img/1to3/1.png","null","143","258","0.5","0.1","1","3","",""
"animation","169","182375","0.0-5.0-2.82","5ede9b80b8a141131edabbe1","bdp_cybrbll","Wed Mar 29 2023 19:47:09 GMT-0700 (Pacific Daylight Time)","434138","1","3","","","","","","","","","","143","","","","1","3","[{""stimulus"":""img/1to3/1.png"",""time"":100},{""stimulus"":""img/1to3/2.png"",""time"":200},{""stimulus"":""img/1to3/3.png"",""time"":298},{""stimulus"":""img/1to3/4.png"",""time"":397},{""stimulus"":""img/1to3/5.png"",""time"":497},{""stimulus"":""img/1to3/6.png"",""time"":596},{""stimulus"":""img/1to3/7.png"",""time"":696},{""stimulus"":""img/1to3/8.png"",""time"":795},{""stimulus"":""img/1to3/9.png"",""time"":893},{""stimulus"":""img/1to3/10.png"",""time"":992},{""stimulus"":""img/1to3/11.png"",""time"":1090},{""stimulus"":""img/1to3/12.png"",""time"":1190}]","[]"
"image-keyboard-response","170","183321","0.0-5.0-1.83","5ede9b80b8a141131edabbe1","bdp_cybrbll","Wed Mar 29 2023 19:47:09 GMT-0700 (Pacific Daylight Time)","434138","1","3","","null","","","","observe","","img/3to2/1.png","null","142","943","0.5","0.1","3","1","",""
"animation","171","184609","0.0-5.0-2.83","5ede9b80b8a141131edabbe1","bdp_cybrbll","Wed Mar 29 2023 19:47:09 GMT-0700 (Pacific Daylight Time)","434138","1","3","","","","","","","","","","142","","","","3","1","[{""stimulus"":""img/3to1/1.png"",""time"":102},{""stimulus"":""img/3to1/2.png"",""time"":200},{""stimulus"":""img/3to1/3.png"",""time"":300},{""stimulus"":""img/3to1/4.png"",""time"":398},{""stimulus"":""img/3to1/5.png"",""time"":497},{""stimulus"":""img/3to1/6.png"",""time"":597},{""stimulus"":""img/3to1/7.png"",""time"":696},{""stimulus"":""img/3to1/8.png"",""time"":795},{""stimulus"":""img/3to1/9.png"",""time"":894},{""stimulus"":""img/3to1/10.png"",""time"":1001},{""stimulus"":""img/3to1/11.png"",""time"":1092},{""stimulus"":""img/3to1/12.png"",""time"":1192}]","[]"
"image-keyboard-response","172","184838","0.0-5.0-1.84","5ede9b80b8a141131edabbe1","bdp_cybrbll","Wed Mar 29 2023 19:47:09 GMT-0700 (Pacific Daylight Time)","434138","1","3","","null","","","","observe","","img/1to3/1.png","null","141","226","0.5","0.1","1","3","",""
"animation","173","186128","0.0-5.0-2.84","5ede9b80b8a141131edabbe1","bdp_cybrbll","Wed Mar 29 2023 19:47:09 GMT-0700 (Pacific Daylight Time)","434138","1","3","","","","","","","","","","141","","","","1","3","[{""stimulus"":""img/1to3/1.png"",""time"":101},{""stimulus"":""img/1to3/2.png"",""time"":200},{""stimulus"":""img/1to3/3.png"",""time"":299},{""stimulus"":""img/1to3/4.png"",""time"":399},{""stimulus"":""img/1to3/5.png"",""time"":497},{""stimulus"":""img/1to3/6.png"",""time"":596},{""stimulus"":""img/1to3/7.png"",""time"":695},{""stimulus"":""img/1to3/8.png"",""time"":794},{""stimulus"":""img/1to3/9.png"",""time"":893},{""stimulus"":""img/1to3/10.png"",""time"":992},{""stimulus"":""img/1to3/11.png"",""time"":1092},{""stimulus"":""img/1to3/12.png"",""time"":1191}]","[]"
"image-keyboard-response","174","186342","0.0-5.0-1.85","5ede9b80b8a141131edabbe1","bdp_cybrbll","Wed Mar 29 2023 19:47:09 GMT-0700 (Pacific Daylight Time)","434138","1","3","","null","","","","observe","","img/3to2/1.png","null","140","211","0.5","0.1","3","1","",""
"animation","175","187631","0.0-5.0-2.85","5ede9b80b8a141131edabbe1","bdp_cybrbll","Wed Mar 29 2023 19:47:09 GMT-0700 (Pacific Daylight Time)","434138","1","3","","","","","","","","","","140","","","","3","1","[{""stimulus"":""img/3to1/1.png"",""time"":101},{""stimulus"":""img/3to1/2.png"",""time"":200},{""stimulus"":""img/3to1/3.png"",""time"":298},{""stimulus"":""img/3to1/4.png"",""time"":398},{""stimulus"":""img/3to1/5.png"",""time"":497},{""stimulus"":""img/3to1/6.png"",""time"":595},{""stimulus"":""img/3to1/7.png"",""time"":694},{""stimulus"":""img/3to1/8.png"",""time"":793},{""stimulus"":""img/3to1/9.png"",""time"":892},{""stimulus"":""img/3to1/10.png"",""time"":992},{""stimulus"":""img/3to1/11.png"",""time"":1091},{""stimulus"":""img/3to1/12.png"",""time"":1189}]","[]"
"image-keyboard-response","176","188124","0.0-5.0-1.86","5ede9b80b8a141131edabbe1","bdp_cybrbll","Wed Mar 29 2023 19:47:09 GMT-0700 (Pacific Daylight Time)","434138","1","3","","null","","","","observe","","img/1to3/1.png","null","139","490","0.5","0.1","1","2","",""
"animation","177","189413","0.0-5.0-2.86","5ede9b80b8a141131edabbe1","bdp_cybrbll","Wed Mar 29 2023 19:47:09 GMT-0700 (Pacific Daylight Time)","434138","1","3","","","","","","","","","","139","","","","1","2","[{""stimulus"":""img/1to2/1.png"",""time"":100},{""stimulus"":""img/1to2/2.png"",""time"":199},{""stimulus"":""img/1to2/3.png"",""time"":298},{""stimulus"":""img/1to2/4.png"",""time"":413},{""stimulus"":""img/1to2/5.png"",""time"":496},{""stimulus"":""img/1to2/6.png"",""time"":596},{""stimulus"":""img/1to2/7.png"",""time"":695},{""stimulus"":""img/1to2/8.png"",""time"":793},{""stimulus"":""img/1to2/9.png"",""time"":892},{""stimulus"":""img/1to2/10.png"",""time"":991},{""stimulus"":""img/1to2/11.png"",""time"":1090},{""stimulus"":""img/1to2/12.png"",""time"":1189}]","[]"
"image-keyboard-response","178","189893","0.0-5.0-1.87","5ede9b80b8a141131edabbe1","bdp_cybrbll","Wed Mar 29 2023 19:47:09 GMT-0700 (Pacific Daylight Time)","434138","1","3","","478","","","","choice","","img/2to1/1.png","2","138","390","0.5","0.1","2","3","",""
"animation","179","191182","0.0-5.0-2.87","5ede9b80b8a141131edabbe1","bdp_cybrbll","Wed Mar 29 2023 19:47:09 GMT-0700 (Pacific Daylight Time)","434138","1","3","","","","","","","","","","138","","","","2","3","[{""stimulus"":""img/2to3/1.png"",""time"":117},{""stimulus"":""img/2to3/2.png"",""time"":200},{""stimulus"":""img/2to3/3.png"",""time"":299},{""stimulus"":""img/2to3/4.png"",""time"":399},{""stimulus"":""img/2to3/5.png"",""time"":498},{""stimulus"":""img/2to3/6.png"",""time"":596},{""stimulus"":""img/2to3/7.png"",""time"":694},{""stimulus"":""img/2to3/8.png"",""time"":794},{""stimulus"":""img/2to3/9.png"",""time"":892},{""stimulus"":""img/2to3/10.png"",""time"":992},{""stimulus"":""img/2to3/11.png"",""time"":1090},{""stimulus"":""img/2to3/12.png"",""time"":1190}]","[]"
"image-keyboard-response","180","191790","0.0-5.0-1.88","5ede9b80b8a141131edabbe1","bdp_cybrbll","Wed Mar 29 2023 19:47:09 GMT-0700 (Pacific Daylight Time)","434138","1","3","","null","","","","observe","","img/3to2/1.png","null","137","604","0.5","0.1","3","2","",""
"animation","181","193078","0.0-5.0-2.88","5ede9b80b8a141131edabbe1","bdp_cybrbll","Wed Mar 29 2023 19:47:09 GMT-0700 (Pacific Daylight Time)","434138","1","3","","","","","","","","","","137","","","","3","2","[{""stimulus"":""img/3to2/1.png"",""time"":101},{""stimulus"":""img/3to2/2.png"",""time"":201},{""stimulus"":""img/3to2/3.png"",""time"":298},{""stimulus"":""img/3to2/4.png"",""time"":397},{""stimulus"":""img/3to2/5.png"",""time"":497},{""stimulus"":""img/3to2/6.png"",""time"":596},{""stimulus"":""img/3to2/7.png"",""time"":695},{""stimulus"":""img/3to2/8.png"",""time"":793},{""stimulus"":""img/3to2/9.png"",""time"":892},{""stimulus"":""img/3to2/10.png"",""time"":991},{""stimulus"":""img/3to2/11.png"",""time"":1091},{""stimulus"":""img/3to2/12.png"",""time"":1190}]","[]"
"image-keyboard-response","182","193361","0.0-5.0-1.89","5ede9b80b8a141131edabbe1","bdp_cybrbll","Wed Mar 29 2023 19:47:09 GMT-0700 (Pacific Daylight Time)","434138","1","3","","280","","","","choice","","img/2to1/1.png","1","136","840","0.5","0.1","2","1","",""
"animation","183","194650","0.0-5.0-2.89","5ede9b80b8a141131edabbe1","bdp_cybrbll","Wed Mar 29 2023 19:47:09 GMT-0700 (Pacific Daylight Time)","434138","1","3","","","","","","","","","","136","","","","2","1","[{""stimulus"":""img/2to1/1.png"",""time"":104},{""stimulus"":""img/2to1/2.png"",""time"":200},{""stimulus"":""img/2to1/3.png"",""time"":299},{""stimulus"":""img/2to1/4.png"",""time"":398},{""stimulus"":""img/2to1/5.png"",""time"":497},{""stimulus"":""img/2to1/6.png"",""time"":596},{""stimulus"":""img/2to1/7.png"",""time"":695},{""stimulus"":""img/2to1/8.png"",""time"":794},{""stimulus"":""img/2to1/9.png"",""time"":894},{""stimulus"":""img/2to1/10.png"",""time"":992},{""stimulus"":""img/2to1/11.png"",""time"":1092},{""stimulus"":""img/2to1/12.png"",""time"":1190}]","[]"
"image-keyboard-response","184","195268","0.0-5.0-1.90","5ede9b80b8a141131edabbe1","bdp_cybrbll","Wed Mar 29 2023 19:47:09 GMT-0700 (Pacific Daylight Time)","434138","1","3","","null","","","","observe","","img/1to3/1.png","null","135","616","0.5","0.1","1","3","",""
"animation","185","196557","0.0-5.0-2.90","5ede9b80b8a141131edabbe1","bdp_cybrbll","Wed Mar 29 2023 19:47:09 GMT-0700 (Pacific Daylight Time)","434138","1","3","","","","","","","","","","135","","","","1","3","[{""stimulus"":""img/1to3/1.png"",""time"":101},{""stimulus"":""img/1to3/2.png"",""time"":202},{""stimulus"":""img/1to3/3.png"",""time"":299},{""stimulus"":""img/1to3/4.png"",""time"":398},{""stimulus"":""img/1to3/5.png"",""time"":496},{""stimulus"":""img/1to3/6.png"",""time"":596},{""stimulus"":""img/1to3/7.png"",""time"":696},{""stimulus"":""img/1to3/8.png"",""time"":794},{""stimulus"":""img/1to3/9.png"",""time"":893},{""stimulus"":""img/1to3/10.png"",""time"":993},{""stimulus"":""img/1to3/11.png"",""time"":1090},{""stimulus"":""img/1to3/12.png"",""time"":1190}]","[]"
"image-keyboard-response","186","197817","0.0-5.0-1.91","5ede9b80b8a141131edabbe1","bdp_cybrbll","Wed Mar 29 2023 19:47:09 GMT-0700 (Pacific Daylight Time)","434138","1","3","","null","","","","observe","","img/3to2/1.png","null","134","1257","0.5","0.1","3","1","",""
"animation","187","199105","0.0-5.0-2.91","5ede9b80b8a141131edabbe1","bdp_cybrbll","Wed Mar 29 2023 19:47:09 GMT-0700 (Pacific Daylight Time)","434138","1","3","","","","","","","","","","134","","","","3","1","[{""stimulus"":""img/3to1/1.png"",""time"":102},{""stimulus"":""img/3to1/2.png"",""time"":199},{""stimulus"":""img/3to1/3.png"",""time"":298},{""stimulus"":""img/3to1/4.png"",""time"":398},{""stimulus"":""img/3to1/5.png"",""time"":498},{""stimulus"":""img/3to1/6.png"",""time"":596},{""stimulus"":""img/3to1/7.png"",""time"":699},{""stimulus"":""img/3to1/8.png"",""time"":793},{""stimulus"":""img/3to1/9.png"",""time"":893},{""stimulus"":""img/3to1/10.png"",""time"":992},{""stimulus"":""img/3to1/11.png"",""time"":1090},{""stimulus"":""img/3to1/12.png"",""time"":1190}]","[]"
"image-keyboard-response","188","199430","0.0-5.0-1.92","5ede9b80b8a141131edabbe1","bdp_cybrbll","Wed Mar 29 2023 19:47:09 GMT-0700 (Pacific Daylight Time)","434138","1","3","","null","","","","observe","","img/1to3/1.png","null","133","322","0.5","0.1","1","2","",""
"animation","189","200719","0.0-5.0-2.92","5ede9b80b8a141131edabbe1","bdp_cybrbll","Wed Mar 29 2023 19:47:09 GMT-0700 (Pacific Daylight Time)","434138","1","3","","","","","","","","","","133","","","","1","2","[{""stimulus"":""img/1to2/1.png"",""time"":102},{""stimulus"":""img/1to2/2.png"",""time"":200},{""stimulus"":""img/1to2/3.png"",""time"":300},{""stimulus"":""img/1to2/4.png"",""time"":400},{""stimulus"":""img/1to2/5.png"",""time"":497},{""stimulus"":""img/1to2/6.png"",""time"":596},{""stimulus"":""img/1to2/7.png"",""time"":695},{""stimulus"":""img/1to2/8.png"",""time"":794},{""stimulus"":""img/1to2/9.png"",""time"":894},{""stimulus"":""img/1to2/10.png"",""time"":992},{""stimulus"":""img/1to2/11.png"",""time"":1091},{""stimulus"":""img/1to2/12.png"",""time"":1190}]","[]"
"image-keyboard-response","190","200825","0.0-5.0-1.93","5ede9b80b8a141131edabbe1","bdp_cybrbll","Wed Mar 29 2023 19:47:09 GMT-0700 (Pacific Daylight Time)","434138","1","3","","104","","","","choice","","img/2to1/1.png","1","132","513","0.5","0.1","2","1","",""
