"event","trial","time","trialtype","subject_id","task","startTime","totalTime","fairPartner","unfairPartner","trial_type","trial_index","time_elapsed","internal_node_id","view_history","rt","success","stimulus","key_press","throwsLeft","rtDur","pFair","pUnfair","holder","receiver","animation_sequence","responses"
"focus","0","0","focusevent","612fbc37af2136fe81fc71a9","bdp_cybrbll","Wed Mar 29 2023 09:20:18 GMT-0700 (Pacific Daylight Time)","447126","1","3","","","","","","","","","","","","","","","","",""
"","","","","612fbc37af2136fe81fc71a9","bdp_cybrbll","Wed Mar 29 2023 09:20:18 GMT-0700 (Pacific Daylight Time)","447126","1","3","pavlovia","0","9","0.0-0.0","","","","","","","","","","","","",""
"","","","","612fbc37af2136fe81fc71a9","bdp_cybrbll","Wed Mar 29 2023 09:20:18 GMT-0700 (Pacific Daylight Time)","447126","1","3","instructions","1","3255","0.0-1.0","[{""page_index"":0,""viewing_time"":3244}]","3244","","","","","","","","","","",""
"fullscreenexit","2","5301","fullscreenexit","612fbc37af2136fe81fc71a9","bdp_cybrbll","Wed Mar 29 2023 09:20:18 GMT-0700 (Pacific Daylight Time)","447126","1","3","","","","","","","","","","","","","","","","",""
"","","","","612fbc37af2136fe81fc71a9","bdp_cybrbll","Wed Mar 29 2023 09:20:18 GMT-0700 (Pacific Daylight Time)","447126","1","3","fullscreen","2","6289","0.0-2.0","","","true","","","","","","","","","",""
"","","","fullscreenfail","612fbc37af2136fe81fc71a9","bdp_cybrbll","Wed Mar 29 2023 09:20:18 GMT-0700 (Pacific Daylight Time)","447126","1","3","image-keyboard-response","3","8301","0.0-3.0-0.0","","2010","","","32","","","","","","","",""
"","","","","612fbc37af2136fe81fc71a9","bdp_cybrbll","Wed Mar 29 2023 09:20:18 GMT-0700 (Pacific Daylight Time)","447126","1","3","instructions","4","48108","0.0-4.0","[{""page_index"":0,""viewing_time"":39551}]","39552","","","","","","","","","","",""
"","","","choice","612fbc37af2136fe81fc71a9","bdp_cybrbll","Wed Mar 29 2023 09:20:18 GMT-0700 (Pacific Daylight Time)","447126","1","3","image-keyboard-response","5","49594","0.0-5.0-1.0","","1484","","img/2to1/1.png","1","225","1194","0.5","0.5","2","1","",""
"","","","","612fbc37af2136fe81fc71a9","bdp_cybrbll","Wed Mar 29 2023 09:20:18 GMT-0700 (Pacific Daylight Time)","447126","1","3","animation","6","50915","0.0-5.0-2.0","","","","","","225","","","","2","1","[{""stimulus"":""img/2to1/1.png"",""time"":101},{""stimulus"":""img/2to1/2.png"",""time"":204},{""stimulus"":""img/2to1/3.png"",""time"":303},{""stimulus"":""img/2to1/4.png"",""time"":406},{""stimulus"":""img/2to1/5.png"",""time"":508},{""stimulus"":""img/2to1/6.png"",""time"":609},{""stimulus"":""img/2to1/7.png"",""time"":710},{""stimulus"":""img/2to1/8.png"",""time"":812},{""stimulus"":""img/2to1/9.png"",""time"":914},{""stimulus"":""img/2to1/10.png"",""time"":1014},{""stimulus"":""img/2to1/11.png"",""time"":1117},{""stimulus"":""img/2to1/12.png"",""time"":1218}]","[]"
"","","","observe","612fbc37af2136fe81fc71a9","bdp_cybrbll","Wed Mar 29 2023 09:20:18 GMT-0700 (Pacific Daylight Time)","447126","1","3","image-keyboard-response","7","51418","0.0-5.0-1.1","","null","","img/1to3/1.png","null","224","499","0.5","0.5","1","2","",""
"","","","","612fbc37af2136fe81fc71a9","bdp_cybrbll","Wed Mar 29 2023 09:20:18 GMT-0700 (Pacific Daylight Time)","447126","1","3","animation","8","52744","0.0-5.0-2.1","","","","","","224","","","","1","2","[{""stimulus"":""img/1to2/1.png"",""time"":104},{""stimulus"":""img/1to2/2.png"",""time"":208},{""stimulus"":""img/1to2/3.png"",""time"":310},{""stimulus"":""img/1to2/4.png"",""time"":410},{""stimulus"":""img/1to2/5.png"",""time"":509},{""stimulus"":""img/1to2/6.png"",""time"":612},{""stimulus"":""img/1to2/7.png"",""time"":713},{""stimulus"":""img/1to2/8.png"",""time"":815},{""stimulus"":""img/1to2/9.png"",""time"":916},{""stimulus"":""img/1to2/10.png"",""time"":1018},{""stimulus"":""img/1to2/11.png"",""time"":1121},{""stimulus"":""img/1to2/12.png"",""time"":1225}]","[]"
"","","","choice","612fbc37af2136fe81fc71a9","bdp_cybrbll","Wed Mar 29 2023 09:20:18 GMT-0700 (Pacific Daylight Time)","447126","1","3","image-keyboard-response","9","52890","0.0-5.0-1.2","","146","","img/2to1/1.png","2","223","567","0.5","0.5","2","3","",""
"","","","","612fbc37af2136fe81fc71a9","bdp_cybrbll","Wed Mar 29 2023 09:20:18 GMT-0700 (Pacific Daylight Time)","447126","1","3","animation","10","54206","0.0-5.0-2.2","","","","","","223","","","","2","3","[{""stimulus"":""img/2to3/1.png"",""time"":100},{""stimulus"":""img/2to3/2.png"",""time"":202},{""stimulus"":""img/2to3/3.png"",""time"":304},{""stimulus"":""img/2to3/4.png"",""time"":406},{""stimulus"":""img/2to3/5.png"",""time"":507},{""stimulus"":""img/2to3/6.png"",""time"":610},{""stimulus"":""img/2to3/7.png"",""time"":712},{""stimulus"":""img/2to3/8.png"",""time"":814},{""stimulus"":""img/2to3/9.png"",""time"":916},{""stimulus"":""img/2to3/10.png"",""time"":1017},{""stimulus"":""img/2to3/11.png"",""time"":1116},{""stimulus"":""img/2to3/12.png"",""time"":1216}]","[]"
"","","","observe","612fbc37af2136fe81fc71a9","bdp_cybrbll","Wed Mar 29 2023 09:20:18 GMT-0700 (Pacific Daylight Time)","447126","1","3","image-keyboard-response","11","54910","0.0-5.0-1.3","","null","","img/3to2/1.png","null","222","703","0.5","0.5","3","2","",""
"","","","","612fbc37af2136fe81fc71a9","bdp_cybrbll","Wed Mar 29 2023 09:20:18 GMT-0700 (Pacific Daylight Time)","447126","1","3","animation","12","56234","0.0-5.0-2.3","","","","","","222","","","","3","2","[{""stimulus"":""img/3to2/1.png"",""time"":103},{""stimulus"":""img/3to2/2.png"",""time"":206},{""stimulus"":""img/3to2/3.png"",""time"":305},{""stimulus"":""img/3to2/4.png"",""time"":407},{""stimulus"":""img/3to2/5.png"",""time"":508},{""stimulus"":""img/3to2/6.png"",""time"":609},{""stimulus"":""img/3to2/7.png"",""time"":711},{""stimulus"":""img/3to2/8.png"",""time"":811},{""stimulus"":""img/3to2/9.png"",""time"":914},{""stimulus"":""img/3to2/10.png"",""time"":1016},{""stimulus"":""img/3to2/11.png"",""time"":1119},{""stimulus"":""img/3to2/12.png"",""time"":1222}]","[]"
"","","","choice","612fbc37af2136fe81fc71a9","bdp_cybrbll","Wed Mar 29 2023 09:20:18 GMT-0700 (Pacific Daylight Time)","447126","1","3","image-keyboard-response","13","56496","0.0-5.0-1.4","","261","","img/2to1/1.png","1","221","162","0.5","0.5","2","1","",""
"","","","","612fbc37af2136fe81fc71a9","bdp_cybrbll","Wed Mar 29 2023 09:20:18 GMT-0700 (Pacific Daylight Time)","447126","1","3","animation","14","57819","0.0-5.0-2.4","","","","","","221","","","","2","1","[{""stimulus"":""img/2to1/1.png"",""time"":100},{""stimulus"":""img/2to1/2.png"",""time"":202},{""stimulus"":""img/2to1/3.png"",""time"":304},{""stimulus"":""img/2to1/4.png"",""time"":405},{""stimulus"":""img/2to1/5.png"",""time"":507},{""stimulus"":""img/2to1/6.png"",""time"":609},{""stimulus"":""img/2to1/7.png"",""time"":713},{""stimulus"":""img/2to1/8.png"",""time"":814},{""stimulus"":""img/2to1/9.png"",""time"":915},{""stimulus"":""img/2to1/10.png"",""time"":1018},{""stimulus"":""img/2to1/11.png"",""time"":1120},{""stimulus"":""img/2to1/12.png"",""time"":1220}]","[]"
"","","","observe","612fbc37af2136fe81fc71a9","bdp_cybrbll","Wed Mar 29 2023 09:20:18 GMT-0700 (Pacific Daylight Time)","447126","1","3","image-keyboard-response","15","58089","0.0-5.0-1.5","","null","","img/1to3/1.png","null","220","265","0.5","0.5","1","2","",""
"","","","","612fbc37af2136fe81fc71a9","bdp_cybrbll","Wed Mar 29 2023 09:20:18 GMT-0700 (Pacific Daylight Time)","447126","1","3","animation","16","59395","0.0-5.0-2.5","","","","","","220","","","","1","2","[{""stimulus"":""img/1to2/1.png"",""time"":99},{""stimulus"":""img/1to2/2.png"",""time"":200},{""stimulus"":""img/1to2/3.png"",""time"":301},{""stimulus"":""img/1to2/4.png"",""time"":403},{""stimulus"":""img/1to2/5.png"",""time"":503},{""stimulus"":""img/1to2/6.png"",""time"":601},{""stimulus"":""img/1to2/7.png"",""time"":702},{""stimulus"":""img/1to2/8.png"",""time"":802},{""stimulus"":""img/1to2/9.png"",""time"":902},{""stimulus"":""img/1to2/10.png"",""time"":1004},{""stimulus"":""img/1to2/11.png"",""time"":1103},{""stimulus"":""img/1to2/12.png"",""time"":1204}]","[]"
"","","","choice","612fbc37af2136fe81fc71a9","bdp_cybrbll","Wed Mar 29 2023 09:20:18 GMT-0700 (Pacific Daylight Time)","447126","1","3","image-keyboard-response","17","59480","0.0-5.0-1.6","","84","","img/2to1/1.png","2","219","935","0.5","0.5","2","3","",""
"","","","","612fbc37af2136fe81fc71a9","bdp_cybrbll","Wed Mar 29 2023 09:20:18 GMT-0700 (Pacific Daylight Time)","447126","1","3","animation","18","60802","0.0-5.0-2.6","","","","","","219","","","","2","3","[{""stimulus"":""img/2to3/1.png"",""time"":103},{""stimulus"":""img/2to3/2.png"",""time"":206},{""stimulus"":""img/2to3/3.png"",""time"":309},{""stimulus"":""img/2to3/4.png"",""time"":411},{""stimulus"":""img/2to3/5.png"",""time"":512},{""stimulus"":""img/2to3/6.png"",""time"":614},{""stimulus"":""img/2to3/7.png"",""time"":713},{""stimulus"":""img/2to3/8.png"",""time"":814},{""stimulus"":""img/2to3/9.png"",""time"":915},{""stimulus"":""img/2to3/10.png"",""time"":1017},{""stimulus"":""img/2to3/11.png"",""time"":1119},{""stimulus"":""img/2to3/12.png"",""time"":1220}]","[]"
"","","","observe","612fbc37af2136fe81fc71a9","bdp_cybrbll","Wed Mar 29 2023 09:20:18 GMT-0700 (Pacific Daylight Time)","447126","1","3","image-keyboard-response","19","61002","0.0-5.0-1.7","","null","","img/3to2/1.png","null","218","197","0.5","0.5","3","2","",""
"","","","","612fbc37af2136fe81fc71a9","bdp_cybrbll","Wed Mar 29 2023 09:20:18 GMT-0700 (Pacific Daylight Time)","447126","1","3","animation","20","62328","0.0-5.0-2.7","","","","","","218","","","","3","2","[{""stimulus"":""img/3to2/1.png"",""time"":104},{""stimulus"":""img/3to2/2.png"",""time"":205},{""stimulus"":""img/3to2/3.png"",""time"":307},{""stimulus"":""img/3to2/4.png"",""time"":410},{""stimulus"":""img/3to2/5.png"",""time"":513},{""stimulus"":""img/3to2/6.png"",""time"":614},{""stimulus"":""img/3to2/7.png"",""time"":716},{""stimulus"":""img/3to2/8.png"",""time"":817},{""stimulus"":""img/3to2/9.png"",""time"":921},{""stimulus"":""img/3to2/10.png"",""time"":1024},{""stimulus"":""img/3to2/11.png"",""time"":1125},{""stimulus"":""img/3to2/12.png"",""time"":1224}]","[]"
"","","","choice","612fbc37af2136fe81fc71a9","bdp_cybrbll","Wed Mar 29 2023 09:20:18 GMT-0700 (Pacific Daylight Time)","447126","1","3","image-keyboard-response","21","62439","0.0-5.0-1.8","","108","","img/2to1/1.png","1","217","440","0.5","0.5","2","1","",""
"","","","","612fbc37af2136fe81fc71a9","bdp_cybrbll","Wed Mar 29 2023 09:20:18 GMT-0700 (Pacific Daylight Time)","447126","1","3","animation","22","63753","0.0-5.0-2.8","","","","","","217","","","","2","1","[{""stimulus"":""img/2to1/1.png"",""time"":104},{""stimulus"":""img/2to1/2.png"",""time"":205},{""stimulus"":""img/2to1/3.png"",""time"":308},{""stimulus"":""img/2to1/4.png"",""time"":409},{""stimulus"":""img/2to1/5.png"",""time"":509},{""stimulus"":""img/2to1/6.png"",""time"":609},{""stimulus"":""img/2to1/7.png"",""time"":708},{""stimulus"":""img/2to1/8.png"",""time"":810},{""stimulus"":""img/2to1/9.png"",""time"":911},{""stimulus"":""img/2to1/10.png"",""time"":1011},{""stimulus"":""img/2to1/11.png"",""time"":1110},{""stimulus"":""img/2to1/12.png"",""time"":1213}]","[]"
"","","","observe","612fbc37af2136fe81fc71a9","bdp_cybrbll","Wed Mar 29 2023 09:20:18 GMT-0700 (Pacific Daylight Time)","447126","1","3","image-keyboard-response","23","64566","0.0-5.0-1.9","","null","","img/1to3/1.png","null","216","807","0.5","0.5","1","2","",""
"","","","","612fbc37af2136fe81fc71a9","bdp_cybrbll","Wed Mar 29 2023 09:20:18 GMT-0700 (Pacific Daylight Time)","447126","1","3","animation","24","65889","0.0-5.0-2.9","","","","","","216","","","","1","2","[{""stimulus"":""img/1to2/1.png"",""time"":101},{""stimulus"":""img/1to2/2.png"",""time"":203},{""stimulus"":""img/1to2/3.png"",""time"":305},{""stimulus"":""img/1to2/4.png"",""time"":406},{""stimulus"":""img/1to2/5.png"",""time"":507},{""stimulus"":""img/1to2/6.png"",""time"":609},{""stimulus"":""img/1to2/7.png"",""time"":710},{""stimulus"":""img/1to2/8.png"",""time"":813},{""stimulus"":""img/1to2/9.png"",""time"":914},{""stimulus"":""img/1to2/10.png"",""time"":1015},{""stimulus"":""img/1to2/11.png"",""time"":1119},{""stimulus"":""img/1to2/12.png"",""time"":1221}]","[]"
"","","","choice","612fbc37af2136fe81fc71a9","bdp_cybrbll","Wed Mar 29 2023 09:20:18 GMT-0700 (Pacific Daylight Time)","447126","1","3","image-keyboard-response","25","66094","0.0-5.0-1.10","","205","","img/2to1/1.png","2","215","131","0.5","0.5","2","3","",""
"","","","","612fbc37af2136fe81fc71a9","bdp_cybrbll","Wed Mar 29 2023 09:20:18 GMT-0700 (Pacific Daylight Time)","447126","1","3","animation","26","67415","0.0-5.0-2.10","","","","","","215","","","","2","3","[{""stimulus"":""img/2to3/1.png"",""time"":102},{""stimulus"":""img/2to3/2.png"",""time"":204},{""stimulus"":""img/2to3/3.png"",""time"":305},{""stimulus"":""img/2to3/4.png"",""time"":407},{""stimulus"":""img/2to3/5.png"",""time"":508},{""stimulus"":""img/2to3/6.png"",""time"":610},{""stimulus"":""img/2to3/7.png"",""time"":709},{""stimulus"":""img/2to3/8.png"",""time"":814},{""stimulus"":""img/2to3/9.png"",""time"":915},{""stimulus"":""img/2to3/10.png"",""time"":1018},{""stimulus"":""img/2to3/11.png"",""time"":1118},{""stimulus"":""img/2to3/12.png"",""time"":1220}]","[]"
"","","","observe","612fbc37af2136fe81fc71a9","bdp_cybrbll","Wed Mar 29 2023 09:20:18 GMT-0700 (Pacific Daylight Time)","447126","1","3","image-keyboard-response","27","68207","0.0-5.0-1.11","","null","","img/3to2/1.png","null","214","789","0.5","0.5","3","1","",""
"","","","","612fbc37af2136fe81fc71a9","bdp_cybrbll","Wed Mar 29 2023 09:20:18 GMT-0700 (Pacific Daylight Time)","447126","1","3","animation","28","69531","0.0-5.0-2.11","","","","","","214","","","","3","1","[{""stimulus"":""img/3to1/1.png"",""time"":101},{""stimulus"":""img/3to1/2.png"",""time"":206},{""stimulus"":""img/3to1/3.png"",""time"":308},{""stimulus"":""img/3to1/4.png"",""time"":410},{""stimulus"":""img/3to1/5.png"",""time"":508},{""stimulus"":""img/3to1/6.png"",""time"":610},{""stimulus"":""img/3to1/7.png"",""time"":711},{""stimulus"":""img/3to1/8.png"",""time"":815},{""stimulus"":""img/3to1/9.png"",""time"":917},{""stimulus"":""img/3to1/10.png"",""time"":1019},{""stimulus"":""img/3to1/11.png"",""time"":1121},{""stimulus"":""img/3to1/12.png"",""time"":1222}]","[]"
"","","","observe","612fbc37af2136fe81fc71a9","bdp_cybrbll","Wed Mar 29 2023 09:20:18 GMT-0700 (Pacific Daylight Time)","447126","1","3","image-keyboard-response","29","69910","0.0-5.0-1.12","","null","","img/1to3/1.png","null","213","379","0.5","0.5","1","2","",""
"","","","","612fbc37af2136fe81fc71a9","bdp_cybrbll","Wed Mar 29 2023 09:20:18 GMT-0700 (Pacific Daylight Time)","447126","1","3","animation","30","71224","0.0-5.0-2.12","","","","","","213","","","","1","2","[{""stimulus"":""img/1to2/1.png"",""time"":102},{""stimulus"":""img/1to2/2.png"",""time"":201},{""stimulus"":""img/1to2/3.png"",""time"":303},{""stimulus"":""img/1to2/4.png"",""time"":404},{""stimulus"":""img/1to2/5.png"",""time"":506},{""stimulus"":""img/1to2/6.png"",""time"":608},{""stimulus"":""img/1to2/7.png"",""time"":708},{""stimulus"":""img/1to2/8.png"",""time"":810},{""stimulus"":""img/1to2/9.png"",""time"":912},{""stimulus"":""img/1to2/10.png"",""time"":1012},{""stimulus"":""img/1to2/11.png"",""time"":1112},{""stimulus"":""img/1to2/12.png"",""time"":1214}]","[]"
"","","","choice","612fbc37af2136fe81fc71a9","bdp_cybrbll","Wed Mar 29 2023 09:20:18 GMT-0700 (Pacific Daylight Time)","447126","1","3","image-keyboard-response","31","71706","0.0-5.0-1.13","","481","","img/2to1/1.png","2","212","906","0.5","0.5","2","3","",""
"","","","","612fbc37af2136fe81fc71a9","bdp_cybrbll","Wed Mar 29 2023 09:20:18 GMT-0700 (Pacific Daylight Time)","447126","1","3","animation","32","73030","0.0-5.0-2.13","","","","","","212","","","","2","3","[{""stimulus"":""img/2to3/1.png"",""time"":102},{""stimulus"":""img/2to3/2.png"",""time"":203},{""stimulus"":""img/2to3/3.png"",""time"":308},{""stimulus"":""img/2to3/4.png"",""time"":407},{""stimulus"":""img/2to3/5.png"",""time"":509},{""stimulus"":""img/2to3/6.png"",""time"":610},{""stimulus"":""img/2to3/7.png"",""time"":712},{""stimulus"":""img/2to3/8.png"",""time"":813},{""stimulus"":""img/2to3/9.png"",""time"":915},{""stimulus"":""img/2to3/10.png"",""time"":1016},{""stimulus"":""img/2to3/11.png"",""time"":1118},{""stimulus"":""img/2to3/12.png"",""time"":1221}]","[]"
"","","","observe","612fbc37af2136fe81fc71a9","bdp_cybrbll","Wed Mar 29 2023 09:20:18 GMT-0700 (Pacific Daylight Time)","447126","1","3","image-keyboard-response","33","73672","0.0-5.0-1.14","","null","","img/3to2/1.png","null","211","639","0.5","0.5","3","2","",""
"","","","","612fbc37af2136fe81fc71a9","bdp_cybrbll","Wed Mar 29 2023 09:20:18 GMT-0700 (Pacific Daylight Time)","447126","1","3","animation","34","74990","0.0-5.0-2.14","","","","","","211","","","","3","2","[{""stimulus"":""img/3to2/1.png"",""time"":101},{""stimulus"":""img/3to2/2.png"",""time"":202},{""stimulus"":""img/3to2/3.png"",""time"":304},{""stimulus"":""img/3to2/4.png"",""time"":406},{""stimulus"":""img/3to2/5.png"",""time"":507},{""stimulus"":""img/3to2/6.png"",""time"":609},{""stimulus"":""img/3to2/7.png"",""time"":710},{""stimulus"":""img/3to2/8.png"",""time"":811},{""stimulus"":""img/3to2/9.png"",""time"":911},{""stimulus"":""img/3to2/10.png"",""time"":1012},{""stimulus"":""img/3to2/11.png"",""time"":1114},{""stimulus"":""img/3to2/12.png"",""time"":1215}]","[]"
"","","","choice","612fbc37af2136fe81fc71a9","bdp_cybrbll","Wed Mar 29 2023 09:20:18 GMT-0700 (Pacific Daylight Time)","447126","1","3","image-keyboard-response","35","75097","0.0-5.0-1.15","","105","","img/2to1/1.png","1","210","783","0.5","0.5","2","1","",""
"","","","","612fbc37af2136fe81fc71a9","bdp_cybrbll","Wed Mar 29 2023 09:20:18 GMT-0700 (Pacific Daylight Time)","447126","1","3","animation","36","76422","0.0-5.0-2.15","","","","","","210","","","","2","1","[{""stimulus"":""img/2to1/1.png"",""time"":103},{""stimulus"":""img/2to1/2.png"",""time"":204},{""stimulus"":""img/2to1/3.png"",""time"":307},{""stimulus"":""img/2to1/4.png"",""time"":407},{""stimulus"":""img/2to1/5.png"",""time"":509},{""stimulus"":""img/2to1/6.png"",""time"":610},{""stimulus"":""img/2to1/7.png"",""time"":714},{""stimulus"":""img/2to1/8.png"",""time"":817},{""stimulus"":""img/2to1/9.png"",""time"":917},{""stimulus"":""img/2to1/10.png"",""time"":1020},{""stimulus"":""img/2to1/11.png"",""time"":1121},{""stimulus"":""img/2to1/12.png"",""time"":1222}]","[]"
"","","","observe","612fbc37af2136fe81fc71a9","bdp_cybrbll","Wed Mar 29 2023 09:20:18 GMT-0700 (Pacific Daylight Time)","447126","1","3","image-keyboard-response","37","76846","0.0-5.0-1.16","","null","","img/1to3/1.png","null","209","423","0.5","0.5","1","2","",""
"","","","","612fbc37af2136fe81fc71a9","bdp_cybrbll","Wed Mar 29 2023 09:20:18 GMT-0700 (Pacific Daylight Time)","447126","1","3","animation","38","78166","0.0-5.0-2.16","","","","","","209","","","","1","2","[{""stimulus"":""img/1to2/1.png"",""time"":101},{""stimulus"":""img/1to2/2.png"",""time"":203},{""stimulus"":""img/1to2/3.png"",""time"":305},{""stimulus"":""img/1to2/4.png"",""time"":406},{""stimulus"":""img/1to2/5.png"",""time"":508},{""stimulus"":""img/1to2/6.png"",""time"":609},{""stimulus"":""img/1to2/7.png"",""time"":711},{""stimulus"":""img/1to2/8.png"",""time"":812},{""stimulus"":""img/1to2/9.png"",""time"":914},{""stimulus"":""img/1to2/10.png"",""time"":1015},{""stimulus"":""img/1to2/11.png"",""time"":1117},{""stimulus"":""img/1to2/12.png"",""time"":1218}]","[]"
"","","","choice","612fbc37af2136fe81fc71a9","bdp_cybrbll","Wed Mar 29 2023 09:20:18 GMT-0700 (Pacific Daylight Time)","447126","1","3","image-keyboard-response","39","78224","0.0-5.0-1.17","","57","","img/2to1/1.png","2","208","911","0.5","0.5","2","3","",""
"","","","","612fbc37af2136fe81fc71a9","bdp_cybrbll","Wed Mar 29 2023 09:20:18 GMT-0700 (Pacific Daylight Time)","447126","1","3","animation","40","79548","0.0-5.0-2.17","","","","","","208","","","","2","3","[{""stimulus"":""img/2to3/1.png"",""time"":105},{""stimulus"":""img/2to3/2.png"",""time"":206},{""stimulus"":""img/2to3/3.png"",""time"":307},{""stimulus"":""img/2to3/4.png"",""time"":409},{""stimulus"":""img/2to3/5.png"",""time"":511},{""stimulus"":""img/2to3/6.png"",""time"":612},{""stimulus"":""img/2to3/7.png"",""time"":714},{""stimulus"":""img/2to3/8.png"",""time"":816},{""stimulus"":""img/2to3/9.png"",""time"":917},{""stimulus"":""img/2to3/10.png"",""time"":1017},{""stimulus"":""img/2to3/11.png"",""time"":1121},{""stimulus"":""img/2to3/12.png"",""time"":1222}]","[]"
"","","","observe","612fbc37af2136fe81fc71a9","bdp_cybrbll","Wed Mar 29 2023 09:20:18 GMT-0700 (Pacific Daylight Time)","447126","1","3","image-keyboard-response","41","80345","0.0-5.0-1.18","","null","","img/3to2/1.png","null","207","795","0.5","0.5","3","2","",""
"","","","","612fbc37af2136fe81fc71a9","bdp_cybrbll","Wed Mar 29 2023 09:20:18 GMT-0700 (Pacific Daylight Time)","447126","1","3","animation","42","81660","0.0-5.0-2.18","","","","","","207","","","","3","2","[{""stimulus"":""img/3to2/1.png"",""time"":100},{""stimulus"":""img/3to2/2.png"",""time"":200},{""stimulus"":""img/3to2/3.png"",""time"":301},{""stimulus"":""img/3to2/4.png"",""time"":400},{""stimulus"":""img/3to2/5.png"",""time"":502},{""stimulus"":""img/3to2/6.png"",""time"":603},{""stimulus"":""img/3to2/7.png"",""time"":704},{""stimulus"":""img/3to2/8.png"",""time"":808},{""stimulus"":""img/3to2/9.png"",""time"":907},{""stimulus"":""img/3to2/10.png"",""time"":1009},{""stimulus"":""img/3to2/11.png"",""time"":1111},{""stimulus"":""img/3to2/12.png"",""time"":1213}]","[]"
"","","","choice","612fbc37af2136fe81fc71a9","bdp_cybrbll","Wed Mar 29 2023 09:20:18 GMT-0700 (Pacific Daylight Time)","447126","1","3","image-keyboard-response","43","81792","0.0-5.0-1.19","","130","","img/2to1/1.png","1","206","446","0.5","0.5","2","1","",""
"","","","","612fbc37af2136fe81fc71a9","bdp_cybrbll","Wed Mar 29 2023 09:20:18 GMT-0700 (Pacific Daylight Time)","447126","1","3","animation","44","83108","0.0-5.0-2.19","","","","","","206","","","","2","1","[{""stimulus"":""img/2to1/1.png"",""time"":101},{""stimulus"":""img/2to1/2.png"",""time"":201},{""stimulus"":""img/2to1/3.png"",""time"":303},{""stimulus"":""img/2to1/4.png"",""time"":405},{""stimulus"":""img/2to1/5.png"",""time"":504},{""stimulus"":""img/2to1/6.png"",""time"":608},{""stimulus"":""img/2to1/7.png"",""time"":710},{""stimulus"":""img/2to1/8.png"",""time"":810},{""stimulus"":""img/2to1/9.png"",""time"":912},{""stimulus"":""img/2to1/10.png"",""time"":1012},{""stimulus"":""img/2to1/11.png"",""time"":1113},{""stimulus"":""img/2to1/12.png"",""time"":1214}]","[]"
"","","","observe","612fbc37af2136fe81fc71a9","bdp_cybrbll","Wed Mar 29 2023 09:20:18 GMT-0700 (Pacific Daylight Time)","447126","1","3","image-keyboard-response","45","83633","0.0-5.0-1.20","","null","","img/1to3/1.png","null","205","523","0.5","0.5","1","3","",""
"","","","","612fbc37af2136fe81fc71a9","bdp_cybrbll","Wed Mar 29 2023 09:20:18 GMT-0700 (Pacific Daylight Time)","447126","1","3","animation","46","84951","0.0-5.0-2.20","","","","","","205","","","","1","3","[{""stimulus"":""img/1to3/1.png"",""time"":102},{""stimulus"":""img/1to3/2.png"",""time"":204},{""stimulus"":""img/1to3/3.png"",""time"":305},{""stimulus"":""img/1to3/4.png"",""time"":406},{""stimulus"":""img/1to3/5.png"",""time"":508},{""stimulus"":""img/1to3/6.png"",""time"":609},{""stimulus"":""img/1to3/7.png"",""time"":711},{""stimulus"":""img/1to3/8.png"",""time"":812},{""stimulus"":""img/1to3/9.png"",""time"":914},{""stimulus"":""img/1to3/10.png"",""time"":1014},{""stimulus"":""img/1to3/11.png"",""time"":1117},{""stimulus"":""img/1to3/12.png"",""time"":1218}]","[]"
"","","","observe","612fbc37af2136fe81fc71a9","bdp_cybrbll","Wed Mar 29 2023 09:20:18 GMT-0700 (Pacific Daylight Time)","447126","1","3","image-keyboard-response","47","85827","0.0-5.0-1.21","","null","","img/3to2/1.png","null","204","872","0.5","0.5","3","1","",""
"","","","","612fbc37af2136fe81fc71a9","bdp_cybrbll","Wed Mar 29 2023 09:20:18 GMT-0700 (Pacific Daylight Time)","447126","1","3","animation","48","87140","0.0-5.0-2.21","","","","","","204","","","","3","1","[{""stimulus"":""img/3to1/1.png"",""time"":101},{""stimulus"":""img/3to1/2.png"",""time"":201},{""stimulus"":""img/3to1/3.png"",""time"":303},{""stimulus"":""img/3to1/4.png"",""time"":405},{""stimulus"":""img/3to1/5.png"",""time"":507},{""stimulus"":""img/3to1/6.png"",""time"":609},{""stimulus"":""img/3to1/7.png"",""time"":710},{""stimulus"":""img/3to1/8.png"",""time"":811},{""stimulus"":""img/3to1/9.png"",""time"":913},{""stimulus"":""img/3to1/10.png"",""time"":1013},{""stimulus"":""img/3to1/11.png"",""time"":1112},{""stimulus"":""img/3to1/12.png"",""time"":1212}]","[]"
"","","","observe","612fbc37af2136fe81fc71a9","bdp_cybrbll","Wed Mar 29 2023 09:20:18 GMT-0700 (Pacific Daylight Time)","447126","1","3","image-keyboard-response","49","88290","0.0-5.0-1.22","","null","","img/1to3/1.png","null","203","1150","0.5","0.5","1","3","",""
"","","","","612fbc37af2136fe81fc71a9","bdp_cybrbll","Wed Mar 29 2023 09:20:18 GMT-0700 (Pacific Daylight Time)","447126","1","3","animation","50","89617","0.0-5.0-2.22","","","","","","203","","","","1","3","[{""stimulus"":""img/1to3/1.png"",""time"":105},{""stimulus"":""img/1to3/2.png"",""time"":206},{""stimulus"":""img/1to3/3.png"",""time"":307},{""stimulus"":""img/1to3/4.png"",""time"":410},{""stimulus"":""img/1to3/5.png"",""time"":512},{""stimulus"":""img/1to3/6.png"",""time"":612},{""stimulus"":""img/1to3/7.png"",""time"":714},{""stimulus"":""img/1to3/8.png"",""time"":815},{""stimulus"":""img/1to3/9.png"",""time"":920},{""stimulus"":""img/1to3/10.png"",""time"":1022},{""stimulus"":""img/1to3/11.png"",""time"":1124},{""stimulus"":""img/1to3/12.png"",""time"":1225}]","[]"
"","","","observe","612fbc37af2136fe81fc71a9","bdp_cybrbll","Wed Mar 29 2023 09:20:18 GMT-0700 (Pacific Daylight Time)","447126","1","3","image-keyboard-response","51","90055","0.0-5.0-1.23","","null","","img/3to2/1.png","null","202","435","0.5","0.5","3","1","",""
"","","","","612fbc37af2136fe81fc71a9","bdp_cybrbll","Wed Mar 29 2023 09:20:18 GMT-0700 (Pacific Daylight Time)","447126","1","3","animation","52","91372","0.0-5.0-2.23","","","","","","202","","","","3","1","[{""stimulus"":""img/3to1/1.png"",""time"":101},{""stimulus"":""img/3to1/2.png"",""time"":201},{""stimulus"":""img/3to1/3.png"",""time"":302},{""stimulus"":""img/3to1/4.png"",""time"":404},{""stimulus"":""img/3to1/5.png"",""time"":504},{""stimulus"":""img/3to1/6.png"",""time"":606},{""stimulus"":""img/3to1/7.png"",""time"":708},{""stimulus"":""img/3to1/8.png"",""time"":809},{""stimulus"":""img/3to1/9.png"",""time"":911},{""stimulus"":""img/3to1/10.png"",""time"":1013},{""stimulus"":""img/3to1/11.png"",""time"":1114},{""stimulus"":""img/3to1/12.png"",""time"":1215}]","[]"
"","","","observe","612fbc37af2136fe81fc71a9","bdp_cybrbll","Wed Mar 29 2023 09:20:18 GMT-0700 (Pacific Daylight Time)","447126","1","3","image-keyboard-response","53","92018","0.0-5.0-1.24","","null","","img/1to3/1.png","null","201","644","0.5","0.5","1","2","",""
"","","","","612fbc37af2136fe81fc71a9","bdp_cybrbll","Wed Mar 29 2023 09:20:18 GMT-0700 (Pacific Daylight Time)","447126","1","3","animation","54","93339","0.0-5.0-2.24","","","","","","201","","","","1","2","[{""stimulus"":""img/1to2/1.png"",""time"":102},{""stimulus"":""img/1to2/2.png"",""time"":203},{""stimulus"":""img/1to2/3.png"",""time"":305},{""stimulus"":""img/1to2/4.png"",""time"":407},{""stimulus"":""img/1to2/5.png"",""time"":506},{""stimulus"":""img/1to2/6.png"",""time"":609},{""stimulus"":""img/1to2/7.png"",""time"":711},{""stimulus"":""img/1to2/8.png"",""time"":814},{""stimulus"":""img/1to2/9.png"",""time"":917},{""stimulus"":""img/1to2/10.png"",""time"":1018},{""stimulus"":""img/1to2/11.png"",""time"":1118},{""stimulus"":""img/1to2/12.png"",""time"":1219}]","[]"
"","","","choice","612fbc37af2136fe81fc71a9","bdp_cybrbll","Wed Mar 29 2023 09:20:18 GMT-0700 (Pacific Daylight Time)","447126","1","3","image-keyboard-response","55","93560","0.0-5.0-1.25","","219","","img/2to1/1.png","2","200","442","0.5","0.5","2","3","",""
"","","","","612fbc37af2136fe81fc71a9","bdp_cybrbll","Wed Mar 29 2023 09:20:18 GMT-0700 (Pacific Daylight Time)","447126","1","3","animation","56","94879","0.0-5.0-2.25","","","","","","200","","","","2","3","[{""stimulus"":""img/2to3/1.png"",""time"":102},{""stimulus"":""img/2to3/2.png"",""time"":204},{""stimulus"":""img/2to3/3.png"",""time"":305},{""stimulus"":""img/2to3/4.png"",""time"":407},{""stimulus"":""img/2to3/5.png"",""time"":508},{""stimulus"":""img/2to3/6.png"",""time"":609},{""stimulus"":""img/2to3/7.png"",""time"":709},{""stimulus"":""img/2to3/8.png"",""time"":813},{""stimulus"":""img/2to3/9.png"",""time"":914},{""stimulus"":""img/2to3/10.png"",""time"":1013},{""stimulus"":""img/2to3/11.png"",""time"":1114},{""stimulus"":""img/2to3/12.png"",""time"":1216}]","[]"
"","","","observe","612fbc37af2136fe81fc71a9","bdp_cybrbll","Wed Mar 29 2023 09:20:18 GMT-0700 (Pacific Daylight Time)","447126","1","3","image-keyboard-response","57","95118","0.0-5.0-1.26","","null","","img/3to2/1.png","null","199","236","0.5","0.5","3","2","",""
"","","","","612fbc37af2136fe81fc71a9","bdp_cybrbll","Wed Mar 29 2023 09:20:18 GMT-0700 (Pacific Daylight Time)","447126","1","3","animation","58","96440","0.0-5.0-2.26","","","","","","199","","","","3","2","[{""stimulus"":""img/3to2/1.png"",""time"":102},{""stimulus"":""img/3to2/2.png"",""time"":204},{""stimulus"":""img/3to2/3.png"",""time"":303},{""stimulus"":""img/3to2/4.png"",""time"":407},{""stimulus"":""img/3to2/5.png"",""time"":509},{""stimulus"":""img/3to2/6.png"",""time"":610},{""stimulus"":""img/3to2/7.png"",""time"":711},{""stimulus"":""img/3to2/8.png"",""time"":813},{""stimulus"":""img/3to2/9.png"",""time"":915},{""stimulus"":""img/3to2/10.png"",""time"":1016},{""stimulus"":""img/3to2/11.png"",""time"":1117},{""stimulus"":""img/3to2/12.png"",""time"":1219}]","[]"
"","","","choice","612fbc37af2136fe81fc71a9","bdp_cybrbll","Wed Mar 29 2023 09:20:18 GMT-0700 (Pacific Daylight Time)","447126","1","3","image-keyboard-response","59","96480","0.0-5.0-1.27","","40","","img/2to1/1.png","1","198","311","0.5","0.5","2","1","",""
"","","","","612fbc37af2136fe81fc71a9","bdp_cybrbll","Wed Mar 29 2023 09:20:18 GMT-0700 (Pacific Daylight Time)","447126","1","3","animation","60","97803","0.0-5.0-2.27","","","","","","198","","","","2","1","[{""stimulus"":""img/2to1/1.png"",""time"":101},{""stimulus"":""img/2to1/2.png"",""time"":202},{""stimulus"":""img/2to1/3.png"",""time"":304},{""stimulus"":""img/2to1/4.png"",""time"":405},{""stimulus"":""img/2to1/5.png"",""time"":508},{""stimulus"":""img/2to1/6.png"",""time"":612},{""stimulus"":""img/2to1/7.png"",""time"":713},{""stimulus"":""img/2to1/8.png"",""time"":814},{""stimulus"":""img/2to1/9.png"",""time"":916},{""stimulus"":""img/2to1/10.png"",""time"":1016},{""stimulus"":""img/2to1/11.png"",""time"":1120},{""stimulus"":""img/2to1/12.png"",""time"":1222}]","[]"
"","","","observe","612fbc37af2136fe81fc71a9","bdp_cybrbll","Wed Mar 29 2023 09:20:18 GMT-0700 (Pacific Daylight Time)","447126","1","3","image-keyboard-response","61","98481","0.0-5.0-1.28","","null","","img/1to3/1.png","null","197","674","0.5","0.5","1","2","",""
"","","","","612fbc37af2136fe81fc71a9","bdp_cybrbll","Wed Mar 29 2023 09:20:18 GMT-0700 (Pacific Daylight Time)","447126","1","3","animation","62","99808","0.0-5.0-2.28","","","","","","197","","","","1","2","[{""stimulus"":""img/1to2/1.png"",""time"":101},{""stimulus"":""img/1to2/2.png"",""time"":203},{""stimulus"":""img/1to2/3.png"",""time"":304},{""stimulus"":""img/1to2/4.png"",""time"":406},{""stimulus"":""img/1to2/5.png"",""time"":510},{""stimulus"":""img/1to2/6.png"",""time"":612},{""stimulus"":""img/1to2/7.png"",""time"":714},{""stimulus"":""img/1to2/8.png"",""time"":815},{""stimulus"":""img/1to2/9.png"",""time"":918},{""stimulus"":""img/1to2/10.png"",""time"":1021},{""stimulus"":""img/1to2/11.png"",""time"":1122},{""stimulus"":""img/1to2/12.png"",""time"":1224}]","[]"
"","","","choice","612fbc37af2136fe81fc71a9","bdp_cybrbll","Wed Mar 29 2023 09:20:18 GMT-0700 (Pacific Daylight Time)","447126","1","3","image-keyboard-response","63","99830","0.0-5.0-1.29","","22","","img/2to1/1.png","2","196","279","0.5","0.5","2","3","",""
"","","","","612fbc37af2136fe81fc71a9","bdp_cybrbll","Wed Mar 29 2023 09:20:18 GMT-0700 (Pacific Daylight Time)","447126","1","3","animation","64","101151","0.0-5.0-2.29","","","","","","196","","","","2","3","[{""stimulus"":""img/2to3/1.png"",""time"":102},{""stimulus"":""img/2to3/2.png"",""time"":203},{""stimulus"":""img/2to3/3.png"",""time"":305},{""stimulus"":""img/2to3/4.png"",""time"":406},{""stimulus"":""img/2to3/5.png"",""time"":507},{""stimulus"":""img/2to3/6.png"",""time"":609},{""stimulus"":""img/2to3/7.png"",""time"":711},{""stimulus"":""img/2to3/8.png"",""time"":814},{""stimulus"":""img/2to3/9.png"",""time"":913},{""stimulus"":""img/2to3/10.png"",""time"":1016},{""stimulus"":""img/2to3/11.png"",""time"":1118},{""stimulus"":""img/2to3/12.png"",""time"":1219}]","[]"
"","","","observe","612fbc37af2136fe81fc71a9","bdp_cybrbll","Wed Mar 29 2023 09:20:18 GMT-0700 (Pacific Daylight Time)","447126","1","3","image-keyboard-response","65","101354","0.0-5.0-1.30","","null","","img/3to2/1.png","null","195","199","0.5","0.5","3","1","",""
"","","","","612fbc37af2136fe81fc71a9","bdp_cybrbll","Wed Mar 29 2023 09:20:18 GMT-0700 (Pacific Daylight Time)","447126","1","3","animation","66","102677","0.0-5.0-2.30","","","","","","195","","","","3","1","[{""stimulus"":""img/3to1/1.png"",""time"":102},{""stimulus"":""img/3to1/2.png"",""time"":206},{""stimulus"":""img/3to1/3.png"",""time"":308},{""stimulus"":""img/3to1/4.png"",""time"":409},{""stimulus"":""img/3to1/5.png"",""time"":511},{""stimulus"":""img/3to1/6.png"",""time"":613},{""stimulus"":""img/3to1/7.png"",""time"":714},{""stimulus"":""img/3to1/8.png"",""time"":816},{""stimulus"":""img/3to1/9.png"",""time"":917},{""stimulus"":""img/3to1/10.png"",""time"":1021},{""stimulus"":""img/3to1/11.png"",""time"":1123},{""stimulus"":""img/3to1/12.png"",""time"":1223}]","[]"
"","","","observe","612fbc37af2136fe81fc71a9","bdp_cybrbll","Wed Mar 29 2023 09:20:18 GMT-0700 (Pacific Daylight Time)","447126","1","3","image-keyboard-response","67","102904","0.0-5.0-1.31","","null","","img/1to3/1.png","null","194","222","0.5","0.5","1","2","",""
"","","","","612fbc37af2136fe81fc71a9","bdp_cybrbll","Wed Mar 29 2023 09:20:18 GMT-0700 (Pacific Daylight Time)","447126","1","3","animation","68","104238","0.0-5.0-2.31","","","","","","194","","","","1","2","[{""stimulus"":""img/1to2/1.png"",""time"":100},{""stimulus"":""img/1to2/2.png"",""time"":202},{""stimulus"":""img/1to2/3.png"",""time"":304},{""stimulus"":""img/1to2/4.png"",""time"":405},{""stimulus"":""img/1to2/5.png"",""time"":508},{""stimulus"":""img/1to2/6.png"",""time"":612},{""stimulus"":""img/1to2/7.png"",""time"":715},{""stimulus"":""img/1to2/8.png"",""time"":819},{""stimulus"":""img/1to2/9.png"",""time"":921},{""stimulus"":""img/1to2/10.png"",""time"":1025},{""stimulus"":""img/1to2/11.png"",""time"":1129},{""stimulus"":""img/1to2/12.png"",""time"":1231}]","[]"
"","","","choice","612fbc37af2136fe81fc71a9","bdp_cybrbll","Wed Mar 29 2023 09:20:18 GMT-0700 (Pacific Daylight Time)","447126","1","3","image-keyboard-response","69","104321","0.0-5.0-1.32","","82","","img/2to1/1.png","2","193","243","0.5","0.5","2","3","",""
"","","","","612fbc37af2136fe81fc71a9","bdp_cybrbll","Wed Mar 29 2023 09:20:18 GMT-0700 (Pacific Daylight Time)","447126","1","3","animation","70","105641","0.0-5.0-2.32","","","","","","193","","","","2","3","[{""stimulus"":""img/2to3/1.png"",""time"":102},{""stimulus"":""img/2to3/2.png"",""time"":204},{""stimulus"":""img/2to3/3.png"",""time"":305},{""stimulus"":""img/2to3/4.png"",""time"":408},{""stimulus"":""img/2to3/5.png"",""time"":511},{""stimulus"":""img/2to3/6.png"",""time"":613},{""stimulus"":""img/2to3/7.png"",""time"":713},{""stimulus"":""img/2to3/8.png"",""time"":813},{""stimulus"":""img/2to3/9.png"",""time"":915},{""stimulus"":""img/2to3/10.png"",""time"":1016},{""stimulus"":""img/2to3/11.png"",""time"":1118},{""stimulus"":""img/2to3/12.png"",""time"":1219}]","[]"
"","","","observe","612fbc37af2136fe81fc71a9","bdp_cybrbll","Wed Mar 29 2023 09:20:18 GMT-0700 (Pacific Daylight Time)","447126","1","3","image-keyboard-response","71","106168","0.0-5.0-1.33","","null","","img/3to2/1.png","null","192","526","0.5","0.5","3","1","",""
"","","","","612fbc37af2136fe81fc71a9","bdp_cybrbll","Wed Mar 29 2023 09:20:18 GMT-0700 (Pacific Daylight Time)","447126","1","3","animation","72","107483","0.0-5.0-2.33","","","","","","192","","","","3","1","[{""stimulus"":""img/3to1/1.png"",""time"":101},{""stimulus"":""img/3to1/2.png"",""time"":202},{""stimulus"":""img/3to1/3.png"",""time"":302},{""stimulus"":""img/3to1/4.png"",""time"":402},{""stimulus"":""img/3to1/5.png"",""time"":504},{""stimulus"":""img/3to1/6.png"",""time"":605},{""stimulus"":""img/3to1/7.png"",""time"":708},{""stimulus"":""img/3to1/8.png"",""time"":809},{""stimulus"":""img/3to1/9.png"",""time"":910},{""stimulus"":""img/3to1/10.png"",""time"":1012},{""stimulus"":""img/3to1/11.png"",""time"":1114},{""stimulus"":""img/3to1/12.png"",""time"":1213}]","[]"
"","","","observe","612fbc37af2136fe81fc71a9","bdp_cybrbll","Wed Mar 29 2023 09:20:18 GMT-0700 (Pacific Daylight Time)","447126","1","3","image-keyboard-response","73","108133","0.0-5.0-1.34","","null","","img/1to3/1.png","null","191","647","0.5","0.5","1","3","",""
"","","","","612fbc37af2136fe81fc71a9","bdp_cybrbll","Wed Mar 29 2023 09:20:18 GMT-0700 (Pacific Daylight Time)","447126","1","3","animation","74","109456","0.0-5.0-2.34","","","","","","191","","","","1","3","[{""stimulus"":""img/1to3/1.png"",""time"":101},{""stimulus"":""img/1to3/2.png"",""time"":200},{""stimulus"":""img/1to3/3.png"",""time"":301},{""stimulus"":""img/1to3/4.png"",""time"":402},{""stimulus"":""img/1to3/5.png"",""time"":503},{""stimulus"":""img/1to3/6.png"",""time"":606},{""stimulus"":""img/1to3/7.png"",""time"":706},{""stimulus"":""img/1to3/8.png"",""time"":808},{""stimulus"":""img/1to3/9.png"",""time"":910},{""stimulus"":""img/1to3/10.png"",""time"":1012},{""stimulus"":""img/1to3/11.png"",""time"":1115},{""stimulus"":""img/1to3/12.png"",""time"":1219}]","[]"
"","","","observe","612fbc37af2136fe81fc71a9","bdp_cybrbll","Wed Mar 29 2023 09:20:18 GMT-0700 (Pacific Daylight Time)","447126","1","3","image-keyboard-response","75","109636","0.0-5.0-1.35","","null","","img/3to2/1.png","null","190","177","0.5","0.5","3","2","",""
"","","","","612fbc37af2136fe81fc71a9","bdp_cybrbll","Wed Mar 29 2023 09:20:18 GMT-0700 (Pacific Daylight Time)","447126","1","3","animation","76","110953","0.0-5.0-2.35","","","","","","190","","","","3","2","[{""stimulus"":""img/3to2/1.png"",""time"":102},{""stimulus"":""img/3to2/2.png"",""time"":203},{""stimulus"":""img/3to2/3.png"",""time"":305},{""stimulus"":""img/3to2/4.png"",""time"":406},{""stimulus"":""img/3to2/5.png"",""time"":505},{""stimulus"":""img/3to2/6.png"",""time"":607},{""stimulus"":""img/3to2/7.png"",""time"":706},{""stimulus"":""img/3to2/8.png"",""time"":809},{""stimulus"":""img/3to2/9.png"",""time"":913},{""stimulus"":""img/3to2/10.png"",""time"":1013},{""stimulus"":""img/3to2/11.png"",""time"":1115},{""stimulus"":""img/3to2/12.png"",""time"":1215}]","[]"
"","","","choice","612fbc37af2136fe81fc71a9","bdp_cybrbll","Wed Mar 29 2023 09:20:18 GMT-0700 (Pacific Daylight Time)","447126","1","3","image-keyboard-response","77","110984","0.0-5.0-1.36","","31","","img/2to1/1.png","1","189","259","0.5","0.5","2","1","",""
"","","","","612fbc37af2136fe81fc71a9","bdp_cybrbll","Wed Mar 29 2023 09:20:18 GMT-0700 (Pacific Daylight Time)","447126","1","3","animation","78","112300","0.0-5.0-2.36","","","","","","189","","","","2","1","[{""stimulus"":""img/2to1/1.png"",""time"":103},{""stimulus"":""img/2to1/2.png"",""time"":205},{""stimulus"":""img/2to1/3.png"",""time"":304},{""stimulus"":""img/2to1/4.png"",""time"":404},{""stimulus"":""img/2to1/5.png"",""time"":506},{""stimulus"":""img/2to1/6.png"",""time"":608},{""stimulus"":""img/2to1/7.png"",""time"":710},{""stimulus"":""img/2to1/8.png"",""time"":811},{""stimulus"":""img/2to1/9.png"",""time"":912},{""stimulus"":""img/2to1/10.png"",""time"":1013},{""stimulus"":""img/2to1/11.png"",""time"":1113},{""stimulus"":""img/2to1/12.png"",""time"":1214}]","[]"
"","","","observe","612fbc37af2136fe81fc71a9","bdp_cybrbll","Wed Mar 29 2023 09:20:18 GMT-0700 (Pacific Daylight Time)","447126","1","3","image-keyboard-response","79","112813","0.0-5.0-1.37","","null","","img/1to3/1.png","null","188","511","0.5","0.5","1","3","",""
"","","","","612fbc37af2136fe81fc71a9","bdp_cybrbll","Wed Mar 29 2023 09:20:18 GMT-0700 (Pacific Daylight Time)","447126","1","3","animation","80","114128","0.0-5.0-2.37","","","","","","188","","","","1","3","[{""stimulus"":""img/1to3/1.png"",""time"":102},{""stimulus"":""img/1to3/2.png"",""time"":203},{""stimulus"":""img/1to3/3.png"",""time"":305},{""stimulus"":""img/1to3/4.png"",""time"":407},{""stimulus"":""img/1to3/5.png"",""time"":508},{""stimulus"":""img/1to3/6.png"",""time"":609},{""stimulus"":""img/1to3/7.png"",""time"":712},{""stimulus"":""img/1to3/8.png"",""time"":813},{""stimulus"":""img/1to3/9.png"",""time"":912},{""stimulus"":""img/1to3/10.png"",""time"":1014},{""stimulus"":""img/1to3/11.png"",""time"":1114},{""stimulus"":""img/1to3/12.png"",""time"":1214}]","[]"
"","","","observe","612fbc37af2136fe81fc71a9","bdp_cybrbll","Wed Mar 29 2023 09:20:18 GMT-0700 (Pacific Daylight Time)","447126","1","3","image-keyboard-response","81","114894","0.0-5.0-1.38","","null","","img/3to2/1.png","null","187","764","0.5","0.5","3","1","",""
"","","","","612fbc37af2136fe81fc71a9","bdp_cybrbll","Wed Mar 29 2023 09:20:18 GMT-0700 (Pacific Daylight Time)","447126","1","3","animation","82","116211","0.0-5.0-2.38","","","","","","187","","","","3","1","[{""stimulus"":""img/3to1/1.png"",""time"":100},{""stimulus"":""img/3to1/2.png"",""time"":200},{""stimulus"":""img/3to1/3.png"",""time"":302},{""stimulus"":""img/3to1/4.png"",""time"":403},{""stimulus"":""img/3to1/5.png"",""time"":506},{""stimulus"":""img/3to1/6.png"",""time"":610},{""stimulus"":""img/3to1/7.png"",""time"":711},{""stimulus"":""img/3to1/8.png"",""time"":813},{""stimulus"":""img/3to1/9.png"",""time"":915},{""stimulus"":""img/3to1/10.png"",""time"":1016},{""stimulus"":""img/3to1/11.png"",""time"":1116},{""stimulus"":""img/3to1/12.png"",""time"":1216}]","[]"
"","","","observe","612fbc37af2136fe81fc71a9","bdp_cybrbll","Wed Mar 29 2023 09:20:18 GMT-0700 (Pacific Daylight Time)","447126","1","3","image-keyboard-response","83","116896","0.0-5.0-1.39","","null","","img/1to3/1.png","null","186","682","0.5","0.5","1","3","",""
"","","","","612fbc37af2136fe81fc71a9","bdp_cybrbll","Wed Mar 29 2023 09:20:18 GMT-0700 (Pacific Daylight Time)","447126","1","3","animation","84","118216","0.0-5.0-2.39","","","","","","186","","","","1","3","[{""stimulus"":""img/1to3/1.png"",""time"":101},{""stimulus"":""img/1to3/2.png"",""time"":200},{""stimulus"":""img/1to3/3.png"",""time"":304},{""stimulus"":""img/1to3/4.png"",""time"":406},{""stimulus"":""img/1to3/5.png"",""time"":508},{""stimulus"":""img/1to3/6.png"",""time"":609},{""stimulus"":""img/1to3/7.png"",""time"":711},{""stimulus"":""img/1to3/8.png"",""time"":812},{""stimulus"":""img/1to3/9.png"",""time"":914},{""stimulus"":""img/1to3/10.png"",""time"":1015},{""stimulus"":""img/1to3/11.png"",""time"":1116},{""stimulus"":""img/1to3/12.png"",""time"":1218}]","[]"
"","","","observe","612fbc37af2136fe81fc71a9","bdp_cybrbll","Wed Mar 29 2023 09:20:18 GMT-0700 (Pacific Daylight Time)","447126","1","3","image-keyboard-response","85","118486","0.0-5.0-1.40","","null","","img/3to2/1.png","null","185","265","0.5","0.5","3","1","",""
"","","","","612fbc37af2136fe81fc71a9","bdp_cybrbll","Wed Mar 29 2023 09:20:18 GMT-0700 (Pacific Daylight Time)","447126","1","3","animation","86","119807","0.0-5.0-2.40","","","","","","185","","","","3","1","[{""stimulus"":""img/3to1/1.png"",""time"":101},{""stimulus"":""img/3to1/2.png"",""time"":203},{""stimulus"":""img/3to1/3.png"",""time"":305},{""stimulus"":""img/3to1/4.png"",""time"":406},{""stimulus"":""img/3to1/5.png"",""time"":508},{""stimulus"":""img/3to1/6.png"",""time"":610},{""stimulus"":""img/3to1/7.png"",""time"":711},{""stimulus"":""img/3to1/8.png"",""time"":813},{""stimulus"":""img/3to1/9.png"",""time"":915},{""stimulus"":""img/3to1/10.png"",""time"":1016},{""stimulus"":""img/3to1/11.png"",""time"":1120},{""stimulus"":""img/3to1/12.png"",""time"":1219}]","[]"
"","","","observe","612fbc37af2136fe81fc71a9","bdp_cybrbll","Wed Mar 29 2023 09:20:18 GMT-0700 (Pacific Daylight Time)","447126","1","3","image-keyboard-response","87","120419","0.0-5.0-1.41","","null","","img/1to3/1.png","null","184","609","0.5","0.5","1","2","",""
"","","","","612fbc37af2136fe81fc71a9","bdp_cybrbll","Wed Mar 29 2023 09:20:18 GMT-0700 (Pacific Daylight Time)","447126","1","3","animation","88","121739","0.0-5.0-2.41","","","","","","184","","","","1","2","[{""stimulus"":""img/1to2/1.png"",""time"":102},{""stimulus"":""img/1to2/2.png"",""time"":203},{""stimulus"":""img/1to2/3.png"",""time"":304},{""stimulus"":""img/1to2/4.png"",""time"":406},{""stimulus"":""img/1to2/5.png"",""time"":508},{""stimulus"":""img/1to2/6.png"",""time"":609},{""stimulus"":""img/1to2/7.png"",""time"":708},{""stimulus"":""img/1to2/8.png"",""time"":809},{""stimulus"":""img/1to2/9.png"",""time"":913},{""stimulus"":""img/1to2/10.png"",""time"":1016},{""stimulus"":""img/1to2/11.png"",""time"":1117},{""stimulus"":""img/1to2/12.png"",""time"":1219}]","[]"
"","","","choice","612fbc37af2136fe81fc71a9","bdp_cybrbll","Wed Mar 29 2023 09:20:18 GMT-0700 (Pacific Daylight Time)","447126","1","3","image-keyboard-response","89","121868","0.0-5.0-1.42","","128","","img/2to1/1.png","1","183","350","0.5","0.5","2","1","",""
"","","","","612fbc37af2136fe81fc71a9","bdp_cybrbll","Wed Mar 29 2023 09:20:18 GMT-0700 (Pacific Daylight Time)","447126","1","3","animation","90","123178","0.0-5.0-2.42","","","","","","183","","","","2","1","[{""stimulus"":""img/2to1/1.png"",""time"":101},{""stimulus"":""img/2to1/2.png"",""time"":203},{""stimulus"":""img/2to1/3.png"",""time"":301},{""stimulus"":""img/2to1/4.png"",""time"":401},{""stimulus"":""img/2to1/5.png"",""time"":502},{""stimulus"":""img/2to1/6.png"",""time"":602},{""stimulus"":""img/2to1/7.png"",""time"":702},{""stimulus"":""img/2to1/8.png"",""time"":803},{""stimulus"":""img/2to1/9.png"",""time"":904},{""stimulus"":""img/2to1/10.png"",""time"":1004},{""stimulus"":""img/2to1/11.png"",""time"":1107},{""stimulus"":""img/2to1/12.png"",""time"":1209}]","[]"
"","","","observe","612fbc37af2136fe81fc71a9","bdp_cybrbll","Wed Mar 29 2023 09:20:18 GMT-0700 (Pacific Daylight Time)","447126","1","3","image-keyboard-response","91","123655","0.0-5.0-1.43","","null","","img/1to3/1.png","null","182","473","0.5","0.5","1","3","",""
"","","","","612fbc37af2136fe81fc71a9","bdp_cybrbll","Wed Mar 29 2023 09:20:18 GMT-0700 (Pacific Daylight Time)","447126","1","3","animation","92","124977","0.0-5.0-2.43","","","","","","182","","","","1","3","[{""stimulus"":""img/1to3/1.png"",""time"":104},{""stimulus"":""img/1to3/2.png"",""time"":206},{""stimulus"":""img/1to3/3.png"",""time"":307},{""stimulus"":""img/1to3/4.png"",""time"":409},{""stimulus"":""img/1to3/5.png"",""time"":510},{""stimulus"":""img/1to3/6.png"",""time"":611},{""stimulus"":""img/1to3/7.png"",""time"":711},{""stimulus"":""img/1to3/8.png"",""time"":816},{""stimulus"":""img/1to3/9.png"",""time"":919},{""stimulus"":""img/1to3/10.png"",""time"":1021},{""stimulus"":""img/1to3/11.png"",""time"":1122},{""stimulus"":""img/1to3/12.png"",""time"":1223}]","[]"
"","","","observe","612fbc37af2136fe81fc71a9","bdp_cybrbll","Wed Mar 29 2023 09:20:18 GMT-0700 (Pacific Daylight Time)","447126","1","3","image-keyboard-response","93","125216","0.0-5.0-1.44","","null","","img/3to2/1.png","null","181","236","0.5","0.5","3","2","",""
"","","","","612fbc37af2136fe81fc71a9","bdp_cybrbll","Wed Mar 29 2023 09:20:18 GMT-0700 (Pacific Daylight Time)","447126","1","3","animation","94","126544","0.0-5.0-2.44","","","","","","181","","","","3","2","[{""stimulus"":""img/3to2/1.png"",""time"":101},{""stimulus"":""img/3to2/2.png"",""time"":203},{""stimulus"":""img/3to2/3.png"",""time"":304},{""stimulus"":""img/3to2/4.png"",""time"":408},{""stimulus"":""img/3to2/5.png"",""time"":511},{""stimulus"":""img/3to2/6.png"",""time"":612},{""stimulus"":""img/3to2/7.png"",""time"":714},{""stimulus"":""img/3to2/8.png"",""time"":815},{""stimulus"":""img/3to2/9.png"",""time"":918},{""stimulus"":""img/3to2/10.png"",""time"":1021},{""stimulus"":""img/3to2/11.png"",""time"":1121},{""stimulus"":""img/3to2/12.png"",""time"":1225}]","[]"
"","","","choice","612fbc37af2136fe81fc71a9","bdp_cybrbll","Wed Mar 29 2023 09:20:18 GMT-0700 (Pacific Daylight Time)","447126","1","3","image-keyboard-response","95","126779","0.0-5.0-1.45","","233","","img/2to1/1.png","2","180","799","0.5","0.5","2","3","",""
"","","","","612fbc37af2136fe81fc71a9","bdp_cybrbll","Wed Mar 29 2023 09:20:18 GMT-0700 (Pacific Daylight Time)","447126","1","3","animation","96","128100","0.0-5.0-2.45","","","","","","180","","","","2","3","[{""stimulus"":""img/2to3/1.png"",""time"":100},{""stimulus"":""img/2to3/2.png"",""time"":201},{""stimulus"":""img/2to3/3.png"",""time"":302},{""stimulus"":""img/2to3/4.png"",""time"":404},{""stimulus"":""img/2to3/5.png"",""time"":507},{""stimulus"":""img/2to3/6.png"",""time"":611},{""stimulus"":""img/2to3/7.png"",""time"":712},{""stimulus"":""img/2to3/8.png"",""time"":813},{""stimulus"":""img/2to3/9.png"",""time"":914},{""stimulus"":""img/2to3/10.png"",""time"":1016},{""stimulus"":""img/2to3/11.png"",""time"":1118},{""stimulus"":""img/2to3/12.png"",""time"":1220}]","[]"
"","","","observe","612fbc37af2136fe81fc71a9","bdp_cybrbll","Wed Mar 29 2023 09:20:18 GMT-0700 (Pacific Daylight Time)","447126","1","3","image-keyboard-response","97","129020","0.0-5.0-1.46","","null","","img/3to2/1.png","null","179","919","0.5","0.5","3","1","",""
"","","","","612fbc37af2136fe81fc71a9","bdp_cybrbll","Wed Mar 29 2023 09:20:18 GMT-0700 (Pacific Daylight Time)","447126","1","3","animation","98","130340","0.0-5.0-2.46","","","","","","179","","","","3","1","[{""stimulus"":""img/3to1/1.png"",""time"":101},{""stimulus"":""img/3to1/2.png"",""time"":203},{""stimulus"":""img/3to1/3.png"",""time"":304},{""stimulus"":""img/3to1/4.png"",""time"":407},{""stimulus"":""img/3to1/5.png"",""time"":507},{""stimulus"":""img/3to1/6.png"",""time"":609},{""stimulus"":""img/3to1/7.png"",""time"":711},{""stimulus"":""img/3to1/8.png"",""time"":812},{""stimulus"":""img/3to1/9.png"",""time"":914},{""stimulus"":""img/3to1/10.png"",""time"":1015},{""stimulus"":""img/3to1/11.png"",""time"":1118},{""stimulus"":""img/3to1/12.png"",""time"":1219}]","[]"
"","","","observe","612fbc37af2136fe81fc71a9","bdp_cybrbll","Wed Mar 29 2023 09:20:18 GMT-0700 (Pacific Daylight Time)","447126","1","3","image-keyboard-response","99","131175","0.0-5.0-1.47","","null","","img/1to3/1.png","null","178","835","0.5","0.5","1","3","",""
"","","","","612fbc37af2136fe81fc71a9","bdp_cybrbll","Wed Mar 29 2023 09:20:18 GMT-0700 (Pacific Daylight Time)","447126","1","3","animation","100","132497","0.0-5.0-2.47","","","","","","178","","","","1","3","[{""stimulus"":""img/1to3/1.png"",""time"":104},{""stimulus"":""img/1to3/2.png"",""time"":205},{""stimulus"":""img/1to3/3.png"",""time"":308},{""stimulus"":""img/1to3/4.png"",""time"":408},{""stimulus"":""img/1to3/5.png"",""time"":508},{""stimulus"":""img/1to3/6.png"",""time"":609},{""stimulus"":""img/1to3/7.png"",""time"":711},{""stimulus"":""img/1to3/8.png"",""time"":813},{""stimulus"":""img/1to3/9.png"",""time"":915},{""stimulus"":""img/1to3/10.png"",""time"":1016},{""stimulus"":""img/1to3/11.png"",""time"":1117},{""stimulus"":""img/1to3/12.png"",""time"":1219}]","[]"
"","","","observe","612fbc37af2136fe81fc71a9","bdp_cybrbll","Wed Mar 29 2023 09:20:18 GMT-0700 (Pacific Daylight Time)","447126","1","3","image-keyboard-response","101","133050","0.0-5.0-1.48","","null","","img/3to2/1.png","null","177","549","0.5","0.5","3","1","",""
"","","","","612fbc37af2136fe81fc71a9","bdp_cybrbll","Wed Mar 29 2023 09:20:18 GMT-0700 (Pacific Daylight Time)","447126","1","3","animation","102","134371","0.0-5.0-2.48","","","","","","177","","","","3","1","[{""stimulus"":""img/3to1/1.png"",""time"":102},{""stimulus"":""img/3to1/2.png"",""time"":203},{""stimulus"":""img/3to1/3.png"",""time"":305},{""stimulus"":""img/3to1/4.png"",""time"":406},{""stimulus"":""img/3to1/5.png"",""time"":508},{""stimulus"":""img/3to1/6.png"",""time"":610},{""stimulus"":""img/3to1/7.png"",""time"":709},{""stimulus"":""img/3to1/8.png"",""time"":813},{""stimulus"":""img/3to1/9.png"",""time"":914},{""stimulus"":""img/3to1/10.png"",""time"":1016},{""stimulus"":""img/3to1/11.png"",""time"":1117},{""stimulus"":""img/3to1/12.png"",""time"":1219}]","[]"
"","","","observe","612fbc37af2136fe81fc71a9","bdp_cybrbll","Wed Mar 29 2023 09:20:18 GMT-0700 (Pacific Daylight Time)","447126","1","3","image-keyboard-response","103","134806","0.0-5.0-1.49","","null","","img/1to3/1.png","null","176","432","0.5","0.5","1","3","",""
"","","","","612fbc37af2136fe81fc71a9","bdp_cybrbll","Wed Mar 29 2023 09:20:18 GMT-0700 (Pacific Daylight Time)","447126","1","3","animation","104","136123","0.0-5.0-2.49","","","","","","176","","","","1","3","[{""stimulus"":""img/1to3/1.png"",""time"":101},{""stimulus"":""img/1to3/2.png"",""time"":203},{""stimulus"":""img/1to3/3.png"",""time"":305},{""stimulus"":""img/1to3/4.png"",""time"":404},{""stimulus"":""img/1to3/5.png"",""time"":505},{""stimulus"":""img/1to3/6.png"",""time"":607},{""stimulus"":""img/1to3/7.png"",""time"":708},{""stimulus"":""img/1to3/8.png"",""time"":812},{""stimulus"":""img/1to3/9.png"",""time"":911},{""stimulus"":""img/1to3/10.png"",""time"":1012},{""stimulus"":""img/1to3/11.png"",""time"":1114},{""stimulus"":""img/1to3/12.png"",""time"":1216}]","[]"
"","","","observe","612fbc37af2136fe81fc71a9","bdp_cybrbll","Wed Mar 29 2023 09:20:18 GMT-0700 (Pacific Daylight Time)","447126","1","3","image-keyboard-response","105","136587","0.0-5.0-1.50","","null","","img/3to2/1.png","null","175","463","0.5","0.5","3","1","",""
"","","","","612fbc37af2136fe81fc71a9","bdp_cybrbll","Wed Mar 29 2023 09:20:18 GMT-0700 (Pacific Daylight Time)","447126","1","3","animation","106","137902","0.0-5.0-2.50","","","","","","175","","","","3","1","[{""stimulus"":""img/3to1/1.png"",""time"":102},{""stimulus"":""img/3to1/2.png"",""time"":202},{""stimulus"":""img/3to1/3.png"",""time"":302},{""stimulus"":""img/3to1/4.png"",""time"":402},{""stimulus"":""img/3to1/5.png"",""time"":505},{""stimulus"":""img/3to1/6.png"",""time"":606},{""stimulus"":""img/3to1/7.png"",""time"":707},{""stimulus"":""img/3to1/8.png"",""time"":807},{""stimulus"":""img/3to1/9.png"",""time"":910},{""stimulus"":""img/3to1/10.png"",""time"":1009},{""stimulus"":""img/3to1/11.png"",""time"":1111},{""stimulus"":""img/3to1/12.png"",""time"":1212}]","[]"
"","","","observe","612fbc37af2136fe81fc71a9","bdp_cybrbll","Wed Mar 29 2023 09:20:18 GMT-0700 (Pacific Daylight Time)","447126","1","3","image-keyboard-response","107","138311","0.0-5.0-1.51","","null","","img/1to3/1.png","null","174","406","0.5","0.5","1","3","",""
"","","","","612fbc37af2136fe81fc71a9","bdp_cybrbll","Wed Mar 29 2023 09:20:18 GMT-0700 (Pacific Daylight Time)","447126","1","3","animation","108","139635","0.0-5.0-2.51","","","","","","174","","","","1","3","[{""stimulus"":""img/1to3/1.png"",""time"":102},{""stimulus"":""img/1to3/2.png"",""time"":206},{""stimulus"":""img/1to3/3.png"",""time"":309},{""stimulus"":""img/1to3/4.png"",""time"":410},{""stimulus"":""img/1to3/5.png"",""time"":511},{""stimulus"":""img/1to3/6.png"",""time"":615},{""stimulus"":""img/1to3/7.png"",""time"":714},{""stimulus"":""img/1to3/8.png"",""time"":815},{""stimulus"":""img/1to3/9.png"",""time"":917},{""stimulus"":""img/1to3/10.png"",""time"":1019},{""stimulus"":""img/1to3/11.png"",""time"":1120},{""stimulus"":""img/1to3/12.png"",""time"":1222}]","[]"
"","","","observe","612fbc37af2136fe81fc71a9","bdp_cybrbll","Wed Mar 29 2023 09:20:18 GMT-0700 (Pacific Daylight Time)","447126","1","3","image-keyboard-response","109","139887","0.0-5.0-1.52","","null","","img/3to2/1.png","null","173","250","0.5","0.5","3","2","",""
"","","","","612fbc37af2136fe81fc71a9","bdp_cybrbll","Wed Mar 29 2023 09:20:18 GMT-0700 (Pacific Daylight Time)","447126","1","3","animation","110","141210","0.0-5.0-2.52","","","","","","173","","","","3","2","[{""stimulus"":""img/3to2/1.png"",""time"":100},{""stimulus"":""img/3to2/2.png"",""time"":203},{""stimulus"":""img/3to2/3.png"",""time"":305},{""stimulus"":""img/3to2/4.png"",""time"":406},{""stimulus"":""img/3to2/5.png"",""time"":508},{""stimulus"":""img/3to2/6.png"",""time"":609},{""stimulus"":""img/3to2/7.png"",""time"":712},{""stimulus"":""img/3to2/8.png"",""time"":813},{""stimulus"":""img/3to2/9.png"",""time"":915},{""stimulus"":""img/3to2/10.png"",""time"":1019},{""stimulus"":""img/3to2/11.png"",""time"":1120},{""stimulus"":""img/3to2/12.png"",""time"":1222}]","[]"
"","","","choice","612fbc37af2136fe81fc71a9","bdp_cybrbll","Wed Mar 29 2023 09:20:18 GMT-0700 (Pacific Daylight Time)","447126","1","3","image-keyboard-response","111","141395","0.0-5.0-1.53","","184","","img/2to1/1.png","1","172","511","0.5","0.5","2","1","",""
"","","","","612fbc37af2136fe81fc71a9","bdp_cybrbll","Wed Mar 29 2023 09:20:18 GMT-0700 (Pacific Daylight Time)","447126","1","3","animation","112","142708","0.0-5.0-2.53","","","","","","172","","","","2","1","[{""stimulus"":""img/2to1/1.png"",""time"":102},{""stimulus"":""img/2to1/2.png"",""time"":203},{""stimulus"":""img/2to1/3.png"",""time"":307},{""stimulus"":""img/2to1/4.png"",""time"":406},{""stimulus"":""img/2to1/5.png"",""time"":508},{""stimulus"":""img/2to1/6.png"",""time"":609},{""stimulus"":""img/2to1/7.png"",""time"":710},{""stimulus"":""img/2to1/8.png"",""time"":810},{""stimulus"":""img/2to1/9.png"",""time"":910},{""stimulus"":""img/2to1/10.png"",""time"":1009},{""stimulus"":""img/2to1/11.png"",""time"":1110},{""stimulus"":""img/2to1/12.png"",""time"":1210}]","[]"
"","","","observe","612fbc37af2136fe81fc71a9","bdp_cybrbll","Wed Mar 29 2023 09:20:18 GMT-0700 (Pacific Daylight Time)","447126","1","3","image-keyboard-response","113","143000","0.0-5.0-1.54","","null","","img/1to3/1.png","null","171","289","0.5","0.5","1","3","",""
"","","","","612fbc37af2136fe81fc71a9","bdp_cybrbll","Wed Mar 29 2023 09:20:18 GMT-0700 (Pacific Daylight Time)","447126","1","3","animation","114","144318","0.0-5.0-2.54","","","","","","171","","","","1","3","[{""stimulus"":""img/1to3/1.png"",""time"":102},{""stimulus"":""img/1to3/2.png"",""time"":204},{""stimulus"":""img/1to3/3.png"",""time"":305},{""stimulus"":""img/1to3/4.png"",""time"":404},{""stimulus"":""img/1to3/5.png"",""time"":506},{""stimulus"":""img/1to3/6.png"",""time"":607},{""stimulus"":""img/1to3/7.png"",""time"":706},{""stimulus"":""img/1to3/8.png"",""time"":807},{""stimulus"":""img/1to3/9.png"",""time"":911},{""stimulus"":""img/1to3/10.png"",""time"":1013},{""stimulus"":""img/1to3/11.png"",""time"":1115},{""stimulus"":""img/1to3/12.png"",""time"":1217}]","[]"
"","","","observe","612fbc37af2136fe81fc71a9","bdp_cybrbll","Wed Mar 29 2023 09:20:18 GMT-0700 (Pacific Daylight Time)","447126","1","3","image-keyboard-response","115","144765","0.0-5.0-1.55","","null","","img/3to2/1.png","null","170","445","0.5","0.5","3","1","",""
"","","","","612fbc37af2136fe81fc71a9","bdp_cybrbll","Wed Mar 29 2023 09:20:18 GMT-0700 (Pacific Daylight Time)","447126","1","3","animation","116","146085","0.0-5.0-2.55","","","","","","170","","","","3","1","[{""stimulus"":""img/3to1/1.png"",""time"":103},{""stimulus"":""img/3to1/2.png"",""time"":204},{""stimulus"":""img/3to1/3.png"",""time"":308},{""stimulus"":""img/3to1/4.png"",""time"":411},{""stimulus"":""img/3to1/5.png"",""time"":513},{""stimulus"":""img/3to1/6.png"",""time"":614},{""stimulus"":""img/3to1/7.png"",""time"":715},{""stimulus"":""img/3to1/8.png"",""time"":816},{""stimulus"":""img/3to1/9.png"",""time"":916},{""stimulus"":""img/3to1/10.png"",""time"":1018},{""stimulus"":""img/3to1/11.png"",""time"":1116},{""stimulus"":""img/3to1/12.png"",""time"":1217}]","[]"
"","","","observe","612fbc37af2136fe81fc71a9","bdp_cybrbll","Wed Mar 29 2023 09:20:18 GMT-0700 (Pacific Daylight Time)","447126","1","3","image-keyboard-response","117","146236","0.0-5.0-1.56","","null","","img/1to3/1.png","null","169","149","0.5","0.5","1","3","",""
"","","","","612fbc37af2136fe81fc71a9","bdp_cybrbll","Wed Mar 29 2023 09:20:18 GMT-0700 (Pacific Daylight Time)","447126","1","3","animation","118","147553","0.0-5.0-2.56","","","","","","169","","","","1","3","[{""stimulus"":""img/1to3/1.png"",""time"":101},{""stimulus"":""img/1to3/2.png"",""time"":202},{""stimulus"":""img/1to3/3.png"",""time"":304},{""stimulus"":""img/1to3/4.png"",""time"":406},{""stimulus"":""img/1to3/5.png"",""time"":507},{""stimulus"":""img/1to3/6.png"",""time"":610},{""stimulus"":""img/1to3/7.png"",""time"":710},{""stimulus"":""img/1to3/8.png"",""time"":811},{""stimulus"":""img/1to3/9.png"",""time"":913},{""stimulus"":""img/1to3/10.png"",""time"":1014},{""stimulus"":""img/1to3/11.png"",""time"":1116},{""stimulus"":""img/1to3/12.png"",""time"":1215}]","[]"
"","","","observe","612fbc37af2136fe81fc71a9","bdp_cybrbll","Wed Mar 29 2023 09:20:18 GMT-0700 (Pacific Daylight Time)","447126","1","3","image-keyboard-response","119","147747","0.0-5.0-1.57","","null","","img/3to2/1.png","null","168","191","0.5","0.5","3","2","",""
"","","","","612fbc37af2136fe81fc71a9","bdp_cybrbll","Wed Mar 29 2023 09:20:18 GMT-0700 (Pacific Daylight Time)","447126","1","3","animation","120","149068","0.0-5.0-2.57","","","","","","168","","","","3","2","[{""stimulus"":""img/3to2/1.png"",""time"":102},{""stimulus"":""img/3to2/2.png"",""time"":203},{""stimulus"":""img/3to2/3.png"",""time"":305},{""stimulus"":""img/3to2/4.png"",""time"":409},{""stimulus"":""img/3to2/5.png"",""time"":508},{""stimulus"":""img/3to2/6.png"",""time"":608},{""stimulus"":""img/3to2/7.png"",""time"":707},{""stimulus"":""img/3to2/8.png"",""time"":810},{""stimulus"":""img/3to2/9.png"",""time"":914},{""stimulus"":""img/3to2/10.png"",""time"":1016},{""stimulus"":""img/3to2/11.png"",""time"":1118},{""stimulus"":""img/3to2/12.png"",""time"":1219}]","[]"
"","","","choice","612fbc37af2136fe81fc71a9","bdp_cybrbll","Wed Mar 29 2023 09:20:18 GMT-0700 (Pacific Daylight Time)","447126","1","3","image-keyboard-response","121","149367","0.0-5.0-1.58","","298","","img/2to1/1.png","2","167","526","0.5","0.5","2","3","",""
"","","","","612fbc37af2136fe81fc71a9","bdp_cybrbll","Wed Mar 29 2023 09:20:18 GMT-0700 (Pacific Daylight Time)","447126","1","3","animation","122","150682","0.0-5.0-2.58","","","","","","167","","","","2","3","[{""stimulus"":""img/2to3/1.png"",""time"":100},{""stimulus"":""img/2to3/2.png"",""time"":202},{""stimulus"":""img/2to3/3.png"",""time"":303},{""stimulus"":""img/2to3/4.png"",""time"":406},{""stimulus"":""img/2to3/5.png"",""time"":505},{""stimulus"":""img/2to3/6.png"",""time"":606},{""stimulus"":""img/2to3/7.png"",""time"":707},{""stimulus"":""img/2to3/8.png"",""time"":811},{""stimulus"":""img/2to3/9.png"",""time"":910},{""stimulus"":""img/2to3/10.png"",""time"":1010},{""stimulus"":""img/2to3/11.png"",""time"":1111},{""stimulus"":""img/2to3/12.png"",""time"":1212}]","[]"
"","","","observe","612fbc37af2136fe81fc71a9","bdp_cybrbll","Wed Mar 29 2023 09:20:18 GMT-0700 (Pacific Daylight Time)","447126","1","3","image-keyboard-response","123","151747","0.0-5.0-1.59","","null","","img/3to2/1.png","null","166","1062","0.5","0.5","3","1","",""
"","","","","612fbc37af2136fe81fc71a9","bdp_cybrbll","Wed Mar 29 2023 09:20:18 GMT-0700 (Pacific Daylight Time)","447126","1","3","animation","124","153066","0.0-5.0-2.59","","","","","","166","","","","3","1","[{""stimulus"":""img/3to1/1.png"",""time"":102},{""stimulus"":""img/3to1/2.png"",""time"":202},{""stimulus"":""img/3to1/3.png"",""time"":304},{""stimulus"":""img/3to1/4.png"",""time"":407},{""stimulus"":""img/3to1/5.png"",""time"":508},{""stimulus"":""img/3to1/6.png"",""time"":609},{""stimulus"":""img/3to1/7.png"",""time"":711},{""stimulus"":""img/3to1/8.png"",""time"":813},{""stimulus"":""img/3to1/9.png"",""time"":914},{""stimulus"":""img/3to1/10.png"",""time"":1016},{""stimulus"":""img/3to1/11.png"",""time"":1117},{""stimulus"":""img/3to1/12.png"",""time"":1218}]","[]"
"","","","observe","612fbc37af2136fe81fc71a9","bdp_cybrbll","Wed Mar 29 2023 09:20:18 GMT-0700 (Pacific Daylight Time)","447126","1","3","image-keyboard-response","125","153397","0.0-5.0-1.60","","null","","img/1to3/1.png","null","165","330","0.5","0.5","1","3","",""
"","","","","612fbc37af2136fe81fc71a9","bdp_cybrbll","Wed Mar 29 2023 09:20:18 GMT-0700 (Pacific Daylight Time)","447126","1","3","animation","126","154722","0.0-5.0-2.60","","","","","","165","","","","1","3","[{""stimulus"":""img/1to3/1.png"",""time"":102},{""stimulus"":""img/1to3/2.png"",""time"":204},{""stimulus"":""img/1to3/3.png"",""time"":305},{""stimulus"":""img/1to3/4.png"",""time"":407},{""stimulus"":""img/1to3/5.png"",""time"":508},{""stimulus"":""img/1to3/6.png"",""time"":610},{""stimulus"":""img/1to3/7.png"",""time"":712},{""stimulus"":""img/1to3/8.png"",""time"":813},{""stimulus"":""img/1to3/9.png"",""time"":915},{""stimulus"":""img/1to3/10.png"",""time"":1016},{""stimulus"":""img/1to3/11.png"",""time"":1120},{""stimulus"":""img/1to3/12.png"",""time"":1222}]","[]"
"","","","observe","612fbc37af2136fe81fc71a9","bdp_cybrbll","Wed Mar 29 2023 09:20:18 GMT-0700 (Pacific Daylight Time)","447126","1","3","image-keyboard-response","127","155000","0.0-5.0-1.61","","null","","img/3to2/1.png","null","164","274","0.5","0.5","3","2","",""
"","","","","612fbc37af2136fe81fc71a9","bdp_cybrbll","Wed Mar 29 2023 09:20:18 GMT-0700 (Pacific Daylight Time)","447126","1","3","animation","128","156314","0.0-5.0-2.61","","","","","","164","","","","3","2","[{""stimulus"":""img/3to2/1.png"",""time"":104},{""stimulus"":""img/3to2/2.png"",""time"":205},{""stimulus"":""img/3to2/3.png"",""time"":307},{""stimulus"":""img/3to2/4.png"",""time"":406},{""stimulus"":""img/3to2/5.png"",""time"":507},{""stimulus"":""img/3to2/6.png"",""time"":609},{""stimulus"":""img/3to2/7.png"",""time"":710},{""stimulus"":""img/3to2/8.png"",""time"":812},{""stimulus"":""img/3to2/9.png"",""time"":911},{""stimulus"":""img/3to2/10.png"",""time"":1012},{""stimulus"":""img/3to2/11.png"",""time"":1113},{""stimulus"":""img/3to2/12.png"",""time"":1213}]","[]"
"","","","choice","612fbc37af2136fe81fc71a9","bdp_cybrbll","Wed Mar 29 2023 09:20:18 GMT-0700 (Pacific Daylight Time)","447126","1","3","image-keyboard-response","129","156374","0.0-5.0-1.62","","60","","img/2to1/1.png","1","163","1188","0.5","0.5","2","1","",""
"","","","","612fbc37af2136fe81fc71a9","bdp_cybrbll","Wed Mar 29 2023 09:20:18 GMT-0700 (Pacific Daylight Time)","447126","1","3","animation","130","157698","0.0-5.0-2.62","","","","","","163","","","","2","1","[{""stimulus"":""img/2to1/1.png"",""time"":102},{""stimulus"":""img/2to1/2.png"",""time"":203},{""stimulus"":""img/2to1/3.png"",""time"":305},{""stimulus"":""img/2to1/4.png"",""time"":406},{""stimulus"":""img/2to1/5.png"",""time"":507},{""stimulus"":""img/2to1/6.png"",""time"":609},{""stimulus"":""img/2to1/7.png"",""time"":711},{""stimulus"":""img/2to1/8.png"",""time"":814},{""stimulus"":""img/2to1/9.png"",""time"":917},{""stimulus"":""img/2to1/10.png"",""time"":1018},{""stimulus"":""img/2to1/11.png"",""time"":1119},{""stimulus"":""img/2to1/12.png"",""time"":1222}]","[]"
"","","","observe","612fbc37af2136fe81fc71a9","bdp_cybrbll","Wed Mar 29 2023 09:20:18 GMT-0700 (Pacific Daylight Time)","447126","1","3","image-keyboard-response","131","158006","0.0-5.0-1.63","","null","","img/1to3/1.png","null","162","303","0.5","0.5","1","3","",""
"","","","","612fbc37af2136fe81fc71a9","bdp_cybrbll","Wed Mar 29 2023 09:20:18 GMT-0700 (Pacific Daylight Time)","447126","1","3","animation","132","159323","0.0-5.0-2.63","","","","","","162","","","","1","3","[{""stimulus"":""img/1to3/1.png"",""time"":102},{""stimulus"":""img/1to3/2.png"",""time"":202},{""stimulus"":""img/1to3/3.png"",""time"":302},{""stimulus"":""img/1to3/4.png"",""time"":402},{""stimulus"":""img/1to3/5.png"",""time"":502},{""stimulus"":""img/1to3/6.png"",""time"":604},{""stimulus"":""img/1to3/7.png"",""time"":705},{""stimulus"":""img/1to3/8.png"",""time"":807},{""stimulus"":""img/1to3/9.png"",""time"":909},{""stimulus"":""img/1to3/10.png"",""time"":1013},{""stimulus"":""img/1to3/11.png"",""time"":1114},{""stimulus"":""img/1to3/12.png"",""time"":1215}]","[]"
"","","","observe","612fbc37af2136fe81fc71a9","bdp_cybrbll","Wed Mar 29 2023 09:20:18 GMT-0700 (Pacific Daylight Time)","447126","1","3","image-keyboard-response","133","159654","0.0-5.0-1.64","","null","","img/3to2/1.png","null","161","329","0.5","0.5","3","2","",""
"","","","","612fbc37af2136fe81fc71a9","bdp_cybrbll","Wed Mar 29 2023 09:20:18 GMT-0700 (Pacific Daylight Time)","447126","1","3","animation","134","160979","0.0-5.0-2.64","","","","","","161","","","","3","2","[{""stimulus"":""img/3to2/1.png"",""time"":104},{""stimulus"":""img/3to2/2.png"",""time"":206},{""stimulus"":""img/3to2/3.png"",""time"":308},{""stimulus"":""img/3to2/4.png"",""time"":409},{""stimulus"":""img/3to2/5.png"",""time"":511},{""stimulus"":""img/3to2/6.png"",""time"":613},{""stimulus"":""img/3to2/7.png"",""time"":714},{""stimulus"":""img/3to2/8.png"",""time"":816},{""stimulus"":""img/3to2/9.png"",""time"":917},{""stimulus"":""img/3to2/10.png"",""time"":1019},{""stimulus"":""img/3to2/11.png"",""time"":1119},{""stimulus"":""img/3to2/12.png"",""time"":1221}]","[]"
"","","","choice","612fbc37af2136fe81fc71a9","bdp_cybrbll","Wed Mar 29 2023 09:20:18 GMT-0700 (Pacific Daylight Time)","447126","1","3","image-keyboard-response","135","161157","0.0-5.0-1.65","","177","","img/2to1/1.png","1","160","630","0.5","0.5","2","1","",""
"","","","","612fbc37af2136fe81fc71a9","bdp_cybrbll","Wed Mar 29 2023 09:20:18 GMT-0700 (Pacific Daylight Time)","447126","1","3","animation","136","162473","0.0-5.0-2.65","","","","","","160","","","","2","1","[{""stimulus"":""img/2to1/1.png"",""time"":100},{""stimulus"":""img/2to1/2.png"",""time"":203},{""stimulus"":""img/2to1/3.png"",""time"":305},{""stimulus"":""img/2to1/4.png"",""time"":406},{""stimulus"":""img/2to1/5.png"",""time"":506},{""stimulus"":""img/2to1/6.png"",""time"":607},{""stimulus"":""img/2to1/7.png"",""time"":708},{""stimulus"":""img/2to1/8.png"",""time"":810},{""stimulus"":""img/2to1/9.png"",""time"":911},{""stimulus"":""img/2to1/10.png"",""time"":1011},{""stimulus"":""img/2to1/11.png"",""time"":1111},{""stimulus"":""img/2to1/12.png"",""time"":1214}]","[]"
"","","","observe","612fbc37af2136fe81fc71a9","bdp_cybrbll","Wed Mar 29 2023 09:20:18 GMT-0700 (Pacific Daylight Time)","447126","1","3","image-keyboard-response","137","162788","0.0-5.0-1.66","","null","","img/1to3/1.png","null","159","312","0.5","0.5","1","2","",""
"","","","","612fbc37af2136fe81fc71a9","bdp_cybrbll","Wed Mar 29 2023 09:20:18 GMT-0700 (Pacific Daylight Time)","447126","1","3","animation","138","164105","0.0-5.0-2.66","","","","","","159","","","","1","2","[{""stimulus"":""img/1to2/1.png"",""time"":100},{""stimulus"":""img/1to2/2.png"",""time"":200},{""stimulus"":""img/1to2/3.png"",""time"":302},{""stimulus"":""img/1to2/4.png"",""time"":403},{""stimulus"":""img/1to2/5.png"",""time"":504},{""stimulus"":""img/1to2/6.png"",""time"":606},{""stimulus"":""img/1to2/7.png"",""time"":707},{""stimulus"":""img/1to2/8.png"",""time"":809},{""stimulus"":""img/1to2/9.png"",""time"":911},{""stimulus"":""img/1to2/10.png"",""time"":1012},{""stimulus"":""img/1to2/11.png"",""time"":1114},{""stimulus"":""img/1to2/12.png"",""time"":1215}]","[]"
"","","","choice","612fbc37af2136fe81fc71a9","bdp_cybrbll","Wed Mar 29 2023 09:20:18 GMT-0700 (Pacific Daylight Time)","447126","1","3","image-keyboard-response","139","164228","0.0-5.0-1.67","","123","","img/2to1/1.png","2","158","507","0.5","0.5","2","3","",""
"","","","","612fbc37af2136fe81fc71a9","bdp_cybrbll","Wed Mar 29 2023 09:20:18 GMT-0700 (Pacific Daylight Time)","447126","1","3","animation","140","165541","0.0-5.0-2.67","","","","","","158","","","","2","3","[{""stimulus"":""img/2to3/1.png"",""time"":100},{""stimulus"":""img/2to3/2.png"",""time"":202},{""stimulus"":""img/2to3/3.png"",""time"":303},{""stimulus"":""img/2to3/4.png"",""time"":406},{""stimulus"":""img/2to3/5.png"",""time"":506},{""stimulus"":""img/2to3/6.png"",""time"":608},{""stimulus"":""img/2to3/7.png"",""time"":709},{""stimulus"":""img/2to3/8.png"",""time"":809},{""stimulus"":""img/2to3/9.png"",""time"":909},{""stimulus"":""img/2to3/10.png"",""time"":1011},{""stimulus"":""img/2to3/11.png"",""time"":1112},{""stimulus"":""img/2to3/12.png"",""time"":1214}]","[]"
"","","","observe","612fbc37af2136fe81fc71a9","bdp_cybrbll","Wed Mar 29 2023 09:20:18 GMT-0700 (Pacific Daylight Time)","447126","1","3","image-keyboard-response","141","165794","0.0-5.0-1.68","","null","","img/3to2/1.png","null","157","250","0.5","0.5","3","1","",""
"","","","","612fbc37af2136fe81fc71a9","bdp_cybrbll","Wed Mar 29 2023 09:20:18 GMT-0700 (Pacific Daylight Time)","447126","1","3","animation","142","167114","0.0-5.0-2.68","","","","","","157","","","","3","1","[{""stimulus"":""img/3to1/1.png"",""time"":104},{""stimulus"":""img/3to1/2.png"",""time"":206},{""stimulus"":""img/3to1/3.png"",""time"":308},{""stimulus"":""img/3to1/4.png"",""time"":409},{""stimulus"":""img/3to1/5.png"",""time"":509},{""stimulus"":""img/3to1/6.png"",""time"":608},{""stimulus"":""img/3to1/7.png"",""time"":711},{""stimulus"":""img/3to1/8.png"",""time"":813},{""stimulus"":""img/3to1/9.png"",""time"":912},{""stimulus"":""img/3to1/10.png"",""time"":1012},{""stimulus"":""img/3to1/11.png"",""time"":1116},{""stimulus"":""img/3to1/12.png"",""time"":1219}]","[]"
"","","","observe","612fbc37af2136fe81fc71a9","bdp_cybrbll","Wed Mar 29 2023 09:20:18 GMT-0700 (Pacific Daylight Time)","447126","1","3","image-keyboard-response","143","167363","0.0-5.0-1.69","","null","","img/1to3/1.png","null","156","247","0.5","0.5","1","2","",""
"","","","","612fbc37af2136fe81fc71a9","bdp_cybrbll","Wed Mar 29 2023 09:20:18 GMT-0700 (Pacific Daylight Time)","447126","1","3","animation","144","168685","0.0-5.0-2.69","","","","","","156","","","","1","2","[{""stimulus"":""img/1to2/1.png"",""time"":102},{""stimulus"":""img/1to2/2.png"",""time"":203},{""stimulus"":""img/1to2/3.png"",""time"":305},{""stimulus"":""img/1to2/4.png"",""time"":406},{""stimulus"":""img/1to2/5.png"",""time"":508},{""stimulus"":""img/1to2/6.png"",""time"":609},{""stimulus"":""img/1to2/7.png"",""time"":710},{""stimulus"":""img/1to2/8.png"",""time"":812},{""stimulus"":""img/1to2/9.png"",""time"":914},{""stimulus"":""img/1to2/10.png"",""time"":1015},{""stimulus"":""img/1to2/11.png"",""time"":1117},{""stimulus"":""img/1to2/12.png"",""time"":1219}]","[]"
"","","","choice","612fbc37af2136fe81fc71a9","bdp_cybrbll","Wed Mar 29 2023 09:20:18 GMT-0700 (Pacific Daylight Time)","447126","1","3","image-keyboard-response","145","168815","0.0-5.0-1.70","","128","","img/2to1/1.png","2","155","636","0.5","0.5","2","3","",""
"","","","","612fbc37af2136fe81fc71a9","bdp_cybrbll","Wed Mar 29 2023 09:20:18 GMT-0700 (Pacific Daylight Time)","447126","1","3","animation","146","170129","0.0-5.0-2.70","","","","","","155","","","","2","3","[{""stimulus"":""img/2to3/1.png"",""time"":104},{""stimulus"":""img/2to3/2.png"",""time"":204},{""stimulus"":""img/2to3/3.png"",""time"":304},{""stimulus"":""img/2to3/4.png"",""time"":406},{""stimulus"":""img/2to3/5.png"",""time"":507},{""stimulus"":""img/2to3/6.png"",""time"":609},{""stimulus"":""img/2to3/7.png"",""time"":711},{""stimulus"":""img/2to3/8.png"",""time"":810},{""stimulus"":""img/2to3/9.png"",""time"":914},{""stimulus"":""img/2to3/10.png"",""time"":1014},{""stimulus"":""img/2to3/11.png"",""time"":1114},{""stimulus"":""img/2to3/12.png"",""time"":1214}]","[]"
"","","","observe","612fbc37af2136fe81fc71a9","bdp_cybrbll","Wed Mar 29 2023 09:20:18 GMT-0700 (Pacific Daylight Time)","447126","1","3","image-keyboard-response","147","170461","0.0-5.0-1.71","","null","","img/3to2/1.png","null","154","331","0.5","0.5","3","1","",""
"","","","","612fbc37af2136fe81fc71a9","bdp_cybrbll","Wed Mar 29 2023 09:20:18 GMT-0700 (Pacific Daylight Time)","447126","1","3","animation","148","171774","0.0-5.0-2.71","","","","","","154","","","","3","1","[{""stimulus"":""img/3to1/1.png"",""time"":100},{""stimulus"":""img/3to1/2.png"",""time"":199},{""stimulus"":""img/3to1/3.png"",""time"":301},{""stimulus"":""img/3to1/4.png"",""time"":405},{""stimulus"":""img/3to1/5.png"",""time"":504},{""stimulus"":""img/3to1/6.png"",""time"":605},{""stimulus"":""img/3to1/7.png"",""time"":707},{""stimulus"":""img/3to1/8.png"",""time"":809},{""stimulus"":""img/3to1/9.png"",""time"":910},{""stimulus"":""img/3to1/10.png"",""time"":1011},{""stimulus"":""img/3to1/11.png"",""time"":1110},{""stimulus"":""img/3to1/12.png"",""time"":1212}]","[]"
"","","","observe","612fbc37af2136fe81fc71a9","bdp_cybrbll","Wed Mar 29 2023 09:20:18 GMT-0700 (Pacific Daylight Time)","447126","1","3","image-keyboard-response","149","172164","0.0-5.0-1.72","","null","","img/1to3/1.png","null","153","388","0.5","0.5","1","2","",""
"","","","","612fbc37af2136fe81fc71a9","bdp_cybrbll","Wed Mar 29 2023 09:20:18 GMT-0700 (Pacific Daylight Time)","447126","1","3","animation","150","173481","0.0-5.0-2.72","","","","","","153","","","","1","2","[{""stimulus"":""img/1to2/1.png"",""time"":101},{""stimulus"":""img/1to2/2.png"",""time"":203},{""stimulus"":""img/1to2/3.png"",""time"":304},{""stimulus"":""img/1to2/4.png"",""time"":406},{""stimulus"":""img/1to2/5.png"",""time"":507},{""stimulus"":""img/1to2/6.png"",""time"":607},{""stimulus"":""img/1to2/7.png"",""time"":711},{""stimulus"":""img/1to2/8.png"",""time"":812},{""stimulus"":""img/1to2/9.png"",""time"":914},{""stimulus"":""img/1to2/10.png"",""time"":1017},{""stimulus"":""img/1to2/11.png"",""time"":1117},{""stimulus"":""img/1to2/12.png"",""time"":1219}]","[]"
"","","","choice","612fbc37af2136fe81fc71a9","bdp_cybrbll","Wed Mar 29 2023 09:20:18 GMT-0700 (Pacific Daylight Time)","447126","1","3","image-keyboard-response","151","173749","0.0-5.0-1.73","","266","","img/2to1/1.png","2","152","736","0.5","0.5","2","3","",""
"","","","","612fbc37af2136fe81fc71a9","bdp_cybrbll","Wed Mar 29 2023 09:20:18 GMT-0700 (Pacific Daylight Time)","447126","1","3","animation","152","175066","0.0-5.0-2.73","","","","","","152","","","","2","3","[{""stimulus"":""img/2to3/1.png"",""time"":100},{""stimulus"":""img/2to3/2.png"",""time"":202},{""stimulus"":""img/2to3/3.png"",""time"":304},{""stimulus"":""img/2to3/4.png"",""time"":405},{""stimulus"":""img/2to3/5.png"",""time"":507},{""stimulus"":""img/2to3/6.png"",""time"":609},{""stimulus"":""img/2to3/7.png"",""time"":707},{""stimulus"":""img/2to3/8.png"",""time"":808},{""stimulus"":""img/2to3/9.png"",""time"":910},{""stimulus"":""img/2to3/10.png"",""time"":1010},{""stimulus"":""img/2to3/11.png"",""time"":1113},{""stimulus"":""img/2to3/12.png"",""time"":1215}]","[]"
"","","","observe","612fbc37af2136fe81fc71a9","bdp_cybrbll","Wed Mar 29 2023 09:20:18 GMT-0700 (Pacific Daylight Time)","447126","1","3","image-keyboard-response","153","175355","0.0-5.0-1.74","","null","","img/3to2/1.png","null","151","289","0.5","0.5","3","1","",""
"","","","","612fbc37af2136fe81fc71a9","bdp_cybrbll","Wed Mar 29 2023 09:20:18 GMT-0700 (Pacific Daylight Time)","447126","1","3","animation","154","176679","0.0-5.0-2.74","","","","","","151","","","","3","1","[{""stimulus"":""img/3to1/1.png"",""time"":100},{""stimulus"":""img/3to1/2.png"",""time"":200},{""stimulus"":""img/3to1/3.png"",""time"":303},{""stimulus"":""img/3to1/4.png"",""time"":402},{""stimulus"":""img/3to1/5.png"",""time"":506},{""stimulus"":""img/3to1/6.png"",""time"":607},{""stimulus"":""img/3to1/7.png"",""time"":709},{""stimulus"":""img/3to1/8.png"",""time"":810},{""stimulus"":""img/3to1/9.png"",""time"":915},{""stimulus"":""img/3to1/10.png"",""time"":1016},{""stimulus"":""img/3to1/11.png"",""time"":1119},{""stimulus"":""img/3to1/12.png"",""time"":1222}]","[]"
"","","","observe","612fbc37af2136fe81fc71a9","bdp_cybrbll","Wed Mar 29 2023 09:20:18 GMT-0700 (Pacific Daylight Time)","447126","1","3","image-keyboard-response","155","177307","0.0-5.0-1.75","","null","","img/1to3/1.png","null","150","627","0.5","0.5","1","2","",""
"","","","","612fbc37af2136fe81fc71a9","bdp_cybrbll","Wed Mar 29 2023 09:20:18 GMT-0700 (Pacific Daylight Time)","447126","1","3","animation","156","178626","0.0-5.0-2.75","","","","","","150","","","","1","2","[{""stimulus"":""img/1to2/1.png"",""time"":100},{""stimulus"":""img/1to2/2.png"",""time"":202},{""stimulus"":""img/1to2/3.png"",""time"":306},{""stimulus"":""img/1to2/4.png"",""time"":408},{""stimulus"":""img/1to2/5.png"",""time"":508},{""stimulus"":""img/1to2/6.png"",""time"":608},{""stimulus"":""img/1to2/7.png"",""time"":710},{""stimulus"":""img/1to2/8.png"",""time"":811},{""stimulus"":""img/1to2/9.png"",""time"":913},{""stimulus"":""img/1to2/10.png"",""time"":1014},{""stimulus"":""img/1to2/11.png"",""time"":1116},{""stimulus"":""img/1to2/12.png"",""time"":1217}]","[]"
"","","","choice","612fbc37af2136fe81fc71a9","bdp_cybrbll","Wed Mar 29 2023 09:20:18 GMT-0700 (Pacific Daylight Time)","447126","1","3","image-keyboard-response","157","178811","0.0-5.0-1.76","","184","","img/2to1/1.png","1","149","321","0.5","0.1","2","1","",""
"","","","","612fbc37af2136fe81fc71a9","bdp_cybrbll","Wed Mar 29 2023 09:20:18 GMT-0700 (Pacific Daylight Time)","447126","1","3","animation","158","180132","0.0-5.0-2.76","","","","","","149","","","","2","1","[{""stimulus"":""img/2to1/1.png"",""time"":99},{""stimulus"":""img/2to1/2.png"",""time"":200},{""stimulus"":""img/2to1/3.png"",""time"":303},{""stimulus"":""img/2to1/4.png"",""time"":404},{""stimulus"":""img/2to1/5.png"",""time"":505},{""stimulus"":""img/2to1/6.png"",""time"":607},{""stimulus"":""img/2to1/7.png"",""time"":708},{""stimulus"":""img/2to1/8.png"",""time"":812},{""stimulus"":""img/2to1/9.png"",""time"":914},{""stimulus"":""img/2to1/10.png"",""time"":1016},{""stimulus"":""img/2to1/11.png"",""time"":1117},{""stimulus"":""img/2to1/12.png"",""time"":1219}]","[]"
"","","","observe","612fbc37af2136fe81fc71a9","bdp_cybrbll","Wed Mar 29 2023 09:20:18 GMT-0700 (Pacific Daylight Time)","447126","1","3","image-keyboard-response","159","180477","0.0-5.0-1.77","","null","","img/1to3/1.png","null","148","344","0.5","0.1","1","2","",""
"","","","","612fbc37af2136fe81fc71a9","bdp_cybrbll","Wed Mar 29 2023 09:20:18 GMT-0700 (Pacific Daylight Time)","447126","1","3","animation","160","181797","0.0-5.0-2.77","","","","","","148","","","","1","2","[{""stimulus"":""img/1to2/1.png"",""time"":102},{""stimulus"":""img/1to2/2.png"",""time"":203},{""stimulus"":""img/1to2/3.png"",""time"":305},{""stimulus"":""img/1to2/4.png"",""time"":408},{""stimulus"":""img/1to2/5.png"",""time"":508},{""stimulus"":""img/1to2/6.png"",""time"":610},{""stimulus"":""img/1to2/7.png"",""time"":711},{""stimulus"":""img/1to2/8.png"",""time"":813},{""stimulus"":""img/1to2/9.png"",""time"":914},{""stimulus"":""img/1to2/10.png"",""time"":1015},{""stimulus"":""img/1to2/11.png"",""time"":1117},{""stimulus"":""img/1to2/12.png"",""time"":1219}]","[]"
"","","","choice","612fbc37af2136fe81fc71a9","bdp_cybrbll","Wed Mar 29 2023 09:20:18 GMT-0700 (Pacific Daylight Time)","447126","1","3","image-keyboard-response","161","181906","0.0-5.0-1.78","","108","","img/2to1/1.png","2","147","350","0.5","0.1","2","3","",""
"","","","","612fbc37af2136fe81fc71a9","bdp_cybrbll","Wed Mar 29 2023 09:20:18 GMT-0700 (Pacific Daylight Time)","447126","1","3","animation","162","183228","0.0-5.0-2.78","","","","","","147","","","","2","3","[{""stimulus"":""img/2to3/1.png"",""time"":100},{""stimulus"":""img/2to3/2.png"",""time"":201},{""stimulus"":""img/2to3/3.png"",""time"":304},{""stimulus"":""img/2to3/4.png"",""time"":406},{""stimulus"":""img/2to3/5.png"",""time"":509},{""stimulus"":""img/2to3/6.png"",""time"":612},{""stimulus"":""img/2to3/7.png"",""time"":712},{""stimulus"":""img/2to3/8.png"",""time"":814},{""stimulus"":""img/2to3/9.png"",""time"":914},{""stimulus"":""img/2to3/10.png"",""time"":1018},{""stimulus"":""img/2to3/11.png"",""time"":1121},{""stimulus"":""img/2to3/12.png"",""time"":1221}]","[]"
"","","","observe","612fbc37af2136fe81fc71a9","bdp_cybrbll","Wed Mar 29 2023 09:20:18 GMT-0700 (Pacific Daylight Time)","447126","1","3","image-keyboard-response","163","183547","0.0-5.0-1.79","","null","","img/3to2/1.png","null","146","317","0.5","0.1","3","2","",""
"","","","","612fbc37af2136fe81fc71a9","bdp_cybrbll","Wed Mar 29 2023 09:20:18 GMT-0700 (Pacific Daylight Time)","447126","1","3","animation","164","184866","0.0-5.0-2.79","","","","","","146","","","","3","2","[{""stimulus"":""img/3to2/1.png"",""time"":101},{""stimulus"":""img/3to2/2.png"",""time"":204},{""stimulus"":""img/3to2/3.png"",""time"":304},{""stimulus"":""img/3to2/4.png"",""time"":406},{""stimulus"":""img/3to2/5.png"",""time"":508},{""stimulus"":""img/3to2/6.png"",""time"":610},{""stimulus"":""img/3to2/7.png"",""time"":711},{""stimulus"":""img/3to2/8.png"",""time"":813},{""stimulus"":""img/3to2/9.png"",""time"":915},{""stimulus"":""img/3to2/10.png"",""time"":1016},{""stimulus"":""img/3to2/11.png"",""time"":1116},{""stimulus"":""img/3to2/12.png"",""time"":1219}]","[]"
"","","","choice","612fbc37af2136fe81fc71a9","bdp_cybrbll","Wed Mar 29 2023 09:20:18 GMT-0700 (Pacific Daylight Time)","447126","1","3","image-keyboard-response","165","184985","0.0-5.0-1.80","","119","","img/2to1/1.png","1","145","329","0.5","0.1","2","1","",""
"","","","","612fbc37af2136fe81fc71a9","bdp_cybrbll","Wed Mar 29 2023 09:20:18 GMT-0700 (Pacific Daylight Time)","447126","1","3","animation","166","186312","0.0-5.0-2.80","","","","","","145","","","","2","1","[{""stimulus"":""img/2to1/1.png"",""time"":105},{""stimulus"":""img/2to1/2.png"",""time"":208},{""stimulus"":""img/2to1/3.png"",""time"":309},{""stimulus"":""img/2to1/4.png"",""time"":411},{""stimulus"":""img/2to1/5.png"",""time"":510},{""stimulus"":""img/2to1/6.png"",""time"":613},{""stimulus"":""img/2to1/7.png"",""time"":715},{""stimulus"":""img/2to1/8.png"",""time"":818},{""stimulus"":""img/2to1/9.png"",""time"":922},{""stimulus"":""img/2to1/10.png"",""time"":1021},{""stimulus"":""img/2to1/11.png"",""time"":1124},{""stimulus"":""img/2to1/12.png"",""time"":1227}]","[]"
"","","","observe","612fbc37af2136fe81fc71a9","bdp_cybrbll","Wed Mar 29 2023 09:20:18 GMT-0700 (Pacific Daylight Time)","447126","1","3","image-keyboard-response","167","186803","0.0-5.0-1.81","","null","","img/1to3/1.png","null","144","489","0.5","0.1","1","3","",""
"","","","","612fbc37af2136fe81fc71a9","bdp_cybrbll","Wed Mar 29 2023 09:20:18 GMT-0700 (Pacific Daylight Time)","447126","1","3","animation","168","188123","0.0-5.0-2.81","","","","","","144","","","","1","3","[{""stimulus"":""img/1to3/1.png"",""time"":100},{""stimulus"":""img/1to3/2.png"",""time"":202},{""stimulus"":""img/1to3/3.png"",""time"":304},{""stimulus"":""img/1to3/4.png"",""time"":405},{""stimulus"":""img/1to3/5.png"",""time"":507},{""stimulus"":""img/1to3/6.png"",""time"":611},{""stimulus"":""img/1to3/7.png"",""time"":710},{""stimulus"":""img/1to3/8.png"",""time"":813},{""stimulus"":""img/1to3/9.png"",""time"":915},{""stimulus"":""img/1to3/10.png"",""time"":1017},{""stimulus"":""img/1to3/11.png"",""time"":1119},{""stimulus"":""img/1to3/12.png"",""time"":1219}]","[]"
"","","","observe","612fbc37af2136fe81fc71a9","bdp_cybrbll","Wed Mar 29 2023 09:20:18 GMT-0700 (Pacific Daylight Time)","447126","1","3","image-keyboard-response","169","188460","0.0-5.0-1.82","","null","","img/3to2/1.png","null","143","333","0.5","0.1","3","1","",""
"","","","","612fbc37af2136fe81fc71a9","bdp_cybrbll","Wed Mar 29 2023 09:20:18 GMT-0700 (Pacific Daylight Time)","447126","1","3","animation","170","189771","0.0-5.0-2.82","","","","","","143","","","","3","1","[{""stimulus"":""img/3to1/1.png"",""time"":101},{""stimulus"":""img/3to1/2.png"",""time"":201},{""stimulus"":""img/3to1/3.png"",""time"":302},{""stimulus"":""img/3to1/4.png"",""time"":402},{""stimulus"":""img/3to1/5.png"",""time"":502},{""stimulus"":""img/3to1/6.png"",""time"":603},{""stimulus"":""img/3to1/7.png"",""time"":703},{""stimulus"":""img/3to1/8.png"",""time"":804},{""stimulus"":""img/3to1/9.png"",""time"":905},{""stimulus"":""img/3to1/10.png"",""time"":1007},{""stimulus"":""img/3to1/11.png"",""time"":1108},{""stimulus"":""img/3to1/12.png"",""time"":1210}]","[]"
"","","","observe","612fbc37af2136fe81fc71a9","bdp_cybrbll","Wed Mar 29 2023 09:20:18 GMT-0700 (Pacific Daylight Time)","447126","1","3","image-keyboard-response","171","190395","0.0-5.0-1.83","","null","","img/1to3/1.png","null","142","619","0.5","0.1","1","3","",""
"","","","","612fbc37af2136fe81fc71a9","bdp_cybrbll","Wed Mar 29 2023 09:20:18 GMT-0700 (Pacific Daylight Time)","447126","1","3","animation","172","191715","0.0-5.0-2.83","","","","","","142","","","","1","3","[{""stimulus"":""img/1to3/1.png"",""time"":102},{""stimulus"":""img/1to3/2.png"",""time"":203},{""stimulus"":""img/1to3/3.png"",""time"":305},{""stimulus"":""img/1to3/4.png"",""time"":407},{""stimulus"":""img/1to3/5.png"",""time"":510},{""stimulus"":""img/1to3/6.png"",""time"":610},{""stimulus"":""img/1to3/7.png"",""time"":711},{""stimulus"":""img/1to3/8.png"",""time"":813},{""stimulus"":""img/1to3/9.png"",""time"":915},{""stimulus"":""img/1to3/10.png"",""time"":1015},{""stimulus"":""img/1to3/11.png"",""time"":1117},{""stimulus"":""img/1to3/12.png"",""time"":1219}]","[]"
"","","","observe","612fbc37af2136fe81fc71a9","bdp_cybrbll","Wed Mar 29 2023 09:20:18 GMT-0700 (Pacific Daylight Time)","447126","1","3","image-keyboard-response","173","191974","0.0-5.0-1.84","","null","","img/3to2/1.png","null","141","253","0.5","0.1","3","1","",""
"","","","","612fbc37af2136fe81fc71a9","bdp_cybrbll","Wed Mar 29 2023 09:20:18 GMT-0700 (Pacific Daylight Time)","447126","1","3","animation","174","193291","0.0-5.0-2.84","","","","","","141","","","","3","1","[{""stimulus"":""img/3to1/1.png"",""time"":101},{""stimulus"":""img/3to1/2.png"",""time"":202},{""stimulus"":""img/3to1/3.png"",""time"":305},{""stimulus"":""img/3to1/4.png"",""time"":408},{""stimulus"":""img/3to1/5.png"",""time"":508},{""stimulus"":""img/3to1/6.png"",""time"":607},{""stimulus"":""img/3to1/7.png"",""time"":708},{""stimulus"":""img/3to1/8.png"",""time"":812},{""stimulus"":""img/3to1/9.png"",""time"":911},{""stimulus"":""img/3to1/10.png"",""time"":1012},{""stimulus"":""img/3to1/11.png"",""time"":1114},{""stimulus"":""img/3to1/12.png"",""time"":1215}]","[]"
"","","","observe","612fbc37af2136fe81fc71a9","bdp_cybrbll","Wed Mar 29 2023 09:20:18 GMT-0700 (Pacific Daylight Time)","447126","1","3","image-keyboard-response","175","193825","0.0-5.0-1.85","","null","","img/1to3/1.png","null","140","530","0.5","0.1","1","3","",""
"","","","","612fbc37af2136fe81fc71a9","bdp_cybrbll","Wed Mar 29 2023 09:20:18 GMT-0700 (Pacific Daylight Time)","447126","1","3","animation","176","195145","0.0-5.0-2.85","","","","","","140","","","","1","3","[{""stimulus"":""img/1to3/1.png"",""time"":102},{""stimulus"":""img/1to3/2.png"",""time"":203},{""stimulus"":""img/1to3/3.png"",""time"":305},{""stimulus"":""img/1to3/4.png"",""time"":408},{""stimulus"":""img/1to3/5.png"",""time"":508},{""stimulus"":""img/1to3/6.png"",""time"":607},{""stimulus"":""img/1to3/7.png"",""time"":708},{""stimulus"":""img/1to3/8.png"",""time"":810},{""stimulus"":""img/1to3/9.png"",""time"":911},{""stimulus"":""img/1to3/10.png"",""time"":1013},{""stimulus"":""img/1to3/11.png"",""time"":1115},{""stimulus"":""img/1to3/12.png"",""time"":1218}]","[]"
"","","","observe","612fbc37af2136fe81fc71a9","bdp_cybrbll","Wed Mar 29 2023 09:20:18 GMT-0700 (Pacific Daylight Time)","447126","1","3","image-keyboard-response","177","195566","0.0-5.0-1.86","","null","","img/3to2/1.png","null","139","416","0.5","0.1","3","1","",""
"","","","","612fbc37af2136fe81fc71a9","bdp_cybrbll","Wed Mar 29 2023 09:20:18 GMT-0700 (Pacific Daylight Time)","447126","1","3","animation","178","196889","0.0-5.0-2.86","","","","","","139","","","","3","1","[{""stimulus"":""img/3to1/1.png"",""time"":102},{""stimulus"":""img/3to1/2.png"",""time"":204},{""stimulus"":""img/3to1/3.png"",""time"":307},{""stimulus"":""img/3to1/4.png"",""time"":409},{""stimulus"":""img/3to1/5.png"",""time"":513},{""stimulus"":""img/3to1/6.png"",""time"":613},{""stimulus"":""img/3to1/7.png"",""time"":713},{""stimulus"":""img/3to1/8.png"",""time"":815},{""stimulus"":""img/3to1/9.png"",""time"":917},{""stimulus"":""img/3to1/10.png"",""time"":1021},{""stimulus"":""img/3to1/11.png"",""time"":1120},{""stimulus"":""img/3to1/12.png"",""time"":1225}]","[]"
"","","","observe","612fbc37af2136fe81fc71a9","bdp_cybrbll","Wed Mar 29 2023 09:20:18 GMT-0700 (Pacific Daylight Time)","447126","1","3","image-keyboard-response","179","197771","0.0-5.0-1.87","","null","","img/1to3/1.png","null","138","881","0.5","0.1","1","3","",""
"","","","","612fbc37af2136fe81fc71a9","bdp_cybrbll","Wed Mar 29 2023 09:20:18 GMT-0700 (Pacific Daylight Time)","447126","1","3","animation","180","199086","0.0-5.0-2.87","","","","","","138","","","","1","3","[{""stimulus"":""img/1to3/1.png"",""time"":101},{""stimulus"":""img/1to3/2.png"",""time"":203},{""stimulus"":""img/1to3/3.png"",""time"":304},{""stimulus"":""img/1to3/4.png"",""time"":406},{""stimulus"":""img/1to3/5.png"",""time"":507},{""stimulus"":""img/1to3/6.png"",""time"":609},{""stimulus"":""img/1to3/7.png"",""time"":711},{""stimulus"":""img/1to3/8.png"",""time"":812},{""stimulus"":""img/1to3/9.png"",""time"":913},{""stimulus"":""img/1to3/10.png"",""time"":1015},{""stimulus"":""img/1to3/11.png"",""time"":1116},{""stimulus"":""img/1to3/12.png"",""time"":1216}]","[]"
"","","","observe","612fbc37af2136fe81fc71a9","bdp_cybrbll","Wed Mar 29 2023 09:20:18 GMT-0700 (Pacific Daylight Time)","447126","1","3","image-keyboard-response","181","199330","0.0-5.0-1.88","","null","","img/3to2/1.png","null","137","243","0.5","0.1","3","1","",""
"","","","","612fbc37af2136fe81fc71a9","bdp_cybrbll","Wed Mar 29 2023 09:20:18 GMT-0700 (Pacific Daylight Time)","447126","1","3","animation","182","200653","0.0-5.0-2.88","","","","","","137","","","","3","1","[{""stimulus"":""img/3to1/1.png"",""time"":102},{""stimulus"":""img/3to1/2.png"",""time"":205},{""stimulus"":""img/3to1/3.png"",""time"":307},{""stimulus"":""img/3to1/4.png"",""time"":409},{""stimulus"":""img/3to1/5.png"",""time"":511},{""stimulus"":""img/3to1/6.png"",""time"":612},{""stimulus"":""img/3to1/7.png"",""time"":714},{""stimulus"":""img/3to1/8.png"",""time"":815},{""stimulus"":""img/3to1/9.png"",""time"":917},{""stimulus"":""img/3to1/10.png"",""time"":1018},{""stimulus"":""img/3to1/11.png"",""time"":1120},{""stimulus"":""img/3to1/12.png"",""time"":1222}]","[]"
"","","","observe","612fbc37af2136fe81fc71a9","bdp_cybrbll","Wed Mar 29 2023 09:20:18 GMT-0700 (Pacific Daylight Time)","447126","1","3","image-keyboard-response","183","201254","0.0-5.0-1.89","","null","","img/1to3/1.png","null","136","599","0.5","0.1","1","3","",""
"","","","","612fbc37af2136fe81fc71a9","bdp_cybrbll","Wed Mar 29 2023 09:20:18 GMT-0700 (Pacific Daylight Time)","447126","1","3","animation","184","202568","0.0-5.0-2.89","","","","","","136","","","","1","3","[{""stimulus"":""img/1to3/1.png"",""time"":102},{""stimulus"":""img/1to3/2.png"",""time"":203},{""stimulus"":""img/1to3/3.png"",""time"":302},{""stimulus"":""img/1to3/4.png"",""time"":403},{""stimulus"":""img/1to3/5.png"",""time"":502},{""stimulus"":""img/1to3/6.png"",""time"":604},{""stimulus"":""img/1to3/7.png"",""time"":704},{""stimulus"":""img/1to3/8.png"",""time"":807},{""stimulus"":""img/1to3/9.png"",""time"":908},{""stimulus"":""img/1to3/10.png"",""time"":1010},{""stimulus"":""img/1to3/11.png"",""time"":1111},{""stimulus"":""img/1to3/12.png"",""time"":1214}]","[]"
"","","","observe","612fbc37af2136fe81fc71a9","bdp_cybrbll","Wed Mar 29 2023 09:20:18 GMT-0700 (Pacific Daylight Time)","447126","1","3","image-keyboard-response","185","203961","0.0-5.0-1.90","","null","","img/3to2/1.png","null","135","1390","0.5","0.1","3","1","",""
"","","","","612fbc37af2136fe81fc71a9","bdp_cybrbll","Wed Mar 29 2023 09:20:18 GMT-0700 (Pacific Daylight Time)","447126","1","3","animation","186","205281","0.0-5.0-2.90","","","","","","135","","","","3","1","[{""stimulus"":""img/3to1/1.png"",""time"":99},{""stimulus"":""img/3to1/2.png"",""time"":201},{""stimulus"":""img/3to1/3.png"",""time"":300},{""stimulus"":""img/3to1/4.png"",""time"":404},{""stimulus"":""img/3to1/5.png"",""time"":505},{""stimulus"":""img/3to1/6.png"",""time"":605},{""stimulus"":""img/3to1/7.png"",""time"":708},{""stimulus"":""img/3to1/8.png"",""time"":810},{""stimulus"":""img/3to1/9.png"",""time"":911},{""stimulus"":""img/3to1/10.png"",""time"":1013},{""stimulus"":""img/3to1/11.png"",""time"":1114},{""stimulus"":""img/3to1/12.png"",""time"":1219}]","[]"
"","","","observe","612fbc37af2136fe81fc71a9","bdp_cybrbll","Wed Mar 29 2023 09:20:18 GMT-0700 (Pacific Daylight Time)","447126","1","3","image-keyboard-response","187","206378","0.0-5.0-1.91","","null","","img/1to3/1.png","null","134","1094","0.5","0.1","1","3","",""
"","","","","612fbc37af2136fe81fc71a9","bdp_cybrbll","Wed Mar 29 2023 09:20:18 GMT-0700 (Pacific Daylight Time)","447126","1","3","animation","188","207699","0.0-5.0-2.91","","","","","","134","","","","1","3","[{""stimulus"":""img/1to3/1.png"",""time"":101},{""stimulus"":""img/1to3/2.png"",""time"":203},{""stimulus"":""img/1to3/3.png"",""time"":302},{""stimulus"":""img/1to3/4.png"",""time"":402},{""stimulus"":""img/1to3/5.png"",""time"":505},{""stimulus"":""img/1to3/6.png"",""time"":606},{""stimulus"":""img/1to3/7.png"",""time"":709},{""stimulus"":""img/1to3/8.png"",""time"":812},{""stimulus"":""img/1to3/9.png"",""time"":913},{""stimulus"":""img/1to3/10.png"",""time"":1016},{""stimulus"":""img/1to3/11.png"",""time"":1116},{""stimulus"":""img/1to3/12.png"",""time"":1218}]","[]"
"","","","observe","612fbc37af2136fe81fc71a9","bdp_cybrbll","Wed Mar 29 2023 09:20:18 GMT-0700 (Pacific Daylight Time)","447126","1","3","image-keyboard-response","189","208865","0.0-5.0-1.92","","null","","img/3to2/1.png","null","133","1163","0.5","0.1","3","1","",""
"","","","","612fbc37af2136fe81fc71a9","bdp_cybrbll","Wed Mar 29 2023 09:20:18 GMT-0700 (Pacific Daylight Time)","447126","1","3","animation","190","210180","0.0-5.0-2.92","","","","","","133","","","","3","1","[{""stimulus"":""img/3to1/1.png"",""time"":102},{""stimulus"":""img/3to1/2.png"",""time"":204},{""stimulus"":""img/3to1/3.png"",""time"":305},{""stimulus"":""img/3to1/4.png"",""time"":407},{""stimulus"":""img/3to1/5.png"",""time"":508},{""stimulus"":""img/3to1/6.png"",""time"":610},{""stimulus"":""img/3to1/7.png"",""time"":710},{""stimulus"":""img/3to1/8.png"",""time"":810},{""stimulus"":""img/3to1/9.png"",""time"":911},{""stimulus"":""img/3to1/10.png"",""time"":1011},{""stimulus"":""img/3to1/11.png"",""time"":1111},{""stimulus"":""img/3to1/12.png"",""time"":1213}]","[]"
