"trial_type","trial_index","time_elapsed","internal_node_id","subject_id","task","startTime","totalTime","fairPartner","unfairPartner","view_history","rt","event","trial","time","trialtype","success","stimulus","key_press","throwsLeft","rtDur","pFair","pUnfair","holder","receiver","animation_sequence","responses"
"pavlovia","0","4","0.0-0.0","63614ad63aec6bcf8a045124","bdp_cybrbll","Sun Mar 26 2023 15:07:04 GMT-0400 (Eastern Daylight Time)","465032","1","3","","","","","","","","","","","","","","","","",""
"instructions","1","2089","0.0-1.0","63614ad63aec6bcf8a045124","bdp_cybrbll","Sun Mar 26 2023 15:07:04 GMT-0400 (Eastern Daylight Time)","465032","1","3","[{""page_index"":0,""viewing_time"":2084}]","2085","","","","","","","","","","","","","","",""
"","","","","63614ad63aec6bcf8a045124","bdp_cybrbll","Sun Mar 26 2023 15:07:04 GMT-0400 (Eastern Daylight Time)","465032","1","3","","","fullscreenenter","2","3572","fullscreenenter","","","","","","","","","","",""
"fullscreen","2","4516","0.0-2.0","63614ad63aec6bcf8a045124","bdp_cybrbll","Sun Mar 26 2023 15:07:04 GMT-0400 (Eastern Daylight Time)","465032","1","3","","","","","","","true","","","","","","","","","",""
"instructions","3","36608","0.0-4.0","63614ad63aec6bcf8a045124","bdp_cybrbll","Sun Mar 26 2023 15:07:04 GMT-0400 (Eastern Daylight Time)","465032","1","3","[{""page_index"":0,""viewing_time"":32091}]","32091","","","","","","","","","","","","","","",""
"image-keyboard-response","4","45909","0.0-5.0-1.0","63614ad63aec6bcf8a045124","bdp_cybrbll","Sun Mar 26 2023 15:07:04 GMT-0400 (Eastern Daylight Time)","465032","1","3","","9298","","","","choice","","img/2to1/1.png","1","225","493","0.5","0.5","2","1","",""
"animation","5","47198","0.0-5.0-2.0","63614ad63aec6bcf8a045124","bdp_cybrbll","Sun Mar 26 2023 15:07:04 GMT-0400 (Eastern Daylight Time)","465032","1","3","","","","","","","","","","225","","","","2","1","[{""stimulus"":""img/2to1/1.png"",""time"":106},{""stimulus"":""img/2to1/2.png"",""time"":199},{""stimulus"":""img/2to1/3.png"",""time"":308},{""stimulus"":""img/2to1/4.png"",""time"":403},{""stimulus"":""img/2to1/5.png"",""time"":496},{""stimulus"":""img/2to1/6.png"",""time"":604},{""stimulus"":""img/2to1/7.png"",""time"":697},{""stimulus"":""img/2to1/8.png"",""time"":806},{""stimulus"":""img/2to1/9.png"",""time"":899},{""stimulus"":""img/2to1/10.png"",""time"":993},{""stimulus"":""img/2to1/11.png"",""time"":1102},{""stimulus"":""img/2to1/12.png"",""time"":1195}]","[]"
"image-keyboard-response","6","48223","0.0-5.0-1.1","63614ad63aec6bcf8a045124","bdp_cybrbll","Sun Mar 26 2023 15:07:04 GMT-0400 (Eastern Daylight Time)","465032","1","3","","null","","","","observe","","img/1to3/1.png","null","224","1010","0.5","0.5","1","3","",""
"animation","7","49511","0.0-5.0-2.1","63614ad63aec6bcf8a045124","bdp_cybrbll","Sun Mar 26 2023 15:07:04 GMT-0400 (Eastern Daylight Time)","465032","1","3","","","","","","","","","","224","","","","1","3","[{""stimulus"":""img/1to3/1.png"",""time"":110},{""stimulus"":""img/1to3/2.png"",""time"":199},{""stimulus"":""img/1to3/3.png"",""time"":311},{""stimulus"":""img/1to3/4.png"",""time"":404},{""stimulus"":""img/1to3/5.png"",""time"":498},{""stimulus"":""img/1to3/6.png"",""time"":595},{""stimulus"":""img/1to3/7.png"",""time"":694},{""stimulus"":""img/1to3/8.png"",""time"":794},{""stimulus"":""img/1to3/9.png"",""time"":902},{""stimulus"":""img/1to3/10.png"",""time"":993},{""stimulus"":""img/1to3/11.png"",""time"":1091},{""stimulus"":""img/1to3/12.png"",""time"":1189}]","[]"
"image-keyboard-response","8","50056","0.0-5.0-1.2","63614ad63aec6bcf8a045124","bdp_cybrbll","Sun Mar 26 2023 15:07:04 GMT-0400 (Eastern Daylight Time)","465032","1","3","","null","","","","observe","","img/3to2/1.png","null","223","530","0.5","0.5","3","2","",""
"animation","9","51354","0.0-5.0-2.2","63614ad63aec6bcf8a045124","bdp_cybrbll","Sun Mar 26 2023 15:07:04 GMT-0400 (Eastern Daylight Time)","465032","1","3","","","","","","","","","","223","","","","3","2","[{""stimulus"":""img/3to2/1.png"",""time"":108},{""stimulus"":""img/3to2/2.png"",""time"":200},{""stimulus"":""img/3to2/3.png"",""time"":309},{""stimulus"":""img/3to2/4.png"",""time"":397},{""stimulus"":""img/3to2/5.png"",""time"":496},{""stimulus"":""img/3to2/6.png"",""time"":602},{""stimulus"":""img/3to2/7.png"",""time"":695},{""stimulus"":""img/3to2/8.png"",""time"":804},{""stimulus"":""img/3to2/9.png"",""time"":892},{""stimulus"":""img/3to2/10.png"",""time"":1004},{""stimulus"":""img/3to2/11.png"",""time"":1096},{""stimulus"":""img/3to2/12.png"",""time"":1190}]","[]"
"image-keyboard-response","10","53246","0.0-5.0-1.3","63614ad63aec6bcf8a045124","bdp_cybrbll","Sun Mar 26 2023 15:07:04 GMT-0400 (Eastern Daylight Time)","465032","1","3","","1891","","","","choice","","img/2to1/1.png","1","222","549","0.5","0.5","2","1","",""
"animation","11","54540","0.0-5.0-2.3","63614ad63aec6bcf8a045124","bdp_cybrbll","Sun Mar 26 2023 15:07:04 GMT-0400 (Eastern Daylight Time)","465032","1","3","","","","","","","","","","222","","","","2","1","[{""stimulus"":""img/2to1/1.png"",""time"":111},{""stimulus"":""img/2to1/2.png"",""time"":205},{""stimulus"":""img/2to1/3.png"",""time"":313},{""stimulus"":""img/2to1/4.png"",""time"":406},{""stimulus"":""img/2to1/5.png"",""time"":498},{""stimulus"":""img/2to1/6.png"",""time"":607},{""stimulus"":""img/2to1/7.png"",""time"":694},{""stimulus"":""img/2to1/8.png"",""time"":794},{""stimulus"":""img/2to1/9.png"",""time"":904},{""stimulus"":""img/2to1/10.png"",""time"":991},{""stimulus"":""img/2to1/11.png"",""time"":1090},{""stimulus"":""img/2to1/12.png"",""time"":1189}]","[]"
"image-keyboard-response","12","54799","0.0-5.0-1.4","63614ad63aec6bcf8a045124","bdp_cybrbll","Sun Mar 26 2023 15:07:04 GMT-0400 (Eastern Daylight Time)","465032","1","3","","null","","","","observe","","img/1to3/1.png","null","221","258","0.5","0.5","1","2","",""
"animation","13","56087","0.0-5.0-2.4","63614ad63aec6bcf8a045124","bdp_cybrbll","Sun Mar 26 2023 15:07:04 GMT-0400 (Eastern Daylight Time)","465032","1","3","","","","","","","","","","221","","","","1","2","[{""stimulus"":""img/1to2/1.png"",""time"":114},{""stimulus"":""img/1to2/2.png"",""time"":206},{""stimulus"":""img/1to2/3.png"",""time"":298},{""stimulus"":""img/1to2/4.png"",""time"":406},{""stimulus"":""img/1to2/5.png"",""time"":496},{""stimulus"":""img/1to2/6.png"",""time"":609},{""stimulus"":""img/1to2/7.png"",""time"":703},{""stimulus"":""img/1to2/8.png"",""time"":793},{""stimulus"":""img/1to2/9.png"",""time"":903},{""stimulus"":""img/1to2/10.png"",""time"":991},{""stimulus"":""img/1to2/11.png"",""time"":1105},{""stimulus"":""img/1to2/12.png"",""time"":1199}]","[]"
"image-keyboard-response","14","60527","0.0-5.0-1.5","63614ad63aec6bcf8a045124","bdp_cybrbll","Sun Mar 26 2023 15:07:04 GMT-0400 (Eastern Daylight Time)","465032","1","3","","4439","","","","choice","","img/2to1/1.png","1","220","266","0.5","0.5","2","1","",""
"animation","15","61817","0.0-5.0-2.5","63614ad63aec6bcf8a045124","bdp_cybrbll","Sun Mar 26 2023 15:07:04 GMT-0400 (Eastern Daylight Time)","465032","1","3","","","","","","","","","","220","","","","2","1","[{""stimulus"":""img/2to1/1.png"",""time"":108},{""stimulus"":""img/2to1/2.png"",""time"":200},{""stimulus"":""img/2to1/3.png"",""time"":308},{""stimulus"":""img/2to1/4.png"",""time"":397},{""stimulus"":""img/2to1/5.png"",""time"":496},{""stimulus"":""img/2to1/6.png"",""time"":602},{""stimulus"":""img/2to1/7.png"",""time"":695},{""stimulus"":""img/2to1/8.png"",""time"":793},{""stimulus"":""img/2to1/9.png"",""time"":892},{""stimulus"":""img/2to1/10.png"",""time"":990},{""stimulus"":""img/2to1/11.png"",""time"":1102},{""stimulus"":""img/2to1/12.png"",""time"":1189}]","[]"
"image-keyboard-response","16","62548","0.0-5.0-1.6","63614ad63aec6bcf8a045124","bdp_cybrbll","Sun Mar 26 2023 15:07:04 GMT-0400 (Eastern Daylight Time)","465032","1","3","","null","","","","observe","","img/1to3/1.png","null","219","720","0.5","0.5","1","3","",""
"animation","17","63835","0.0-5.0-2.6","63614ad63aec6bcf8a045124","bdp_cybrbll","Sun Mar 26 2023 15:07:04 GMT-0400 (Eastern Daylight Time)","465032","1","3","","","","","","","","","","219","","","","1","3","[{""stimulus"":""img/1to3/1.png"",""time"":108},{""stimulus"":""img/1to3/2.png"",""time"":202},{""stimulus"":""img/1to3/3.png"",""time"":298},{""stimulus"":""img/1to3/4.png"",""time"":397},{""stimulus"":""img/1to3/5.png"",""time"":497},{""stimulus"":""img/1to3/6.png"",""time"":595},{""stimulus"":""img/1to3/7.png"",""time"":694},{""stimulus"":""img/1to3/8.png"",""time"":794},{""stimulus"":""img/1to3/9.png"",""time"":905},{""stimulus"":""img/1to3/10.png"",""time"":996},{""stimulus"":""img/1to3/11.png"",""time"":1090},{""stimulus"":""img/1to3/12.png"",""time"":1200}]","[]"
"image-keyboard-response","18","64276","0.0-5.0-1.7","63614ad63aec6bcf8a045124","bdp_cybrbll","Sun Mar 26 2023 15:07:04 GMT-0400 (Eastern Daylight Time)","465032","1","3","","null","","","","observe","","img/3to2/1.png","null","218","425","0.5","0.5","3","1","",""
"animation","19","65570","0.0-5.0-2.7","63614ad63aec6bcf8a045124","bdp_cybrbll","Sun Mar 26 2023 15:07:04 GMT-0400 (Eastern Daylight Time)","465032","1","3","","","","","","","","","","218","","","","3","1","[{""stimulus"":""img/3to1/1.png"",""time"":110},{""stimulus"":""img/3to1/2.png"",""time"":204},{""stimulus"":""img/3to1/3.png"",""time"":299},{""stimulus"":""img/3to1/4.png"",""time"":407},{""stimulus"":""img/3to1/5.png"",""time"":500},{""stimulus"":""img/3to1/6.png"",""time"":609},{""stimulus"":""img/3to1/7.png"",""time"":702},{""stimulus"":""img/3to1/8.png"",""time"":796},{""stimulus"":""img/3to1/9.png"",""time"":906},{""stimulus"":""img/3to1/10.png"",""time"":998},{""stimulus"":""img/3to1/11.png"",""time"":1091},{""stimulus"":""img/3to1/12.png"",""time"":1201}]","[]"
"image-keyboard-response","20","65866","0.0-5.0-1.8","63614ad63aec6bcf8a045124","bdp_cybrbll","Sun Mar 26 2023 15:07:04 GMT-0400 (Eastern Daylight Time)","465032","1","3","","null","","","","observe","","img/1to3/1.png","null","217","291","0.5","0.5","1","3","",""
"animation","21","67154","0.0-5.0-2.8","63614ad63aec6bcf8a045124","bdp_cybrbll","Sun Mar 26 2023 15:07:04 GMT-0400 (Eastern Daylight Time)","465032","1","3","","","","","","","","","","217","","","","1","3","[{""stimulus"":""img/1to3/1.png"",""time"":109},{""stimulus"":""img/1to3/2.png"",""time"":203},{""stimulus"":""img/1to3/3.png"",""time"":309},{""stimulus"":""img/1to3/4.png"",""time"":403},{""stimulus"":""img/1to3/5.png"",""time"":496},{""stimulus"":""img/1to3/6.png"",""time"":606},{""stimulus"":""img/1to3/7.png"",""time"":694},{""stimulus"":""img/1to3/8.png"",""time"":806},{""stimulus"":""img/1to3/9.png"",""time"":900},{""stimulus"":""img/1to3/10.png"",""time"":991},{""stimulus"":""img/1to3/11.png"",""time"":1090},{""stimulus"":""img/1to3/12.png"",""time"":1188}]","[]"
"image-keyboard-response","22","67639","0.0-5.0-1.9","63614ad63aec6bcf8a045124","bdp_cybrbll","Sun Mar 26 2023 15:07:04 GMT-0400 (Eastern Daylight Time)","465032","1","3","","null","","","","observe","","img/3to2/1.png","null","216","483","0.5","0.5","3","1","",""
"animation","23","68927","0.0-5.0-2.9","63614ad63aec6bcf8a045124","bdp_cybrbll","Sun Mar 26 2023 15:07:04 GMT-0400 (Eastern Daylight Time)","465032","1","3","","","","","","","","","","216","","","","3","1","[{""stimulus"":""img/3to1/1.png"",""time"":107},{""stimulus"":""img/3to1/2.png"",""time"":198},{""stimulus"":""img/3to1/3.png"",""time"":297},{""stimulus"":""img/3to1/4.png"",""time"":398},{""stimulus"":""img/3to1/5.png"",""time"":496},{""stimulus"":""img/3to1/6.png"",""time"":595},{""stimulus"":""img/3to1/7.png"",""time"":694},{""stimulus"":""img/3to1/8.png"",""time"":808},{""stimulus"":""img/3to1/9.png"",""time"":901},{""stimulus"":""img/3to1/10.png"",""time"":991},{""stimulus"":""img/3to1/11.png"",""time"":1104},{""stimulus"":""img/3to1/12.png"",""time"":1197}]","[]"
"image-keyboard-response","24","69644","0.0-5.0-1.10","63614ad63aec6bcf8a045124","bdp_cybrbll","Sun Mar 26 2023 15:07:04 GMT-0400 (Eastern Daylight Time)","465032","1","3","","null","","","","observe","","img/1to3/1.png","null","215","704","0.5","0.5","1","2","",""
"animation","25","70938","0.0-5.0-2.10","63614ad63aec6bcf8a045124","bdp_cybrbll","Sun Mar 26 2023 15:07:04 GMT-0400 (Eastern Daylight Time)","465032","1","3","","","","","","","","","","215","","","","1","2","[{""stimulus"":""img/1to2/1.png"",""time"":110},{""stimulus"":""img/1to2/2.png"",""time"":199},{""stimulus"":""img/1to2/3.png"",""time"":298},{""stimulus"":""img/1to2/4.png"",""time"":396},{""stimulus"":""img/1to2/5.png"",""time"":499},{""stimulus"":""img/1to2/6.png"",""time"":609},{""stimulus"":""img/1to2/7.png"",""time"":694},{""stimulus"":""img/1to2/8.png"",""time"":793},{""stimulus"":""img/1to2/9.png"",""time"":892},{""stimulus"":""img/1to2/10.png"",""time"":997},{""stimulus"":""img/1to2/11.png"",""time"":1091},{""stimulus"":""img/1to2/12.png"",""time"":1189}]","[]"
"image-keyboard-response","26","79013","0.0-5.0-1.11","63614ad63aec6bcf8a045124","bdp_cybrbll","Sun Mar 26 2023 15:07:04 GMT-0400 (Eastern Daylight Time)","465032","1","3","","8075","","","","choice","","img/2to1/1.png","2","214","1108","0.5","0.5","2","3","",""
"animation","27","80302","0.0-5.0-2.11","63614ad63aec6bcf8a045124","bdp_cybrbll","Sun Mar 26 2023 15:07:04 GMT-0400 (Eastern Daylight Time)","465032","1","3","","","","","","","","","","214","","","","2","3","[{""stimulus"":""img/2to3/1.png"",""time"":106},{""stimulus"":""img/2to3/2.png"",""time"":199},{""stimulus"":""img/2to3/3.png"",""time"":309},{""stimulus"":""img/2to3/4.png"",""time"":397},{""stimulus"":""img/2to3/5.png"",""time"":497},{""stimulus"":""img/2to3/6.png"",""time"":595},{""stimulus"":""img/2to3/7.png"",""time"":694},{""stimulus"":""img/2to3/8.png"",""time"":793},{""stimulus"":""img/2to3/9.png"",""time"":899},{""stimulus"":""img/2to3/10.png"",""time"":992},{""stimulus"":""img/2to3/11.png"",""time"":1091},{""stimulus"":""img/2to3/12.png"",""time"":1195}]","[]"
"image-keyboard-response","28","80613","0.0-5.0-1.12","63614ad63aec6bcf8a045124","bdp_cybrbll","Sun Mar 26 2023 15:07:04 GMT-0400 (Eastern Daylight Time)","465032","1","3","","null","","","","observe","","img/3to2/1.png","null","213","302","0.5","0.5","3","1","",""
"animation","29","81901","0.0-5.0-2.12","63614ad63aec6bcf8a045124","bdp_cybrbll","Sun Mar 26 2023 15:07:04 GMT-0400 (Eastern Daylight Time)","465032","1","3","","","","","","","","","","213","","","","3","1","[{""stimulus"":""img/3to1/1.png"",""time"":109},{""stimulus"":""img/3to1/2.png"",""time"":203},{""stimulus"":""img/3to1/3.png"",""time"":298},{""stimulus"":""img/3to1/4.png"",""time"":405},{""stimulus"":""img/3to1/5.png"",""time"":496},{""stimulus"":""img/3to1/6.png"",""time"":608},{""stimulus"":""img/3to1/7.png"",""time"":701},{""stimulus"":""img/3to1/8.png"",""time"":793},{""stimulus"":""img/3to1/9.png"",""time"":904},{""stimulus"":""img/3to1/10.png"",""time"":990},{""stimulus"":""img/3to1/11.png"",""time"":1090},{""stimulus"":""img/3to1/12.png"",""time"":1189}]","[]"
"image-keyboard-response","30","82777","0.0-5.0-1.13","63614ad63aec6bcf8a045124","bdp_cybrbll","Sun Mar 26 2023 15:07:04 GMT-0400 (Eastern Daylight Time)","465032","1","3","","null","","","","observe","","img/1to3/1.png","null","212","862","0.5","0.5","1","3","",""
"animation","31","84067","0.0-5.0-2.13","63614ad63aec6bcf8a045124","bdp_cybrbll","Sun Mar 26 2023 15:07:04 GMT-0400 (Eastern Daylight Time)","465032","1","3","","","","","","","","","","212","","","","1","3","[{""stimulus"":""img/1to3/1.png"",""time"":108},{""stimulus"":""img/1to3/2.png"",""time"":199},{""stimulus"":""img/1to3/3.png"",""time"":309},{""stimulus"":""img/1to3/4.png"",""time"":403},{""stimulus"":""img/1to3/5.png"",""time"":497},{""stimulus"":""img/1to3/6.png"",""time"":605},{""stimulus"":""img/1to3/7.png"",""time"":693},{""stimulus"":""img/1to3/8.png"",""time"":793},{""stimulus"":""img/1to3/9.png"",""time"":892},{""stimulus"":""img/1to3/10.png"",""time"":994},{""stimulus"":""img/1to3/11.png"",""time"":1090},{""stimulus"":""img/1to3/12.png"",""time"":1189}]","[]"
"image-keyboard-response","32","84486","0.0-5.0-1.14","63614ad63aec6bcf8a045124","bdp_cybrbll","Sun Mar 26 2023 15:07:04 GMT-0400 (Eastern Daylight Time)","465032","1","3","","null","","","","observe","","img/3to2/1.png","null","211","413","0.5","0.5","3","2","",""
"animation","33","85774","0.0-5.0-2.14","63614ad63aec6bcf8a045124","bdp_cybrbll","Sun Mar 26 2023 15:07:04 GMT-0400 (Eastern Daylight Time)","465032","1","3","","","","","","","","","","211","","","","3","2","[{""stimulus"":""img/3to2/1.png"",""time"":110},{""stimulus"":""img/3to2/2.png"",""time"":198},{""stimulus"":""img/3to2/3.png"",""time"":298},{""stimulus"":""img/3to2/4.png"",""time"":397},{""stimulus"":""img/3to2/5.png"",""time"":495},{""stimulus"":""img/3to2/6.png"",""time"":595},{""stimulus"":""img/3to2/7.png"",""time"":698},{""stimulus"":""img/3to2/8.png"",""time"":792},{""stimulus"":""img/3to2/9.png"",""time"":891},{""stimulus"":""img/3to2/10.png"",""time"":994},{""stimulus"":""img/3to2/11.png"",""time"":1103},{""stimulus"":""img/3to2/12.png"",""time"":1197}]","[]"
"image-keyboard-response","34","86974","0.0-5.0-1.15","63614ad63aec6bcf8a045124","bdp_cybrbll","Sun Mar 26 2023 15:07:04 GMT-0400 (Eastern Daylight Time)","465032","1","3","","1199","","","","choice","","img/2to1/1.png","1","210","1805","0.5","0.5","2","1","",""
"animation","35","88262","0.0-5.0-2.15","63614ad63aec6bcf8a045124","bdp_cybrbll","Sun Mar 26 2023 15:07:04 GMT-0400 (Eastern Daylight Time)","465032","1","3","","","","","","","","","","210","","","","2","1","[{""stimulus"":""img/2to1/1.png"",""time"":108},{""stimulus"":""img/2to1/2.png"",""time"":201},{""stimulus"":""img/2to1/3.png"",""time"":298},{""stimulus"":""img/2to1/4.png"",""time"":397},{""stimulus"":""img/2to1/5.png"",""time"":511},{""stimulus"":""img/2to1/6.png"",""time"":595},{""stimulus"":""img/2to1/7.png"",""time"":694},{""stimulus"":""img/2to1/8.png"",""time"":794},{""stimulus"":""img/2to1/9.png"",""time"":893},{""stimulus"":""img/2to1/10.png"",""time"":991},{""stimulus"":""img/2to1/11.png"",""time"":1101},{""stimulus"":""img/2to1/12.png"",""time"":1194}]","[]"
"image-keyboard-response","36","88887","0.0-5.0-1.16","63614ad63aec6bcf8a045124","bdp_cybrbll","Sun Mar 26 2023 15:07:04 GMT-0400 (Eastern Daylight Time)","465032","1","3","","null","","","","observe","","img/1to3/1.png","null","209","618","0.5","0.5","1","3","",""
"animation","37","90180","0.0-5.0-2.16","63614ad63aec6bcf8a045124","bdp_cybrbll","Sun Mar 26 2023 15:07:04 GMT-0400 (Eastern Daylight Time)","465032","1","3","","","","","","","","","","209","","","","1","3","[{""stimulus"":""img/1to3/1.png"",""time"":108},{""stimulus"":""img/1to3/2.png"",""time"":201},{""stimulus"":""img/1to3/3.png"",""time"":311},{""stimulus"":""img/1to3/4.png"",""time"":405},{""stimulus"":""img/1to3/5.png"",""time"":495},{""stimulus"":""img/1to3/6.png"",""time"":595},{""stimulus"":""img/1to3/7.png"",""time"":702},{""stimulus"":""img/1to3/8.png"",""time"":795},{""stimulus"":""img/1to3/9.png"",""time"":903},{""stimulus"":""img/1to3/10.png"",""time"":991},{""stimulus"":""img/1to3/11.png"",""time"":1090},{""stimulus"":""img/1to3/12.png"",""time"":1188}]","[]"
"image-keyboard-response","38","90722","0.0-5.0-1.17","63614ad63aec6bcf8a045124","bdp_cybrbll","Sun Mar 26 2023 15:07:04 GMT-0400 (Eastern Daylight Time)","465032","1","3","","null","","","","observe","","img/3to2/1.png","null","208","540","0.5","0.5","3","2","",""
"animation","39","92011","0.0-5.0-2.17","63614ad63aec6bcf8a045124","bdp_cybrbll","Sun Mar 26 2023 15:07:04 GMT-0400 (Eastern Daylight Time)","465032","1","3","","","","","","","","","","208","","","","3","2","[{""stimulus"":""img/3to2/1.png"",""time"":109},{""stimulus"":""img/3to2/2.png"",""time"":202},{""stimulus"":""img/3to2/3.png"",""time"":297},{""stimulus"":""img/3to2/4.png"",""time"":403},{""stimulus"":""img/3to2/5.png"",""time"":497},{""stimulus"":""img/3to2/6.png"",""time"":595},{""stimulus"":""img/3to2/7.png"",""time"":700},{""stimulus"":""img/3to2/8.png"",""time"":793},{""stimulus"":""img/3to2/9.png"",""time"":892},{""stimulus"":""img/3to2/10.png"",""time"":991},{""stimulus"":""img/3to2/11.png"",""time"":1105},{""stimulus"":""img/3to2/12.png"",""time"":1189}]","[]"
"image-keyboard-response","40","92486","0.0-5.0-1.18","63614ad63aec6bcf8a045124","bdp_cybrbll","Sun Mar 26 2023 15:07:04 GMT-0400 (Eastern Daylight Time)","465032","1","3","","474","","","","choice","","img/2to1/1.png","1","207","1042","0.5","0.5","2","1","",""
"animation","41","93774","0.0-5.0-2.18","63614ad63aec6bcf8a045124","bdp_cybrbll","Sun Mar 26 2023 15:07:04 GMT-0400 (Eastern Daylight Time)","465032","1","3","","","","","","","","","","207","","","","2","1","[{""stimulus"":""img/2to1/1.png"",""time"":105},{""stimulus"":""img/2to1/2.png"",""time"":200},{""stimulus"":""img/2to1/3.png"",""time"":306},{""stimulus"":""img/2to1/4.png"",""time"":400},{""stimulus"":""img/2to1/5.png"",""time"":508},{""stimulus"":""img/2to1/6.png"",""time"":595},{""stimulus"":""img/2to1/7.png"",""time"":709},{""stimulus"":""img/2to1/8.png"",""time"":793},{""stimulus"":""img/2to1/9.png"",""time"":898},{""stimulus"":""img/2to1/10.png"",""time"":991},{""stimulus"":""img/2to1/11.png"",""time"":1097},{""stimulus"":""img/2to1/12.png"",""time"":1190}]","[]"
"image-keyboard-response","42","94298","0.0-5.0-1.19","63614ad63aec6bcf8a045124","bdp_cybrbll","Sun Mar 26 2023 15:07:04 GMT-0400 (Eastern Daylight Time)","465032","1","3","","null","","","","observe","","img/1to3/1.png","null","206","511","0.5","0.5","1","3","",""
"animation","43","95601","0.0-5.0-2.19","63614ad63aec6bcf8a045124","bdp_cybrbll","Sun Mar 26 2023 15:07:04 GMT-0400 (Eastern Daylight Time)","465032","1","3","","","","","","","","","","206","","","","1","3","[{""stimulus"":""img/1to3/1.png"",""time"":110},{""stimulus"":""img/1to3/2.png"",""time"":199},{""stimulus"":""img/1to3/3.png"",""time"":313},{""stimulus"":""img/1to3/4.png"",""time"":397},{""stimulus"":""img/1to3/5.png"",""time"":496},{""stimulus"":""img/1to3/6.png"",""time"":607},{""stimulus"":""img/1to3/7.png"",""time"":700},{""stimulus"":""img/1to3/8.png"",""time"":793},{""stimulus"":""img/1to3/9.png"",""time"":901},{""stimulus"":""img/1to3/10.png"",""time"":991},{""stimulus"":""img/1to3/11.png"",""time"":1091},{""stimulus"":""img/1to3/12.png"",""time"":1196}]","[]"
"image-keyboard-response","44","96006","0.0-5.0-1.20","63614ad63aec6bcf8a045124","bdp_cybrbll","Sun Mar 26 2023 15:07:04 GMT-0400 (Eastern Daylight Time)","465032","1","3","","null","","","","observe","","img/3to2/1.png","null","205","404","0.5","0.5","3","1","",""
"animation","45","97300","0.0-5.0-2.20","63614ad63aec6bcf8a045124","bdp_cybrbll","Sun Mar 26 2023 15:07:04 GMT-0400 (Eastern Daylight Time)","465032","1","3","","","","","","","","","","205","","","","3","1","[{""stimulus"":""img/3to1/1.png"",""time"":112},{""stimulus"":""img/3to1/2.png"",""time"":205},{""stimulus"":""img/3to1/3.png"",""time"":314},{""stimulus"":""img/3to1/4.png"",""time"":396},{""stimulus"":""img/3to1/5.png"",""time"":496},{""stimulus"":""img/3to1/6.png"",""time"":595},{""stimulus"":""img/3to1/7.png"",""time"":694},{""stimulus"":""img/3to1/8.png"",""time"":795},{""stimulus"":""img/3to1/9.png"",""time"":892},{""stimulus"":""img/3to1/10.png"",""time"":991},{""stimulus"":""img/3to1/11.png"",""time"":1090},{""stimulus"":""img/3to1/12.png"",""time"":1200}]","[]"
"image-keyboard-response","46","97541","0.0-5.0-1.21","63614ad63aec6bcf8a045124","bdp_cybrbll","Sun Mar 26 2023 15:07:04 GMT-0400 (Eastern Daylight Time)","465032","1","3","","null","","","","observe","","img/1to3/1.png","null","204","239","0.5","0.5","1","3","",""
"animation","47","98829","0.0-5.0-2.21","63614ad63aec6bcf8a045124","bdp_cybrbll","Sun Mar 26 2023 15:07:04 GMT-0400 (Eastern Daylight Time)","465032","1","3","","","","","","","","","","204","","","","1","3","[{""stimulus"":""img/1to3/1.png"",""time"":100},{""stimulus"":""img/1to3/2.png"",""time"":209},{""stimulus"":""img/1to3/3.png"",""time"":298},{""stimulus"":""img/1to3/4.png"",""time"":397},{""stimulus"":""img/1to3/5.png"",""time"":496},{""stimulus"":""img/1to3/6.png"",""time"":595},{""stimulus"":""img/1to3/7.png"",""time"":704},{""stimulus"":""img/1to3/8.png"",""time"":797},{""stimulus"":""img/1to3/9.png"",""time"":892},{""stimulus"":""img/1to3/10.png"",""time"":998},{""stimulus"":""img/1to3/11.png"",""time"":1089},{""stimulus"":""img/1to3/12.png"",""time"":1189}]","[]"
"image-keyboard-response","48","99253","0.0-5.0-1.22","63614ad63aec6bcf8a045124","bdp_cybrbll","Sun Mar 26 2023 15:07:04 GMT-0400 (Eastern Daylight Time)","465032","1","3","","null","","","","observe","","img/3to2/1.png","null","203","409","0.5","0.5","3","2","",""
"animation","49","100541","0.0-5.0-2.22","63614ad63aec6bcf8a045124","bdp_cybrbll","Sun Mar 26 2023 15:07:04 GMT-0400 (Eastern Daylight Time)","465032","1","3","","","","","","","","","","203","","","","3","2","[{""stimulus"":""img/3to2/1.png"",""time"":109},{""stimulus"":""img/3to2/2.png"",""time"":203},{""stimulus"":""img/3to2/3.png"",""time"":298},{""stimulus"":""img/3to2/4.png"",""time"":406},{""stimulus"":""img/3to2/5.png"",""time"":500},{""stimulus"":""img/3to2/6.png"",""time"":608},{""stimulus"":""img/3to2/7.png"",""time"":694},{""stimulus"":""img/3to2/8.png"",""time"":796},{""stimulus"":""img/3to2/9.png"",""time"":892},{""stimulus"":""img/3to2/10.png"",""time"":998},{""stimulus"":""img/3to2/11.png"",""time"":1091},{""stimulus"":""img/3to2/12.png"",""time"":1200}]","[]"
"image-keyboard-response","50","100798","0.0-5.0-1.23","63614ad63aec6bcf8a045124","bdp_cybrbll","Sun Mar 26 2023 15:07:04 GMT-0400 (Eastern Daylight Time)","465032","1","3","","257","","","","choice","","img/2to1/1.png","1","202","598","0.5","0.5","2","1","",""
"animation","51","102088","0.0-5.0-2.23","63614ad63aec6bcf8a045124","bdp_cybrbll","Sun Mar 26 2023 15:07:04 GMT-0400 (Eastern Daylight Time)","465032","1","3","","","","","","","","","","202","","","","2","1","[{""stimulus"":""img/2to1/1.png"",""time"":106},{""stimulus"":""img/2to1/2.png"",""time"":200},{""stimulus"":""img/2to1/3.png"",""time"":298},{""stimulus"":""img/2to1/4.png"",""time"":397},{""stimulus"":""img/2to1/5.png"",""time"":496},{""stimulus"":""img/2to1/6.png"",""time"":605},{""stimulus"":""img/2to1/7.png"",""time"":693},{""stimulus"":""img/2to1/8.png"",""time"":793},{""stimulus"":""img/2to1/9.png"",""time"":891},{""stimulus"":""img/2to1/10.png"",""time"":990},{""stimulus"":""img/2to1/11.png"",""time"":1102},{""stimulus"":""img/2to1/12.png"",""time"":1190}]","[]"
"image-keyboard-response","52","102491","0.0-5.0-1.24","63614ad63aec6bcf8a045124","bdp_cybrbll","Sun Mar 26 2023 15:07:04 GMT-0400 (Eastern Daylight Time)","465032","1","3","","null","","","","observe","","img/1to3/1.png","null","201","389","0.5","0.5","1","3","",""
"animation","53","103781","0.0-5.0-2.24","63614ad63aec6bcf8a045124","bdp_cybrbll","Sun Mar 26 2023 15:07:04 GMT-0400 (Eastern Daylight Time)","465032","1","3","","","","","","","","","","201","","","","1","3","[{""stimulus"":""img/1to3/1.png"",""time"":110},{""stimulus"":""img/1to3/2.png"",""time"":200},{""stimulus"":""img/1to3/3.png"",""time"":298},{""stimulus"":""img/1to3/4.png"",""time"":397},{""stimulus"":""img/1to3/5.png"",""time"":496},{""stimulus"":""img/1to3/6.png"",""time"":595},{""stimulus"":""img/1to3/7.png"",""time"":701},{""stimulus"":""img/1to3/8.png"",""time"":794},{""stimulus"":""img/1to3/9.png"",""time"":892},{""stimulus"":""img/1to3/10.png"",""time"":991},{""stimulus"":""img/1to3/11.png"",""time"":1105},{""stimulus"":""img/1to3/12.png"",""time"":1189}]","[]"
"image-keyboard-response","54","104000","0.0-5.0-1.25","63614ad63aec6bcf8a045124","bdp_cybrbll","Sun Mar 26 2023 15:07:04 GMT-0400 (Eastern Daylight Time)","465032","1","3","","null","","","","observe","","img/3to2/1.png","null","200","215","0.5","0.5","3","1","",""
"animation","55","105303","0.0-5.0-2.25","63614ad63aec6bcf8a045124","bdp_cybrbll","Sun Mar 26 2023 15:07:04 GMT-0400 (Eastern Daylight Time)","465032","1","3","","","","","","","","","","200","","","","3","1","[{""stimulus"":""img/3to1/1.png"",""time"":108},{""stimulus"":""img/3to1/2.png"",""time"":200},{""stimulus"":""img/3to1/3.png"",""time"":311},{""stimulus"":""img/3to1/4.png"",""time"":406},{""stimulus"":""img/3to1/5.png"",""time"":496},{""stimulus"":""img/3to1/6.png"",""time"":607},{""stimulus"":""img/3to1/7.png"",""time"":694},{""stimulus"":""img/3to1/8.png"",""time"":808},{""stimulus"":""img/3to1/9.png"",""time"":893},{""stimulus"":""img/3to1/10.png"",""time"":992},{""stimulus"":""img/3to1/11.png"",""time"":1101},{""stimulus"":""img/3to1/12.png"",""time"":1190}]","[]"
"image-keyboard-response","56","106997","0.0-5.0-1.26","63614ad63aec6bcf8a045124","bdp_cybrbll","Sun Mar 26 2023 15:07:04 GMT-0400 (Eastern Daylight Time)","465032","1","3","","null","","","","observe","","img/1to3/1.png","null","199","1685","0.5","0.5","1","3","",""
"animation","57","108289","0.0-5.0-2.26","63614ad63aec6bcf8a045124","bdp_cybrbll","Sun Mar 26 2023 15:07:04 GMT-0400 (Eastern Daylight Time)","465032","1","3","","","","","","","","","","199","","","","1","3","[{""stimulus"":""img/1to3/1.png"",""time"":110},{""stimulus"":""img/1to3/2.png"",""time"":199},{""stimulus"":""img/1to3/3.png"",""time"":313},{""stimulus"":""img/1to3/4.png"",""time"":405},{""stimulus"":""img/1to3/5.png"",""time"":496},{""stimulus"":""img/1to3/6.png"",""time"":595},{""stimulus"":""img/1to3/7.png"",""time"":694},{""stimulus"":""img/1to3/8.png"",""time"":795},{""stimulus"":""img/1to3/9.png"",""time"":905},{""stimulus"":""img/1to3/10.png"",""time"":998},{""stimulus"":""img/1to3/11.png"",""time"":1090},{""stimulus"":""img/1to3/12.png"",""time"":1189}]","[]"
"image-keyboard-response","58","108575","0.0-5.0-1.27","63614ad63aec6bcf8a045124","bdp_cybrbll","Sun Mar 26 2023 15:07:04 GMT-0400 (Eastern Daylight Time)","465032","1","3","","null","","","","observe","","img/3to2/1.png","null","198","283","0.5","0.5","3","2","",""
"animation","59","109879","0.0-5.0-2.27","63614ad63aec6bcf8a045124","bdp_cybrbll","Sun Mar 26 2023 15:07:04 GMT-0400 (Eastern Daylight Time)","465032","1","3","","","","","","","","","","198","","","","3","2","[{""stimulus"":""img/3to2/1.png"",""time"":103},{""stimulus"":""img/3to2/2.png"",""time"":212},{""stimulus"":""img/3to2/3.png"",""time"":306},{""stimulus"":""img/3to2/4.png"",""time"":401},{""stimulus"":""img/3to2/5.png"",""time"":496},{""stimulus"":""img/3to2/6.png"",""time"":604},{""stimulus"":""img/3to2/7.png"",""time"":697},{""stimulus"":""img/3to2/8.png"",""time"":793},{""stimulus"":""img/3to2/9.png"",""time"":899},{""stimulus"":""img/3to2/10.png"",""time"":993},{""stimulus"":""img/3to2/11.png"",""time"":1091},{""stimulus"":""img/3to2/12.png"",""time"":1190}]","[]"
"image-keyboard-response","60","110167","0.0-5.0-1.28","63614ad63aec6bcf8a045124","bdp_cybrbll","Sun Mar 26 2023 15:07:04 GMT-0400 (Eastern Daylight Time)","465032","1","3","","288","","","","choice","","img/2to1/1.png","1","197","416","0.5","0.5","2","1","",""
"animation","61","111455","0.0-5.0-2.28","63614ad63aec6bcf8a045124","bdp_cybrbll","Sun Mar 26 2023 15:07:04 GMT-0400 (Eastern Daylight Time)","465032","1","3","","","","","","","","","","197","","","","2","1","[{""stimulus"":""img/2to1/1.png"",""time"":114},{""stimulus"":""img/2to1/2.png"",""time"":199},{""stimulus"":""img/2to1/3.png"",""time"":299},{""stimulus"":""img/2to1/4.png"",""time"":397},{""stimulus"":""img/2to1/5.png"",""time"":497},{""stimulus"":""img/2to1/6.png"",""time"":595},{""stimulus"":""img/2to1/7.png"",""time"":695},{""stimulus"":""img/2to1/8.png"",""time"":797},{""stimulus"":""img/2to1/9.png"",""time"":892},{""stimulus"":""img/2to1/10.png"",""time"":992},{""stimulus"":""img/2to1/11.png"",""time"":1092},{""stimulus"":""img/2to1/12.png"",""time"":1204}]","[]"
"image-keyboard-response","62","111996","0.0-5.0-1.29","63614ad63aec6bcf8a045124","bdp_cybrbll","Sun Mar 26 2023 15:07:04 GMT-0400 (Eastern Daylight Time)","465032","1","3","","null","","","","observe","","img/1to3/1.png","null","196","539","0.5","0.5","1","2","",""
"animation","63","113299","0.0-5.0-2.29","63614ad63aec6bcf8a045124","bdp_cybrbll","Sun Mar 26 2023 15:07:04 GMT-0400 (Eastern Daylight Time)","465032","1","3","","","","","","","","","","196","","","","1","2","[{""stimulus"":""img/1to2/1.png"",""time"":105},{""stimulus"":""img/1to2/2.png"",""time"":200},{""stimulus"":""img/1to2/3.png"",""time"":307},{""stimulus"":""img/1to2/4.png"",""time"":401},{""stimulus"":""img/1to2/5.png"",""time"":497},{""stimulus"":""img/1to2/6.png"",""time"":596},{""stimulus"":""img/1to2/7.png"",""time"":694},{""stimulus"":""img/1to2/8.png"",""time"":803},{""stimulus"":""img/1to2/9.png"",""time"":898},{""stimulus"":""img/1to2/10.png"",""time"":991},{""stimulus"":""img/1to2/11.png"",""time"":1102},{""stimulus"":""img/1to2/12.png"",""time"":1194}]","[]"
"image-keyboard-response","64","113872","0.0-5.0-1.30","63614ad63aec6bcf8a045124","bdp_cybrbll","Sun Mar 26 2023 15:07:04 GMT-0400 (Eastern Daylight Time)","465032","1","3","","572","","","","choice","","img/2to1/1.png","2","195","795","0.5","0.5","2","3","",""
"animation","65","115160","0.0-5.0-2.30","63614ad63aec6bcf8a045124","bdp_cybrbll","Sun Mar 26 2023 15:07:04 GMT-0400 (Eastern Daylight Time)","465032","1","3","","","","","","","","","","195","","","","2","3","[{""stimulus"":""img/2to3/1.png"",""time"":112},{""stimulus"":""img/2to3/2.png"",""time"":206},{""stimulus"":""img/2to3/3.png"",""time"":300},{""stimulus"":""img/2to3/4.png"",""time"":409},{""stimulus"":""img/2to3/5.png"",""time"":503},{""stimulus"":""img/2to3/6.png"",""time"":610},{""stimulus"":""img/2to3/7.png"",""time"":703},{""stimulus"":""img/2to3/8.png"",""time"":797},{""stimulus"":""img/2to3/9.png"",""time"":892},{""stimulus"":""img/2to3/10.png"",""time"":992},{""stimulus"":""img/2to3/11.png"",""time"":1090},{""stimulus"":""img/2to3/12.png"",""time"":1189}]","[]"
"image-keyboard-response","66","115572","0.0-5.0-1.31","63614ad63aec6bcf8a045124","bdp_cybrbll","Sun Mar 26 2023 15:07:04 GMT-0400 (Eastern Daylight Time)","465032","1","3","","null","","","","observe","","img/3to2/1.png","null","194","410","0.5","0.5","3","1","",""
"animation","67","116860","0.0-5.0-2.31","63614ad63aec6bcf8a045124","bdp_cybrbll","Sun Mar 26 2023 15:07:04 GMT-0400 (Eastern Daylight Time)","465032","1","3","","","","","","","","","","194","","","","3","1","[{""stimulus"":""img/3to1/1.png"",""time"":110},{""stimulus"":""img/3to1/2.png"",""time"":199},{""stimulus"":""img/3to1/3.png"",""time"":298},{""stimulus"":""img/3to1/4.png"",""time"":406},{""stimulus"":""img/3to1/5.png"",""time"":499},{""stimulus"":""img/3to1/6.png"",""time"":596},{""stimulus"":""img/3to1/7.png"",""time"":704},{""stimulus"":""img/3to1/8.png"",""time"":798},{""stimulus"":""img/3to1/9.png"",""time"":906},{""stimulus"":""img/3to1/10.png"",""time"":999},{""stimulus"":""img/3to1/11.png"",""time"":1091},{""stimulus"":""img/3to1/12.png"",""time"":1189}]","[]"
"image-keyboard-response","68","117270","0.0-5.0-1.32","63614ad63aec6bcf8a045124","bdp_cybrbll","Sun Mar 26 2023 15:07:04 GMT-0400 (Eastern Daylight Time)","465032","1","3","","null","","","","observe","","img/1to3/1.png","null","193","408","0.5","0.5","1","2","",""
"animation","69","118562","0.0-5.0-2.32","63614ad63aec6bcf8a045124","bdp_cybrbll","Sun Mar 26 2023 15:07:04 GMT-0400 (Eastern Daylight Time)","465032","1","3","","","","","","","","","","193","","","","1","2","[{""stimulus"":""img/1to2/1.png"",""time"":107},{""stimulus"":""img/1to2/2.png"",""time"":199},{""stimulus"":""img/1to2/3.png"",""time"":311},{""stimulus"":""img/1to2/4.png"",""time"":397},{""stimulus"":""img/1to2/5.png"",""time"":498},{""stimulus"":""img/1to2/6.png"",""time"":594},{""stimulus"":""img/1to2/7.png"",""time"":694},{""stimulus"":""img/1to2/8.png"",""time"":794},{""stimulus"":""img/1to2/9.png"",""time"":891},{""stimulus"":""img/1to2/10.png"",""time"":996},{""stimulus"":""img/1to2/11.png"",""time"":1089},{""stimulus"":""img/1to2/12.png"",""time"":1197}]","[]"
"image-keyboard-response","70","118901","0.0-5.0-1.33","63614ad63aec6bcf8a045124","bdp_cybrbll","Sun Mar 26 2023 15:07:04 GMT-0400 (Eastern Daylight Time)","465032","1","3","","339","","","","choice","","img/2to1/1.png","2","192","847","0.5","0.5","2","3","",""
"animation","71","120189","0.0-5.0-2.33","63614ad63aec6bcf8a045124","bdp_cybrbll","Sun Mar 26 2023 15:07:04 GMT-0400 (Eastern Daylight Time)","465032","1","3","","","","","","","","","","192","","","","2","3","[{""stimulus"":""img/2to3/1.png"",""time"":112},{""stimulus"":""img/2to3/2.png"",""time"":199},{""stimulus"":""img/2to3/3.png"",""time"":298},{""stimulus"":""img/2to3/4.png"",""time"":408},{""stimulus"":""img/2to3/5.png"",""time"":504},{""stimulus"":""img/2to3/6.png"",""time"":595},{""stimulus"":""img/2to3/7.png"",""time"":705},{""stimulus"":""img/2to3/8.png"",""time"":798},{""stimulus"":""img/2to3/9.png"",""time"":891},{""stimulus"":""img/2to3/10.png"",""time"":991},{""stimulus"":""img/2to3/11.png"",""time"":1093},{""stimulus"":""img/2to3/12.png"",""time"":1201}]","[]"
"image-keyboard-response","72","120522","0.0-5.0-1.34","63614ad63aec6bcf8a045124","bdp_cybrbll","Sun Mar 26 2023 15:07:04 GMT-0400 (Eastern Daylight Time)","465032","1","3","","null","","","","observe","","img/3to2/1.png","null","191","322","0.5","0.5","3","1","",""
"animation","73","121811","0.0-5.0-2.34","63614ad63aec6bcf8a045124","bdp_cybrbll","Sun Mar 26 2023 15:07:04 GMT-0400 (Eastern Daylight Time)","465032","1","3","","","","","","","","","","191","","","","3","1","[{""stimulus"":""img/3to1/1.png"",""time"":108},{""stimulus"":""img/3to1/2.png"",""time"":201},{""stimulus"":""img/3to1/3.png"",""time"":298},{""stimulus"":""img/3to1/4.png"",""time"":398},{""stimulus"":""img/3to1/5.png"",""time"":496},{""stimulus"":""img/3to1/6.png"",""time"":595},{""stimulus"":""img/3to1/7.png"",""time"":693},{""stimulus"":""img/3to1/8.png"",""time"":793},{""stimulus"":""img/3to1/9.png"",""time"":900},{""stimulus"":""img/3to1/10.png"",""time"":991},{""stimulus"":""img/3to1/11.png"",""time"":1102},{""stimulus"":""img/3to1/12.png"",""time"":1189}]","[]"
"image-keyboard-response","74","122309","0.0-5.0-1.35","63614ad63aec6bcf8a045124","bdp_cybrbll","Sun Mar 26 2023 15:07:04 GMT-0400 (Eastern Daylight Time)","465032","1","3","","null","","","","observe","","img/1to3/1.png","null","190","492","0.5","0.5","1","2","",""
"animation","75","123596","0.0-5.0-2.35","63614ad63aec6bcf8a045124","bdp_cybrbll","Sun Mar 26 2023 15:07:04 GMT-0400 (Eastern Daylight Time)","465032","1","3","","","","","","","","","","190","","","","1","2","[{""stimulus"":""img/1to2/1.png"",""time"":108},{""stimulus"":""img/1to2/2.png"",""time"":199},{""stimulus"":""img/1to2/3.png"",""time"":298},{""stimulus"":""img/1to2/4.png"",""time"":396},{""stimulus"":""img/1to2/5.png"",""time"":511},{""stimulus"":""img/1to2/6.png"",""time"":605},{""stimulus"":""img/1to2/7.png"",""time"":696},{""stimulus"":""img/1to2/8.png"",""time"":794},{""stimulus"":""img/1to2/9.png"",""time"":892},{""stimulus"":""img/1to2/10.png"",""time"":991},{""stimulus"":""img/1to2/11.png"",""time"":1090},{""stimulus"":""img/1to2/12.png"",""time"":1192}]","[]"
"image-keyboard-response","76","123960","0.0-5.0-1.36","63614ad63aec6bcf8a045124","bdp_cybrbll","Sun Mar 26 2023 15:07:04 GMT-0400 (Eastern Daylight Time)","465032","1","3","","363","","","","choice","","img/2to1/1.png","2","189","923","0.5","0.5","2","3","",""
"animation","77","125249","0.0-5.0-2.36","63614ad63aec6bcf8a045124","bdp_cybrbll","Sun Mar 26 2023 15:07:04 GMT-0400 (Eastern Daylight Time)","465032","1","3","","","","","","","","","","189","","","","2","3","[{""stimulus"":""img/2to3/1.png"",""time"":104},{""stimulus"":""img/2to3/2.png"",""time"":214},{""stimulus"":""img/2to3/3.png"",""time"":308},{""stimulus"":""img/2to3/4.png"",""time"":397},{""stimulus"":""img/2to3/5.png"",""time"":511},{""stimulus"":""img/2to3/6.png"",""time"":595},{""stimulus"":""img/2to3/7.png"",""time"":694},{""stimulus"":""img/2to3/8.png"",""time"":794},{""stimulus"":""img/2to3/9.png"",""time"":899},{""stimulus"":""img/2to3/10.png"",""time"":993},{""stimulus"":""img/2to3/11.png"",""time"":1102},{""stimulus"":""img/2to3/12.png"",""time"":1189}]","[]"
"image-keyboard-response","78","126089","0.0-5.0-1.37","63614ad63aec6bcf8a045124","bdp_cybrbll","Sun Mar 26 2023 15:07:04 GMT-0400 (Eastern Daylight Time)","465032","1","3","","null","","","","observe","","img/3to2/1.png","null","188","836","0.5","0.5","3","1","",""
"animation","79","127382","0.0-5.0-2.37","63614ad63aec6bcf8a045124","bdp_cybrbll","Sun Mar 26 2023 15:07:04 GMT-0400 (Eastern Daylight Time)","465032","1","3","","","","","","","","","","188","","","","3","1","[{""stimulus"":""img/3to1/1.png"",""time"":109},{""stimulus"":""img/3to1/2.png"",""time"":202},{""stimulus"":""img/3to1/3.png"",""time"":312},{""stimulus"":""img/3to1/4.png"",""time"":406},{""stimulus"":""img/3to1/5.png"",""time"":500},{""stimulus"":""img/3to1/6.png"",""time"":609},{""stimulus"":""img/3to1/7.png"",""time"":701},{""stimulus"":""img/3to1/8.png"",""time"":794},{""stimulus"":""img/3to1/9.png"",""time"":904},{""stimulus"":""img/3to1/10.png"",""time"":991},{""stimulus"":""img/3to1/11.png"",""time"":1090},{""stimulus"":""img/3to1/12.png"",""time"":1189}]","[]"
"image-keyboard-response","80","128079","0.0-5.0-1.38","63614ad63aec6bcf8a045124","bdp_cybrbll","Sun Mar 26 2023 15:07:04 GMT-0400 (Eastern Daylight Time)","465032","1","3","","null","","","","observe","","img/1to3/1.png","null","187","691","0.5","0.5","1","3","",""
"animation","81","129372","0.0-5.0-2.38","63614ad63aec6bcf8a045124","bdp_cybrbll","Sun Mar 26 2023 15:07:04 GMT-0400 (Eastern Daylight Time)","465032","1","3","","","","","","","","","","187","","","","1","3","[{""stimulus"":""img/1to3/1.png"",""time"":110},{""stimulus"":""img/1to3/2.png"",""time"":202},{""stimulus"":""img/1to3/3.png"",""time"":311},{""stimulus"":""img/1to3/4.png"",""time"":397},{""stimulus"":""img/1to3/5.png"",""time"":495},{""stimulus"":""img/1to3/6.png"",""time"":595},{""stimulus"":""img/1to3/7.png"",""time"":700},{""stimulus"":""img/1to3/8.png"",""time"":792},{""stimulus"":""img/1to3/9.png"",""time"":902},{""stimulus"":""img/1to3/10.png"",""time"":996},{""stimulus"":""img/1to3/11.png"",""time"":1089},{""stimulus"":""img/1to3/12.png"",""time"":1188}]","[]"
"image-keyboard-response","82","129849","0.0-5.0-1.39","63614ad63aec6bcf8a045124","bdp_cybrbll","Sun Mar 26 2023 15:07:04 GMT-0400 (Eastern Daylight Time)","465032","1","3","","null","","","","observe","","img/3to2/1.png","null","186","475","0.5","0.5","3","2","",""
"animation","83","131148","0.0-5.0-2.39","63614ad63aec6bcf8a045124","bdp_cybrbll","Sun Mar 26 2023 15:07:04 GMT-0400 (Eastern Daylight Time)","465032","1","3","","","","","","","","","","186","","","","3","2","[{""stimulus"":""img/3to2/1.png"",""time"":115},{""stimulus"":""img/3to2/2.png"",""time"":199},{""stimulus"":""img/3to2/3.png"",""time"":298},{""stimulus"":""img/3to2/4.png"",""time"":397},{""stimulus"":""img/3to2/5.png"",""time"":506},{""stimulus"":""img/3to2/6.png"",""time"":599},{""stimulus"":""img/3to2/7.png"",""time"":695},{""stimulus"":""img/3to2/8.png"",""time"":794},{""stimulus"":""img/3to2/9.png"",""time"":892},{""stimulus"":""img/3to2/10.png"",""time"":991},{""stimulus"":""img/3to2/11.png"",""time"":1097},{""stimulus"":""img/3to2/12.png"",""time"":1190}]","[]"
"image-keyboard-response","84","131454","0.0-5.0-1.40","63614ad63aec6bcf8a045124","bdp_cybrbll","Sun Mar 26 2023 15:07:04 GMT-0400 (Eastern Daylight Time)","465032","1","3","","306","","","","choice","","img/2to1/1.png","1","185","175","0.5","0.5","2","1","",""
"animation","85","132749","0.0-5.0-2.40","63614ad63aec6bcf8a045124","bdp_cybrbll","Sun Mar 26 2023 15:07:04 GMT-0400 (Eastern Daylight Time)","465032","1","3","","","","","","","","","","185","","","","2","1","[{""stimulus"":""img/2to1/1.png"",""time"":113},{""stimulus"":""img/2to1/2.png"",""time"":206},{""stimulus"":""img/2to1/3.png"",""time"":298},{""stimulus"":""img/2to1/4.png"",""time"":398},{""stimulus"":""img/2to1/5.png"",""time"":497},{""stimulus"":""img/2to1/6.png"",""time"":596},{""stimulus"":""img/2to1/7.png"",""time"":705},{""stimulus"":""img/2to1/8.png"",""time"":797},{""stimulus"":""img/2to1/9.png"",""time"":905},{""stimulus"":""img/2to1/10.png"",""time"":1000},{""stimulus"":""img/2to1/11.png"",""time"":1093},{""stimulus"":""img/2to1/12.png"",""time"":1190}]","[]"
"image-keyboard-response","86","133060","0.0-5.0-1.41","63614ad63aec6bcf8a045124","bdp_cybrbll","Sun Mar 26 2023 15:07:04 GMT-0400 (Eastern Daylight Time)","465032","1","3","","null","","","","observe","","img/1to3/1.png","null","184","310","0.5","0.5","1","3","",""
"animation","87","134353","0.0-5.0-2.41","63614ad63aec6bcf8a045124","bdp_cybrbll","Sun Mar 26 2023 15:07:04 GMT-0400 (Eastern Daylight Time)","465032","1","3","","","","","","","","","","184","","","","1","3","[{""stimulus"":""img/1to3/1.png"",""time"":108},{""stimulus"":""img/1to3/2.png"",""time"":201},{""stimulus"":""img/1to3/3.png"",""time"":310},{""stimulus"":""img/1to3/4.png"",""time"":404},{""stimulus"":""img/1to3/5.png"",""time"":497},{""stimulus"":""img/1to3/6.png"",""time"":606},{""stimulus"":""img/1to3/7.png"",""time"":693},{""stimulus"":""img/1to3/8.png"",""time"":793},{""stimulus"":""img/1to3/9.png"",""time"":892},{""stimulus"":""img/1to3/10.png"",""time"":991},{""stimulus"":""img/1to3/11.png"",""time"":1089},{""stimulus"":""img/1to3/12.png"",""time"":1188}]","[]"
"image-keyboard-response","88","135273","0.0-5.0-1.42","63614ad63aec6bcf8a045124","bdp_cybrbll","Sun Mar 26 2023 15:07:04 GMT-0400 (Eastern Daylight Time)","465032","1","3","","null","","","","observe","","img/3to2/1.png","null","183","919","0.5","0.5","3","1","",""
"animation","89","136576","0.0-5.0-2.42","63614ad63aec6bcf8a045124","bdp_cybrbll","Sun Mar 26 2023 15:07:04 GMT-0400 (Eastern Daylight Time)","465032","1","3","","","","","","","","","","183","","","","3","1","[{""stimulus"":""img/3to1/1.png"",""time"":102},{""stimulus"":""img/3to1/2.png"",""time"":212},{""stimulus"":""img/3to1/3.png"",""time"":299},{""stimulus"":""img/3to1/4.png"",""time"":397},{""stimulus"":""img/3to1/5.png"",""time"":509},{""stimulus"":""img/3to1/6.png"",""time"":601},{""stimulus"":""img/3to1/7.png"",""time"":694},{""stimulus"":""img/3to1/8.png"",""time"":793},{""stimulus"":""img/3to1/9.png"",""time"":892},{""stimulus"":""img/3to1/10.png"",""time"":1006},{""stimulus"":""img/3to1/11.png"",""time"":1101},{""stimulus"":""img/3to1/12.png"",""time"":1194}]","[]"
"image-keyboard-response","90","136872","0.0-5.0-1.43","63614ad63aec6bcf8a045124","bdp_cybrbll","Sun Mar 26 2023 15:07:04 GMT-0400 (Eastern Daylight Time)","465032","1","3","","null","","","","observe","","img/1to3/1.png","null","182","280","0.5","0.5","1","2","",""
"animation","91","138160","0.0-5.0-2.43","63614ad63aec6bcf8a045124","bdp_cybrbll","Sun Mar 26 2023 15:07:04 GMT-0400 (Eastern Daylight Time)","465032","1","3","","","","","","","","","","182","","","","1","2","[{""stimulus"":""img/1to2/1.png"",""time"":110},{""stimulus"":""img/1to2/2.png"",""time"":199},{""stimulus"":""img/1to2/3.png"",""time"":298},{""stimulus"":""img/1to2/4.png"",""time"":397},{""stimulus"":""img/1to2/5.png"",""time"":496},{""stimulus"":""img/1to2/6.png"",""time"":595},{""stimulus"":""img/1to2/7.png"",""time"":698},{""stimulus"":""img/1to2/8.png"",""time"":808},{""stimulus"":""img/1to2/9.png"",""time"":901},{""stimulus"":""img/1to2/10.png"",""time"":994},{""stimulus"":""img/1to2/11.png"",""time"":1090},{""stimulus"":""img/1to2/12.png"",""time"":1195}]","[]"
"image-keyboard-response","92","138510","0.0-5.0-1.44","63614ad63aec6bcf8a045124","bdp_cybrbll","Sun Mar 26 2023 15:07:04 GMT-0400 (Eastern Daylight Time)","465032","1","3","","350","","","","choice","","img/2to1/1.png","2","181","325","0.5","0.5","2","3","",""
"animation","93","139811","0.0-5.0-2.44","63614ad63aec6bcf8a045124","bdp_cybrbll","Sun Mar 26 2023 15:07:04 GMT-0400 (Eastern Daylight Time)","465032","1","3","","","","","","","","","","181","","","","2","3","[{""stimulus"":""img/2to3/1.png"",""time"":100},{""stimulus"":""img/2to3/2.png"",""time"":209},{""stimulus"":""img/2to3/3.png"",""time"":302},{""stimulus"":""img/2to3/4.png"",""time"":412},{""stimulus"":""img/2to3/5.png"",""time"":497},{""stimulus"":""img/2to3/6.png"",""time"":597},{""stimulus"":""img/2to3/7.png"",""time"":694},{""stimulus"":""img/2to3/8.png"",""time"":794},{""stimulus"":""img/2to3/9.png"",""time"":896},{""stimulus"":""img/2to3/10.png"",""time"":1005},{""stimulus"":""img/2to3/11.png"",""time"":1090},{""stimulus"":""img/2to3/12.png"",""time"":1189}]","[]"
"image-keyboard-response","94","140105","0.0-5.0-1.45","63614ad63aec6bcf8a045124","bdp_cybrbll","Sun Mar 26 2023 15:07:04 GMT-0400 (Eastern Daylight Time)","465032","1","3","","null","","","","observe","","img/3to2/1.png","null","180","280","0.5","0.5","3","2","",""
"animation","95","141397","0.0-5.0-2.45","63614ad63aec6bcf8a045124","bdp_cybrbll","Sun Mar 26 2023 15:07:04 GMT-0400 (Eastern Daylight Time)","465032","1","3","","","","","","","","","","180","","","","3","2","[{""stimulus"":""img/3to2/1.png"",""time"":108},{""stimulus"":""img/3to2/2.png"",""time"":201},{""stimulus"":""img/3to2/3.png"",""time"":310},{""stimulus"":""img/3to2/4.png"",""time"":404},{""stimulus"":""img/3to2/5.png"",""time"":495},{""stimulus"":""img/3to2/6.png"",""time"":595},{""stimulus"":""img/3to2/7.png"",""time"":701},{""stimulus"":""img/3to2/8.png"",""time"":793},{""stimulus"":""img/3to2/9.png"",""time"":892},{""stimulus"":""img/3to2/10.png"",""time"":996},{""stimulus"":""img/3to2/11.png"",""time"":1090},{""stimulus"":""img/3to2/12.png"",""time"":1198}]","[]"
"image-keyboard-response","96","142343","0.0-5.0-1.46","63614ad63aec6bcf8a045124","bdp_cybrbll","Sun Mar 26 2023 15:07:04 GMT-0400 (Eastern Daylight Time)","465032","1","3","","944","","","","choice","","img/2to1/1.png","1","179","578","0.5","0.5","2","1","",""
"animation","97","143632","0.0-5.0-2.46","63614ad63aec6bcf8a045124","bdp_cybrbll","Sun Mar 26 2023 15:07:04 GMT-0400 (Eastern Daylight Time)","465032","1","3","","","","","","","","","","179","","","","2","1","[{""stimulus"":""img/2to1/1.png"",""time"":114},{""stimulus"":""img/2to1/2.png"",""time"":207},{""stimulus"":""img/2to1/3.png"",""time"":299},{""stimulus"":""img/2to1/4.png"",""time"":396},{""stimulus"":""img/2to1/5.png"",""time"":501},{""stimulus"":""img/2to1/6.png"",""time"":609},{""stimulus"":""img/2to1/7.png"",""time"":703},{""stimulus"":""img/2to1/8.png"",""time"":796},{""stimulus"":""img/2to1/9.png"",""time"":891},{""stimulus"":""img/2to1/10.png"",""time"":991},{""stimulus"":""img/2to1/11.png"",""time"":1091},{""stimulus"":""img/2to1/12.png"",""time"":1188}]","[]"
"image-keyboard-response","98","143933","0.0-5.0-1.47","63614ad63aec6bcf8a045124","bdp_cybrbll","Sun Mar 26 2023 15:07:04 GMT-0400 (Eastern Daylight Time)","465032","1","3","","null","","","","observe","","img/1to3/1.png","null","178","300","0.5","0.5","1","2","",""
"animation","99","145221","0.0-5.0-2.47","63614ad63aec6bcf8a045124","bdp_cybrbll","Sun Mar 26 2023 15:07:04 GMT-0400 (Eastern Daylight Time)","465032","1","3","","","","","","","","","","178","","","","1","2","[{""stimulus"":""img/1to2/1.png"",""time"":106},{""stimulus"":""img/1to2/2.png"",""time"":199},{""stimulus"":""img/1to2/3.png"",""time"":298},{""stimulus"":""img/1to2/4.png"",""time"":401},{""stimulus"":""img/1to2/5.png"",""time"":511},{""stimulus"":""img/1to2/6.png"",""time"":596},{""stimulus"":""img/1to2/7.png"",""time"":697},{""stimulus"":""img/1to2/8.png"",""time"":793},{""stimulus"":""img/1to2/9.png"",""time"":899},{""stimulus"":""img/1to2/10.png"",""time"":991},{""stimulus"":""img/1to2/11.png"",""time"":1102},{""stimulus"":""img/1to2/12.png"",""time"":1189}]","[]"
"image-keyboard-response","100","145694","0.0-5.0-1.48","63614ad63aec6bcf8a045124","bdp_cybrbll","Sun Mar 26 2023 15:07:04 GMT-0400 (Eastern Daylight Time)","465032","1","3","","472","","","","choice","","img/2to1/1.png","2","177","243","0.5","0.5","2","3","",""
"animation","101","146982","0.0-5.0-2.48","63614ad63aec6bcf8a045124","bdp_cybrbll","Sun Mar 26 2023 15:07:04 GMT-0400 (Eastern Daylight Time)","465032","1","3","","","","","","","","","","177","","","","2","3","[{""stimulus"":""img/2to3/1.png"",""time"":101},{""stimulus"":""img/2to3/2.png"",""time"":210},{""stimulus"":""img/2to3/3.png"",""time"":302},{""stimulus"":""img/2to3/4.png"",""time"":397},{""stimulus"":""img/2to3/5.png"",""time"":496},{""stimulus"":""img/2to3/6.png"",""time"":594},{""stimulus"":""img/2to3/7.png"",""time"":707},{""stimulus"":""img/2to3/8.png"",""time"":793},{""stimulus"":""img/2to3/9.png"",""time"":892},{""stimulus"":""img/2to3/10.png"",""time"":991},{""stimulus"":""img/2to3/11.png"",""time"":1090},{""stimulus"":""img/2to3/12.png"",""time"":1189}]","[]"
"image-keyboard-response","102","147179","0.0-5.0-1.49","63614ad63aec6bcf8a045124","bdp_cybrbll","Sun Mar 26 2023 15:07:04 GMT-0400 (Eastern Daylight Time)","465032","1","3","","null","","","","observe","","img/3to2/1.png","null","176","196","0.5","0.5","3","1","",""
"animation","103","148481","0.0-5.0-2.49","63614ad63aec6bcf8a045124","bdp_cybrbll","Sun Mar 26 2023 15:07:04 GMT-0400 (Eastern Daylight Time)","465032","1","3","","","","","","","","","","176","","","","3","1","[{""stimulus"":""img/3to1/1.png"",""time"":107},{""stimulus"":""img/3to1/2.png"",""time"":199},{""stimulus"":""img/3to1/3.png"",""time"":299},{""stimulus"":""img/3to1/4.png"",""time"":397},{""stimulus"":""img/3to1/5.png"",""time"":496},{""stimulus"":""img/3to1/6.png"",""time"":604},{""stimulus"":""img/3to1/7.png"",""time"":695},{""stimulus"":""img/3to1/8.png"",""time"":805},{""stimulus"":""img/3to1/9.png"",""time"":898},{""stimulus"":""img/3to1/10.png"",""time"":992},{""stimulus"":""img/3to1/11.png"",""time"":1090},{""stimulus"":""img/3to1/12.png"",""time"":1194}]","[]"
"image-keyboard-response","104","149325","0.0-5.0-1.50","63614ad63aec6bcf8a045124","bdp_cybrbll","Sun Mar 26 2023 15:07:04 GMT-0400 (Eastern Daylight Time)","465032","1","3","","null","","","","observe","","img/1to3/1.png","null","175","842","0.5","0.5","1","2","",""
"animation","105","150613","0.0-5.0-2.50","63614ad63aec6bcf8a045124","bdp_cybrbll","Sun Mar 26 2023 15:07:04 GMT-0400 (Eastern Daylight Time)","465032","1","3","","","","","","","","","","175","","","","1","2","[{""stimulus"":""img/1to2/1.png"",""time"":103},{""stimulus"":""img/1to2/2.png"",""time"":199},{""stimulus"":""img/1to2/3.png"",""time"":298},{""stimulus"":""img/1to2/4.png"",""time"":397},{""stimulus"":""img/1to2/5.png"",""time"":506},{""stimulus"":""img/1to2/6.png"",""time"":595},{""stimulus"":""img/1to2/7.png"",""time"":707},{""stimulus"":""img/1to2/8.png"",""time"":792},{""stimulus"":""img/1to2/9.png"",""time"":891},{""stimulus"":""img/1to2/10.png"",""time"":1003},{""stimulus"":""img/1to2/11.png"",""time"":1096},{""stimulus"":""img/1to2/12.png"",""time"":1189}]","[]"
"image-keyboard-response","106","151263","0.0-5.0-1.51","63614ad63aec6bcf8a045124","bdp_cybrbll","Sun Mar 26 2023 15:07:04 GMT-0400 (Eastern Daylight Time)","465032","1","3","","649","","","","choice","","img/2to1/1.png","2","174","469","0.5","0.5","2","3","",""
"animation","107","152551","0.0-5.0-2.51","63614ad63aec6bcf8a045124","bdp_cybrbll","Sun Mar 26 2023 15:07:04 GMT-0400 (Eastern Daylight Time)","465032","1","3","","","","","","","","","","174","","","","2","3","[{""stimulus"":""img/2to3/1.png"",""time"":107},{""stimulus"":""img/2to3/2.png"",""time"":201},{""stimulus"":""img/2to3/3.png"",""time"":309},{""stimulus"":""img/2to3/4.png"",""time"":397},{""stimulus"":""img/2to3/5.png"",""time"":511},{""stimulus"":""img/2to3/6.png"",""time"":596},{""stimulus"":""img/2to3/7.png"",""time"":696},{""stimulus"":""img/2to3/8.png"",""time"":805},{""stimulus"":""img/2to3/9.png"",""time"":893},{""stimulus"":""img/2to3/10.png"",""time"":1005},{""stimulus"":""img/2to3/11.png"",""time"":1099},{""stimulus"":""img/2to3/12.png"",""time"":1190}]","[]"
"image-keyboard-response","108","152800","0.0-5.0-1.52","63614ad63aec6bcf8a045124","bdp_cybrbll","Sun Mar 26 2023 15:07:04 GMT-0400 (Eastern Daylight Time)","465032","1","3","","null","","","","observe","","img/3to2/1.png","null","173","248","0.5","0.5","3","2","",""
"animation","109","154088","0.0-5.0-2.52","63614ad63aec6bcf8a045124","bdp_cybrbll","Sun Mar 26 2023 15:07:04 GMT-0400 (Eastern Daylight Time)","465032","1","3","","","","","","","","","","173","","","","3","2","[{""stimulus"":""img/3to2/1.png"",""time"":103},{""stimulus"":""img/3to2/2.png"",""time"":199},{""stimulus"":""img/3to2/3.png"",""time"":298},{""stimulus"":""img/3to2/4.png"",""time"":399},{""stimulus"":""img/3to2/5.png"",""time"":508},{""stimulus"":""img/3to2/6.png"",""time"":595},{""stimulus"":""img/3to2/7.png"",""time"":709},{""stimulus"":""img/3to2/8.png"",""time"":802},{""stimulus"":""img/3to2/9.png"",""time"":892},{""stimulus"":""img/3to2/10.png"",""time"":1005},{""stimulus"":""img/3to2/11.png"",""time"":1090},{""stimulus"":""img/3to2/12.png"",""time"":1189}]","[]"
"image-keyboard-response","110","154366","0.0-5.0-1.53","63614ad63aec6bcf8a045124","bdp_cybrbll","Sun Mar 26 2023 15:07:04 GMT-0400 (Eastern Daylight Time)","465032","1","3","","277","","","","choice","","img/2to1/1.png","1","172","352","0.5","0.5","2","1","",""
"animation","111","155654","0.0-5.0-2.53","63614ad63aec6bcf8a045124","bdp_cybrbll","Sun Mar 26 2023 15:07:04 GMT-0400 (Eastern Daylight Time)","465032","1","3","","","","","","","","","","172","","","","2","1","[{""stimulus"":""img/2to1/1.png"",""time"":106},{""stimulus"":""img/2to1/2.png"",""time"":200},{""stimulus"":""img/2to1/3.png"",""time"":312},{""stimulus"":""img/2to1/4.png"",""time"":397},{""stimulus"":""img/2to1/5.png"",""time"":496},{""stimulus"":""img/2to1/6.png"",""time"":604},{""stimulus"":""img/2to1/7.png"",""time"":695},{""stimulus"":""img/2to1/8.png"",""time"":793},{""stimulus"":""img/2to1/9.png"",""time"":892},{""stimulus"":""img/2to1/10.png"",""time"":991},{""stimulus"":""img/2to1/11.png"",""time"":1101},{""stimulus"":""img/2to1/12.png"",""time"":1189}]","[]"
"image-keyboard-response","112","156729","0.0-5.0-1.54","63614ad63aec6bcf8a045124","bdp_cybrbll","Sun Mar 26 2023 15:07:04 GMT-0400 (Eastern Daylight Time)","465032","1","3","","null","","","","observe","","img/1to3/1.png","null","171","1062","0.5","0.5","1","3","",""
"animation","113","158017","0.0-5.0-2.54","63614ad63aec6bcf8a045124","bdp_cybrbll","Sun Mar 26 2023 15:07:04 GMT-0400 (Eastern Daylight Time)","465032","1","3","","","","","","","","","","171","","","","1","3","[{""stimulus"":""img/1to3/1.png"",""time"":105},{""stimulus"":""img/1to3/2.png"",""time"":200},{""stimulus"":""img/1to3/3.png"",""time"":299},{""stimulus"":""img/1to3/4.png"",""time"":397},{""stimulus"":""img/1to3/5.png"",""time"":511},{""stimulus"":""img/1to3/6.png"",""time"":595},{""stimulus"":""img/1to3/7.png"",""time"":699},{""stimulus"":""img/1to3/8.png"",""time"":806},{""stimulus"":""img/1to3/9.png"",""time"":893},{""stimulus"":""img/1to3/10.png"",""time"":992},{""stimulus"":""img/1to3/11.png"",""time"":1090},{""stimulus"":""img/1to3/12.png"",""time"":1189}]","[]"
"image-keyboard-response","114","158377","0.0-5.0-1.55","63614ad63aec6bcf8a045124","bdp_cybrbll","Sun Mar 26 2023 15:07:04 GMT-0400 (Eastern Daylight Time)","465032","1","3","","null","","","","observe","","img/3to2/1.png","null","170","354","0.5","0.5","3","1","",""
"animation","115","159669","0.0-5.0-2.55","63614ad63aec6bcf8a045124","bdp_cybrbll","Sun Mar 26 2023 15:07:04 GMT-0400 (Eastern Daylight Time)","465032","1","3","","","","","","","","","","170","","","","3","1","[{""stimulus"":""img/3to1/1.png"",""time"":108},{""stimulus"":""img/3to1/2.png"",""time"":198},{""stimulus"":""img/3to1/3.png"",""time"":299},{""stimulus"":""img/3to1/4.png"",""time"":405},{""stimulus"":""img/3to1/5.png"",""time"":498},{""stimulus"":""img/3to1/6.png"",""time"":594},{""stimulus"":""img/3to1/7.png"",""time"":694},{""stimulus"":""img/3to1/8.png"",""time"":793},{""stimulus"":""img/3to1/9.png"",""time"":903},{""stimulus"":""img/3to1/10.png"",""time"":991},{""stimulus"":""img/3to1/11.png"",""time"":1090},{""stimulus"":""img/3to1/12.png"",""time"":1188}]","[]"
"image-keyboard-response","116","160197","0.0-5.0-1.56","63614ad63aec6bcf8a045124","bdp_cybrbll","Sun Mar 26 2023 15:07:04 GMT-0400 (Eastern Daylight Time)","465032","1","3","","null","","","","observe","","img/1to3/1.png","null","169","527","0.5","0.5","1","3","",""
"animation","117","161495","0.0-5.0-2.56","63614ad63aec6bcf8a045124","bdp_cybrbll","Sun Mar 26 2023 15:07:04 GMT-0400 (Eastern Daylight Time)","465032","1","3","","","","","","","","","","169","","","","1","3","[{""stimulus"":""img/1to3/1.png"",""time"":111},{""stimulus"":""img/1to3/2.png"",""time"":205},{""stimulus"":""img/1to3/3.png"",""time"":297},{""stimulus"":""img/1to3/4.png"",""time"":397},{""stimulus"":""img/1to3/5.png"",""time"":496},{""stimulus"":""img/1to3/6.png"",""time"":594},{""stimulus"":""img/1to3/7.png"",""time"":694},{""stimulus"":""img/1to3/8.png"",""time"":796},{""stimulus"":""img/1to3/9.png"",""time"":906},{""stimulus"":""img/1to3/10.png"",""time"":990},{""stimulus"":""img/1to3/11.png"",""time"":1090},{""stimulus"":""img/1to3/12.png"",""time"":1189}]","[]"
"image-keyboard-response","118","163064","0.0-5.0-1.57","63614ad63aec6bcf8a045124","bdp_cybrbll","Sun Mar 26 2023 15:07:04 GMT-0400 (Eastern Daylight Time)","465032","1","3","","null","","","","observe","","img/3to2/1.png","null","168","1567","0.5","0.5","3","1","",""
"animation","119","164358","0.0-5.0-2.57","63614ad63aec6bcf8a045124","bdp_cybrbll","Sun Mar 26 2023 15:07:04 GMT-0400 (Eastern Daylight Time)","465032","1","3","","","","","","","","","","168","","","","3","1","[{""stimulus"":""img/3to1/1.png"",""time"":111},{""stimulus"":""img/3to1/2.png"",""time"":199},{""stimulus"":""img/3to1/3.png"",""time"":298},{""stimulus"":""img/3to1/4.png"",""time"":406},{""stimulus"":""img/3to1/5.png"",""time"":499},{""stimulus"":""img/3to1/6.png"",""time"":608},{""stimulus"":""img/3to1/7.png"",""time"":701},{""stimulus"":""img/3to1/8.png"",""time"":794},{""stimulus"":""img/3to1/9.png"",""time"":892},{""stimulus"":""img/3to1/10.png"",""time"":998},{""stimulus"":""img/3to1/11.png"",""time"":1090},{""stimulus"":""img/3to1/12.png"",""time"":1200}]","[]"
"image-keyboard-response","120","164949","0.0-5.0-1.58","63614ad63aec6bcf8a045124","bdp_cybrbll","Sun Mar 26 2023 15:07:04 GMT-0400 (Eastern Daylight Time)","465032","1","3","","null","","","","observe","","img/1to3/1.png","null","167","584","0.5","0.5","1","2","",""
"animation","121","166236","0.0-5.0-2.58","63614ad63aec6bcf8a045124","bdp_cybrbll","Sun Mar 26 2023 15:07:04 GMT-0400 (Eastern Daylight Time)","465032","1","3","","","","","","","","","","167","","","","1","2","[{""stimulus"":""img/1to2/1.png"",""time"":108},{""stimulus"":""img/1to2/2.png"",""time"":200},{""stimulus"":""img/1to2/3.png"",""time"":298},{""stimulus"":""img/1to2/4.png"",""time"":397},{""stimulus"":""img/1to2/5.png"",""time"":496},{""stimulus"":""img/1to2/6.png"",""time"":596},{""stimulus"":""img/1to2/7.png"",""time"":694},{""stimulus"":""img/1to2/8.png"",""time"":793},{""stimulus"":""img/1to2/9.png"",""time"":892},{""stimulus"":""img/1to2/10.png"",""time"":993},{""stimulus"":""img/1to2/11.png"",""time"":1101},{""stimulus"":""img/1to2/12.png"",""time"":1189}]","[]"
"image-keyboard-response","122","167513","0.0-5.0-1.59","63614ad63aec6bcf8a045124","bdp_cybrbll","Sun Mar 26 2023 15:07:04 GMT-0400 (Eastern Daylight Time)","465032","1","3","","1276","","","","choice","","img/2to1/1.png","2","166","638","0.5","0.5","2","3","",""
"animation","123","168801","0.0-5.0-2.59","63614ad63aec6bcf8a045124","bdp_cybrbll","Sun Mar 26 2023 15:07:04 GMT-0400 (Eastern Daylight Time)","465032","1","3","","","","","","","","","","166","","","","2","3","[{""stimulus"":""img/2to3/1.png"",""time"":107},{""stimulus"":""img/2to3/2.png"",""time"":200},{""stimulus"":""img/2to3/3.png"",""time"":310},{""stimulus"":""img/2to3/4.png"",""time"":397},{""stimulus"":""img/2to3/5.png"",""time"":496},{""stimulus"":""img/2to3/6.png"",""time"":603},{""stimulus"":""img/2to3/7.png"",""time"":694},{""stimulus"":""img/2to3/8.png"",""time"":793},{""stimulus"":""img/2to3/9.png"",""time"":899},{""stimulus"":""img/2to3/10.png"",""time"":993},{""stimulus"":""img/2to3/11.png"",""time"":1091},{""stimulus"":""img/2to3/12.png"",""time"":1189}]","[]"
"image-keyboard-response","124","168989","0.0-5.0-1.60","63614ad63aec6bcf8a045124","bdp_cybrbll","Sun Mar 26 2023 15:07:04 GMT-0400 (Eastern Daylight Time)","465032","1","3","","null","","","","observe","","img/3to2/1.png","null","165","187","0.5","0.5","3","2","",""
"animation","125","170277","0.0-5.0-2.60","63614ad63aec6bcf8a045124","bdp_cybrbll","Sun Mar 26 2023 15:07:04 GMT-0400 (Eastern Daylight Time)","465032","1","3","","","","","","","","","","165","","","","3","2","[{""stimulus"":""img/3to2/1.png"",""time"":108},{""stimulus"":""img/3to2/2.png"",""time"":200},{""stimulus"":""img/3to2/3.png"",""time"":310},{""stimulus"":""img/3to2/4.png"",""time"":397},{""stimulus"":""img/3to2/5.png"",""time"":497},{""stimulus"":""img/3to2/6.png"",""time"":595},{""stimulus"":""img/3to2/7.png"",""time"":698},{""stimulus"":""img/3to2/8.png"",""time"":793},{""stimulus"":""img/3to2/9.png"",""time"":901},{""stimulus"":""img/3to2/10.png"",""time"":992},{""stimulus"":""img/3to2/11.png"",""time"":1101},{""stimulus"":""img/3to2/12.png"",""time"":1189}]","[]"
"image-keyboard-response","126","170357","0.0-5.0-1.61","63614ad63aec6bcf8a045124","bdp_cybrbll","Sun Mar 26 2023 15:07:04 GMT-0400 (Eastern Daylight Time)","465032","1","3","","80","","","","choice","","img/2to1/1.png","1","164","979","0.5","0.5","2","1","",""
"animation","127","171645","0.0-5.0-2.61","63614ad63aec6bcf8a045124","bdp_cybrbll","Sun Mar 26 2023 15:07:04 GMT-0400 (Eastern Daylight Time)","465032","1","3","","","","","","","","","","164","","","","2","1","[{""stimulus"":""img/2to1/1.png"",""time"":105},{""stimulus"":""img/2to1/2.png"",""time"":200},{""stimulus"":""img/2to1/3.png"",""time"":309},{""stimulus"":""img/2to1/4.png"",""time"":404},{""stimulus"":""img/2to1/5.png"",""time"":497},{""stimulus"":""img/2to1/6.png"",""time"":606},{""stimulus"":""img/2to1/7.png"",""time"":699},{""stimulus"":""img/2to1/8.png"",""time"":793},{""stimulus"":""img/2to1/9.png"",""time"":892},{""stimulus"":""img/2to1/10.png"",""time"":992},{""stimulus"":""img/2to1/11.png"",""time"":1090},{""stimulus"":""img/2to1/12.png"",""time"":1194}]","[]"
"image-keyboard-response","128","172450","0.0-5.0-1.62","63614ad63aec6bcf8a045124","bdp_cybrbll","Sun Mar 26 2023 15:07:04 GMT-0400 (Eastern Daylight Time)","465032","1","3","","null","","","","observe","","img/1to3/1.png","null","163","800","0.5","0.5","1","3","",""
"animation","129","173737","0.0-5.0-2.62","63614ad63aec6bcf8a045124","bdp_cybrbll","Sun Mar 26 2023 15:07:04 GMT-0400 (Eastern Daylight Time)","465032","1","3","","","","","","","","","","163","","","","1","3","[{""stimulus"":""img/1to3/1.png"",""time"":110},{""stimulus"":""img/1to3/2.png"",""time"":203},{""stimulus"":""img/1to3/3.png"",""time"":312},{""stimulus"":""img/1to3/4.png"",""time"":407},{""stimulus"":""img/1to3/5.png"",""time"":496},{""stimulus"":""img/1to3/6.png"",""time"":595},{""stimulus"":""img/1to3/7.png"",""time"":694},{""stimulus"":""img/1to3/8.png"",""time"":792},{""stimulus"":""img/1to3/9.png"",""time"":892},{""stimulus"":""img/1to3/10.png"",""time"":999},{""stimulus"":""img/1to3/11.png"",""time"":1090},{""stimulus"":""img/1to3/12.png"",""time"":1189}]","[]"
"image-keyboard-response","130","174367","0.0-5.0-1.63","63614ad63aec6bcf8a045124","bdp_cybrbll","Sun Mar 26 2023 15:07:04 GMT-0400 (Eastern Daylight Time)","465032","1","3","","null","","","","observe","","img/3to2/1.png","null","162","627","0.5","0.5","3","2","",""
"animation","131","175657","0.0-5.0-2.63","63614ad63aec6bcf8a045124","bdp_cybrbll","Sun Mar 26 2023 15:07:04 GMT-0400 (Eastern Daylight Time)","465032","1","3","","","","","","","","","","162","","","","3","2","[{""stimulus"":""img/3to2/1.png"",""time"":109},{""stimulus"":""img/3to2/2.png"",""time"":199},{""stimulus"":""img/3to2/3.png"",""time"":310},{""stimulus"":""img/3to2/4.png"",""time"":404},{""stimulus"":""img/3to2/5.png"",""time"":496},{""stimulus"":""img/3to2/6.png"",""time"":594},{""stimulus"":""img/3to2/7.png"",""time"":699},{""stimulus"":""img/3to2/8.png"",""time"":792},{""stimulus"":""img/3to2/9.png"",""time"":900},{""stimulus"":""img/3to2/10.png"",""time"":990},{""stimulus"":""img/3to2/11.png"",""time"":1090},{""stimulus"":""img/3to2/12.png"",""time"":1189}]","[]"
"image-keyboard-response","132","175781","0.0-5.0-1.64","63614ad63aec6bcf8a045124","bdp_cybrbll","Sun Mar 26 2023 15:07:04 GMT-0400 (Eastern Daylight Time)","465032","1","3","","122","","","","choice","","img/2to1/1.png","1","161","328","0.5","0.5","2","1","",""
"animation","133","177069","0.0-5.0-2.64","63614ad63aec6bcf8a045124","bdp_cybrbll","Sun Mar 26 2023 15:07:04 GMT-0400 (Eastern Daylight Time)","465032","1","3","","","","","","","","","","161","","","","2","1","[{""stimulus"":""img/2to1/1.png"",""time"":111},{""stimulus"":""img/2to1/2.png"",""time"":200},{""stimulus"":""img/2to1/3.png"",""time"":298},{""stimulus"":""img/2to1/4.png"",""time"":397},{""stimulus"":""img/2to1/5.png"",""time"":496},{""stimulus"":""img/2to1/6.png"",""time"":596},{""stimulus"":""img/2to1/7.png"",""time"":705},{""stimulus"":""img/2to1/8.png"",""time"":793},{""stimulus"":""img/2to1/9.png"",""time"":891},{""stimulus"":""img/2to1/10.png"",""time"":991},{""stimulus"":""img/2to1/11.png"",""time"":1089},{""stimulus"":""img/2to1/12.png"",""time"":1188}]","[]"
"image-keyboard-response","134","177762","0.0-5.0-1.65","63614ad63aec6bcf8a045124","bdp_cybrbll","Sun Mar 26 2023 15:07:04 GMT-0400 (Eastern Daylight Time)","465032","1","3","","null","","","","observe","","img/1to3/1.png","null","160","685","0.5","0.5","1","2","",""
"animation","135","179053","0.0-5.0-2.65","63614ad63aec6bcf8a045124","bdp_cybrbll","Sun Mar 26 2023 15:07:04 GMT-0400 (Eastern Daylight Time)","465032","1","3","","","","","","","","","","160","","","","1","2","[{""stimulus"":""img/1to2/1.png"",""time"":111},{""stimulus"":""img/1to2/2.png"",""time"":199},{""stimulus"":""img/1to2/3.png"",""time"":298},{""stimulus"":""img/1to2/4.png"",""time"":398},{""stimulus"":""img/1to2/5.png"",""time"":500},{""stimulus"":""img/1to2/6.png"",""time"":609},{""stimulus"":""img/1to2/7.png"",""time"":694},{""stimulus"":""img/1to2/8.png"",""time"":793},{""stimulus"":""img/1to2/9.png"",""time"":892},{""stimulus"":""img/1to2/10.png"",""time"":995},{""stimulus"":""img/1to2/11.png"",""time"":1090},{""stimulus"":""img/1to2/12.png"",""time"":1199}]","[]"
"image-keyboard-response","136","179085","0.0-5.0-1.66","63614ad63aec6bcf8a045124","bdp_cybrbll","Sun Mar 26 2023 15:07:04 GMT-0400 (Eastern Daylight Time)","465032","1","3","","32","","","","choice","","img/2to1/1.png","2","159","1062","0.5","0.5","2","3","",""
"animation","137","180376","0.0-5.0-2.66","63614ad63aec6bcf8a045124","bdp_cybrbll","Sun Mar 26 2023 15:07:04 GMT-0400 (Eastern Daylight Time)","465032","1","3","","","","","","","","","","159","","","","2","3","[{""stimulus"":""img/2to3/1.png"",""time"":109},{""stimulus"":""img/2to3/2.png"",""time"":201},{""stimulus"":""img/2to3/3.png"",""time"":311},{""stimulus"":""img/2to3/4.png"",""time"":397},{""stimulus"":""img/2to3/5.png"",""time"":496},{""stimulus"":""img/2to3/6.png"",""time"":595},{""stimulus"":""img/2to3/7.png"",""time"":699},{""stimulus"":""img/2to3/8.png"",""time"":792},{""stimulus"":""img/2to3/9.png"",""time"":892},{""stimulus"":""img/2to3/10.png"",""time"":991},{""stimulus"":""img/2to3/11.png"",""time"":1090},{""stimulus"":""img/2to3/12.png"",""time"":1189}]","[]"
"image-keyboard-response","138","180647","0.0-5.0-1.67","63614ad63aec6bcf8a045124","bdp_cybrbll","Sun Mar 26 2023 15:07:04 GMT-0400 (Eastern Daylight Time)","465032","1","3","","null","","","","observe","","img/3to2/1.png","null","158","270","0.5","0.5","3","1","",""
"animation","139","181935","0.0-5.0-2.67","63614ad63aec6bcf8a045124","bdp_cybrbll","Sun Mar 26 2023 15:07:04 GMT-0400 (Eastern Daylight Time)","465032","1","3","","","","","","","","","","158","","","","3","1","[{""stimulus"":""img/3to1/1.png"",""time"":103},{""stimulus"":""img/3to1/2.png"",""time"":212},{""stimulus"":""img/3to1/3.png"",""time"":298},{""stimulus"":""img/3to1/4.png"",""time"":397},{""stimulus"":""img/3to1/5.png"",""time"":496},{""stimulus"":""img/3to1/6.png"",""time"":602},{""stimulus"":""img/3to1/7.png"",""time"":695},{""stimulus"":""img/3to1/8.png"",""time"":793},{""stimulus"":""img/3to1/9.png"",""time"":892},{""stimulus"":""img/3to1/10.png"",""time"":1004},{""stimulus"":""img/3to1/11.png"",""time"":1098},{""stimulus"":""img/3to1/12.png"",""time"":1192}]","[]"
"image-keyboard-response","140","182572","0.0-5.0-1.68","63614ad63aec6bcf8a045124","bdp_cybrbll","Sun Mar 26 2023 15:07:04 GMT-0400 (Eastern Daylight Time)","465032","1","3","","null","","","","observe","","img/1to3/1.png","null","157","630","0.5","0.5","1","3","",""
"animation","141","183860","0.0-5.0-2.68","63614ad63aec6bcf8a045124","bdp_cybrbll","Sun Mar 26 2023 15:07:04 GMT-0400 (Eastern Daylight Time)","465032","1","3","","","","","","","","","","157","","","","1","3","[{""stimulus"":""img/1to3/1.png"",""time"":107},{""stimulus"":""img/1to3/2.png"",""time"":203},{""stimulus"":""img/1to3/3.png"",""time"":299},{""stimulus"":""img/1to3/4.png"",""time"":405},{""stimulus"":""img/1to3/5.png"",""time"":498},{""stimulus"":""img/1to3/6.png"",""time"":595},{""stimulus"":""img/1to3/7.png"",""time"":700},{""stimulus"":""img/1to3/8.png"",""time"":794},{""stimulus"":""img/1to3/9.png"",""time"":893},{""stimulus"":""img/1to3/10.png"",""time"":991},{""stimulus"":""img/1to3/11.png"",""time"":1103},{""stimulus"":""img/1to3/12.png"",""time"":1198}]","[]"
"image-keyboard-response","142","184343","0.0-5.0-1.69","63614ad63aec6bcf8a045124","bdp_cybrbll","Sun Mar 26 2023 15:07:04 GMT-0400 (Eastern Daylight Time)","465032","1","3","","null","","","","observe","","img/3to2/1.png","null","156","474","0.5","0.5","3","2","",""
"animation","143","185631","0.0-5.0-2.69","63614ad63aec6bcf8a045124","bdp_cybrbll","Sun Mar 26 2023 15:07:04 GMT-0400 (Eastern Daylight Time)","465032","1","3","","","","","","","","","","156","","","","3","2","[{""stimulus"":""img/3to2/1.png"",""time"":111},{""stimulus"":""img/3to2/2.png"",""time"":199},{""stimulus"":""img/3to2/3.png"",""time"":313},{""stimulus"":""img/3to2/4.png"",""time"":408},{""stimulus"":""img/3to2/5.png"",""time"":496},{""stimulus"":""img/3to2/6.png"",""time"":596},{""stimulus"":""img/3to2/7.png"",""time"":694},{""stimulus"":""img/3to2/8.png"",""time"":793},{""stimulus"":""img/3to2/9.png"",""time"":907},{""stimulus"":""img/3to2/10.png"",""time"":1002},{""stimulus"":""img/3to2/11.png"",""time"":1094},{""stimulus"":""img/3to2/12.png"",""time"":1189}]","[]"
"image-keyboard-response","144","185646","0.0-5.0-1.70","63614ad63aec6bcf8a045124","bdp_cybrbll","Sun Mar 26 2023 15:07:04 GMT-0400 (Eastern Daylight Time)","465032","1","3","","14","","","","choice","","img/2to1/1.png","1","155","1066","0.5","0.5","2","1","",""
"animation","145","186934","0.0-5.0-2.70","63614ad63aec6bcf8a045124","bdp_cybrbll","Sun Mar 26 2023 15:07:04 GMT-0400 (Eastern Daylight Time)","465032","1","3","","","","","","","","","","155","","","","2","1","[{""stimulus"":""img/2to1/1.png"",""time"":101},{""stimulus"":""img/2to1/2.png"",""time"":199},{""stimulus"":""img/2to1/3.png"",""time"":298},{""stimulus"":""img/2to1/4.png"",""time"":399},{""stimulus"":""img/2to1/5.png"",""time"":497},{""stimulus"":""img/2to1/6.png"",""time"":598},{""stimulus"":""img/2to1/7.png"",""time"":695},{""stimulus"":""img/2to1/8.png"",""time"":798},{""stimulus"":""img/2to1/9.png"",""time"":893},{""stimulus"":""img/2to1/10.png"",""time"":991},{""stimulus"":""img/2to1/11.png"",""time"":1092},{""stimulus"":""img/2to1/12.png"",""time"":1202}]","[]"
"image-keyboard-response","146","187181","0.0-5.0-1.71","63614ad63aec6bcf8a045124","bdp_cybrbll","Sun Mar 26 2023 15:07:04 GMT-0400 (Eastern Daylight Time)","465032","1","3","","null","","","","observe","","img/1to3/1.png","null","154","245","0.5","0.5","1","2","",""
"animation","147","188469","0.0-5.0-2.71","63614ad63aec6bcf8a045124","bdp_cybrbll","Sun Mar 26 2023 15:07:04 GMT-0400 (Eastern Daylight Time)","465032","1","3","","","","","","","","","","154","","","","1","2","[{""stimulus"":""img/1to2/1.png"",""time"":102},{""stimulus"":""img/1to2/2.png"",""time"":200},{""stimulus"":""img/1to2/3.png"",""time"":298},{""stimulus"":""img/1to2/4.png"",""time"":413},{""stimulus"":""img/1to2/5.png"",""time"":506},{""stimulus"":""img/1to2/6.png"",""time"":599},{""stimulus"":""img/1to2/7.png"",""time"":695},{""stimulus"":""img/1to2/8.png"",""time"":794},{""stimulus"":""img/1to2/9.png"",""time"":894},{""stimulus"":""img/1to2/10.png"",""time"":992},{""stimulus"":""img/1to2/11.png"",""time"":1090},{""stimulus"":""img/1to2/12.png"",""time"":1189}]","[]"
"image-keyboard-response","148","188653","0.0-5.0-1.72","63614ad63aec6bcf8a045124","bdp_cybrbll","Sun Mar 26 2023 15:07:04 GMT-0400 (Eastern Daylight Time)","465032","1","3","","183","","","","choice","","img/2to1/1.png","2","153","682","0.5","0.5","2","3","",""
"animation","149","189955","0.0-5.0-2.72","63614ad63aec6bcf8a045124","bdp_cybrbll","Sun Mar 26 2023 15:07:04 GMT-0400 (Eastern Daylight Time)","465032","1","3","","","","","","","","","","153","","","","2","3","[{""stimulus"":""img/2to3/1.png"",""time"":108},{""stimulus"":""img/2to3/2.png"",""time"":202},{""stimulus"":""img/2to3/3.png"",""time"":312},{""stimulus"":""img/2to3/4.png"",""time"":397},{""stimulus"":""img/2to3/5.png"",""time"":496},{""stimulus"":""img/2to3/6.png"",""time"":594},{""stimulus"":""img/2to3/7.png"",""time"":694},{""stimulus"":""img/2to3/8.png"",""time"":794},{""stimulus"":""img/2to3/9.png"",""time"":903},{""stimulus"":""img/2to3/10.png"",""time"":994},{""stimulus"":""img/2to3/11.png"",""time"":1102},{""stimulus"":""img/2to3/12.png"",""time"":1189}]","[]"
"image-keyboard-response","150","190529","0.0-5.0-1.73","63614ad63aec6bcf8a045124","bdp_cybrbll","Sun Mar 26 2023 15:07:04 GMT-0400 (Eastern Daylight Time)","465032","1","3","","null","","","","observe","","img/3to2/1.png","null","152","567","0.5","0.5","3","1","",""
"animation","151","191822","0.0-5.0-2.73","63614ad63aec6bcf8a045124","bdp_cybrbll","Sun Mar 26 2023 15:07:04 GMT-0400 (Eastern Daylight Time)","465032","1","3","","","","","","","","","","152","","","","3","1","[{""stimulus"":""img/3to1/1.png"",""time"":109},{""stimulus"":""img/3to1/2.png"",""time"":198},{""stimulus"":""img/3to1/3.png"",""time"":312},{""stimulus"":""img/3to1/4.png"",""time"":406},{""stimulus"":""img/3to1/5.png"",""time"":496},{""stimulus"":""img/3to1/6.png"",""time"":607},{""stimulus"":""img/3to1/7.png"",""time"":694},{""stimulus"":""img/3to1/8.png"",""time"":792},{""stimulus"":""img/3to1/9.png"",""time"":891},{""stimulus"":""img/3to1/10.png"",""time"":991},{""stimulus"":""img/3to1/11.png"",""time"":1090},{""stimulus"":""img/3to1/12.png"",""time"":1189}]","[]"
"image-keyboard-response","152","192156","0.0-5.0-1.74","63614ad63aec6bcf8a045124","bdp_cybrbll","Sun Mar 26 2023 15:07:04 GMT-0400 (Eastern Daylight Time)","465032","1","3","","null","","","","observe","","img/1to3/1.png","null","151","333","0.5","0.5","1","3","",""
"animation","153","193444","0.0-5.0-2.74","63614ad63aec6bcf8a045124","bdp_cybrbll","Sun Mar 26 2023 15:07:04 GMT-0400 (Eastern Daylight Time)","465032","1","3","","","","","","","","","","151","","","","1","3","[{""stimulus"":""img/1to3/1.png"",""time"":101},{""stimulus"":""img/1to3/2.png"",""time"":211},{""stimulus"":""img/1to3/3.png"",""time"":299},{""stimulus"":""img/1to3/4.png"",""time"":399},{""stimulus"":""img/1to3/5.png"",""time"":496},{""stimulus"":""img/1to3/6.png"",""time"":596},{""stimulus"":""img/1to3/7.png"",""time"":695},{""stimulus"":""img/1to3/8.png"",""time"":793},{""stimulus"":""img/1to3/9.png"",""time"":892},{""stimulus"":""img/1to3/10.png"",""time"":1006},{""stimulus"":""img/1to3/11.png"",""time"":1100},{""stimulus"":""img/1to3/12.png"",""time"":1190}]","[]"
"image-keyboard-response","154","193730","0.0-5.0-1.75","63614ad63aec6bcf8a045124","bdp_cybrbll","Sun Mar 26 2023 15:07:04 GMT-0400 (Eastern Daylight Time)","465032","1","3","","null","","","","observe","","img/3to2/1.png","null","150","283","0.5","0.5","3","1","",""
"animation","155","195028","0.0-5.0-2.75","63614ad63aec6bcf8a045124","bdp_cybrbll","Sun Mar 26 2023 15:07:04 GMT-0400 (Eastern Daylight Time)","465032","1","3","","","","","","","","","","150","","","","3","1","[{""stimulus"":""img/3to1/1.png"",""time"":102},{""stimulus"":""img/3to1/2.png"",""time"":199},{""stimulus"":""img/3to1/3.png"",""time"":299},{""stimulus"":""img/3to1/4.png"",""time"":397},{""stimulus"":""img/3to1/5.png"",""time"":496},{""stimulus"":""img/3to1/6.png"",""time"":596},{""stimulus"":""img/3to1/7.png"",""time"":708},{""stimulus"":""img/3to1/8.png"",""time"":793},{""stimulus"":""img/3to1/9.png"",""time"":892},{""stimulus"":""img/3to1/10.png"",""time"":991},{""stimulus"":""img/3to1/11.png"",""time"":1096},{""stimulus"":""img/3to1/12.png"",""time"":1205}]","[]"
"image-keyboard-response","156","195790","0.0-5.0-1.76","63614ad63aec6bcf8a045124","bdp_cybrbll","Sun Mar 26 2023 15:07:04 GMT-0400 (Eastern Daylight Time)","465032","1","3","","null","","","","observe","","img/1to3/1.png","null","149","759","0.5","0.1","1","3","",""
"animation","157","197078","0.0-5.0-2.76","63614ad63aec6bcf8a045124","bdp_cybrbll","Sun Mar 26 2023 15:07:04 GMT-0400 (Eastern Daylight Time)","465032","1","3","","","","","","","","","","149","","","","1","3","[{""stimulus"":""img/1to3/1.png"",""time"":110},{""stimulus"":""img/1to3/2.png"",""time"":199},{""stimulus"":""img/1to3/3.png"",""time"":299},{""stimulus"":""img/1to3/4.png"",""time"":397},{""stimulus"":""img/1to3/5.png"",""time"":497},{""stimulus"":""img/1to3/6.png"",""time"":605},{""stimulus"":""img/1to3/7.png"",""time"":694},{""stimulus"":""img/1to3/8.png"",""time"":807},{""stimulus"":""img/1to3/9.png"",""time"":892},{""stimulus"":""img/1to3/10.png"",""time"":992},{""stimulus"":""img/1to3/11.png"",""time"":1102},{""stimulus"":""img/1to3/12.png"",""time"":1195}]","[]"
"image-keyboard-response","158","197741","0.0-5.0-1.77","63614ad63aec6bcf8a045124","bdp_cybrbll","Sun Mar 26 2023 15:07:04 GMT-0400 (Eastern Daylight Time)","465032","1","3","","null","","","","observe","","img/3to2/1.png","null","148","662","0.5","0.1","3","1","",""
"animation","159","199037","0.0-5.0-2.77","63614ad63aec6bcf8a045124","bdp_cybrbll","Sun Mar 26 2023 15:07:04 GMT-0400 (Eastern Daylight Time)","465032","1","3","","","","","","","","","","148","","","","3","1","[{""stimulus"":""img/3to1/1.png"",""time"":115},{""stimulus"":""img/3to1/2.png"",""time"":199},{""stimulus"":""img/3to1/3.png"",""time"":298},{""stimulus"":""img/3to1/4.png"",""time"":397},{""stimulus"":""img/3to1/5.png"",""time"":502},{""stimulus"":""img/3to1/6.png"",""time"":595},{""stimulus"":""img/3to1/7.png"",""time"":704},{""stimulus"":""img/3to1/8.png"",""time"":794},{""stimulus"":""img/3to1/9.png"",""time"":892},{""stimulus"":""img/3to1/10.png"",""time"":1001},{""stimulus"":""img/3to1/11.png"",""time"":1094},{""stimulus"":""img/3to1/12.png"",""time"":1202}]","[]"
"image-keyboard-response","160","199332","0.0-5.0-1.78","63614ad63aec6bcf8a045124","bdp_cybrbll","Sun Mar 26 2023 15:07:04 GMT-0400 (Eastern Daylight Time)","465032","1","3","","null","","","","observe","","img/1to3/1.png","null","147","293","0.5","0.1","1","2","",""
"animation","161","200619","0.0-5.0-2.78","63614ad63aec6bcf8a045124","bdp_cybrbll","Sun Mar 26 2023 15:07:04 GMT-0400 (Eastern Daylight Time)","465032","1","3","","","","","","","","","","147","","","","1","2","[{""stimulus"":""img/1to2/1.png"",""time"":108},{""stimulus"":""img/1to2/2.png"",""time"":201},{""stimulus"":""img/1to2/3.png"",""time"":298},{""stimulus"":""img/1to2/4.png"",""time"":403},{""stimulus"":""img/1to2/5.png"",""time"":496},{""stimulus"":""img/1to2/6.png"",""time"":595},{""stimulus"":""img/1to2/7.png"",""time"":698},{""stimulus"":""img/1to2/8.png"",""time"":792},{""stimulus"":""img/1to2/9.png"",""time"":900},{""stimulus"":""img/1to2/10.png"",""time"":991},{""stimulus"":""img/1to2/11.png"",""time"":1102},{""stimulus"":""img/1to2/12.png"",""time"":1190}]","[]"
"image-keyboard-response","162","200630","0.0-5.0-1.79","63614ad63aec6bcf8a045124","bdp_cybrbll","Sun Mar 26 2023 15:07:04 GMT-0400 (Eastern Daylight Time)","465032","1","3","","11","","","","choice","","img/2to1/1.png","2","146","393","0.5","0.1","2","3","",""
"animation","163","201918","0.0-5.0-2.79","63614ad63aec6bcf8a045124","bdp_cybrbll","Sun Mar 26 2023 15:07:04 GMT-0400 (Eastern Daylight Time)","465032","1","3","","","","","","","","","","146","","","","2","3","[{""stimulus"":""img/2to3/1.png"",""time"":99},{""stimulus"":""img/2to3/2.png"",""time"":207},{""stimulus"":""img/2to3/3.png"",""time"":300},{""stimulus"":""img/2to3/4.png"",""time"":397},{""stimulus"":""img/2to3/5.png"",""time"":495},{""stimulus"":""img/2to3/6.png"",""time"":596},{""stimulus"":""img/2to3/7.png"",""time"":705},{""stimulus"":""img/2to3/8.png"",""time"":793},{""stimulus"":""img/2to3/9.png"",""time"":906},{""stimulus"":""img/2to3/10.png"",""time"":991},{""stimulus"":""img/2to3/11.png"",""time"":1090},{""stimulus"":""img/2to3/12.png"",""time"":1201}]","[]"
"image-keyboard-response","164","202596","0.0-5.0-1.80","63614ad63aec6bcf8a045124","bdp_cybrbll","Sun Mar 26 2023 15:07:04 GMT-0400 (Eastern Daylight Time)","465032","1","3","","null","","","","observe","","img/3to2/1.png","null","145","672","0.5","0.1","3","1","",""
"animation","165","203890","0.0-5.0-2.80","63614ad63aec6bcf8a045124","bdp_cybrbll","Sun Mar 26 2023 15:07:04 GMT-0400 (Eastern Daylight Time)","465032","1","3","","","","","","","","","","145","","","","3","1","[{""stimulus"":""img/3to1/1.png"",""time"":109},{""stimulus"":""img/3to1/2.png"",""time"":199},{""stimulus"":""img/3to1/3.png"",""time"":312},{""stimulus"":""img/3to1/4.png"",""time"":397},{""stimulus"":""img/3to1/5.png"",""time"":496},{""stimulus"":""img/3to1/6.png"",""time"":609},{""stimulus"":""img/3to1/7.png"",""time"":694},{""stimulus"":""img/3to1/8.png"",""time"":792},{""stimulus"":""img/3to1/9.png"",""time"":904},{""stimulus"":""img/3to1/10.png"",""time"":997},{""stimulus"":""img/3to1/11.png"",""time"":1090},{""stimulus"":""img/3to1/12.png"",""time"":1200}]","[]"
"image-keyboard-response","166","204449","0.0-5.0-1.81","63614ad63aec6bcf8a045124","bdp_cybrbll","Sun Mar 26 2023 15:07:04 GMT-0400 (Eastern Daylight Time)","465032","1","3","","null","","","","observe","","img/1to3/1.png","null","144","555","0.5","0.1","1","3","",""
"animation","167","205738","0.0-5.0-2.81","63614ad63aec6bcf8a045124","bdp_cybrbll","Sun Mar 26 2023 15:07:04 GMT-0400 (Eastern Daylight Time)","465032","1","3","","","","","","","","","","144","","","","1","3","[{""stimulus"":""img/1to3/1.png"",""time"":107},{""stimulus"":""img/1to3/2.png"",""time"":199},{""stimulus"":""img/1to3/3.png"",""time"":298},{""stimulus"":""img/1to3/4.png"",""time"":401},{""stimulus"":""img/1to3/5.png"",""time"":496},{""stimulus"":""img/1to3/6.png"",""time"":604},{""stimulus"":""img/1to3/7.png"",""time"":694},{""stimulus"":""img/1to3/8.png"",""time"":807},{""stimulus"":""img/1to3/9.png"",""time"":892},{""stimulus"":""img/1to3/10.png"",""time"":990},{""stimulus"":""img/1to3/11.png"",""time"":1090},{""stimulus"":""img/1to3/12.png"",""time"":1189}]","[]"
"image-keyboard-response","168","206605","0.0-5.0-1.82","63614ad63aec6bcf8a045124","bdp_cybrbll","Sun Mar 26 2023 15:07:04 GMT-0400 (Eastern Daylight Time)","465032","1","3","","null","","","","observe","","img/3to2/1.png","null","143","858","0.5","0.1","3","1","",""
"animation","169","207898","0.0-5.0-2.82","63614ad63aec6bcf8a045124","bdp_cybrbll","Sun Mar 26 2023 15:07:04 GMT-0400 (Eastern Daylight Time)","465032","1","3","","","","","","","","","","143","","","","3","1","[{""stimulus"":""img/3to1/1.png"",""time"":108},{""stimulus"":""img/3to1/2.png"",""time"":203},{""stimulus"":""img/3to1/3.png"",""time"":311},{""stimulus"":""img/3to1/4.png"",""time"":397},{""stimulus"":""img/3to1/5.png"",""time"":496},{""stimulus"":""img/3to1/6.png"",""time"":595},{""stimulus"":""img/3to1/7.png"",""time"":701},{""stimulus"":""img/3to1/8.png"",""time"":793},{""stimulus"":""img/3to1/9.png"",""time"":892},{""stimulus"":""img/3to1/10.png"",""time"":997},{""stimulus"":""img/3to1/11.png"",""time"":1090},{""stimulus"":""img/3to1/12.png"",""time"":1189}]","[]"
"image-keyboard-response","170","208661","0.0-5.0-1.83","63614ad63aec6bcf8a045124","bdp_cybrbll","Sun Mar 26 2023 15:07:04 GMT-0400 (Eastern Daylight Time)","465032","1","3","","null","","","","observe","","img/1to3/1.png","null","142","750","0.5","0.1","1","3","",""
"animation","171","209949","0.0-5.0-2.83","63614ad63aec6bcf8a045124","bdp_cybrbll","Sun Mar 26 2023 15:07:04 GMT-0400 (Eastern Daylight Time)","465032","1","3","","","","","","","","","","142","","","","1","3","[{""stimulus"":""img/1to3/1.png"",""time"":108},{""stimulus"":""img/1to3/2.png"",""time"":200},{""stimulus"":""img/1to3/3.png"",""time"":309},{""stimulus"":""img/1to3/4.png"",""time"":396},{""stimulus"":""img/1to3/5.png"",""time"":496},{""stimulus"":""img/1to3/6.png"",""time"":605},{""stimulus"":""img/1to3/7.png"",""time"":699},{""stimulus"":""img/1to3/8.png"",""time"":793},{""stimulus"":""img/1to3/9.png"",""time"":892},{""stimulus"":""img/1to3/10.png"",""time"":991},{""stimulus"":""img/1to3/11.png"",""time"":1090},{""stimulus"":""img/1to3/12.png"",""time"":1198}]","[]"
"image-keyboard-response","172","211427","0.0-5.0-1.84","63614ad63aec6bcf8a045124","bdp_cybrbll","Sun Mar 26 2023 15:07:04 GMT-0400 (Eastern Daylight Time)","465032","1","3","","null","","","","observe","","img/3to2/1.png","null","141","1472","0.5","0.1","3","2","",""
"animation","173","212715","0.0-5.0-2.84","63614ad63aec6bcf8a045124","bdp_cybrbll","Sun Mar 26 2023 15:07:04 GMT-0400 (Eastern Daylight Time)","465032","1","3","","","","","","","","","","141","","","","3","2","[{""stimulus"":""img/3to2/1.png"",""time"":110},{""stimulus"":""img/3to2/2.png"",""time"":199},{""stimulus"":""img/3to2/3.png"",""time"":299},{""stimulus"":""img/3to2/4.png"",""time"":397},{""stimulus"":""img/3to2/5.png"",""time"":497},{""stimulus"":""img/3to2/6.png"",""time"":596},{""stimulus"":""img/3to2/7.png"",""time"":695},{""stimulus"":""img/3to2/8.png"",""time"":794},{""stimulus"":""img/3to2/9.png"",""time"":892},{""stimulus"":""img/3to2/10.png"",""time"":996},{""stimulus"":""img/3to2/11.png"",""time"":1090},{""stimulus"":""img/3to2/12.png"",""time"":1190}]","[]"
"image-keyboard-response","174","212935","0.0-5.0-1.85","63614ad63aec6bcf8a045124","bdp_cybrbll","Sun Mar 26 2023 15:07:04 GMT-0400 (Eastern Daylight Time)","465032","1","3","","219","","","","choice","","img/2to1/1.png","1","140","402","0.5","0.1","2","1","",""
"animation","175","214226","0.0-5.0-2.85","63614ad63aec6bcf8a045124","bdp_cybrbll","Sun Mar 26 2023 15:07:04 GMT-0400 (Eastern Daylight Time)","465032","1","3","","","","","","","","","","140","","","","2","1","[{""stimulus"":""img/2to1/1.png"",""time"":110},{""stimulus"":""img/2to1/2.png"",""time"":202},{""stimulus"":""img/2to1/3.png"",""time"":312},{""stimulus"":""img/2to1/4.png"",""time"":398},{""stimulus"":""img/2to1/5.png"",""time"":498},{""stimulus"":""img/2to1/6.png"",""time"":595},{""stimulus"":""img/2to1/7.png"",""time"":699},{""stimulus"":""img/2to1/8.png"",""time"":794},{""stimulus"":""img/2to1/9.png"",""time"":892},{""stimulus"":""img/2to1/10.png"",""time"":994},{""stimulus"":""img/2to1/11.png"",""time"":1090},{""stimulus"":""img/2to1/12.png"",""time"":1190}]","[]"
"image-keyboard-response","176","214535","0.0-5.0-1.86","63614ad63aec6bcf8a045124","bdp_cybrbll","Sun Mar 26 2023 15:07:04 GMT-0400 (Eastern Daylight Time)","465032","1","3","","null","","","","observe","","img/1to3/1.png","null","139","307","0.5","0.1","1","2","",""
"animation","177","215827","0.0-5.0-2.86","63614ad63aec6bcf8a045124","bdp_cybrbll","Sun Mar 26 2023 15:07:04 GMT-0400 (Eastern Daylight Time)","465032","1","3","","","","","","","","","","139","","","","1","2","[{""stimulus"":""img/1to2/1.png"",""time"":109},{""stimulus"":""img/1to2/2.png"",""time"":199},{""stimulus"":""img/1to2/3.png"",""time"":297},{""stimulus"":""img/1to2/4.png"",""time"":405},{""stimulus"":""img/1to2/5.png"",""time"":496},{""stimulus"":""img/1to2/6.png"",""time"":595},{""stimulus"":""img/1to2/7.png"",""time"":701},{""stimulus"":""img/1to2/8.png"",""time"":794},{""stimulus"":""img/1to2/9.png"",""time"":892},{""stimulus"":""img/1to2/10.png"",""time"":991},{""stimulus"":""img/1to2/11.png"",""time"":1090},{""stimulus"":""img/1to2/12.png"",""time"":1189}]","[]"
"image-keyboard-response","178","215880","0.0-5.0-1.87","63614ad63aec6bcf8a045124","bdp_cybrbll","Sun Mar 26 2023 15:07:04 GMT-0400 (Eastern Daylight Time)","465032","1","3","","52","","","","choice","","img/2to1/1.png","2","138","768","0.5","0.1","2","3","",""
"animation","179","217167","0.0-5.0-2.87","63614ad63aec6bcf8a045124","bdp_cybrbll","Sun Mar 26 2023 15:07:04 GMT-0400 (Eastern Daylight Time)","465032","1","3","","","","","","","","","","138","","","","2","3","[{""stimulus"":""img/2to3/1.png"",""time"":105},{""stimulus"":""img/2to3/2.png"",""time"":213},{""stimulus"":""img/2to3/3.png"",""time"":306},{""stimulus"":""img/2to3/4.png"",""time"":401},{""stimulus"":""img/2to3/5.png"",""time"":496},{""stimulus"":""img/2to3/6.png"",""time"":603},{""stimulus"":""img/2to3/7.png"",""time"":694},{""stimulus"":""img/2to3/8.png"",""time"":805},{""stimulus"":""img/2to3/9.png"",""time"":892},{""stimulus"":""img/2to3/10.png"",""time"":991},{""stimulus"":""img/2to3/11.png"",""time"":1099},{""stimulus"":""img/2to3/12.png"",""time"":1189}]","[]"
"image-keyboard-response","180","217498","0.0-5.0-1.88","63614ad63aec6bcf8a045124","bdp_cybrbll","Sun Mar 26 2023 15:07:04 GMT-0400 (Eastern Daylight Time)","465032","1","3","","null","","","","observe","","img/3to2/1.png","null","137","329","0.5","0.1","3","1","",""
"animation","181","218796","0.0-5.0-2.88","63614ad63aec6bcf8a045124","bdp_cybrbll","Sun Mar 26 2023 15:07:04 GMT-0400 (Eastern Daylight Time)","465032","1","3","","","","","","","","","","137","","","","3","1","[{""stimulus"":""img/3to1/1.png"",""time"":105},{""stimulus"":""img/3to1/2.png"",""time"":199},{""stimulus"":""img/3to1/3.png"",""time"":298},{""stimulus"":""img/3to1/4.png"",""time"":398},{""stimulus"":""img/3to1/5.png"",""time"":509},{""stimulus"":""img/3to1/6.png"",""time"":595},{""stimulus"":""img/3to1/7.png"",""time"":709},{""stimulus"":""img/3to1/8.png"",""time"":802},{""stimulus"":""img/3to1/9.png"",""time"":892},{""stimulus"":""img/3to1/10.png"",""time"":1004},{""stimulus"":""img/3to1/11.png"",""time"":1097},{""stimulus"":""img/3to1/12.png"",""time"":1190}]","[]"
"image-keyboard-response","182","219030","0.0-5.0-1.89","63614ad63aec6bcf8a045124","bdp_cybrbll","Sun Mar 26 2023 15:07:04 GMT-0400 (Eastern Daylight Time)","465032","1","3","","null","","","","observe","","img/1to3/1.png","null","136","225","0.5","0.1","1","2","",""
"animation","183","220319","0.0-5.0-2.89","63614ad63aec6bcf8a045124","bdp_cybrbll","Sun Mar 26 2023 15:07:04 GMT-0400 (Eastern Daylight Time)","465032","1","3","","","","","","","","","","136","","","","1","2","[{""stimulus"":""img/1to2/1.png"",""time"":110},{""stimulus"":""img/1to2/2.png"",""time"":203},{""stimulus"":""img/1to2/3.png"",""time"":298},{""stimulus"":""img/1to2/4.png"",""time"":405},{""stimulus"":""img/1to2/5.png"",""time"":496},{""stimulus"":""img/1to2/6.png"",""time"":606},{""stimulus"":""img/1to2/7.png"",""time"":693},{""stimulus"":""img/1to2/8.png"",""time"":792},{""stimulus"":""img/1to2/9.png"",""time"":891},{""stimulus"":""img/1to2/10.png"",""time"":991},{""stimulus"":""img/1to2/11.png"",""time"":1090},{""stimulus"":""img/1to2/12.png"",""time"":1188}]","[]"
"image-keyboard-response","184","220360","0.0-5.0-1.90","63614ad63aec6bcf8a045124","bdp_cybrbll","Sun Mar 26 2023 15:07:04 GMT-0400 (Eastern Daylight Time)","465032","1","3","","41","","","","choice","","img/2to1/1.png","2","135","682","0.5","0.1","2","3","",""
"animation","185","221649","0.0-5.0-2.90","63614ad63aec6bcf8a045124","bdp_cybrbll","Sun Mar 26 2023 15:07:04 GMT-0400 (Eastern Daylight Time)","465032","1","3","","","","","","","","","","135","","","","2","3","[{""stimulus"":""img/2to3/1.png"",""time"":101},{""stimulus"":""img/2to3/2.png"",""time"":210},{""stimulus"":""img/2to3/3.png"",""time"":302},{""stimulus"":""img/2to3/4.png"",""time"":409},{""stimulus"":""img/2to3/5.png"",""time"":496},{""stimulus"":""img/2to3/6.png"",""time"":598},{""stimulus"":""img/2to3/7.png"",""time"":694},{""stimulus"":""img/2to3/8.png"",""time"":793},{""stimulus"":""img/2to3/9.png"",""time"":895},{""stimulus"":""img/2to3/10.png"",""time"":992},{""stimulus"":""img/2to3/11.png"",""time"":1090},{""stimulus"":""img/2to3/12.png"",""time"":1189}]","[]"
"image-keyboard-response","186","222436","0.0-5.0-1.91","63614ad63aec6bcf8a045124","bdp_cybrbll","Sun Mar 26 2023 15:07:04 GMT-0400 (Eastern Daylight Time)","465032","1","3","","null","","","","observe","","img/3to2/1.png","null","134","778","0.5","0.1","3","1","",""
"animation","187","223724","0.0-5.0-2.91","63614ad63aec6bcf8a045124","bdp_cybrbll","Sun Mar 26 2023 15:07:04 GMT-0400 (Eastern Daylight Time)","465032","1","3","","","","","","","","","","134","","","","3","1","[{""stimulus"":""img/3to1/1.png"",""time"":109},{""stimulus"":""img/3to1/2.png"",""time"":203},{""stimulus"":""img/3to1/3.png"",""time"":312},{""stimulus"":""img/3to1/4.png"",""time"":397},{""stimulus"":""img/3to1/5.png"",""time"":496},{""stimulus"":""img/3to1/6.png"",""time"":595},{""stimulus"":""img/3to1/7.png"",""time"":694},{""stimulus"":""img/3to1/8.png"",""time"":794},{""stimulus"":""img/3to1/9.png"",""time"":903},{""stimulus"":""img/3to1/10.png"",""time"":997},{""stimulus"":""img/3to1/11.png"",""time"":1090},{""stimulus"":""img/3to1/12.png"",""time"":1189}]","[]"
"image-keyboard-response","188","223883","0.0-5.0-1.92","63614ad63aec6bcf8a045124","bdp_cybrbll","Sun Mar 26 2023 15:07:04 GMT-0400 (Eastern Daylight Time)","465032","1","3","","null","","","","observe","","img/1to3/1.png","null","133","157","0.5","0.1","1","3","",""
"animation","189","225171","0.0-5.0-2.92","63614ad63aec6bcf8a045124","bdp_cybrbll","Sun Mar 26 2023 15:07:04 GMT-0400 (Eastern Daylight Time)","465032","1","3","","","","","","","","","","133","","","","1","3","[{""stimulus"":""img/1to3/1.png"",""time"":108},{""stimulus"":""img/1to3/2.png"",""time"":201},{""stimulus"":""img/1to3/3.png"",""time"":298},{""stimulus"":""img/1to3/4.png"",""time"":403},{""stimulus"":""img/1to3/5.png"",""time"":496},{""stimulus"":""img/1to3/6.png"",""time"":605},{""stimulus"":""img/1to3/7.png"",""time"":694},{""stimulus"":""img/1to3/8.png"",""time"":807},{""stimulus"":""img/1to3/9.png"",""time"":900},{""stimulus"":""img/1to3/10.png"",""time"":993},{""stimulus"":""img/1to3/11.png"",""time"":1101},{""stimulus"":""img/1to3/12.png"",""time"":1188}]","[]"
"image-keyboard-response","190","225561","0.0-5.0-1.93","63614ad63aec6bcf8a045124","bdp_cybrbll","Sun Mar 26 2023 15:07:04 GMT-0400 (Eastern Daylight Time)","465032","1","3","","null","","","","observe","","img/3to2/1.png","null","132","382","0.5","0.1","3","1","",""
