"trial_type","trial_index","time_elapsed","internal_node_id","subject_id","task","startTime","totalTime","fairPartner","unfairPartner","view_history","rt","event","trial","time","trialtype","success","stimulus","key_press","throwsLeft","rtDur","pFair","pUnfair","holder","receiver","animation_sequence","responses"
"pavlovia","0","3","0.0-0.0","63f7becf2322a5ba95aad1dc","bdp_cybrbll","Thu Mar 30 2023 15:46:14 GMT-0500 (Central Daylight Time)","499379","3","1","","","","","","","","","","","","","","","","",""
"instructions","1","7696","0.0-1.0","63f7becf2322a5ba95aad1dc","bdp_cybrbll","Thu Mar 30 2023 15:46:14 GMT-0500 (Central Daylight Time)","499379","3","1","[{""page_index"":0,""viewing_time"":7693}]","7693","","","","","","","","","","","","","","",""
"","","","","63f7becf2322a5ba95aad1dc","bdp_cybrbll","Thu Mar 30 2023 15:46:14 GMT-0500 (Central Daylight Time)","499379","3","1","","","fullscreenenter","2","10246","fullscreenenter","","","","","","","","","","",""
"fullscreen","2","11245","0.0-2.0","63f7becf2322a5ba95aad1dc","bdp_cybrbll","Thu Mar 30 2023 15:46:14 GMT-0500 (Central Daylight Time)","499379","3","1","","","","","","","true","","","","","","","","","",""
"instructions","3","80180","0.0-4.0","63f7becf2322a5ba95aad1dc","bdp_cybrbll","Thu Mar 30 2023 15:46:14 GMT-0500 (Central Daylight Time)","499379","3","1","[{""page_index"":0,""viewing_time"":68934}]","68934","","","","","","","","","","","","","","",""
"image-keyboard-response","4","82791","0.0-5.0-1.0","63f7becf2322a5ba95aad1dc","bdp_cybrbll","Thu Mar 30 2023 15:46:14 GMT-0500 (Central Daylight Time)","499379","3","1","","2610","","","","choice","","img/2to1/1.png","2","225","429","0.5","0.5","2","3","",""
"animation","5","84090","0.0-5.0-2.0","63f7becf2322a5ba95aad1dc","bdp_cybrbll","Thu Mar 30 2023 15:46:14 GMT-0500 (Central Daylight Time)","499379","3","1","","","","","","","","","","225","","","","2","3","[{""stimulus"":""img/2to3/1.png"",""time"":99},{""stimulus"":""img/2to3/2.png"",""time"":204},{""stimulus"":""img/2to3/3.png"",""time"":300},{""stimulus"":""img/2to3/4.png"",""time"":411},{""stimulus"":""img/2to3/5.png"",""time"":506},{""stimulus"":""img/2to3/6.png"",""time"":600},{""stimulus"":""img/2to3/7.png"",""time"":696},{""stimulus"":""img/2to3/8.png"",""time"":793},{""stimulus"":""img/2to3/9.png"",""time"":902},{""stimulus"":""img/2to3/10.png"",""time"":996},{""stimulus"":""img/2to3/11.png"",""time"":1092},{""stimulus"":""img/2to3/12.png"",""time"":1202}]","[]"
"image-keyboard-response","6","84568","0.0-5.0-1.1","63f7becf2322a5ba95aad1dc","bdp_cybrbll","Thu Mar 30 2023 15:46:14 GMT-0500 (Central Daylight Time)","499379","3","1","","null","","","","observe","","img/3to2/1.png","null","224","468","0.5","0.5","3","2","",""
"animation","7","85861","0.0-5.0-2.1","63f7becf2322a5ba95aad1dc","bdp_cybrbll","Thu Mar 30 2023 15:46:14 GMT-0500 (Central Daylight Time)","499379","3","1","","","","","","","","","","224","","","","3","2","[{""stimulus"":""img/3to2/1.png"",""time"":112},{""stimulus"":""img/3to2/2.png"",""time"":199},{""stimulus"":""img/3to2/3.png"",""time"":299},{""stimulus"":""img/3to2/4.png"",""time"":398},{""stimulus"":""img/3to2/5.png"",""time"":510},{""stimulus"":""img/3to2/6.png"",""time"":607},{""stimulus"":""img/3to2/7.png"",""time"":703},{""stimulus"":""img/3to2/8.png"",""time"":799},{""stimulus"":""img/3to2/9.png"",""time"":892},{""stimulus"":""img/3to2/10.png"",""time"":1005},{""stimulus"":""img/3to2/11.png"",""time"":1102},{""stimulus"":""img/3to2/12.png"",""time"":1189}]","[]"
"image-keyboard-response","8","86528","0.0-5.0-1.2","63f7becf2322a5ba95aad1dc","bdp_cybrbll","Thu Mar 30 2023 15:46:14 GMT-0500 (Central Daylight Time)","499379","3","1","","667","","","","choice","","img/2to1/1.png","1","223","369","0.5","0.5","2","1","",""
"animation","9","87820","0.0-5.0-2.2","63f7becf2322a5ba95aad1dc","bdp_cybrbll","Thu Mar 30 2023 15:46:14 GMT-0500 (Central Daylight Time)","499379","3","1","","","","","","","","","","223","","","","2","1","[{""stimulus"":""img/2to1/1.png"",""time"":111},{""stimulus"":""img/2to1/2.png"",""time"":205},{""stimulus"":""img/2to1/3.png"",""time"":299},{""stimulus"":""img/2to1/4.png"",""time"":410},{""stimulus"":""img/2to1/5.png"",""time"":502},{""stimulus"":""img/2to1/6.png"",""time"":594},{""stimulus"":""img/2to1/7.png"",""time"":708},{""stimulus"":""img/2to1/8.png"",""time"":802},{""stimulus"":""img/2to1/9.png"",""time"":897},{""stimulus"":""img/2to1/10.png"",""time"":992},{""stimulus"":""img/2to1/11.png"",""time"":1102},{""stimulus"":""img/2to1/12.png"",""time"":1189}]","[]"
"image-keyboard-response","10","88373","0.0-5.0-1.3","63f7becf2322a5ba95aad1dc","bdp_cybrbll","Thu Mar 30 2023 15:46:14 GMT-0500 (Central Daylight Time)","499379","3","1","","null","","","","observe","","img/1to3/1.png","null","222","540","0.5","0.5","1","3","",""
"animation","11","89673","0.0-5.0-2.3","63f7becf2322a5ba95aad1dc","bdp_cybrbll","Thu Mar 30 2023 15:46:14 GMT-0500 (Central Daylight Time)","499379","3","1","","","","","","","","","","222","","","","1","3","[{""stimulus"":""img/1to3/1.png"",""time"":111},{""stimulus"":""img/1to3/2.png"",""time"":199},{""stimulus"":""img/1to3/3.png"",""time"":302},{""stimulus"":""img/1to3/4.png"",""time"":411},{""stimulus"":""img/1to3/5.png"",""time"":496},{""stimulus"":""img/1to3/6.png"",""time"":602},{""stimulus"":""img/1to3/7.png"",""time"":693},{""stimulus"":""img/1to3/8.png"",""time"":793},{""stimulus"":""img/1to3/9.png"",""time"":893},{""stimulus"":""img/1to3/10.png"",""time"":998},{""stimulus"":""img/1to3/11.png"",""time"":1093},{""stimulus"":""img/1to3/12.png"",""time"":1190}]","[]"
"image-keyboard-response","12","90258","0.0-5.0-1.4","63f7becf2322a5ba95aad1dc","bdp_cybrbll","Thu Mar 30 2023 15:46:14 GMT-0500 (Central Daylight Time)","499379","3","1","","null","","","","observe","","img/3to2/1.png","null","221","579","0.5","0.5","3","2","",""
"animation","13","91555","0.0-5.0-2.4","63f7becf2322a5ba95aad1dc","bdp_cybrbll","Thu Mar 30 2023 15:46:14 GMT-0500 (Central Daylight Time)","499379","3","1","","","","","","","","","","221","","","","3","2","[{""stimulus"":""img/3to2/1.png"",""time"":112},{""stimulus"":""img/3to2/2.png"",""time"":208},{""stimulus"":""img/3to2/3.png"",""time"":298},{""stimulus"":""img/3to2/4.png"",""time"":397},{""stimulus"":""img/3to2/5.png"",""time"":496},{""stimulus"":""img/3to2/6.png"",""time"":608},{""stimulus"":""img/3to2/7.png"",""time"":704},{""stimulus"":""img/3to2/8.png"",""time"":793},{""stimulus"":""img/3to2/9.png"",""time"":897},{""stimulus"":""img/3to2/10.png"",""time"":992},{""stimulus"":""img/3to2/11.png"",""time"":1104},{""stimulus"":""img/3to2/12.png"",""time"":1201}]","[]"
"image-keyboard-response","14","92023","0.0-5.0-1.5","63f7becf2322a5ba95aad1dc","bdp_cybrbll","Thu Mar 30 2023 15:46:14 GMT-0500 (Central Daylight Time)","499379","3","1","","468","","","","choice","","img/2to1/1.png","1","220","319","0.5","0.5","2","1","",""
"animation","15","93321","0.0-5.0-2.5","63f7becf2322a5ba95aad1dc","bdp_cybrbll","Thu Mar 30 2023 15:46:14 GMT-0500 (Central Daylight Time)","499379","3","1","","","","","","","","","","220","","","","2","1","[{""stimulus"":""img/2to1/1.png"",""time"":100},{""stimulus"":""img/2to1/2.png"",""time"":200},{""stimulus"":""img/2to1/3.png"",""time"":311},{""stimulus"":""img/2to1/4.png"",""time"":397},{""stimulus"":""img/2to1/5.png"",""time"":496},{""stimulus"":""img/2to1/6.png"",""time"":596},{""stimulus"":""img/2to1/7.png"",""time"":694},{""stimulus"":""img/2to1/8.png"",""time"":804},{""stimulus"":""img/2to1/9.png"",""time"":892},{""stimulus"":""img/2to1/10.png"",""time"":994},{""stimulus"":""img/2to1/11.png"",""time"":1091},{""stimulus"":""img/2to1/12.png"",""time"":1201}]","[]"
"image-keyboard-response","16","93543","0.0-5.0-1.6","63f7becf2322a5ba95aad1dc","bdp_cybrbll","Thu Mar 30 2023 15:46:14 GMT-0500 (Central Daylight Time)","499379","3","1","","null","","","","observe","","img/1to3/1.png","null","219","222","0.5","0.5","1","3","",""
"animation","17","94843","0.0-5.0-2.6","63f7becf2322a5ba95aad1dc","bdp_cybrbll","Thu Mar 30 2023 15:46:14 GMT-0500 (Central Daylight Time)","499379","3","1","","","","","","","","","","219","","","","1","3","[{""stimulus"":""img/1to3/1.png"",""time"":110},{""stimulus"":""img/1to3/2.png"",""time"":206},{""stimulus"":""img/1to3/3.png"",""time"":301},{""stimulus"":""img/1to3/4.png"",""time"":409},{""stimulus"":""img/1to3/5.png"",""time"":496},{""stimulus"":""img/1to3/6.png"",""time"":602},{""stimulus"":""img/1to3/7.png"",""time"":697},{""stimulus"":""img/1to3/8.png"",""time"":806},{""stimulus"":""img/1to3/9.png"",""time"":892},{""stimulus"":""img/1to3/10.png"",""time"":991},{""stimulus"":""img/1to3/11.png"",""time"":1090},{""stimulus"":""img/1to3/12.png"",""time"":1189}]","[]"
"image-keyboard-response","18","95034","0.0-5.0-1.7","63f7becf2322a5ba95aad1dc","bdp_cybrbll","Thu Mar 30 2023 15:46:14 GMT-0500 (Central Daylight Time)","499379","3","1","","null","","","","observe","","img/3to2/1.png","null","218","177","0.5","0.5","3","1","",""
"animation","19","96325","0.0-5.0-2.7","63f7becf2322a5ba95aad1dc","bdp_cybrbll","Thu Mar 30 2023 15:46:14 GMT-0500 (Central Daylight Time)","499379","3","1","","","","","","","","","","218","","","","3","1","[{""stimulus"":""img/3to1/1.png"",""time"":110},{""stimulus"":""img/3to1/2.png"",""time"":207},{""stimulus"":""img/3to1/3.png"",""time"":303},{""stimulus"":""img/3to1/4.png"",""time"":399},{""stimulus"":""img/3to1/5.png"",""time"":512},{""stimulus"":""img/3to1/6.png"",""time"":608},{""stimulus"":""img/3to1/7.png"",""time"":704},{""stimulus"":""img/3to1/8.png"",""time"":799},{""stimulus"":""img/3to1/9.png"",""time"":894},{""stimulus"":""img/3to1/10.png"",""time"":1006},{""stimulus"":""img/3to1/11.png"",""time"":1090},{""stimulus"":""img/3to1/12.png"",""time"":1195}]","[]"
"image-keyboard-response","20","96871","0.0-5.0-1.8","63f7becf2322a5ba95aad1dc","bdp_cybrbll","Thu Mar 30 2023 15:46:14 GMT-0500 (Central Daylight Time)","499379","3","1","","null","","","","observe","","img/1to3/1.png","null","217","544","0.5","0.5","1","3","",""
"animation","21","98170","0.0-5.0-2.8","63f7becf2322a5ba95aad1dc","bdp_cybrbll","Thu Mar 30 2023 15:46:14 GMT-0500 (Central Daylight Time)","499379","3","1","","","","","","","","","","217","","","","1","3","[{""stimulus"":""img/1to3/1.png"",""time"":107},{""stimulus"":""img/1to3/2.png"",""time"":203},{""stimulus"":""img/1to3/3.png"",""time"":298},{""stimulus"":""img/1to3/4.png"",""time"":397},{""stimulus"":""img/1to3/5.png"",""time"":504},{""stimulus"":""img/1to3/6.png"",""time"":596},{""stimulus"":""img/1to3/7.png"",""time"":694},{""stimulus"":""img/1to3/8.png"",""time"":792},{""stimulus"":""img/1to3/9.png"",""time"":901},{""stimulus"":""img/1to3/10.png"",""time"":990},{""stimulus"":""img/1to3/11.png"",""time"":1090},{""stimulus"":""img/1to3/12.png"",""time"":1189}]","[]"
"image-keyboard-response","22","99109","0.0-5.0-1.9","63f7becf2322a5ba95aad1dc","bdp_cybrbll","Thu Mar 30 2023 15:46:14 GMT-0500 (Central Daylight Time)","499379","3","1","","null","","","","observe","","img/3to2/1.png","null","216","928","0.5","0.5","3","1","",""
"animation","23","100400","0.0-5.0-2.9","63f7becf2322a5ba95aad1dc","bdp_cybrbll","Thu Mar 30 2023 15:46:14 GMT-0500 (Central Daylight Time)","499379","3","1","","","","","","","","","","216","","","","3","1","[{""stimulus"":""img/3to1/1.png"",""time"":110},{""stimulus"":""img/3to1/2.png"",""time"":199},{""stimulus"":""img/3to1/3.png"",""time"":298},{""stimulus"":""img/3to1/4.png"",""time"":411},{""stimulus"":""img/3to1/5.png"",""time"":507},{""stimulus"":""img/3to1/6.png"",""time"":595},{""stimulus"":""img/3to1/7.png"",""time"":699},{""stimulus"":""img/3to1/8.png"",""time"":794},{""stimulus"":""img/3to1/9.png"",""time"":906},{""stimulus"":""img/3to1/10.png"",""time"":1003},{""stimulus"":""img/3to1/11.png"",""time"":1089},{""stimulus"":""img/3to1/12.png"",""time"":1195}]","[]"
"image-keyboard-response","24","100735","0.0-5.0-1.10","63f7becf2322a5ba95aad1dc","bdp_cybrbll","Thu Mar 30 2023 15:46:14 GMT-0500 (Central Daylight Time)","499379","3","1","","null","","","","observe","","img/1to3/1.png","null","215","330","0.5","0.5","1","2","",""
"animation","25","102037","0.0-5.0-2.10","63f7becf2322a5ba95aad1dc","bdp_cybrbll","Thu Mar 30 2023 15:46:14 GMT-0500 (Central Daylight Time)","499379","3","1","","","","","","","","","","215","","","","1","2","[{""stimulus"":""img/1to2/1.png"",""time"":111},{""stimulus"":""img/1to2/2.png"",""time"":207},{""stimulus"":""img/1to2/3.png"",""time"":300},{""stimulus"":""img/1to2/4.png"",""time"":410},{""stimulus"":""img/1to2/5.png"",""time"":506},{""stimulus"":""img/1to2/6.png"",""time"":601},{""stimulus"":""img/1to2/7.png"",""time"":696},{""stimulus"":""img/1to2/8.png"",""time"":793},{""stimulus"":""img/1to2/9.png"",""time"":903},{""stimulus"":""img/1to2/10.png"",""time"":991},{""stimulus"":""img/1to2/11.png"",""time"":1094},{""stimulus"":""img/1to2/12.png"",""time"":1189}]","[]"
"image-keyboard-response","26","102378","0.0-5.0-1.11","63f7becf2322a5ba95aad1dc","bdp_cybrbll","Thu Mar 30 2023 15:46:14 GMT-0500 (Central Daylight Time)","499379","3","1","","341","","","","choice","","img/2to1/1.png","2","214","351","0.5","0.5","2","3","",""
"animation","27","103675","0.0-5.0-2.11","63f7becf2322a5ba95aad1dc","bdp_cybrbll","Thu Mar 30 2023 15:46:14 GMT-0500 (Central Daylight Time)","499379","3","1","","","","","","","","","","214","","","","2","3","[{""stimulus"":""img/2to3/1.png"",""time"":105},{""stimulus"":""img/2to3/2.png"",""time"":202},{""stimulus"":""img/2to3/3.png"",""time"":298},{""stimulus"":""img/2to3/4.png"",""time"":407},{""stimulus"":""img/2to3/5.png"",""time"":496},{""stimulus"":""img/2to3/6.png"",""time"":595},{""stimulus"":""img/2to3/7.png"",""time"":708},{""stimulus"":""img/2to3/8.png"",""time"":794},{""stimulus"":""img/2to3/9.png"",""time"":892},{""stimulus"":""img/2to3/10.png"",""time"":990},{""stimulus"":""img/2to3/11.png"",""time"":1089},{""stimulus"":""img/2to3/12.png"",""time"":1200}]","[]"
"image-keyboard-response","28","104165","0.0-5.0-1.12","63f7becf2322a5ba95aad1dc","bdp_cybrbll","Thu Mar 30 2023 15:46:14 GMT-0500 (Central Daylight Time)","499379","3","1","","null","","","","observe","","img/3to2/1.png","null","213","488","0.5","0.5","3","2","",""
"animation","29","105453","0.0-5.0-2.12","63f7becf2322a5ba95aad1dc","bdp_cybrbll","Thu Mar 30 2023 15:46:14 GMT-0500 (Central Daylight Time)","499379","3","1","","","","","","","","","","213","","","","3","2","[{""stimulus"":""img/3to2/1.png"",""time"":111},{""stimulus"":""img/3to2/2.png"",""time"":198},{""stimulus"":""img/3to2/3.png"",""time"":301},{""stimulus"":""img/3to2/4.png"",""time"":397},{""stimulus"":""img/3to2/5.png"",""time"":504},{""stimulus"":""img/3to2/6.png"",""time"":595},{""stimulus"":""img/3to2/7.png"",""time"":695},{""stimulus"":""img/3to2/8.png"",""time"":792},{""stimulus"":""img/3to2/9.png"",""time"":902},{""stimulus"":""img/3to2/10.png"",""time"":997},{""stimulus"":""img/3to2/11.png"",""time"":1089},{""stimulus"":""img/3to2/12.png"",""time"":1189}]","[]"
"image-keyboard-response","30","105562","0.0-5.0-1.13","63f7becf2322a5ba95aad1dc","bdp_cybrbll","Thu Mar 30 2023 15:46:14 GMT-0500 (Central Daylight Time)","499379","3","1","","107","","","","choice","","img/2to1/1.png","1","212","371","0.5","0.5","2","1","",""
"animation","31","106862","0.0-5.0-2.13","63f7becf2322a5ba95aad1dc","bdp_cybrbll","Thu Mar 30 2023 15:46:14 GMT-0500 (Central Daylight Time)","499379","3","1","","","","","","","","","","212","","","","2","1","[{""stimulus"":""img/2to1/1.png"",""time"":110},{""stimulus"":""img/2to1/2.png"",""time"":206},{""stimulus"":""img/2to1/3.png"",""time"":301},{""stimulus"":""img/2to1/4.png"",""time"":397},{""stimulus"":""img/2to1/5.png"",""time"":506},{""stimulus"":""img/2to1/6.png"",""time"":602},{""stimulus"":""img/2to1/7.png"",""time"":693},{""stimulus"":""img/2to1/8.png"",""time"":793},{""stimulus"":""img/2to1/9.png"",""time"":892},{""stimulus"":""img/2to1/10.png"",""time"":997},{""stimulus"":""img/2to1/11.png"",""time"":1094},{""stimulus"":""img/2to1/12.png"",""time"":1204}]","[]"
"image-keyboard-response","32","107053","0.0-5.0-1.14","63f7becf2322a5ba95aad1dc","bdp_cybrbll","Thu Mar 30 2023 15:46:14 GMT-0500 (Central Daylight Time)","499379","3","1","","null","","","","observe","","img/1to3/1.png","null","211","175","0.5","0.5","1","3","",""
"animation","33","108344","0.0-5.0-2.14","63f7becf2322a5ba95aad1dc","bdp_cybrbll","Thu Mar 30 2023 15:46:14 GMT-0500 (Central Daylight Time)","499379","3","1","","","","","","","","","","211","","","","1","3","[{""stimulus"":""img/1to3/1.png"",""time"":113},{""stimulus"":""img/1to3/2.png"",""time"":209},{""stimulus"":""img/1to3/3.png"",""time"":305},{""stimulus"":""img/1to3/4.png"",""time"":401},{""stimulus"":""img/1to3/5.png"",""time"":496},{""stimulus"":""img/1to3/6.png"",""time"":595},{""stimulus"":""img/1to3/7.png"",""time"":702},{""stimulus"":""img/1to3/8.png"",""time"":797},{""stimulus"":""img/1to3/9.png"",""time"":892},{""stimulus"":""img/1to3/10.png"",""time"":1004},{""stimulus"":""img/1to3/11.png"",""time"":1100},{""stimulus"":""img/1to3/12.png"",""time"":1190}]","[]"
"image-keyboard-response","34","108551","0.0-5.0-1.15","63f7becf2322a5ba95aad1dc","bdp_cybrbll","Thu Mar 30 2023 15:46:14 GMT-0500 (Central Daylight Time)","499379","3","1","","null","","","","observe","","img/3to2/1.png","null","210","194","0.5","0.5","3","2","",""
"animation","35","109839","0.0-5.0-2.15","63f7becf2322a5ba95aad1dc","bdp_cybrbll","Thu Mar 30 2023 15:46:14 GMT-0500 (Central Daylight Time)","499379","3","1","","","","","","","","","","210","","","","3","2","[{""stimulus"":""img/3to2/1.png"",""time"":109},{""stimulus"":""img/3to2/2.png"",""time"":198},{""stimulus"":""img/3to2/3.png"",""time"":298},{""stimulus"":""img/3to2/4.png"",""time"":409},{""stimulus"":""img/3to2/5.png"",""time"":505},{""stimulus"":""img/3to2/6.png"",""time"":595},{""stimulus"":""img/3to2/7.png"",""time"":693},{""stimulus"":""img/3to2/8.png"",""time"":792},{""stimulus"":""img/3to2/9.png"",""time"":892},{""stimulus"":""img/3to2/10.png"",""time"":998},{""stimulus"":""img/3to2/11.png"",""time"":1089},{""stimulus"":""img/3to2/12.png"",""time"":1188}]","[]"
"image-keyboard-response","36","110146","0.0-5.0-1.16","63f7becf2322a5ba95aad1dc","bdp_cybrbll","Thu Mar 30 2023 15:46:14 GMT-0500 (Central Daylight Time)","499379","3","1","","306","","","","choice","","img/2to1/1.png","1","209","567","0.5","0.5","2","1","",""
"animation","37","111445","0.0-5.0-2.16","63f7becf2322a5ba95aad1dc","bdp_cybrbll","Thu Mar 30 2023 15:46:14 GMT-0500 (Central Daylight Time)","499379","3","1","","","","","","","","","","209","","","","2","1","[{""stimulus"":""img/2to1/1.png"",""time"":100},{""stimulus"":""img/2to1/2.png"",""time"":202},{""stimulus"":""img/2to1/3.png"",""time"":298},{""stimulus"":""img/2to1/4.png"",""time"":408},{""stimulus"":""img/2to1/5.png"",""time"":496},{""stimulus"":""img/2to1/6.png"",""time"":595},{""stimulus"":""img/2to1/7.png"",""time"":709},{""stimulus"":""img/2to1/8.png"",""time"":805},{""stimulus"":""img/2to1/9.png"",""time"":899},{""stimulus"":""img/2to1/10.png"",""time"":991},{""stimulus"":""img/2to1/11.png"",""time"":1090},{""stimulus"":""img/2to1/12.png"",""time"":1203}]","[]"
"image-keyboard-response","38","112192","0.0-5.0-1.17","63f7becf2322a5ba95aad1dc","bdp_cybrbll","Thu Mar 30 2023 15:46:14 GMT-0500 (Central Daylight Time)","499379","3","1","","null","","","","observe","","img/1to3/1.png","null","208","744","0.5","0.5","1","2","",""
"animation","39","113494","0.0-5.0-2.17","63f7becf2322a5ba95aad1dc","bdp_cybrbll","Thu Mar 30 2023 15:46:14 GMT-0500 (Central Daylight Time)","499379","3","1","","","","","","","","","","208","","","","1","2","[{""stimulus"":""img/1to2/1.png"",""time"":112},{""stimulus"":""img/1to2/2.png"",""time"":199},{""stimulus"":""img/1to2/3.png"",""time"":298},{""stimulus"":""img/1to2/4.png"",""time"":397},{""stimulus"":""img/1to2/5.png"",""time"":495},{""stimulus"":""img/1to2/6.png"",""time"":603},{""stimulus"":""img/1to2/7.png"",""time"":699},{""stimulus"":""img/1to2/8.png"",""time"":794},{""stimulus"":""img/1to2/9.png"",""time"":904},{""stimulus"":""img/1to2/10.png"",""time"":991},{""stimulus"":""img/1to2/11.png"",""time"":1089},{""stimulus"":""img/1to2/12.png"",""time"":1190}]","[]"
"image-keyboard-response","40","113702","0.0-5.0-1.18","63f7becf2322a5ba95aad1dc","bdp_cybrbll","Thu Mar 30 2023 15:46:14 GMT-0500 (Central Daylight Time)","499379","3","1","","208","","","","choice","","img/2to1/1.png","2","207","265","0.5","0.5","2","3","",""
"animation","41","114990","0.0-5.0-2.18","63f7becf2322a5ba95aad1dc","bdp_cybrbll","Thu Mar 30 2023 15:46:14 GMT-0500 (Central Daylight Time)","499379","3","1","","","","","","","","","","207","","","","2","3","[{""stimulus"":""img/2to3/1.png"",""time"":110},{""stimulus"":""img/2to3/2.png"",""time"":206},{""stimulus"":""img/2to3/3.png"",""time"":300},{""stimulus"":""img/2to3/4.png"",""time"":410},{""stimulus"":""img/2to3/5.png"",""time"":505},{""stimulus"":""img/2to3/6.png"",""time"":601},{""stimulus"":""img/2to3/7.png"",""time"":696},{""stimulus"":""img/2to3/8.png"",""time"":793},{""stimulus"":""img/2to3/9.png"",""time"":892},{""stimulus"":""img/2to3/10.png"",""time"":991},{""stimulus"":""img/2to3/11.png"",""time"":1091},{""stimulus"":""img/2to3/12.png"",""time"":1189}]","[]"
"image-keyboard-response","42","115378","0.0-5.0-1.19","63f7becf2322a5ba95aad1dc","bdp_cybrbll","Thu Mar 30 2023 15:46:14 GMT-0500 (Central Daylight Time)","499379","3","1","","null","","","","observe","","img/3to2/1.png","null","206","384","0.5","0.5","3","1","",""
"animation","43","116666","0.0-5.0-2.19","63f7becf2322a5ba95aad1dc","bdp_cybrbll","Thu Mar 30 2023 15:46:14 GMT-0500 (Central Daylight Time)","499379","3","1","","","","","","","","","","206","","","","3","1","[{""stimulus"":""img/3to1/1.png"",""time"":110},{""stimulus"":""img/3to1/2.png"",""time"":206},{""stimulus"":""img/3to1/3.png"",""time"":300},{""stimulus"":""img/3to1/4.png"",""time"":397},{""stimulus"":""img/3to1/5.png"",""time"":497},{""stimulus"":""img/3to1/6.png"",""time"":604},{""stimulus"":""img/3to1/7.png"",""time"":700},{""stimulus"":""img/3to1/8.png"",""time"":793},{""stimulus"":""img/3to1/9.png"",""time"":892},{""stimulus"":""img/3to1/10.png"",""time"":1002},{""stimulus"":""img/3to1/11.png"",""time"":1097},{""stimulus"":""img/3to1/12.png"",""time"":1188}]","[]"
"image-keyboard-response","44","116905","0.0-5.0-1.20","63f7becf2322a5ba95aad1dc","bdp_cybrbll","Thu Mar 30 2023 15:46:14 GMT-0500 (Central Daylight Time)","499379","3","1","","null","","","","observe","","img/1to3/1.png","null","205","225","0.5","0.5","1","2","",""
"animation","45","118192","0.0-5.0-2.20","63f7becf2322a5ba95aad1dc","bdp_cybrbll","Thu Mar 30 2023 15:46:14 GMT-0500 (Central Daylight Time)","499379","3","1","","","","","","","","","","205","","","","1","2","[{""stimulus"":""img/1to2/1.png"",""time"":110},{""stimulus"":""img/1to2/2.png"",""time"":207},{""stimulus"":""img/1to2/3.png"",""time"":303},{""stimulus"":""img/1to2/4.png"",""time"":399},{""stimulus"":""img/1to2/5.png"",""time"":497},{""stimulus"":""img/1to2/6.png"",""time"":595},{""stimulus"":""img/1to2/7.png"",""time"":694},{""stimulus"":""img/1to2/8.png"",""time"":804},{""stimulus"":""img/1to2/9.png"",""time"":899},{""stimulus"":""img/1to2/10.png"",""time"":991},{""stimulus"":""img/1to2/11.png"",""time"":1090},{""stimulus"":""img/1to2/12.png"",""time"":1202}]","[]"
"image-keyboard-response","46","118241","0.0-5.0-1.21","63f7becf2322a5ba95aad1dc","bdp_cybrbll","Thu Mar 30 2023 15:46:14 GMT-0500 (Central Daylight Time)","499379","3","1","","49","","","","choice","","img/2to1/1.png","2","204","511","0.5","0.5","2","3","",""
"animation","47","119528","0.0-5.0-2.21","63f7becf2322a5ba95aad1dc","bdp_cybrbll","Thu Mar 30 2023 15:46:14 GMT-0500 (Central Daylight Time)","499379","3","1","","","","","","","","","","204","","","","2","3","[{""stimulus"":""img/2to3/1.png"",""time"":104},{""stimulus"":""img/2to3/2.png"",""time"":200},{""stimulus"":""img/2to3/3.png"",""time"":311},{""stimulus"":""img/2to3/4.png"",""time"":397},{""stimulus"":""img/2to3/5.png"",""time"":501},{""stimulus"":""img/2to3/6.png"",""time"":596},{""stimulus"":""img/2to3/7.png"",""time"":694},{""stimulus"":""img/2to3/8.png"",""time"":793},{""stimulus"":""img/2to3/9.png"",""time"":899},{""stimulus"":""img/2to3/10.png"",""time"":993},{""stimulus"":""img/2to3/11.png"",""time"":1103},{""stimulus"":""img/2to3/12.png"",""time"":1189}]","[]"
"image-keyboard-response","48","120406","0.0-5.0-1.22","63f7becf2322a5ba95aad1dc","bdp_cybrbll","Thu Mar 30 2023 15:46:14 GMT-0500 (Central Daylight Time)","499379","3","1","","null","","","","observe","","img/3to2/1.png","null","203","871","0.5","0.5","3","1","",""
"animation","49","121694","0.0-5.0-2.22","63f7becf2322a5ba95aad1dc","bdp_cybrbll","Thu Mar 30 2023 15:46:14 GMT-0500 (Central Daylight Time)","499379","3","1","","","","","","","","","","203","","","","3","1","[{""stimulus"":""img/3to1/1.png"",""time"":112},{""stimulus"":""img/3to1/2.png"",""time"":199},{""stimulus"":""img/3to1/3.png"",""time"":304},{""stimulus"":""img/3to1/4.png"",""time"":400},{""stimulus"":""img/3to1/5.png"",""time"":496},{""stimulus"":""img/3to1/6.png"",""time"":595},{""stimulus"":""img/3to1/7.png"",""time"":703},{""stimulus"":""img/3to1/8.png"",""time"":793},{""stimulus"":""img/3to1/9.png"",""time"":892},{""stimulus"":""img/3to1/10.png"",""time"":991},{""stimulus"":""img/3to1/11.png"",""time"":1102},{""stimulus"":""img/3to1/12.png"",""time"":1198}]","[]"
"image-keyboard-response","50","122555","0.0-5.0-1.23","63f7becf2322a5ba95aad1dc","bdp_cybrbll","Thu Mar 30 2023 15:46:14 GMT-0500 (Central Daylight Time)","499379","3","1","","null","","","","observe","","img/1to3/1.png","null","202","859","0.5","0.5","1","2","",""
"animation","51","123857","0.0-5.0-2.23","63f7becf2322a5ba95aad1dc","bdp_cybrbll","Thu Mar 30 2023 15:46:14 GMT-0500 (Central Daylight Time)","499379","3","1","","","","","","","","","","202","","","","1","2","[{""stimulus"":""img/1to2/1.png"",""time"":110},{""stimulus"":""img/1to2/2.png"",""time"":199},{""stimulus"":""img/1to2/3.png"",""time"":299},{""stimulus"":""img/1to2/4.png"",""time"":399},{""stimulus"":""img/1to2/5.png"",""time"":508},{""stimulus"":""img/1to2/6.png"",""time"":595},{""stimulus"":""img/1to2/7.png"",""time"":695},{""stimulus"":""img/1to2/8.png"",""time"":793},{""stimulus"":""img/1to2/9.png"",""time"":906},{""stimulus"":""img/1to2/10.png"",""time"":1002},{""stimulus"":""img/1to2/11.png"",""time"":1098},{""stimulus"":""img/1to2/12.png"",""time"":1189}]","[]"
"image-keyboard-response","52","123951","0.0-5.0-1.24","63f7becf2322a5ba95aad1dc","bdp_cybrbll","Thu Mar 30 2023 15:46:14 GMT-0500 (Central Daylight Time)","499379","3","1","","93","","","","choice","","img/2to1/1.png","2","201","911","0.5","0.5","2","3","",""
"animation","53","125240","0.0-5.0-2.24","63f7becf2322a5ba95aad1dc","bdp_cybrbll","Thu Mar 30 2023 15:46:14 GMT-0500 (Central Daylight Time)","499379","3","1","","","","","","","","","","201","","","","2","3","[{""stimulus"":""img/2to3/1.png"",""time"":107},{""stimulus"":""img/2to3/2.png"",""time"":209},{""stimulus"":""img/2to3/3.png"",""time"":304},{""stimulus"":""img/2to3/4.png"",""time"":398},{""stimulus"":""img/2to3/5.png"",""time"":508},{""stimulus"":""img/2to3/6.png"",""time"":595},{""stimulus"":""img/2to3/7.png"",""time"":701},{""stimulus"":""img/2to3/8.png"",""time"":793},{""stimulus"":""img/2to3/9.png"",""time"":892},{""stimulus"":""img/2to3/10.png"",""time"":1002},{""stimulus"":""img/2to3/11.png"",""time"":1099},{""stimulus"":""img/2to3/12.png"",""time"":1194}]","[]"
"image-keyboard-response","54","125672","0.0-5.0-1.25","63f7becf2322a5ba95aad1dc","bdp_cybrbll","Thu Mar 30 2023 15:46:14 GMT-0500 (Central Daylight Time)","499379","3","1","","null","","","","observe","","img/3to2/1.png","null","200","431","0.5","0.5","3","1","",""
"animation","55","126960","0.0-5.0-2.25","63f7becf2322a5ba95aad1dc","bdp_cybrbll","Thu Mar 30 2023 15:46:14 GMT-0500 (Central Daylight Time)","499379","3","1","","","","","","","","","","200","","","","3","1","[{""stimulus"":""img/3to1/1.png"",""time"":107},{""stimulus"":""img/3to1/2.png"",""time"":202},{""stimulus"":""img/3to1/3.png"",""time"":298},{""stimulus"":""img/3to1/4.png"",""time"":409},{""stimulus"":""img/3to1/5.png"",""time"":496},{""stimulus"":""img/3to1/6.png"",""time"":600},{""stimulus"":""img/3to1/7.png"",""time"":695},{""stimulus"":""img/3to1/8.png"",""time"":793},{""stimulus"":""img/3to1/9.png"",""time"":893},{""stimulus"":""img/3to1/10.png"",""time"":997},{""stimulus"":""img/3to1/11.png"",""time"":1092},{""stimulus"":""img/3to1/12.png"",""time"":1190}]","[]"
"image-keyboard-response","56","128437","0.0-5.0-1.26","63f7becf2322a5ba95aad1dc","bdp_cybrbll","Thu Mar 30 2023 15:46:14 GMT-0500 (Central Daylight Time)","499379","3","1","","null","","","","observe","","img/1to3/1.png","null","199","1474","0.5","0.5","1","2","",""
"animation","57","129726","0.0-5.0-2.26","63f7becf2322a5ba95aad1dc","bdp_cybrbll","Thu Mar 30 2023 15:46:14 GMT-0500 (Central Daylight Time)","499379","3","1","","","","","","","","","","199","","","","1","2","[{""stimulus"":""img/1to2/1.png"",""time"":110},{""stimulus"":""img/1to2/2.png"",""time"":199},{""stimulus"":""img/1to2/3.png"",""time"":302},{""stimulus"":""img/1to2/4.png"",""time"":397},{""stimulus"":""img/1to2/5.png"",""time"":496},{""stimulus"":""img/1to2/6.png"",""time"":603},{""stimulus"":""img/1to2/7.png"",""time"":694},{""stimulus"":""img/1to2/8.png"",""time"":793},{""stimulus"":""img/1to2/9.png"",""time"":892},{""stimulus"":""img/1to2/10.png"",""time"":1002},{""stimulus"":""img/1to2/11.png"",""time"":1097},{""stimulus"":""img/1to2/12.png"",""time"":1193}]","[]"
"image-keyboard-response","58","130003","0.0-5.0-1.27","63f7becf2322a5ba95aad1dc","bdp_cybrbll","Thu Mar 30 2023 15:46:14 GMT-0500 (Central Daylight Time)","499379","3","1","","277","","","","choice","","img/2to1/1.png","2","198","210","0.5","0.5","2","3","",""
"animation","59","131291","0.0-5.0-2.27","63f7becf2322a5ba95aad1dc","bdp_cybrbll","Thu Mar 30 2023 15:46:14 GMT-0500 (Central Daylight Time)","499379","3","1","","","","","","","","","","198","","","","2","3","[{""stimulus"":""img/2to3/1.png"",""time"":100},{""stimulus"":""img/2to3/2.png"",""time"":199},{""stimulus"":""img/2to3/3.png"",""time"":314},{""stimulus"":""img/2to3/4.png"",""time"":397},{""stimulus"":""img/2to3/5.png"",""time"":496},{""stimulus"":""img/2to3/6.png"",""time"":600},{""stimulus"":""img/2to3/7.png"",""time"":694},{""stimulus"":""img/2to3/8.png"",""time"":808},{""stimulus"":""img/2to3/9.png"",""time"":903},{""stimulus"":""img/2to3/10.png"",""time"":998},{""stimulus"":""img/2to3/11.png"",""time"":1091},{""stimulus"":""img/2to3/12.png"",""time"":1204}]","[]"
"image-keyboard-response","60","132301","0.0-5.0-1.28","63f7becf2322a5ba95aad1dc","bdp_cybrbll","Thu Mar 30 2023 15:46:14 GMT-0500 (Central Daylight Time)","499379","3","1","","null","","","","observe","","img/3to2/1.png","null","197","1001","0.5","0.5","3","1","",""
"animation","61","133590","0.0-5.0-2.28","63f7becf2322a5ba95aad1dc","bdp_cybrbll","Thu Mar 30 2023 15:46:14 GMT-0500 (Central Daylight Time)","499379","3","1","","","","","","","","","","197","","","","3","1","[{""stimulus"":""img/3to1/1.png"",""time"":111},{""stimulus"":""img/3to1/2.png"",""time"":207},{""stimulus"":""img/3to1/3.png"",""time"":303},{""stimulus"":""img/3to1/4.png"",""time"":399},{""stimulus"":""img/3to1/5.png"",""time"":496},{""stimulus"":""img/3to1/6.png"",""time"":594},{""stimulus"":""img/3to1/7.png"",""time"":698},{""stimulus"":""img/3to1/8.png"",""time"":793},{""stimulus"":""img/3to1/9.png"",""time"":906},{""stimulus"":""img/3to1/10.png"",""time"":991},{""stimulus"":""img/3to1/11.png"",""time"":1090},{""stimulus"":""img/3to1/12.png"",""time"":1188}]","[]"
"image-keyboard-response","62","134146","0.0-5.0-1.29","63f7becf2322a5ba95aad1dc","bdp_cybrbll","Thu Mar 30 2023 15:46:14 GMT-0500 (Central Daylight Time)","499379","3","1","","null","","","","observe","","img/1to3/1.png","null","196","549","0.5","0.5","1","2","",""
"animation","63","135445","0.0-5.0-2.29","63f7becf2322a5ba95aad1dc","bdp_cybrbll","Thu Mar 30 2023 15:46:14 GMT-0500 (Central Daylight Time)","499379","3","1","","","","","","","","","","196","","","","1","2","[{""stimulus"":""img/1to2/1.png"",""time"":110},{""stimulus"":""img/1to2/2.png"",""time"":199},{""stimulus"":""img/1to2/3.png"",""time"":301},{""stimulus"":""img/1to2/4.png"",""time"":398},{""stimulus"":""img/1to2/5.png"",""time"":509},{""stimulus"":""img/1to2/6.png"",""time"":602},{""stimulus"":""img/1to2/7.png"",""time"":693},{""stimulus"":""img/1to2/8.png"",""time"":792},{""stimulus"":""img/1to2/9.png"",""time"":892},{""stimulus"":""img/1to2/10.png"",""time"":1002},{""stimulus"":""img/1to2/11.png"",""time"":1095},{""stimulus"":""img/1to2/12.png"",""time"":1190}]","[]"
"image-keyboard-response","64","135725","0.0-5.0-1.30","63f7becf2322a5ba95aad1dc","bdp_cybrbll","Thu Mar 30 2023 15:46:14 GMT-0500 (Central Daylight Time)","499379","3","1","","280","","","","choice","","img/2to1/1.png","2","195","1293","0.5","0.5","2","3","",""
"animation","65","137013","0.0-5.0-2.30","63f7becf2322a5ba95aad1dc","bdp_cybrbll","Thu Mar 30 2023 15:46:14 GMT-0500 (Central Daylight Time)","499379","3","1","","","","","","","","","","195","","","","2","3","[{""stimulus"":""img/2to3/1.png"",""time"":102},{""stimulus"":""img/2to3/2.png"",""time"":199},{""stimulus"":""img/2to3/3.png"",""time"":298},{""stimulus"":""img/2to3/4.png"",""time"":398},{""stimulus"":""img/2to3/5.png"",""time"":498},{""stimulus"":""img/2to3/6.png"",""time"":610},{""stimulus"":""img/2to3/7.png"",""time"":703},{""stimulus"":""img/2to3/8.png"",""time"":798},{""stimulus"":""img/2to3/9.png"",""time"":893},{""stimulus"":""img/2to3/10.png"",""time"":992},{""stimulus"":""img/2to3/11.png"",""time"":1091},{""stimulus"":""img/2to3/12.png"",""time"":1191}]","[]"
"image-keyboard-response","66","137839","0.0-5.0-1.31","63f7becf2322a5ba95aad1dc","bdp_cybrbll","Thu Mar 30 2023 15:46:14 GMT-0500 (Central Daylight Time)","499379","3","1","","null","","","","observe","","img/3to2/1.png","null","194","819","0.5","0.5","3","1","",""
"animation","67","139127","0.0-5.0-2.31","63f7becf2322a5ba95aad1dc","bdp_cybrbll","Thu Mar 30 2023 15:46:14 GMT-0500 (Central Daylight Time)","499379","3","1","","","","","","","","","","194","","","","3","1","[{""stimulus"":""img/3to1/1.png"",""time"":113},{""stimulus"":""img/3to1/2.png"",""time"":209},{""stimulus"":""img/3to1/3.png"",""time"":305},{""stimulus"":""img/3to1/4.png"",""time"":401},{""stimulus"":""img/3to1/5.png"",""time"":496},{""stimulus"":""img/3to1/6.png"",""time"":606},{""stimulus"":""img/3to1/7.png"",""time"":703},{""stimulus"":""img/3to1/8.png"",""time"":798},{""stimulus"":""img/3to1/9.png"",""time"":893},{""stimulus"":""img/3to1/10.png"",""time"":992},{""stimulus"":""img/3to1/11.png"",""time"":1098},{""stimulus"":""img/3to1/12.png"",""time"":1195}]","[]"
"image-keyboard-response","68","139715","0.0-5.0-1.32","63f7becf2322a5ba95aad1dc","bdp_cybrbll","Thu Mar 30 2023 15:46:14 GMT-0500 (Central Daylight Time)","499379","3","1","","null","","","","observe","","img/1to3/1.png","null","193","573","0.5","0.5","1","3","",""
"animation","69","141013","0.0-5.0-2.32","63f7becf2322a5ba95aad1dc","bdp_cybrbll","Thu Mar 30 2023 15:46:14 GMT-0500 (Central Daylight Time)","499379","3","1","","","","","","","","","","193","","","","1","3","[{""stimulus"":""img/1to3/1.png"",""time"":110},{""stimulus"":""img/1to3/2.png"",""time"":205},{""stimulus"":""img/1to3/3.png"",""time"":298},{""stimulus"":""img/1to3/4.png"",""time"":397},{""stimulus"":""img/1to3/5.png"",""time"":496},{""stimulus"":""img/1to3/6.png"",""time"":595},{""stimulus"":""img/1to3/7.png"",""time"":698},{""stimulus"":""img/1to3/8.png"",""time"":793},{""stimulus"":""img/1to3/9.png"",""time"":901},{""stimulus"":""img/1to3/10.png"",""time"":996},{""stimulus"":""img/1to3/11.png"",""time"":1092},{""stimulus"":""img/1to3/12.png"",""time"":1189}]","[]"
"image-keyboard-response","70","141347","0.0-5.0-1.33","63f7becf2322a5ba95aad1dc","bdp_cybrbll","Thu Mar 30 2023 15:46:14 GMT-0500 (Central Daylight Time)","499379","3","1","","null","","","","observe","","img/3to2/1.png","null","192","332","0.5","0.5","3","2","",""
"animation","71","142649","0.0-5.0-2.33","63f7becf2322a5ba95aad1dc","bdp_cybrbll","Thu Mar 30 2023 15:46:14 GMT-0500 (Central Daylight Time)","499379","3","1","","","","","","","","","","192","","","","3","2","[{""stimulus"":""img/3to2/1.png"",""time"":112},{""stimulus"":""img/3to2/2.png"",""time"":199},{""stimulus"":""img/3to2/3.png"",""time"":303},{""stimulus"":""img/3to2/4.png"",""time"":399},{""stimulus"":""img/3to2/5.png"",""time"":495},{""stimulus"":""img/3to2/6.png"",""time"":595},{""stimulus"":""img/3to2/7.png"",""time"":694},{""stimulus"":""img/3to2/8.png"",""time"":795},{""stimulus"":""img/3to2/9.png"",""time"":891},{""stimulus"":""img/3to2/10.png"",""time"":991},{""stimulus"":""img/3to2/11.png"",""time"":1097},{""stimulus"":""img/3to2/12.png"",""time"":1193}]","[]"
"image-keyboard-response","72","142937","0.0-5.0-1.34","63f7becf2322a5ba95aad1dc","bdp_cybrbll","Thu Mar 30 2023 15:46:14 GMT-0500 (Central Daylight Time)","499379","3","1","","288","","","","choice","","img/2to1/1.png","1","191","309","0.5","0.5","2","1","",""
"animation","73","144225","0.0-5.0-2.34","63f7becf2322a5ba95aad1dc","bdp_cybrbll","Thu Mar 30 2023 15:46:14 GMT-0500 (Central Daylight Time)","499379","3","1","","","","","","","","","","191","","","","2","1","[{""stimulus"":""img/2to1/1.png"",""time"":110},{""stimulus"":""img/2to1/2.png"",""time"":206},{""stimulus"":""img/2to1/3.png"",""time"":302},{""stimulus"":""img/2to1/4.png"",""time"":397},{""stimulus"":""img/2to1/5.png"",""time"":496},{""stimulus"":""img/2to1/6.png"",""time"":595},{""stimulus"":""img/2to1/7.png"",""time"":698},{""stimulus"":""img/2to1/8.png"",""time"":808},{""stimulus"":""img/2to1/9.png"",""time"":905},{""stimulus"":""img/2to1/10.png"",""time"":991},{""stimulus"":""img/2to1/11.png"",""time"":1091},{""stimulus"":""img/2to1/12.png"",""time"":1192}]","[]"
"image-keyboard-response","74","144940","0.0-5.0-1.35","63f7becf2322a5ba95aad1dc","bdp_cybrbll","Thu Mar 30 2023 15:46:14 GMT-0500 (Central Daylight Time)","499379","3","1","","null","","","","observe","","img/1to3/1.png","null","190","708","0.5","0.5","1","2","",""
"animation","75","146228","0.0-5.0-2.35","63f7becf2322a5ba95aad1dc","bdp_cybrbll","Thu Mar 30 2023 15:46:14 GMT-0500 (Central Daylight Time)","499379","3","1","","","","","","","","","","190","","","","1","2","[{""stimulus"":""img/1to2/1.png"",""time"":112},{""stimulus"":""img/1to2/2.png"",""time"":206},{""stimulus"":""img/1to2/3.png"",""time"":302},{""stimulus"":""img/1to2/4.png"",""time"":398},{""stimulus"":""img/1to2/5.png"",""time"":497},{""stimulus"":""img/1to2/6.png"",""time"":605},{""stimulus"":""img/1to2/7.png"",""time"":701},{""stimulus"":""img/1to2/8.png"",""time"":799},{""stimulus"":""img/1to2/9.png"",""time"":893},{""stimulus"":""img/1to2/10.png"",""time"":1005},{""stimulus"":""img/1to2/11.png"",""time"":1100},{""stimulus"":""img/1to2/12.png"",""time"":1196}]","[]"
"image-keyboard-response","76","147164","0.0-5.0-1.36","63f7becf2322a5ba95aad1dc","bdp_cybrbll","Thu Mar 30 2023 15:46:14 GMT-0500 (Central Daylight Time)","499379","3","1","","936","","","","choice","","img/2to1/1.png","2","189","610","0.5","0.5","2","3","",""
"animation","77","148458","0.0-5.0-2.36","63f7becf2322a5ba95aad1dc","bdp_cybrbll","Thu Mar 30 2023 15:46:14 GMT-0500 (Central Daylight Time)","499379","3","1","","","","","","","","","","189","","","","2","3","[{""stimulus"":""img/2to3/1.png"",""time"":106},{""stimulus"":""img/2to3/2.png"",""time"":202},{""stimulus"":""img/2to3/3.png"",""time"":299},{""stimulus"":""img/2to3/4.png"",""time"":397},{""stimulus"":""img/2to3/5.png"",""time"":507},{""stimulus"":""img/2to3/6.png"",""time"":595},{""stimulus"":""img/2to3/7.png"",""time"":694},{""stimulus"":""img/2to3/8.png"",""time"":793},{""stimulus"":""img/2to3/9.png"",""time"":892},{""stimulus"":""img/2to3/10.png"",""time"":994},{""stimulus"":""img/2to3/11.png"",""time"":1090},{""stimulus"":""img/2to3/12.png"",""time"":1190}]","[]"
"image-keyboard-response","78","148949","0.0-5.0-1.37","63f7becf2322a5ba95aad1dc","bdp_cybrbll","Thu Mar 30 2023 15:46:14 GMT-0500 (Central Daylight Time)","499379","3","1","","null","","","","observe","","img/3to2/1.png","null","188","475","0.5","0.5","3","2","",""
"animation","79","150251","0.0-5.0-2.37","63f7becf2322a5ba95aad1dc","bdp_cybrbll","Thu Mar 30 2023 15:46:14 GMT-0500 (Central Daylight Time)","499379","3","1","","","","","","","","","","188","","","","3","2","[{""stimulus"":""img/3to2/1.png"",""time"":113},{""stimulus"":""img/3to2/2.png"",""time"":207},{""stimulus"":""img/3to2/3.png"",""time"":303},{""stimulus"":""img/3to2/4.png"",""time"":397},{""stimulus"":""img/3to2/5.png"",""time"":509},{""stimulus"":""img/3to2/6.png"",""time"":602},{""stimulus"":""img/3to2/7.png"",""time"":697},{""stimulus"":""img/3to2/8.png"",""time"":793},{""stimulus"":""img/3to2/9.png"",""time"":893},{""stimulus"":""img/3to2/10.png"",""time"":992},{""stimulus"":""img/3to2/11.png"",""time"":1091},{""stimulus"":""img/3to2/12.png"",""time"":1190}]","[]"
"image-keyboard-response","80","150473","0.0-5.0-1.38","63f7becf2322a5ba95aad1dc","bdp_cybrbll","Thu Mar 30 2023 15:46:14 GMT-0500 (Central Daylight Time)","499379","3","1","","221","","","","choice","","img/2to1/1.png","1","187","229","0.5","0.5","2","1","",""
"animation","81","151762","0.0-5.0-2.38","63f7becf2322a5ba95aad1dc","bdp_cybrbll","Thu Mar 30 2023 15:46:14 GMT-0500 (Central Daylight Time)","499379","3","1","","","","","","","","","","187","","","","2","1","[{""stimulus"":""img/2to1/1.png"",""time"":100},{""stimulus"":""img/2to1/2.png"",""time"":207},{""stimulus"":""img/2to1/3.png"",""time"":303},{""stimulus"":""img/2to1/4.png"",""time"":397},{""stimulus"":""img/2to1/5.png"",""time"":497},{""stimulus"":""img/2to1/6.png"",""time"":605},{""stimulus"":""img/2to1/7.png"",""time"":702},{""stimulus"":""img/2to1/8.png"",""time"":798},{""stimulus"":""img/2to1/9.png"",""time"":893},{""stimulus"":""img/2to1/10.png"",""time"":991},{""stimulus"":""img/2to1/11.png"",""time"":1097},{""stimulus"":""img/2to1/12.png"",""time"":1194}]","[]"
"image-keyboard-response","82","152044","0.0-5.0-1.39","63f7becf2322a5ba95aad1dc","bdp_cybrbll","Thu Mar 30 2023 15:46:14 GMT-0500 (Central Daylight Time)","499379","3","1","","null","","","","observe","","img/1to3/1.png","null","186","281","0.5","0.5","1","3","",""
"animation","83","153332","0.0-5.0-2.39","63f7becf2322a5ba95aad1dc","bdp_cybrbll","Thu Mar 30 2023 15:46:14 GMT-0500 (Central Daylight Time)","499379","3","1","","","","","","","","","","186","","","","1","3","[{""stimulus"":""img/1to3/1.png"",""time"":101},{""stimulus"":""img/1to3/2.png"",""time"":211},{""stimulus"":""img/1to3/3.png"",""time"":307},{""stimulus"":""img/1to3/4.png"",""time"":401},{""stimulus"":""img/1to3/5.png"",""time"":496},{""stimulus"":""img/1to3/6.png"",""time"":609},{""stimulus"":""img/1to3/7.png"",""time"":694},{""stimulus"":""img/1to3/8.png"",""time"":794},{""stimulus"":""img/1to3/9.png"",""time"":898},{""stimulus"":""img/1to3/10.png"",""time"":992},{""stimulus"":""img/1to3/11.png"",""time"":1089},{""stimulus"":""img/1to3/12.png"",""time"":1188}]","[]"
"image-keyboard-response","84","153913","0.0-5.0-1.40","63f7becf2322a5ba95aad1dc","bdp_cybrbll","Thu Mar 30 2023 15:46:14 GMT-0500 (Central Daylight Time)","499379","3","1","","null","","","","observe","","img/3to2/1.png","null","185","555","0.5","0.5","3","1","",""
"animation","85","155201","0.0-5.0-2.40","63f7becf2322a5ba95aad1dc","bdp_cybrbll","Thu Mar 30 2023 15:46:14 GMT-0500 (Central Daylight Time)","499379","3","1","","","","","","","","","","185","","","","3","1","[{""stimulus"":""img/3to1/1.png"",""time"":106},{""stimulus"":""img/3to1/2.png"",""time"":201},{""stimulus"":""img/3to1/3.png"",""time"":298},{""stimulus"":""img/3to1/4.png"",""time"":409},{""stimulus"":""img/3to1/5.png"",""time"":505},{""stimulus"":""img/3to1/6.png"",""time"":601},{""stimulus"":""img/3to1/7.png"",""time"":694},{""stimulus"":""img/3to1/8.png"",""time"":793},{""stimulus"":""img/3to1/9.png"",""time"":903},{""stimulus"":""img/3to1/10.png"",""time"":990},{""stimulus"":""img/3to1/11.png"",""time"":1094},{""stimulus"":""img/3to1/12.png"",""time"":1202}]","[]"
"image-keyboard-response","86","155875","0.0-5.0-1.41","63f7becf2322a5ba95aad1dc","bdp_cybrbll","Thu Mar 30 2023 15:46:14 GMT-0500 (Central Daylight Time)","499379","3","1","","null","","","","observe","","img/1to3/1.png","null","184","662","0.5","0.5","1","3","",""
"animation","87","157176","0.0-5.0-2.41","63f7becf2322a5ba95aad1dc","bdp_cybrbll","Thu Mar 30 2023 15:46:14 GMT-0500 (Central Daylight Time)","499379","3","1","","","","","","","","","","184","","","","1","3","[{""stimulus"":""img/1to3/1.png"",""time"":111},{""stimulus"":""img/1to3/2.png"",""time"":206},{""stimulus"":""img/1to3/3.png"",""time"":298},{""stimulus"":""img/1to3/4.png"",""time"":397},{""stimulus"":""img/1to3/5.png"",""time"":508},{""stimulus"":""img/1to3/6.png"",""time"":603},{""stimulus"":""img/1to3/7.png"",""time"":693},{""stimulus"":""img/1to3/8.png"",""time"":794},{""stimulus"":""img/1to3/9.png"",""time"":892},{""stimulus"":""img/1to3/10.png"",""time"":991},{""stimulus"":""img/1to3/11.png"",""time"":1093},{""stimulus"":""img/1to3/12.png"",""time"":1189}]","[]"
"image-keyboard-response","88","157699","0.0-5.0-1.42","63f7becf2322a5ba95aad1dc","bdp_cybrbll","Thu Mar 30 2023 15:46:14 GMT-0500 (Central Daylight Time)","499379","3","1","","null","","","","observe","","img/3to2/1.png","null","183","513","0.5","0.5","3","1","",""
"animation","89","158987","0.0-5.0-2.42","63f7becf2322a5ba95aad1dc","bdp_cybrbll","Thu Mar 30 2023 15:46:14 GMT-0500 (Central Daylight Time)","499379","3","1","","","","","","","","","","183","","","","3","1","[{""stimulus"":""img/3to1/1.png"",""time"":112},{""stimulus"":""img/3to1/2.png"",""time"":199},{""stimulus"":""img/3to1/3.png"",""time"":303},{""stimulus"":""img/3to1/4.png"",""time"":399},{""stimulus"":""img/3to1/5.png"",""time"":496},{""stimulus"":""img/3to1/6.png"",""time"":605},{""stimulus"":""img/3to1/7.png"",""time"":699},{""stimulus"":""img/3to1/8.png"",""time"":793},{""stimulus"":""img/3to1/9.png"",""time"":906},{""stimulus"":""img/3to1/10.png"",""time"":1001},{""stimulus"":""img/3to1/11.png"",""time"":1098},{""stimulus"":""img/3to1/12.png"",""time"":1189}]","[]"
"image-keyboard-response","90","159484","0.0-5.0-1.43","63f7becf2322a5ba95aad1dc","bdp_cybrbll","Thu Mar 30 2023 15:46:14 GMT-0500 (Central Daylight Time)","499379","3","1","","null","","","","observe","","img/1to3/1.png","null","182","493","0.5","0.5","1","2","",""
"animation","91","160785","0.0-5.0-2.43","63f7becf2322a5ba95aad1dc","bdp_cybrbll","Thu Mar 30 2023 15:46:14 GMT-0500 (Central Daylight Time)","499379","3","1","","","","","","","","","","182","","","","1","2","[{""stimulus"":""img/1to2/1.png"",""time"":111},{""stimulus"":""img/1to2/2.png"",""time"":207},{""stimulus"":""img/1to2/3.png"",""time"":297},{""stimulus"":""img/1to2/4.png"",""time"":396},{""stimulus"":""img/1to2/5.png"",""time"":496},{""stimulus"":""img/1to2/6.png"",""time"":595},{""stimulus"":""img/1to2/7.png"",""time"":699},{""stimulus"":""img/1to2/8.png"",""time"":794},{""stimulus"":""img/1to2/9.png"",""time"":892},{""stimulus"":""img/1to2/10.png"",""time"":1000},{""stimulus"":""img/1to2/11.png"",""time"":1095},{""stimulus"":""img/1to2/12.png"",""time"":1190}]","[]"
"image-keyboard-response","92","161131","0.0-5.0-1.44","63f7becf2322a5ba95aad1dc","bdp_cybrbll","Thu Mar 30 2023 15:46:14 GMT-0500 (Central Daylight Time)","499379","3","1","","345","","","","choice","","img/2to1/1.png","2","181","322","0.5","0.5","2","3","",""
"animation","93","162421","0.0-5.0-2.44","63f7becf2322a5ba95aad1dc","bdp_cybrbll","Thu Mar 30 2023 15:46:14 GMT-0500 (Central Daylight Time)","499379","3","1","","","","","","","","","","181","","","","2","3","[{""stimulus"":""img/2to3/1.png"",""time"":111},{""stimulus"":""img/2to3/2.png"",""time"":198},{""stimulus"":""img/2to3/3.png"",""time"":303},{""stimulus"":""img/2to3/4.png"",""time"":397},{""stimulus"":""img/2to3/5.png"",""time"":496},{""stimulus"":""img/2to3/6.png"",""time"":602},{""stimulus"":""img/2to3/7.png"",""time"":699},{""stimulus"":""img/2to3/8.png"",""time"":795},{""stimulus"":""img/2to3/9.png"",""time"":905},{""stimulus"":""img/2to3/10.png"",""time"":1002},{""stimulus"":""img/2to3/11.png"",""time"":1098},{""stimulus"":""img/2to3/12.png"",""time"":1194}]","[]"
"image-keyboard-response","94","162737","0.0-5.0-1.45","63f7becf2322a5ba95aad1dc","bdp_cybrbll","Thu Mar 30 2023 15:46:14 GMT-0500 (Central Daylight Time)","499379","3","1","","null","","","","observe","","img/3to2/1.png","null","180","311","0.5","0.5","3","1","",""
"animation","95","164025","0.0-5.0-2.45","63f7becf2322a5ba95aad1dc","bdp_cybrbll","Thu Mar 30 2023 15:46:14 GMT-0500 (Central Daylight Time)","499379","3","1","","","","","","","","","","180","","","","3","1","[{""stimulus"":""img/3to1/1.png"",""time"":113},{""stimulus"":""img/3to1/2.png"",""time"":209},{""stimulus"":""img/3to1/3.png"",""time"":304},{""stimulus"":""img/3to1/4.png"",""time"":398},{""stimulus"":""img/3to1/5.png"",""time"":511},{""stimulus"":""img/3to1/6.png"",""time"":595},{""stimulus"":""img/3to1/7.png"",""time"":702},{""stimulus"":""img/3to1/8.png"",""time"":798},{""stimulus"":""img/3to1/9.png"",""time"":893},{""stimulus"":""img/3to1/10.png"",""time"":1004},{""stimulus"":""img/3to1/11.png"",""time"":1099},{""stimulus"":""img/3to1/12.png"",""time"":1195}]","[]"
"image-keyboard-response","96","164271","0.0-5.0-1.46","63f7becf2322a5ba95aad1dc","bdp_cybrbll","Thu Mar 30 2023 15:46:14 GMT-0500 (Central Daylight Time)","499379","3","1","","null","","","","observe","","img/1to3/1.png","null","179","245","0.5","0.5","1","2","",""
"animation","97","165569","0.0-5.0-2.46","63f7becf2322a5ba95aad1dc","bdp_cybrbll","Thu Mar 30 2023 15:46:14 GMT-0500 (Central Daylight Time)","499379","3","1","","","","","","","","","","179","","","","1","2","[{""stimulus"":""img/1to2/1.png"",""time"":106},{""stimulus"":""img/1to2/2.png"",""time"":202},{""stimulus"":""img/1to2/3.png"",""time"":299},{""stimulus"":""img/1to2/4.png"",""time"":397},{""stimulus"":""img/1to2/5.png"",""time"":506},{""stimulus"":""img/1to2/6.png"",""time"":595},{""stimulus"":""img/1to2/7.png"",""time"":693},{""stimulus"":""img/1to2/8.png"",""time"":806},{""stimulus"":""img/1to2/9.png"",""time"":902},{""stimulus"":""img/1to2/10.png"",""time"":991},{""stimulus"":""img/1to2/11.png"",""time"":1090},{""stimulus"":""img/1to2/12.png"",""time"":1202}]","[]"
"image-keyboard-response","98","165910","0.0-5.0-1.47","63f7becf2322a5ba95aad1dc","bdp_cybrbll","Thu Mar 30 2023 15:46:14 GMT-0500 (Central Daylight Time)","499379","3","1","","340","","","","choice","","img/2to1/1.png","2","178","282","0.5","0.5","2","3","",""
"animation","99","167197","0.0-5.0-2.47","63f7becf2322a5ba95aad1dc","bdp_cybrbll","Thu Mar 30 2023 15:46:14 GMT-0500 (Central Daylight Time)","499379","3","1","","","","","","","","","","178","","","","2","3","[{""stimulus"":""img/2to3/1.png"",""time"":99},{""stimulus"":""img/2to3/2.png"",""time"":204},{""stimulus"":""img/2to3/3.png"",""time"":310},{""stimulus"":""img/2to3/4.png"",""time"":397},{""stimulus"":""img/2to3/5.png"",""time"":505},{""stimulus"":""img/2to3/6.png"",""time"":610},{""stimulus"":""img/2to3/7.png"",""time"":695},{""stimulus"":""img/2to3/8.png"",""time"":796},{""stimulus"":""img/2to3/9.png"",""time"":892},{""stimulus"":""img/2to3/10.png"",""time"":1004},{""stimulus"":""img/2to3/11.png"",""time"":1100},{""stimulus"":""img/2to3/12.png"",""time"":1194}]","[]"
"image-keyboard-response","100","167453","0.0-5.0-1.48","63f7becf2322a5ba95aad1dc","bdp_cybrbll","Thu Mar 30 2023 15:46:14 GMT-0500 (Central Daylight Time)","499379","3","1","","null","","","","observe","","img/3to2/1.png","null","177","254","0.5","0.5","3","1","",""
"animation","101","168746","0.0-5.0-2.48","63f7becf2322a5ba95aad1dc","bdp_cybrbll","Thu Mar 30 2023 15:46:14 GMT-0500 (Central Daylight Time)","499379","3","1","","","","","","","","","","177","","","","3","1","[{""stimulus"":""img/3to1/1.png"",""time"":113},{""stimulus"":""img/3to1/2.png"",""time"":209},{""stimulus"":""img/3to1/3.png"",""time"":305},{""stimulus"":""img/3to1/4.png"",""time"":398},{""stimulus"":""img/3to1/5.png"",""time"":497},{""stimulus"":""img/3to1/6.png"",""time"":608},{""stimulus"":""img/3to1/7.png"",""time"":694},{""stimulus"":""img/3to1/8.png"",""time"":794},{""stimulus"":""img/3to1/9.png"",""time"":896},{""stimulus"":""img/3to1/10.png"",""time"":992},{""stimulus"":""img/3to1/11.png"",""time"":1104},{""stimulus"":""img/3to1/12.png"",""time"":1189}]","[]"
"image-keyboard-response","102","169850","0.0-5.0-1.49","63f7becf2322a5ba95aad1dc","bdp_cybrbll","Thu Mar 30 2023 15:46:14 GMT-0500 (Central Daylight Time)","499379","3","1","","null","","","","observe","","img/1to3/1.png","null","176","1101","0.5","0.5","1","2","",""
"animation","103","171147","0.0-5.0-2.49","63f7becf2322a5ba95aad1dc","bdp_cybrbll","Thu Mar 30 2023 15:46:14 GMT-0500 (Central Daylight Time)","499379","3","1","","","","","","","","","","176","","","","1","2","[{""stimulus"":""img/1to2/1.png"",""time"":110},{""stimulus"":""img/1to2/2.png"",""time"":200},{""stimulus"":""img/1to2/3.png"",""time"":299},{""stimulus"":""img/1to2/4.png"",""time"":398},{""stimulus"":""img/1to2/5.png"",""time"":506},{""stimulus"":""img/1to2/6.png"",""time"":602},{""stimulus"":""img/1to2/7.png"",""time"":694},{""stimulus"":""img/1to2/8.png"",""time"":794},{""stimulus"":""img/1to2/9.png"",""time"":905},{""stimulus"":""img/1to2/10.png"",""time"":999},{""stimulus"":""img/1to2/11.png"",""time"":1090},{""stimulus"":""img/1to2/12.png"",""time"":1190}]","[]"
"image-keyboard-response","104","171698","0.0-5.0-1.50","63f7becf2322a5ba95aad1dc","bdp_cybrbll","Thu Mar 30 2023 15:46:14 GMT-0500 (Central Daylight Time)","499379","3","1","","550","","","","choice","","img/2to1/1.png","2","175","636","0.5","0.5","2","3","",""
"animation","105","172985","0.0-5.0-2.50","63f7becf2322a5ba95aad1dc","bdp_cybrbll","Thu Mar 30 2023 15:46:14 GMT-0500 (Central Daylight Time)","499379","3","1","","","","","","","","","","175","","","","2","3","[{""stimulus"":""img/2to3/1.png"",""time"":100},{""stimulus"":""img/2to3/2.png"",""time"":209},{""stimulus"":""img/2to3/3.png"",""time"":304},{""stimulus"":""img/2to3/4.png"",""time"":397},{""stimulus"":""img/2to3/5.png"",""time"":496},{""stimulus"":""img/2to3/6.png"",""time"":594},{""stimulus"":""img/2to3/7.png"",""time"":694},{""stimulus"":""img/2to3/8.png"",""time"":800},{""stimulus"":""img/2to3/9.png"",""time"":896},{""stimulus"":""img/2to3/10.png"",""time"":993},{""stimulus"":""img/2to3/11.png"",""time"":1090},{""stimulus"":""img/2to3/12.png"",""time"":1189}]","[]"
"image-keyboard-response","106","173467","0.0-5.0-1.51","63f7becf2322a5ba95aad1dc","bdp_cybrbll","Thu Mar 30 2023 15:46:14 GMT-0500 (Central Daylight Time)","499379","3","1","","null","","","","observe","","img/3to2/1.png","null","174","480","0.5","0.5","3","1","",""
"animation","107","174764","0.0-5.0-2.51","63f7becf2322a5ba95aad1dc","bdp_cybrbll","Thu Mar 30 2023 15:46:14 GMT-0500 (Central Daylight Time)","499379","3","1","","","","","","","","","","174","","","","3","1","[{""stimulus"":""img/3to1/1.png"",""time"":99},{""stimulus"":""img/3to1/2.png"",""time"":211},{""stimulus"":""img/3to1/3.png"",""time"":307},{""stimulus"":""img/3to1/4.png"",""time"":396},{""stimulus"":""img/3to1/5.png"",""time"":495},{""stimulus"":""img/3to1/6.png"",""time"":595},{""stimulus"":""img/3to1/7.png"",""time"":706},{""stimulus"":""img/3to1/8.png"",""time"":802},{""stimulus"":""img/3to1/9.png"",""time"":898},{""stimulus"":""img/3to1/10.png"",""time"":993},{""stimulus"":""img/3to1/11.png"",""time"":1091},{""stimulus"":""img/3to1/12.png"",""time"":1201}]","[]"
"image-keyboard-response","108","175050","0.0-5.0-1.52","63f7becf2322a5ba95aad1dc","bdp_cybrbll","Thu Mar 30 2023 15:46:14 GMT-0500 (Central Daylight Time)","499379","3","1","","null","","","","observe","","img/1to3/1.png","null","173","270","0.5","0.5","1","3","",""
"animation","109","176350","0.0-5.0-2.52","63f7becf2322a5ba95aad1dc","bdp_cybrbll","Thu Mar 30 2023 15:46:14 GMT-0500 (Central Daylight Time)","499379","3","1","","","","","","","","","","173","","","","1","3","[{""stimulus"":""img/1to3/1.png"",""time"":111},{""stimulus"":""img/1to3/2.png"",""time"":199},{""stimulus"":""img/1to3/3.png"",""time"":304},{""stimulus"":""img/1to3/4.png"",""time"":397},{""stimulus"":""img/1to3/5.png"",""time"":496},{""stimulus"":""img/1to3/6.png"",""time"":604},{""stimulus"":""img/1to3/7.png"",""time"":700},{""stimulus"":""img/1to3/8.png"",""time"":793},{""stimulus"":""img/1to3/9.png"",""time"":892},{""stimulus"":""img/1to3/10.png"",""time"":998},{""stimulus"":""img/1to3/11.png"",""time"":1093},{""stimulus"":""img/1to3/12.png"",""time"":1204}]","[]"
"image-keyboard-response","110","176729","0.0-5.0-1.53","63f7becf2322a5ba95aad1dc","bdp_cybrbll","Thu Mar 30 2023 15:46:14 GMT-0500 (Central Daylight Time)","499379","3","1","","null","","","","observe","","img/3to2/1.png","null","172","366","0.5","0.5","3","1","",""
"animation","111","178019","0.0-5.0-2.53","63f7becf2322a5ba95aad1dc","bdp_cybrbll","Thu Mar 30 2023 15:46:14 GMT-0500 (Central Daylight Time)","499379","3","1","","","","","","","","","","172","","","","3","1","[{""stimulus"":""img/3to1/1.png"",""time"":110},{""stimulus"":""img/3to1/2.png"",""time"":199},{""stimulus"":""img/3to1/3.png"",""time"":302},{""stimulus"":""img/3to1/4.png"",""time"":397},{""stimulus"":""img/3to1/5.png"",""time"":496},{""stimulus"":""img/3to1/6.png"",""time"":595},{""stimulus"":""img/3to1/7.png"",""time"":699},{""stimulus"":""img/3to1/8.png"",""time"":794},{""stimulus"":""img/3to1/9.png"",""time"":906},{""stimulus"":""img/3to1/10.png"",""time"":1002},{""stimulus"":""img/3to1/11.png"",""time"":1090},{""stimulus"":""img/3to1/12.png"",""time"":1189}]","[]"
"image-keyboard-response","112","178371","0.0-5.0-1.54","63f7becf2322a5ba95aad1dc","bdp_cybrbll","Thu Mar 30 2023 15:46:14 GMT-0500 (Central Daylight Time)","499379","3","1","","null","","","","observe","","img/1to3/1.png","null","171","341","0.5","0.5","1","3","",""
"animation","113","179659","0.0-5.0-2.54","63f7becf2322a5ba95aad1dc","bdp_cybrbll","Thu Mar 30 2023 15:46:14 GMT-0500 (Central Daylight Time)","499379","3","1","","","","","","","","","","171","","","","1","3","[{""stimulus"":""img/1to3/1.png"",""time"":112},{""stimulus"":""img/1to3/2.png"",""time"":208},{""stimulus"":""img/1to3/3.png"",""time"":304},{""stimulus"":""img/1to3/4.png"",""time"":400},{""stimulus"":""img/1to3/5.png"",""time"":496},{""stimulus"":""img/1to3/6.png"",""time"":605},{""stimulus"":""img/1to3/7.png"",""time"":694},{""stimulus"":""img/1to3/8.png"",""time"":793},{""stimulus"":""img/1to3/9.png"",""time"":892},{""stimulus"":""img/1to3/10.png"",""time"":990},{""stimulus"":""img/1to3/11.png"",""time"":1099},{""stimulus"":""img/1to3/12.png"",""time"":1195}]","[]"
"image-keyboard-response","114","180218","0.0-5.0-1.55","63f7becf2322a5ba95aad1dc","bdp_cybrbll","Thu Mar 30 2023 15:46:14 GMT-0500 (Central Daylight Time)","499379","3","1","","null","","","","observe","","img/3to2/1.png","null","170","550","0.5","0.5","3","2","",""
"animation","115","181521","0.0-5.0-2.55","63f7becf2322a5ba95aad1dc","bdp_cybrbll","Thu Mar 30 2023 15:46:14 GMT-0500 (Central Daylight Time)","499379","3","1","","","","","","","","","","170","","","","3","2","[{""stimulus"":""img/3to2/1.png"",""time"":110},{""stimulus"":""img/3to2/2.png"",""time"":199},{""stimulus"":""img/3to2/3.png"",""time"":301},{""stimulus"":""img/3to2/4.png"",""time"":397},{""stimulus"":""img/3to2/5.png"",""time"":496},{""stimulus"":""img/3to2/6.png"",""time"":603},{""stimulus"":""img/3to2/7.png"",""time"":694},{""stimulus"":""img/3to2/8.png"",""time"":794},{""stimulus"":""img/3to2/9.png"",""time"":905},{""stimulus"":""img/3to2/10.png"",""time"":1001},{""stimulus"":""img/3to2/11.png"",""time"":1090},{""stimulus"":""img/3to2/12.png"",""time"":1193}]","[]"
"image-keyboard-response","116","181645","0.0-5.0-1.56","63f7becf2322a5ba95aad1dc","bdp_cybrbll","Thu Mar 30 2023 15:46:14 GMT-0500 (Central Daylight Time)","499379","3","1","","124","","","","choice","","img/2to1/1.png","1","169","776","0.5","0.5","2","1","",""
"animation","117","182940","0.0-5.0-2.56","63f7becf2322a5ba95aad1dc","bdp_cybrbll","Thu Mar 30 2023 15:46:14 GMT-0500 (Central Daylight Time)","499379","3","1","","","","","","","","","","169","","","","2","1","[{""stimulus"":""img/2to1/1.png"",""time"":115},{""stimulus"":""img/2to1/2.png"",""time"":210},{""stimulus"":""img/2to1/3.png"",""time"":306},{""stimulus"":""img/2to1/4.png"",""time"":398},{""stimulus"":""img/2to1/5.png"",""time"":497},{""stimulus"":""img/2to1/6.png"",""time"":595},{""stimulus"":""img/2to1/7.png"",""time"":704},{""stimulus"":""img/2to1/8.png"",""time"":794},{""stimulus"":""img/2to1/9.png"",""time"":895},{""stimulus"":""img/2to1/10.png"",""time"":991},{""stimulus"":""img/2to1/11.png"",""time"":1091},{""stimulus"":""img/2to1/12.png"",""time"":1199}]","[]"
"image-keyboard-response","118","183387","0.0-5.0-1.57","63f7becf2322a5ba95aad1dc","bdp_cybrbll","Thu Mar 30 2023 15:46:14 GMT-0500 (Central Daylight Time)","499379","3","1","","null","","","","observe","","img/1to3/1.png","null","168","442","0.5","0.5","1","2","",""
"animation","119","184674","0.0-5.0-2.57","63f7becf2322a5ba95aad1dc","bdp_cybrbll","Thu Mar 30 2023 15:46:14 GMT-0500 (Central Daylight Time)","499379","3","1","","","","","","","","","","168","","","","1","2","[{""stimulus"":""img/1to2/1.png"",""time"":112},{""stimulus"":""img/1to2/2.png"",""time"":208},{""stimulus"":""img/1to2/3.png"",""time"":303},{""stimulus"":""img/1to2/4.png"",""time"":398},{""stimulus"":""img/1to2/5.png"",""time"":496},{""stimulus"":""img/1to2/6.png"",""time"":595},{""stimulus"":""img/1to2/7.png"",""time"":703},{""stimulus"":""img/1to2/8.png"",""time"":799},{""stimulus"":""img/1to2/9.png"",""time"":895},{""stimulus"":""img/1to2/10.png"",""time"":991},{""stimulus"":""img/1to2/11.png"",""time"":1104},{""stimulus"":""img/1to2/12.png"",""time"":1198}]","[]"
"image-keyboard-response","120","184740","0.0-5.0-1.58","63f7becf2322a5ba95aad1dc","bdp_cybrbll","Thu Mar 30 2023 15:46:14 GMT-0500 (Central Daylight Time)","499379","3","1","","65","","","","choice","","img/2to1/1.png","2","167","336","0.5","0.5","2","3","",""
"animation","121","186032","0.0-5.0-2.58","63f7becf2322a5ba95aad1dc","bdp_cybrbll","Thu Mar 30 2023 15:46:14 GMT-0500 (Central Daylight Time)","499379","3","1","","","","","","","","","","167","","","","2","3","[{""stimulus"":""img/2to3/1.png"",""time"":108},{""stimulus"":""img/2to3/2.png"",""time"":198},{""stimulus"":""img/2to3/3.png"",""time"":297},{""stimulus"":""img/2to3/4.png"",""time"":397},{""stimulus"":""img/2to3/5.png"",""time"":496},{""stimulus"":""img/2to3/6.png"",""time"":595},{""stimulus"":""img/2to3/7.png"",""time"":693},{""stimulus"":""img/2to3/8.png"",""time"":792},{""stimulus"":""img/2to3/9.png"",""time"":892},{""stimulus"":""img/2to3/10.png"",""time"":990},{""stimulus"":""img/2to3/11.png"",""time"":1100},{""stimulus"":""img/2to3/12.png"",""time"":1195}]","[]"
"image-keyboard-response","122","186337","0.0-5.0-1.59","63f7becf2322a5ba95aad1dc","bdp_cybrbll","Thu Mar 30 2023 15:46:14 GMT-0500 (Central Daylight Time)","499379","3","1","","null","","","","observe","","img/3to2/1.png","null","166","303","0.5","0.5","3","2","",""
"animation","123","187625","0.0-5.0-2.59","63f7becf2322a5ba95aad1dc","bdp_cybrbll","Thu Mar 30 2023 15:46:14 GMT-0500 (Central Daylight Time)","499379","3","1","","","","","","","","","","166","","","","3","2","[{""stimulus"":""img/3to2/1.png"",""time"":107},{""stimulus"":""img/3to2/2.png"",""time"":202},{""stimulus"":""img/3to2/3.png"",""time"":298},{""stimulus"":""img/3to2/4.png"",""time"":397},{""stimulus"":""img/3to2/5.png"",""time"":497},{""stimulus"":""img/3to2/6.png"",""time"":606},{""stimulus"":""img/3to2/7.png"",""time"":702},{""stimulus"":""img/3to2/8.png"",""time"":793},{""stimulus"":""img/3to2/9.png"",""time"":893},{""stimulus"":""img/3to2/10.png"",""time"":992},{""stimulus"":""img/3to2/11.png"",""time"":1090},{""stimulus"":""img/3to2/12.png"",""time"":1189}]","[]"
"image-keyboard-response","124","187923","0.0-5.0-1.60","63f7becf2322a5ba95aad1dc","bdp_cybrbll","Thu Mar 30 2023 15:46:14 GMT-0500 (Central Daylight Time)","499379","3","1","","297","","","","choice","","img/2to1/1.png","1","165","529","0.5","0.5","2","1","",""
"animation","125","189210","0.0-5.0-2.60","63f7becf2322a5ba95aad1dc","bdp_cybrbll","Thu Mar 30 2023 15:46:14 GMT-0500 (Central Daylight Time)","499379","3","1","","","","","","","","","","165","","","","2","1","[{""stimulus"":""img/2to1/1.png"",""time"":99},{""stimulus"":""img/2to1/2.png"",""time"":198},{""stimulus"":""img/2to1/3.png"",""time"":312},{""stimulus"":""img/2to1/4.png"",""time"":407},{""stimulus"":""img/2to1/5.png"",""time"":503},{""stimulus"":""img/2to1/6.png"",""time"":599},{""stimulus"":""img/2to1/7.png"",""time"":694},{""stimulus"":""img/2to1/8.png"",""time"":805},{""stimulus"":""img/2to1/9.png"",""time"":901},{""stimulus"":""img/2to1/10.png"",""time"":991},{""stimulus"":""img/2to1/11.png"",""time"":1090},{""stimulus"":""img/2to1/12.png"",""time"":1190}]","[]"
"image-keyboard-response","126","189732","0.0-5.0-1.61","63f7becf2322a5ba95aad1dc","bdp_cybrbll","Thu Mar 30 2023 15:46:14 GMT-0500 (Central Daylight Time)","499379","3","1","","null","","","","observe","","img/1to3/1.png","null","164","520","0.5","0.5","1","3","",""
"animation","127","191025","0.0-5.0-2.61","63f7becf2322a5ba95aad1dc","bdp_cybrbll","Thu Mar 30 2023 15:46:14 GMT-0500 (Central Daylight Time)","499379","3","1","","","","","","","","","","164","","","","1","3","[{""stimulus"":""img/1to3/1.png"",""time"":114},{""stimulus"":""img/1to3/2.png"",""time"":198},{""stimulus"":""img/1to3/3.png"",""time"":305},{""stimulus"":""img/1to3/4.png"",""time"":400},{""stimulus"":""img/1to3/5.png"",""time"":511},{""stimulus"":""img/1to3/6.png"",""time"":606},{""stimulus"":""img/1to3/7.png"",""time"":694},{""stimulus"":""img/1to3/8.png"",""time"":798},{""stimulus"":""img/1to3/9.png"",""time"":894},{""stimulus"":""img/1to3/10.png"",""time"":990},{""stimulus"":""img/1to3/11.png"",""time"":1101},{""stimulus"":""img/1to3/12.png"",""time"":1198}]","[]"
"image-keyboard-response","128","191773","0.0-5.0-1.62","63f7becf2322a5ba95aad1dc","bdp_cybrbll","Thu Mar 30 2023 15:46:14 GMT-0500 (Central Daylight Time)","499379","3","1","","null","","","","observe","","img/3to2/1.png","null","163","736","0.5","0.5","3","1","",""
"animation","129","193061","0.0-5.0-2.62","63f7becf2322a5ba95aad1dc","bdp_cybrbll","Thu Mar 30 2023 15:46:14 GMT-0500 (Central Daylight Time)","499379","3","1","","","","","","","","","","163","","","","3","1","[{""stimulus"":""img/3to1/1.png"",""time"":109},{""stimulus"":""img/3to1/2.png"",""time"":205},{""stimulus"":""img/3to1/3.png"",""time"":298},{""stimulus"":""img/3to1/4.png"",""time"":408},{""stimulus"":""img/3to1/5.png"",""time"":504},{""stimulus"":""img/3to1/6.png"",""time"":594},{""stimulus"":""img/3to1/7.png"",""time"":709},{""stimulus"":""img/3to1/8.png"",""time"":793},{""stimulus"":""img/3to1/9.png"",""time"":892},{""stimulus"":""img/3to1/10.png"",""time"":991},{""stimulus"":""img/3to1/11.png"",""time"":1105},{""stimulus"":""img/3to1/12.png"",""time"":1189}]","[]"
"image-keyboard-response","130","193515","0.0-5.0-1.63","63f7becf2322a5ba95aad1dc","bdp_cybrbll","Thu Mar 30 2023 15:46:14 GMT-0500 (Central Daylight Time)","499379","3","1","","null","","","","observe","","img/1to3/1.png","null","162","448","0.5","0.5","1","2","",""
"animation","131","194805","0.0-5.0-2.63","63f7becf2322a5ba95aad1dc","bdp_cybrbll","Thu Mar 30 2023 15:46:14 GMT-0500 (Central Daylight Time)","499379","3","1","","","","","","","","","","162","","","","1","2","[{""stimulus"":""img/1to2/1.png"",""time"":111},{""stimulus"":""img/1to2/2.png"",""time"":207},{""stimulus"":""img/1to2/3.png"",""time"":302},{""stimulus"":""img/1to2/4.png"",""time"":397},{""stimulus"":""img/1to2/5.png"",""time"":510},{""stimulus"":""img/1to2/6.png"",""time"":595},{""stimulus"":""img/1to2/7.png"",""time"":695},{""stimulus"":""img/1to2/8.png"",""time"":797},{""stimulus"":""img/1to2/9.png"",""time"":893},{""stimulus"":""img/1to2/10.png"",""time"":1004},{""stimulus"":""img/1to2/11.png"",""time"":1090},{""stimulus"":""img/1to2/12.png"",""time"":1195}]","[]"
"image-keyboard-response","132","194851","0.0-5.0-1.64","63f7becf2322a5ba95aad1dc","bdp_cybrbll","Thu Mar 30 2023 15:46:14 GMT-0500 (Central Daylight Time)","499379","3","1","","45","","","","choice","","img/2to1/1.png","2","161","222","0.5","0.5","2","3","",""
"animation","133","196139","0.0-5.0-2.64","63f7becf2322a5ba95aad1dc","bdp_cybrbll","Thu Mar 30 2023 15:46:14 GMT-0500 (Central Daylight Time)","499379","3","1","","","","","","","","","","161","","","","2","3","[{""stimulus"":""img/2to3/1.png"",""time"":99},{""stimulus"":""img/2to3/2.png"",""time"":207},{""stimulus"":""img/2to3/3.png"",""time"":304},{""stimulus"":""img/2to3/4.png"",""time"":399},{""stimulus"":""img/2to3/5.png"",""time"":510},{""stimulus"":""img/2to3/6.png"",""time"":595},{""stimulus"":""img/2to3/7.png"",""time"":701},{""stimulus"":""img/2to3/8.png"",""time"":792},{""stimulus"":""img/2to3/9.png"",""time"":892},{""stimulus"":""img/2to3/10.png"",""time"":1004},{""stimulus"":""img/2to3/11.png"",""time"":1100},{""stimulus"":""img/2to3/12.png"",""time"":1196}]","[]"
"image-keyboard-response","134","196694","0.0-5.0-1.65","63f7becf2322a5ba95aad1dc","bdp_cybrbll","Thu Mar 30 2023 15:46:14 GMT-0500 (Central Daylight Time)","499379","3","1","","null","","","","observe","","img/3to2/1.png","null","160","547","0.5","0.5","3","1","",""
"animation","135","197996","0.0-5.0-2.65","63f7becf2322a5ba95aad1dc","bdp_cybrbll","Thu Mar 30 2023 15:46:14 GMT-0500 (Central Daylight Time)","499379","3","1","","","","","","","","","","160","","","","3","1","[{""stimulus"":""img/3to1/1.png"",""time"":111},{""stimulus"":""img/3to1/2.png"",""time"":199},{""stimulus"":""img/3to1/3.png"",""time"":303},{""stimulus"":""img/3to1/4.png"",""time"":396},{""stimulus"":""img/3to1/5.png"",""time"":497},{""stimulus"":""img/3to1/6.png"",""time"":604},{""stimulus"":""img/3to1/7.png"",""time"":694},{""stimulus"":""img/3to1/8.png"",""time"":792},{""stimulus"":""img/3to1/9.png"",""time"":891},{""stimulus"":""img/3to1/10.png"",""time"":999},{""stimulus"":""img/3to1/11.png"",""time"":1089},{""stimulus"":""img/3to1/12.png"",""time"":1190}]","[]"
"image-keyboard-response","136","198743","0.0-5.0-1.66","63f7becf2322a5ba95aad1dc","bdp_cybrbll","Thu Mar 30 2023 15:46:14 GMT-0500 (Central Daylight Time)","499379","3","1","","null","","","","observe","","img/1to3/1.png","null","159","743","0.5","0.5","1","3","",""
"animation","137","200034","0.0-5.0-2.66","63f7becf2322a5ba95aad1dc","bdp_cybrbll","Thu Mar 30 2023 15:46:14 GMT-0500 (Central Daylight Time)","499379","3","1","","","","","","","","","","159","","","","1","3","[{""stimulus"":""img/1to3/1.png"",""time"":112},{""stimulus"":""img/1to3/2.png"",""time"":207},{""stimulus"":""img/1to3/3.png"",""time"":298},{""stimulus"":""img/1to3/4.png"",""time"":397},{""stimulus"":""img/1to3/5.png"",""time"":496},{""stimulus"":""img/1to3/6.png"",""time"":595},{""stimulus"":""img/1to3/7.png"",""time"":694},{""stimulus"":""img/1to3/8.png"",""time"":799},{""stimulus"":""img/1to3/9.png"",""time"":894},{""stimulus"":""img/1to3/10.png"",""time"":990},{""stimulus"":""img/1to3/11.png"",""time"":1100},{""stimulus"":""img/1to3/12.png"",""time"":1196}]","[]"
"image-keyboard-response","138","200870","0.0-5.0-1.67","63f7becf2322a5ba95aad1dc","bdp_cybrbll","Thu Mar 30 2023 15:46:14 GMT-0500 (Central Daylight Time)","499379","3","1","","null","","","","observe","","img/3to2/1.png","null","158","833","0.5","0.5","3","2","",""
"animation","139","202172","0.0-5.0-2.67","63f7becf2322a5ba95aad1dc","bdp_cybrbll","Thu Mar 30 2023 15:46:14 GMT-0500 (Central Daylight Time)","499379","3","1","","","","","","","","","","158","","","","3","2","[{""stimulus"":""img/3to2/1.png"",""time"":112},{""stimulus"":""img/3to2/2.png"",""time"":205},{""stimulus"":""img/3to2/3.png"",""time"":299},{""stimulus"":""img/3to2/4.png"",""time"":411},{""stimulus"":""img/3to2/5.png"",""time"":507},{""stimulus"":""img/3to2/6.png"",""time"":603},{""stimulus"":""img/3to2/7.png"",""time"":695},{""stimulus"":""img/3to2/8.png"",""time"":793},{""stimulus"":""img/3to2/9.png"",""time"":905},{""stimulus"":""img/3to2/10.png"",""time"":1000},{""stimulus"":""img/3to2/11.png"",""time"":1096},{""stimulus"":""img/3to2/12.png"",""time"":1189}]","[]"
"image-keyboard-response","140","202865","0.0-5.0-1.68","63f7becf2322a5ba95aad1dc","bdp_cybrbll","Thu Mar 30 2023 15:46:14 GMT-0500 (Central Daylight Time)","499379","3","1","","692","","","","choice","","img/2to1/1.png","1","157","484","0.5","0.5","2","1","",""
"animation","141","204153","0.0-5.0-2.68","63f7becf2322a5ba95aad1dc","bdp_cybrbll","Thu Mar 30 2023 15:46:14 GMT-0500 (Central Daylight Time)","499379","3","1","","","","","","","","","","157","","","","2","1","[{""stimulus"":""img/2to1/1.png"",""time"":104},{""stimulus"":""img/2to1/2.png"",""time"":199},{""stimulus"":""img/2to1/3.png"",""time"":311},{""stimulus"":""img/2to1/4.png"",""time"":396},{""stimulus"":""img/2to1/5.png"",""time"":504},{""stimulus"":""img/2to1/6.png"",""time"":597},{""stimulus"":""img/2to1/7.png"",""time"":708},{""stimulus"":""img/2to1/8.png"",""time"":804},{""stimulus"":""img/2to1/9.png"",""time"":900},{""stimulus"":""img/2to1/10.png"",""time"":995},{""stimulus"":""img/2to1/11.png"",""time"":1090},{""stimulus"":""img/2to1/12.png"",""time"":1202}]","[]"
"image-keyboard-response","142","204419","0.0-5.0-1.69","63f7becf2322a5ba95aad1dc","bdp_cybrbll","Thu Mar 30 2023 15:46:14 GMT-0500 (Central Daylight Time)","499379","3","1","","null","","","","observe","","img/1to3/1.png","null","156","255","0.5","0.5","1","2","",""
"animation","143","205707","0.0-5.0-2.69","63f7becf2322a5ba95aad1dc","bdp_cybrbll","Thu Mar 30 2023 15:46:14 GMT-0500 (Central Daylight Time)","499379","3","1","","","","","","","","","","156","","","","1","2","[{""stimulus"":""img/1to2/1.png"",""time"":111},{""stimulus"":""img/1to2/2.png"",""time"":208},{""stimulus"":""img/1to2/3.png"",""time"":304},{""stimulus"":""img/1to2/4.png"",""time"":398},{""stimulus"":""img/1to2/5.png"",""time"":510},{""stimulus"":""img/1to2/6.png"",""time"":597},{""stimulus"":""img/1to2/7.png"",""time"":694},{""stimulus"":""img/1to2/8.png"",""time"":793},{""stimulus"":""img/1to2/9.png"",""time"":892},{""stimulus"":""img/1to2/10.png"",""time"":991},{""stimulus"":""img/1to2/11.png"",""time"":1090},{""stimulus"":""img/1to2/12.png"",""time"":1192}]","[]"
"image-keyboard-response","144","205823","0.0-5.0-1.70","63f7becf2322a5ba95aad1dc","bdp_cybrbll","Thu Mar 30 2023 15:46:14 GMT-0500 (Central Daylight Time)","499379","3","1","","116","","","","choice","","img/2to1/1.png","2","155","914","0.5","0.5","2","3","",""
"animation","145","207111","0.0-5.0-2.70","63f7becf2322a5ba95aad1dc","bdp_cybrbll","Thu Mar 30 2023 15:46:14 GMT-0500 (Central Daylight Time)","499379","3","1","","","","","","","","","","155","","","","2","3","[{""stimulus"":""img/2to3/1.png"",""time"":104},{""stimulus"":""img/2to3/2.png"",""time"":200},{""stimulus"":""img/2to3/3.png"",""time"":312},{""stimulus"":""img/2to3/4.png"",""time"":407},{""stimulus"":""img/2to3/5.png"",""time"":497},{""stimulus"":""img/2to3/6.png"",""time"":596},{""stimulus"":""img/2to3/7.png"",""time"":709},{""stimulus"":""img/2to3/8.png"",""time"":804},{""stimulus"":""img/2to3/9.png"",""time"":892},{""stimulus"":""img/2to3/10.png"",""time"":991},{""stimulus"":""img/2to3/11.png"",""time"":1090},{""stimulus"":""img/2to3/12.png"",""time"":1202}]","[]"
"image-keyboard-response","146","207981","0.0-5.0-1.71","63f7becf2322a5ba95aad1dc","bdp_cybrbll","Thu Mar 30 2023 15:46:14 GMT-0500 (Central Daylight Time)","499379","3","1","","null","","","","observe","","img/3to2/1.png","null","154","862","0.5","0.5","3","1","",""
"animation","147","209272","0.0-5.0-2.71","63f7becf2322a5ba95aad1dc","bdp_cybrbll","Thu Mar 30 2023 15:46:14 GMT-0500 (Central Daylight Time)","499379","3","1","","","","","","","","","","154","","","","3","1","[{""stimulus"":""img/3to1/1.png"",""time"":111},{""stimulus"":""img/3to1/2.png"",""time"":199},{""stimulus"":""img/3to1/3.png"",""time"":298},{""stimulus"":""img/3to1/4.png"",""time"":398},{""stimulus"":""img/3to1/5.png"",""time"":511},{""stimulus"":""img/3to1/6.png"",""time"":595},{""stimulus"":""img/3to1/7.png"",""time"":702},{""stimulus"":""img/3to1/8.png"",""time"":793},{""stimulus"":""img/3to1/9.png"",""time"":893},{""stimulus"":""img/3to1/10.png"",""time"":992},{""stimulus"":""img/3to1/11.png"",""time"":1090},{""stimulus"":""img/3to1/12.png"",""time"":1189}]","[]"
"image-keyboard-response","148","209761","0.0-5.0-1.72","63f7becf2322a5ba95aad1dc","bdp_cybrbll","Thu Mar 30 2023 15:46:14 GMT-0500 (Central Daylight Time)","499379","3","1","","null","","","","observe","","img/1to3/1.png","null","153","487","0.5","0.5","1","3","",""
"animation","149","211064","0.0-5.0-2.72","63f7becf2322a5ba95aad1dc","bdp_cybrbll","Thu Mar 30 2023 15:46:14 GMT-0500 (Central Daylight Time)","499379","3","1","","","","","","","","","","153","","","","1","3","[{""stimulus"":""img/1to3/1.png"",""time"":112},{""stimulus"":""img/1to3/2.png"",""time"":199},{""stimulus"":""img/1to3/3.png"",""time"":303},{""stimulus"":""img/1to3/4.png"",""time"":397},{""stimulus"":""img/1to3/5.png"",""time"":496},{""stimulus"":""img/1to3/6.png"",""time"":595},{""stimulus"":""img/1to3/7.png"",""time"":694},{""stimulus"":""img/1to3/8.png"",""time"":795},{""stimulus"":""img/1to3/9.png"",""time"":893},{""stimulus"":""img/1to3/10.png"",""time"":991},{""stimulus"":""img/1to3/11.png"",""time"":1090},{""stimulus"":""img/1to3/12.png"",""time"":1191}]","[]"
"image-keyboard-response","150","211426","0.0-5.0-1.73","63f7becf2322a5ba95aad1dc","bdp_cybrbll","Thu Mar 30 2023 15:46:14 GMT-0500 (Central Daylight Time)","499379","3","1","","null","","","","observe","","img/3to2/1.png","null","152","356","0.5","0.5","3","2","",""
"animation","151","212725","0.0-5.0-2.73","63f7becf2322a5ba95aad1dc","bdp_cybrbll","Thu Mar 30 2023 15:46:14 GMT-0500 (Central Daylight Time)","499379","3","1","","","","","","","","","","152","","","","3","2","[{""stimulus"":""img/3to2/1.png"",""time"":110},{""stimulus"":""img/3to2/2.png"",""time"":199},{""stimulus"":""img/3to2/3.png"",""time"":298},{""stimulus"":""img/3to2/4.png"",""time"":397},{""stimulus"":""img/3to2/5.png"",""time"":504},{""stimulus"":""img/3to2/6.png"",""time"":600},{""stimulus"":""img/3to2/7.png"",""time"":694},{""stimulus"":""img/3to2/8.png"",""time"":792},{""stimulus"":""img/3to2/9.png"",""time"":892},{""stimulus"":""img/3to2/10.png"",""time"":998},{""stimulus"":""img/3to2/11.png"",""time"":1093},{""stimulus"":""img/3to2/12.png"",""time"":1189}]","[]"
"image-keyboard-response","152","213406","0.0-5.0-1.74","63f7becf2322a5ba95aad1dc","bdp_cybrbll","Thu Mar 30 2023 15:46:14 GMT-0500 (Central Daylight Time)","499379","3","1","","681","","","","choice","","img/2to1/1.png","1","151","350","0.5","0.5","2","1","",""
"animation","153","214702","0.0-5.0-2.74","63f7becf2322a5ba95aad1dc","bdp_cybrbll","Thu Mar 30 2023 15:46:14 GMT-0500 (Central Daylight Time)","499379","3","1","","","","","","","","","","151","","","","2","1","[{""stimulus"":""img/2to1/1.png"",""time"":101},{""stimulus"":""img/2to1/2.png"",""time"":213},{""stimulus"":""img/2to1/3.png"",""time"":309},{""stimulus"":""img/2to1/4.png"",""time"":397},{""stimulus"":""img/2to1/5.png"",""time"":501},{""stimulus"":""img/2to1/6.png"",""time"":598},{""stimulus"":""img/2to1/7.png"",""time"":709},{""stimulus"":""img/2to1/8.png"",""time"":794},{""stimulus"":""img/2to1/9.png"",""time"":899},{""stimulus"":""img/2to1/10.png"",""time"":995},{""stimulus"":""img/2to1/11.png"",""time"":1091},{""stimulus"":""img/2to1/12.png"",""time"":1202}]","[]"
"image-keyboard-response","154","215051","0.0-5.0-1.75","63f7becf2322a5ba95aad1dc","bdp_cybrbll","Thu Mar 30 2023 15:46:14 GMT-0500 (Central Daylight Time)","499379","3","1","","null","","","","observe","","img/1to3/1.png","null","150","335","0.5","0.5","1","2","",""
"animation","155","216338","0.0-5.0-2.75","63f7becf2322a5ba95aad1dc","bdp_cybrbll","Thu Mar 30 2023 15:46:14 GMT-0500 (Central Daylight Time)","499379","3","1","","","","","","","","","","150","","","","1","2","[{""stimulus"":""img/1to2/1.png"",""time"":109},{""stimulus"":""img/1to2/2.png"",""time"":199},{""stimulus"":""img/1to2/3.png"",""time"":298},{""stimulus"":""img/1to2/4.png"",""time"":412},{""stimulus"":""img/1to2/5.png"",""time"":507},{""stimulus"":""img/1to2/6.png"",""time"":595},{""stimulus"":""img/1to2/7.png"",""time"":694},{""stimulus"":""img/1to2/8.png"",""time"":793},{""stimulus"":""img/1to2/9.png"",""time"":903},{""stimulus"":""img/1to2/10.png"",""time"":999},{""stimulus"":""img/1to2/11.png"",""time"":1095},{""stimulus"":""img/1to2/12.png"",""time"":1191}]","[]"
"image-keyboard-response","156","216364","0.0-5.0-1.76","63f7becf2322a5ba95aad1dc","bdp_cybrbll","Thu Mar 30 2023 15:46:14 GMT-0500 (Central Daylight Time)","499379","3","1","","25","","","","choice","","img/2to1/1.png","2","149","348","0.5","0.1","2","3","",""
"animation","157","217659","0.0-5.0-2.76","63f7becf2322a5ba95aad1dc","bdp_cybrbll","Thu Mar 30 2023 15:46:14 GMT-0500 (Central Daylight Time)","499379","3","1","","","","","","","","","","149","","","","2","3","[{""stimulus"":""img/2to3/1.png"",""time"":100},{""stimulus"":""img/2to3/2.png"",""time"":212},{""stimulus"":""img/2to3/3.png"",""time"":308},{""stimulus"":""img/2to3/4.png"",""time"":404},{""stimulus"":""img/2to3/5.png"",""time"":496},{""stimulus"":""img/2to3/6.png"",""time"":596},{""stimulus"":""img/2to3/7.png"",""time"":708},{""stimulus"":""img/2to3/8.png"",""time"":793},{""stimulus"":""img/2to3/9.png"",""time"":892},{""stimulus"":""img/2to3/10.png"",""time"":993},{""stimulus"":""img/2to3/11.png"",""time"":1090},{""stimulus"":""img/2to3/12.png"",""time"":1189}]","[]"
"image-keyboard-response","158","218514","0.0-5.0-1.77","63f7becf2322a5ba95aad1dc","bdp_cybrbll","Thu Mar 30 2023 15:46:14 GMT-0500 (Central Daylight Time)","499379","3","1","","null","","","","observe","","img/3to2/1.png","null","148","843","0.5","0.1","3","2","",""
"animation","159","219815","0.0-5.0-2.77","63f7becf2322a5ba95aad1dc","bdp_cybrbll","Thu Mar 30 2023 15:46:14 GMT-0500 (Central Daylight Time)","499379","3","1","","","","","","","","","","148","","","","3","2","[{""stimulus"":""img/3to2/1.png"",""time"":112},{""stimulus"":""img/3to2/2.png"",""time"":199},{""stimulus"":""img/3to2/3.png"",""time"":302},{""stimulus"":""img/3to2/4.png"",""time"":398},{""stimulus"":""img/3to2/5.png"",""time"":508},{""stimulus"":""img/3to2/6.png"",""time"":594},{""stimulus"":""img/3to2/7.png"",""time"":699},{""stimulus"":""img/3to2/8.png"",""time"":808},{""stimulus"":""img/3to2/9.png"",""time"":892},{""stimulus"":""img/3to2/10.png"",""time"":990},{""stimulus"":""img/3to2/11.png"",""time"":1092},{""stimulus"":""img/3to2/12.png"",""time"":1188}]","[]"
"image-keyboard-response","160","220067","0.0-5.0-1.78","63f7becf2322a5ba95aad1dc","bdp_cybrbll","Thu Mar 30 2023 15:46:14 GMT-0500 (Central Daylight Time)","499379","3","1","","252","","","","choice","","img/2to1/1.png","1","147","837","0.5","0.1","2","1","",""
"animation","161","221355","0.0-5.0-2.78","63f7becf2322a5ba95aad1dc","bdp_cybrbll","Thu Mar 30 2023 15:46:14 GMT-0500 (Central Daylight Time)","499379","3","1","","","","","","","","","","147","","","","2","1","[{""stimulus"":""img/2to1/1.png"",""time"":111},{""stimulus"":""img/2to1/2.png"",""time"":206},{""stimulus"":""img/2to1/3.png"",""time"":301},{""stimulus"":""img/2to1/4.png"",""time"":397},{""stimulus"":""img/2to1/5.png"",""time"":509},{""stimulus"":""img/2to1/6.png"",""time"":605},{""stimulus"":""img/2to1/7.png"",""time"":701},{""stimulus"":""img/2to1/8.png"",""time"":798},{""stimulus"":""img/2to1/9.png"",""time"":892},{""stimulus"":""img/2to1/10.png"",""time"":991},{""stimulus"":""img/2to1/11.png"",""time"":1090},{""stimulus"":""img/2to1/12.png"",""time"":1196}]","[]"
"image-keyboard-response","162","221646","0.0-5.0-1.79","63f7becf2322a5ba95aad1dc","bdp_cybrbll","Thu Mar 30 2023 15:46:14 GMT-0500 (Central Daylight Time)","499379","3","1","","null","","","","observe","","img/1to3/1.png","null","146","289","0.5","0.1","1","3","",""
"animation","163","222939","0.0-5.0-2.79","63f7becf2322a5ba95aad1dc","bdp_cybrbll","Thu Mar 30 2023 15:46:14 GMT-0500 (Central Daylight Time)","499379","3","1","","","","","","","","","","146","","","","1","3","[{""stimulus"":""img/1to3/1.png"",""time"":113},{""stimulus"":""img/1to3/2.png"",""time"":199},{""stimulus"":""img/1to3/3.png"",""time"":306},{""stimulus"":""img/1to3/4.png"",""time"":401},{""stimulus"":""img/1to3/5.png"",""time"":496},{""stimulus"":""img/1to3/6.png"",""time"":595},{""stimulus"":""img/1to3/7.png"",""time"":704},{""stimulus"":""img/1to3/8.png"",""time"":793},{""stimulus"":""img/1to3/9.png"",""time"":893},{""stimulus"":""img/1to3/10.png"",""time"":991},{""stimulus"":""img/1to3/11.png"",""time"":1090},{""stimulus"":""img/1to3/12.png"",""time"":1199}]","[]"
"image-keyboard-response","164","223812","0.0-5.0-1.80","63f7becf2322a5ba95aad1dc","bdp_cybrbll","Thu Mar 30 2023 15:46:14 GMT-0500 (Central Daylight Time)","499379","3","1","","null","","","","observe","","img/3to2/1.png","null","145","872","0.5","0.1","3","2","",""
"animation","165","225099","0.0-5.0-2.80","63f7becf2322a5ba95aad1dc","bdp_cybrbll","Thu Mar 30 2023 15:46:14 GMT-0500 (Central Daylight Time)","499379","3","1","","","","","","","","","","145","","","","3","2","[{""stimulus"":""img/3to2/1.png"",""time"":110},{""stimulus"":""img/3to2/2.png"",""time"":205},{""stimulus"":""img/3to2/3.png"",""time"":300},{""stimulus"":""img/3to2/4.png"",""time"":411},{""stimulus"":""img/3to2/5.png"",""time"":506},{""stimulus"":""img/3to2/6.png"",""time"":595},{""stimulus"":""img/3to2/7.png"",""time"":694},{""stimulus"":""img/3to2/8.png"",""time"":794},{""stimulus"":""img/3to2/9.png"",""time"":892},{""stimulus"":""img/3to2/10.png"",""time"":991},{""stimulus"":""img/3to2/11.png"",""time"":1090},{""stimulus"":""img/3to2/12.png"",""time"":1192}]","[]"
"image-keyboard-response","166","225145","0.0-5.0-1.81","63f7becf2322a5ba95aad1dc","bdp_cybrbll","Thu Mar 30 2023 15:46:14 GMT-0500 (Central Daylight Time)","499379","3","1","","45","","","","choice","","img/2to1/1.png","1","144","558","0.5","0.1","2","1","",""
"animation","167","226433","0.0-5.0-2.81","63f7becf2322a5ba95aad1dc","bdp_cybrbll","Thu Mar 30 2023 15:46:14 GMT-0500 (Central Daylight Time)","499379","3","1","","","","","","","","","","144","","","","2","1","[{""stimulus"":""img/2to1/1.png"",""time"":100},{""stimulus"":""img/2to1/2.png"",""time"":211},{""stimulus"":""img/2to1/3.png"",""time"":307},{""stimulus"":""img/2to1/4.png"",""time"":402},{""stimulus"":""img/2to1/5.png"",""time"":496},{""stimulus"":""img/2to1/6.png"",""time"":595},{""stimulus"":""img/2to1/7.png"",""time"":694},{""stimulus"":""img/2to1/8.png"",""time"":795},{""stimulus"":""img/2to1/9.png"",""time"":907},{""stimulus"":""img/2to1/10.png"",""time"":991},{""stimulus"":""img/2to1/11.png"",""time"":1098},{""stimulus"":""img/2to1/12.png"",""time"":1193}]","[]"
"image-keyboard-response","168","226795","0.0-5.0-1.82","63f7becf2322a5ba95aad1dc","bdp_cybrbll","Thu Mar 30 2023 15:46:14 GMT-0500 (Central Daylight Time)","499379","3","1","","null","","","","observe","","img/1to3/1.png","null","143","359","0.5","0.1","1","3","",""
"animation","169","228082","0.0-5.0-2.82","63f7becf2322a5ba95aad1dc","bdp_cybrbll","Thu Mar 30 2023 15:46:14 GMT-0500 (Central Daylight Time)","499379","3","1","","","","","","","","","","143","","","","1","3","[{""stimulus"":""img/1to3/1.png"",""time"":113},{""stimulus"":""img/1to3/2.png"",""time"":209},{""stimulus"":""img/1to3/3.png"",""time"":305},{""stimulus"":""img/1to3/4.png"",""time"":398},{""stimulus"":""img/1to3/5.png"",""time"":496},{""stimulus"":""img/1to3/6.png"",""time"":595},{""stimulus"":""img/1to3/7.png"",""time"":693},{""stimulus"":""img/1to3/8.png"",""time"":793},{""stimulus"":""img/1to3/9.png"",""time"":907},{""stimulus"":""img/1to3/10.png"",""time"":1003},{""stimulus"":""img/1to3/11.png"",""time"":1090},{""stimulus"":""img/1to3/12.png"",""time"":1192}]","[]"
"image-keyboard-response","170","228576","0.0-5.0-1.83","63f7becf2322a5ba95aad1dc","bdp_cybrbll","Thu Mar 30 2023 15:46:14 GMT-0500 (Central Daylight Time)","499379","3","1","","null","","","","observe","","img/3to2/1.png","null","142","490","0.5","0.1","3","1","",""
"animation","171","229866","0.0-5.0-2.83","63f7becf2322a5ba95aad1dc","bdp_cybrbll","Thu Mar 30 2023 15:46:14 GMT-0500 (Central Daylight Time)","499379","3","1","","","","","","","","","","142","","","","3","1","[{""stimulus"":""img/3to1/1.png"",""time"":112},{""stimulus"":""img/3to1/2.png"",""time"":208},{""stimulus"":""img/3to1/3.png"",""time"":304},{""stimulus"":""img/3to1/4.png"",""time"":399},{""stimulus"":""img/3to1/5.png"",""time"":496},{""stimulus"":""img/3to1/6.png"",""time"":608},{""stimulus"":""img/3to1/7.png"",""time"":694},{""stimulus"":""img/3to1/8.png"",""time"":799},{""stimulus"":""img/3to1/9.png"",""time"":895},{""stimulus"":""img/3to1/10.png"",""time"":992},{""stimulus"":""img/3to1/11.png"",""time"":1090},{""stimulus"":""img/3to1/12.png"",""time"":1196}]","[]"
"image-keyboard-response","172","231324","0.0-5.0-1.84","63f7becf2322a5ba95aad1dc","bdp_cybrbll","Thu Mar 30 2023 15:46:14 GMT-0500 (Central Daylight Time)","499379","3","1","","null","","","","observe","","img/1to3/1.png","null","141","1444","0.5","0.1","1","3","",""
"animation","173","232626","0.0-5.0-2.84","63f7becf2322a5ba95aad1dc","bdp_cybrbll","Thu Mar 30 2023 15:46:14 GMT-0500 (Central Daylight Time)","499379","3","1","","","","","","","","","","141","","","","1","3","[{""stimulus"":""img/1to3/1.png"",""time"":111},{""stimulus"":""img/1to3/2.png"",""time"":198},{""stimulus"":""img/1to3/3.png"",""time"":298},{""stimulus"":""img/1to3/4.png"",""time"":397},{""stimulus"":""img/1to3/5.png"",""time"":495},{""stimulus"":""img/1to3/6.png"",""time"":603},{""stimulus"":""img/1to3/7.png"",""time"":693},{""stimulus"":""img/1to3/8.png"",""time"":808},{""stimulus"":""img/1to3/9.png"",""time"":904},{""stimulus"":""img/1to3/10.png"",""time"":990},{""stimulus"":""img/1to3/11.png"",""time"":1090},{""stimulus"":""img/1to3/12.png"",""time"":1189}]","[]"
"image-keyboard-response","174","233519","0.0-5.0-1.85","63f7becf2322a5ba95aad1dc","bdp_cybrbll","Thu Mar 30 2023 15:46:14 GMT-0500 (Central Daylight Time)","499379","3","1","","null","","","","observe","","img/3to2/1.png","null","140","888","0.5","0.1","3","2","",""
"animation","175","234807","0.0-5.0-2.85","63f7becf2322a5ba95aad1dc","bdp_cybrbll","Thu Mar 30 2023 15:46:14 GMT-0500 (Central Daylight Time)","499379","3","1","","","","","","","","","","140","","","","3","2","[{""stimulus"":""img/3to2/1.png"",""time"":111},{""stimulus"":""img/3to2/2.png"",""time"":200},{""stimulus"":""img/3to2/3.png"",""time"":298},{""stimulus"":""img/3to2/4.png"",""time"":397},{""stimulus"":""img/3to2/5.png"",""time"":496},{""stimulus"":""img/3to2/6.png"",""time"":604},{""stimulus"":""img/3to2/7.png"",""time"":694},{""stimulus"":""img/3to2/8.png"",""time"":793},{""stimulus"":""img/3to2/9.png"",""time"":904},{""stimulus"":""img/3to2/10.png"",""time"":999},{""stimulus"":""img/3to2/11.png"",""time"":1093},{""stimulus"":""img/3to2/12.png"",""time"":1190}]","[]"
"image-keyboard-response","176","234832","0.0-5.0-1.86","63f7becf2322a5ba95aad1dc","bdp_cybrbll","Thu Mar 30 2023 15:46:14 GMT-0500 (Central Daylight Time)","499379","3","1","","24","","","","choice","","img/2to1/1.png","1","139","423","0.5","0.1","2","1","",""
"animation","177","236120","0.0-5.0-2.86","63f7becf2322a5ba95aad1dc","bdp_cybrbll","Thu Mar 30 2023 15:46:14 GMT-0500 (Central Daylight Time)","499379","3","1","","","","","","","","","","139","","","","2","1","[{""stimulus"":""img/2to1/1.png"",""time"":100},{""stimulus"":""img/2to1/2.png"",""time"":212},{""stimulus"":""img/2to1/3.png"",""time"":308},{""stimulus"":""img/2to1/4.png"",""time"":403},{""stimulus"":""img/2to1/5.png"",""time"":496},{""stimulus"":""img/2to1/6.png"",""time"":610},{""stimulus"":""img/2to1/7.png"",""time"":694},{""stimulus"":""img/2to1/8.png"",""time"":793},{""stimulus"":""img/2to1/9.png"",""time"":897},{""stimulus"":""img/2to1/10.png"",""time"":993},{""stimulus"":""img/2to1/11.png"",""time"":1090},{""stimulus"":""img/2to1/12.png"",""time"":1189}]","[]"
"image-keyboard-response","178","236477","0.0-5.0-1.87","63f7becf2322a5ba95aad1dc","bdp_cybrbll","Thu Mar 30 2023 15:46:14 GMT-0500 (Central Daylight Time)","499379","3","1","","null","","","","observe","","img/1to3/1.png","null","138","350","0.5","0.1","1","3","",""
"animation","179","237779","0.0-5.0-2.87","63f7becf2322a5ba95aad1dc","bdp_cybrbll","Thu Mar 30 2023 15:46:14 GMT-0500 (Central Daylight Time)","499379","3","1","","","","","","","","","","138","","","","1","3","[{""stimulus"":""img/1to3/1.png"",""time"":111},{""stimulus"":""img/1to3/2.png"",""time"":199},{""stimulus"":""img/1to3/3.png"",""time"":301},{""stimulus"":""img/1to3/4.png"",""time"":397},{""stimulus"":""img/1to3/5.png"",""time"":496},{""stimulus"":""img/1to3/6.png"",""time"":595},{""stimulus"":""img/1to3/7.png"",""time"":697},{""stimulus"":""img/1to3/8.png"",""time"":793},{""stimulus"":""img/1to3/9.png"",""time"":892},{""stimulus"":""img/1to3/10.png"",""time"":999},{""stimulus"":""img/1to3/11.png"",""time"":1090},{""stimulus"":""img/1to3/12.png"",""time"":1191}]","[]"
"image-keyboard-response","180","238030","0.0-5.0-1.88","63f7becf2322a5ba95aad1dc","bdp_cybrbll","Thu Mar 30 2023 15:46:14 GMT-0500 (Central Daylight Time)","499379","3","1","","null","","","","observe","","img/3to2/1.png","null","137","247","0.5","0.1","3","2","",""
"animation","181","239318","0.0-5.0-2.88","63f7becf2322a5ba95aad1dc","bdp_cybrbll","Thu Mar 30 2023 15:46:14 GMT-0500 (Central Daylight Time)","499379","3","1","","","","","","","","","","137","","","","3","2","[{""stimulus"":""img/3to2/1.png"",""time"":112},{""stimulus"":""img/3to2/2.png"",""time"":199},{""stimulus"":""img/3to2/3.png"",""time"":297},{""stimulus"":""img/3to2/4.png"",""time"":397},{""stimulus"":""img/3to2/5.png"",""time"":496},{""stimulus"":""img/3to2/6.png"",""time"":604},{""stimulus"":""img/3to2/7.png"",""time"":696},{""stimulus"":""img/3to2/8.png"",""time"":793},{""stimulus"":""img/3to2/9.png"",""time"":891},{""stimulus"":""img/3to2/10.png"",""time"":991},{""stimulus"":""img/3to2/11.png"",""time"":1090},{""stimulus"":""img/3to2/12.png"",""time"":1192}]","[]"
"image-keyboard-response","182","239595","0.0-5.0-1.89","63f7becf2322a5ba95aad1dc","bdp_cybrbll","Thu Mar 30 2023 15:46:14 GMT-0500 (Central Daylight Time)","499379","3","1","","277","","","","choice","","img/2to1/1.png","1","136","450","0.5","0.1","2","1","",""
"animation","183","240883","0.0-5.0-2.89","63f7becf2322a5ba95aad1dc","bdp_cybrbll","Thu Mar 30 2023 15:46:14 GMT-0500 (Central Daylight Time)","499379","3","1","","","","","","","","","","136","","","","2","1","[{""stimulus"":""img/2to1/1.png"",""time"":100},{""stimulus"":""img/2to1/2.png"",""time"":199},{""stimulus"":""img/2to1/3.png"",""time"":308},{""stimulus"":""img/2to1/4.png"",""time"":397},{""stimulus"":""img/2to1/5.png"",""time"":499},{""stimulus"":""img/2to1/6.png"",""time"":595},{""stimulus"":""img/2to1/7.png"",""time"":707},{""stimulus"":""img/2to1/8.png"",""time"":803},{""stimulus"":""img/2to1/9.png"",""time"":898},{""stimulus"":""img/2to1/10.png"",""time"":992},{""stimulus"":""img/2to1/11.png"",""time"":1103},{""stimulus"":""img/2to1/12.png"",""time"":1198}]","[]"
"image-keyboard-response","184","241060","0.0-5.0-1.90","63f7becf2322a5ba95aad1dc","bdp_cybrbll","Thu Mar 30 2023 15:46:14 GMT-0500 (Central Daylight Time)","499379","3","1","","null","","","","observe","","img/1to3/1.png","null","135","162","0.5","0.1","1","2","",""
"animation","185","242361","0.0-5.0-2.90","63f7becf2322a5ba95aad1dc","bdp_cybrbll","Thu Mar 30 2023 15:46:14 GMT-0500 (Central Daylight Time)","499379","3","1","","","","","","","","","","135","","","","1","2","[{""stimulus"":""img/1to2/1.png"",""time"":110},{""stimulus"":""img/1to2/2.png"",""time"":207},{""stimulus"":""img/1to2/3.png"",""time"":297},{""stimulus"":""img/1to2/4.png"",""time"":412},{""stimulus"":""img/1to2/5.png"",""time"":508},{""stimulus"":""img/1to2/6.png"",""time"":594},{""stimulus"":""img/1to2/7.png"",""time"":698},{""stimulus"":""img/1to2/8.png"",""time"":793},{""stimulus"":""img/1to2/9.png"",""time"":891},{""stimulus"":""img/1to2/10.png"",""time"":991},{""stimulus"":""img/1to2/11.png"",""time"":1093},{""stimulus"":""img/1to2/12.png"",""time"":1189}]","[]"
"image-keyboard-response","186","243301","0.0-5.0-1.91","63f7becf2322a5ba95aad1dc","bdp_cybrbll","Thu Mar 30 2023 15:46:14 GMT-0500 (Central Daylight Time)","499379","3","1","","939","","","","choice","","img/2to1/1.png","2","134","651","0.5","0.1","2","3","",""
"animation","187","244588","0.0-5.0-2.91","63f7becf2322a5ba95aad1dc","bdp_cybrbll","Thu Mar 30 2023 15:46:14 GMT-0500 (Central Daylight Time)","499379","3","1","","","","","","","","","","134","","","","2","3","[{""stimulus"":""img/2to3/1.png"",""time"":100},{""stimulus"":""img/2to3/2.png"",""time"":202},{""stimulus"":""img/2to3/3.png"",""time"":312},{""stimulus"":""img/2to3/4.png"",""time"":405},{""stimulus"":""img/2to3/5.png"",""time"":496},{""stimulus"":""img/2to3/6.png"",""time"":595},{""stimulus"":""img/2to3/7.png"",""time"":707},{""stimulus"":""img/2to3/8.png"",""time"":792},{""stimulus"":""img/2to3/9.png"",""time"":900},{""stimulus"":""img/2to3/10.png"",""time"":995},{""stimulus"":""img/2to3/11.png"",""time"":1105},{""stimulus"":""img/2to3/12.png"",""time"":1200}]","[]"
"image-keyboard-response","188","244865","0.0-5.0-1.92","63f7becf2322a5ba95aad1dc","bdp_cybrbll","Thu Mar 30 2023 15:46:14 GMT-0500 (Central Daylight Time)","499379","3","1","","null","","","","observe","","img/3to2/1.png","null","133","265","0.5","0.1","3","1","",""
"animation","189","246152","0.0-5.0-2.92","63f7becf2322a5ba95aad1dc","bdp_cybrbll","Thu Mar 30 2023 15:46:14 GMT-0500 (Central Daylight Time)","499379","3","1","","","","","","","","","","133","","","","3","1","[{""stimulus"":""img/3to1/1.png"",""time"":112},{""stimulus"":""img/3to1/2.png"",""time"":199},{""stimulus"":""img/3to1/3.png"",""time"":298},{""stimulus"":""img/3to1/4.png"",""time"":398},{""stimulus"":""img/3to1/5.png"",""time"":496},{""stimulus"":""img/3to1/6.png"",""time"":602},{""stimulus"":""img/3to1/7.png"",""time"":696},{""stimulus"":""img/3to1/8.png"",""time"":807},{""stimulus"":""img/3to1/9.png"",""time"":903},{""stimulus"":""img/3to1/10.png"",""time"":999},{""stimulus"":""img/3to1/11.png"",""time"":1095},{""stimulus"":""img/3to1/12.png"",""time"":1189}]","[]"
"image-keyboard-response","190","246547","0.0-5.0-1.93","63f7becf2322a5ba95aad1dc","bdp_cybrbll","Thu Mar 30 2023 15:46:14 GMT-0500 (Central Daylight Time)","499379","3","1","","null","","","","observe","","img/1to3/1.png","null","132","380","0.5","0.1","1","3","",""
