"trial_type","trial_index","time_elapsed","internal_node_id","subject_id","task","startTime","totalTime","fairPartner","unfairPartner","view_history","rt","event","trial","time","trialtype","success","stimulus","key_press","throwsLeft","rtDur","pFair","pUnfair","holder","receiver","animation_sequence","responses"
"pavlovia","0","3","0.0-0.0","61086469e5457fed4f164b8e","bdp_cybrbll","Wed Mar 29 2023 12:04:26 GMT-0700 (Pacific Daylight Time)","481132","1","3","","","","","","","","","","","","","","","","",""
"instructions","1","2781","0.0-1.0","61086469e5457fed4f164b8e","bdp_cybrbll","Wed Mar 29 2023 12:04:26 GMT-0700 (Pacific Daylight Time)","481132","1","3","[{""page_index"":0,""viewing_time"":2776}]","2776","","","","","","","","","","","","","","",""
"","","","","61086469e5457fed4f164b8e","bdp_cybrbll","Wed Mar 29 2023 12:04:26 GMT-0700 (Pacific Daylight Time)","481132","1","3","","","fullscreenenter","2","7085","fullscreenenter","","","","","","","","","","",""
"fullscreen","2","8060","0.0-2.0","61086469e5457fed4f164b8e","bdp_cybrbll","Wed Mar 29 2023 12:04:26 GMT-0700 (Pacific Daylight Time)","481132","1","3","","","","","","","true","","","","","","","","","",""
"instructions","3","70407","0.0-4.0","61086469e5457fed4f164b8e","bdp_cybrbll","Wed Mar 29 2023 12:04:26 GMT-0700 (Pacific Daylight Time)","481132","1","3","[{""page_index"":0,""viewing_time"":62346}]","62346","","","","","","","","","","","","","","",""
"image-keyboard-response","4","72809","0.0-5.0-1.0","61086469e5457fed4f164b8e","bdp_cybrbll","Wed Mar 29 2023 12:04:26 GMT-0700 (Pacific Daylight Time)","481132","1","3","","2400","","","","choice","","img/2to1/1.png","1","225","291","0.5","0.5","2","1","",""
"animation","5","74102","0.0-5.0-2.0","61086469e5457fed4f164b8e","bdp_cybrbll","Wed Mar 29 2023 12:04:26 GMT-0700 (Pacific Daylight Time)","481132","1","3","","","","","","","","","","225","","","","2","1","[{""stimulus"":""img/2to1/1.png"",""time"":110},{""stimulus"":""img/2to1/2.png"",""time"":210},{""stimulus"":""img/2to1/3.png"",""time"":301},{""stimulus"":""img/2to1/4.png"",""time"":402},{""stimulus"":""img/2to1/5.png"",""time"":502},{""stimulus"":""img/2to1/6.png"",""time"":602},{""stimulus"":""img/2to1/7.png"",""time"":710},{""stimulus"":""img/2to1/8.png"",""time"":794},{""stimulus"":""img/2to1/9.png"",""time"":908},{""stimulus"":""img/2to1/10.png"",""time"":1004},{""stimulus"":""img/2to1/11.png"",""time"":1104},{""stimulus"":""img/2to1/12.png"",""time"":1203}]","[]"
"image-keyboard-response","6","74884","0.0-5.0-1.1","61086469e5457fed4f164b8e","bdp_cybrbll","Wed Mar 29 2023 12:04:26 GMT-0700 (Pacific Daylight Time)","481132","1","3","","null","","","","observe","","img/1to3/1.png","null","224","776","0.5","0.5","1","2","",""
"animation","7","76184","0.0-5.0-2.1","61086469e5457fed4f164b8e","bdp_cybrbll","Wed Mar 29 2023 12:04:26 GMT-0700 (Pacific Daylight Time)","481132","1","3","","","","","","","","","","224","","","","1","2","[{""stimulus"":""img/1to2/1.png"",""time"":111},{""stimulus"":""img/1to2/2.png"",""time"":204},{""stimulus"":""img/1to2/3.png"",""time"":312},{""stimulus"":""img/1to2/4.png"",""time"":411},{""stimulus"":""img/1to2/5.png"",""time"":511},{""stimulus"":""img/1to2/6.png"",""time"":595},{""stimulus"":""img/1to2/7.png"",""time"":702},{""stimulus"":""img/1to2/8.png"",""time"":807},{""stimulus"":""img/1to2/9.png"",""time"":900},{""stimulus"":""img/1to2/10.png"",""time"":1002},{""stimulus"":""img/1to2/11.png"",""time"":1103},{""stimulus"":""img/1to2/12.png"",""time"":1196}]","[]"
"image-keyboard-response","8","76426","0.0-5.0-1.2","61086469e5457fed4f164b8e","bdp_cybrbll","Wed Mar 29 2023 12:04:26 GMT-0700 (Pacific Daylight Time)","481132","1","3","","241","","","","choice","","img/2to1/1.png","2","223","346","0.5","0.5","2","3","",""
"animation","9","77720","0.0-5.0-2.2","61086469e5457fed4f164b8e","bdp_cybrbll","Wed Mar 29 2023 12:04:26 GMT-0700 (Pacific Daylight Time)","481132","1","3","","","","","","","","","","223","","","","2","3","[{""stimulus"":""img/2to3/1.png"",""time"":108},{""stimulus"":""img/2to3/2.png"",""time"":203},{""stimulus"":""img/2to3/3.png"",""time"":310},{""stimulus"":""img/2to3/4.png"",""time"":411},{""stimulus"":""img/2to3/5.png"",""time"":504},{""stimulus"":""img/2to3/6.png"",""time"":595},{""stimulus"":""img/2to3/7.png"",""time"":698},{""stimulus"":""img/2to3/8.png"",""time"":796},{""stimulus"":""img/2to3/9.png"",""time"":903},{""stimulus"":""img/2to3/10.png"",""time"":994},{""stimulus"":""img/2to3/11.png"",""time"":1104},{""stimulus"":""img/2to3/12.png"",""time"":1197}]","[]"
"image-keyboard-response","10","78069","0.0-5.0-1.3","61086469e5457fed4f164b8e","bdp_cybrbll","Wed Mar 29 2023 12:04:26 GMT-0700 (Pacific Daylight Time)","481132","1","3","","null","","","","observe","","img/3to2/1.png","null","222","340","0.5","0.5","3","1","",""
"animation","11","79358","0.0-5.0-2.3","61086469e5457fed4f164b8e","bdp_cybrbll","Wed Mar 29 2023 12:04:26 GMT-0700 (Pacific Daylight Time)","481132","1","3","","","","","","","","","","222","","","","3","1","[{""stimulus"":""img/3to1/1.png"",""time"":110},{""stimulus"":""img/3to1/2.png"",""time"":213},{""stimulus"":""img/3to1/3.png"",""time"":304},{""stimulus"":""img/3to1/4.png"",""time"":400},{""stimulus"":""img/3to1/5.png"",""time"":510},{""stimulus"":""img/3to1/6.png"",""time"":595},{""stimulus"":""img/3to1/7.png"",""time"":700},{""stimulus"":""img/3to1/8.png"",""time"":793},{""stimulus"":""img/3to1/9.png"",""time"":901},{""stimulus"":""img/3to1/10.png"",""time"":993},{""stimulus"":""img/3to1/11.png"",""time"":1100},{""stimulus"":""img/3to1/12.png"",""time"":1201}]","[]"
"image-keyboard-response","12","80100","0.0-5.0-1.4","61086469e5457fed4f164b8e","bdp_cybrbll","Wed Mar 29 2023 12:04:26 GMT-0700 (Pacific Daylight Time)","481132","1","3","","null","","","","observe","","img/1to3/1.png","null","221","734","0.5","0.5","1","3","",""
"animation","13","81403","0.0-5.0-2.4","61086469e5457fed4f164b8e","bdp_cybrbll","Wed Mar 29 2023 12:04:26 GMT-0700 (Pacific Daylight Time)","481132","1","3","","","","","","","","","","221","","","","1","3","[{""stimulus"":""img/1to3/1.png"",""time"":111},{""stimulus"":""img/1to3/2.png"",""time"":205},{""stimulus"":""img/1to3/3.png"",""time"":304},{""stimulus"":""img/1to3/4.png"",""time"":403},{""stimulus"":""img/1to3/5.png"",""time"":503},{""stimulus"":""img/1to3/6.png"",""time"":605},{""stimulus"":""img/1to3/7.png"",""time"":702},{""stimulus"":""img/1to3/8.png"",""time"":807},{""stimulus"":""img/1to3/9.png"",""time"":893},{""stimulus"":""img/1to3/10.png"",""time"":997},{""stimulus"":""img/1to3/11.png"",""time"":1103},{""stimulus"":""img/1to3/12.png"",""time"":1204}]","[]"
"image-keyboard-response","14","81596","0.0-5.0-1.5","61086469e5457fed4f164b8e","bdp_cybrbll","Wed Mar 29 2023 12:04:26 GMT-0700 (Pacific Daylight Time)","481132","1","3","","null","","","","observe","","img/3to2/1.png","null","220","181","0.5","0.5","3","2","",""
"animation","15","82886","0.0-5.0-2.5","61086469e5457fed4f164b8e","bdp_cybrbll","Wed Mar 29 2023 12:04:26 GMT-0700 (Pacific Daylight Time)","481132","1","3","","","","","","","","","","220","","","","3","2","[{""stimulus"":""img/3to2/1.png"",""time"":110},{""stimulus"":""img/3to2/2.png"",""time"":208},{""stimulus"":""img/3to2/3.png"",""time"":308},{""stimulus"":""img/3to2/4.png"",""time"":408},{""stimulus"":""img/3to2/5.png"",""time"":508},{""stimulus"":""img/3to2/6.png"",""time"":598},{""stimulus"":""img/3to2/7.png"",""time"":706},{""stimulus"":""img/3to2/8.png"",""time"":806},{""stimulus"":""img/3to2/9.png"",""time"":899},{""stimulus"":""img/3to2/10.png"",""time"":997},{""stimulus"":""img/3to2/11.png"",""time"":1096},{""stimulus"":""img/3to2/12.png"",""time"":1190}]","[]"
"image-keyboard-response","16","83480","0.0-5.0-1.6","61086469e5457fed4f164b8e","bdp_cybrbll","Wed Mar 29 2023 12:04:26 GMT-0700 (Pacific Daylight Time)","481132","1","3","","593","","","","choice","","img/2to1/1.png","2","219","331","0.5","0.5","2","3","",""
"animation","17","84781","0.0-5.0-2.6","61086469e5457fed4f164b8e","bdp_cybrbll","Wed Mar 29 2023 12:04:26 GMT-0700 (Pacific Daylight Time)","481132","1","3","","","","","","","","","","219","","","","2","3","[{""stimulus"":""img/2to3/1.png"",""time"":103},{""stimulus"":""img/2to3/2.png"",""time"":201},{""stimulus"":""img/2to3/3.png"",""time"":306},{""stimulus"":""img/2to3/4.png"",""time"":405},{""stimulus"":""img/2to3/5.png"",""time"":503},{""stimulus"":""img/2to3/6.png"",""time"":601},{""stimulus"":""img/2to3/7.png"",""time"":706},{""stimulus"":""img/2to3/8.png"",""time"":802},{""stimulus"":""img/2to3/9.png"",""time"":907},{""stimulus"":""img/2to3/10.png"",""time"":1001},{""stimulus"":""img/2to3/11.png"",""time"":1098},{""stimulus"":""img/2to3/12.png"",""time"":1192}]","[]"
"image-keyboard-response","18","85060","0.0-5.0-1.7","61086469e5457fed4f164b8e","bdp_cybrbll","Wed Mar 29 2023 12:04:26 GMT-0700 (Pacific Daylight Time)","481132","1","3","","null","","","","observe","","img/3to2/1.png","null","218","268","0.5","0.5","3","1","",""
"animation","19","86356","0.0-5.0-2.7","61086469e5457fed4f164b8e","bdp_cybrbll","Wed Mar 29 2023 12:04:26 GMT-0700 (Pacific Daylight Time)","481132","1","3","","","","","","","","","","218","","","","3","1","[{""stimulus"":""img/3to1/1.png"",""time"":110},{""stimulus"":""img/3to1/2.png"",""time"":204},{""stimulus"":""img/3to1/3.png"",""time"":302},{""stimulus"":""img/3to1/4.png"",""time"":410},{""stimulus"":""img/3to1/5.png"",""time"":508},{""stimulus"":""img/3to1/6.png"",""time"":602},{""stimulus"":""img/3to1/7.png"",""time"":695},{""stimulus"":""img/3to1/8.png"",""time"":794},{""stimulus"":""img/3to1/9.png"",""time"":893},{""stimulus"":""img/3to1/10.png"",""time"":993},{""stimulus"":""img/3to1/11.png"",""time"":1103},{""stimulus"":""img/3to1/12.png"",""time"":1194}]","[]"
"image-keyboard-response","20","87061","0.0-5.0-1.8","61086469e5457fed4f164b8e","bdp_cybrbll","Wed Mar 29 2023 12:04:26 GMT-0700 (Pacific Daylight Time)","481132","1","3","","null","","","","observe","","img/1to3/1.png","null","217","691","0.5","0.5","1","2","",""
"animation","21","88356","0.0-5.0-2.8","61086469e5457fed4f164b8e","bdp_cybrbll","Wed Mar 29 2023 12:04:26 GMT-0700 (Pacific Daylight Time)","481132","1","3","","","","","","","","","","217","","","","1","2","[{""stimulus"":""img/1to2/1.png"",""time"":106},{""stimulus"":""img/1to2/2.png"",""time"":210},{""stimulus"":""img/1to2/3.png"",""time"":309},{""stimulus"":""img/1to2/4.png"",""time"":401},{""stimulus"":""img/1to2/5.png"",""time"":509},{""stimulus"":""img/1to2/6.png"",""time"":600},{""stimulus"":""img/1to2/7.png"",""time"":700},{""stimulus"":""img/1to2/8.png"",""time"":795},{""stimulus"":""img/1to2/9.png"",""time"":893},{""stimulus"":""img/1to2/10.png"",""time"":1003},{""stimulus"":""img/1to2/11.png"",""time"":1094},{""stimulus"":""img/1to2/12.png"",""time"":1194}]","[]"
"image-keyboard-response","22","89109","0.0-5.0-1.9","61086469e5457fed4f164b8e","bdp_cybrbll","Wed Mar 29 2023 12:04:26 GMT-0700 (Pacific Daylight Time)","481132","1","3","","752","","","","choice","","img/2to1/1.png","1","216","212","0.5","0.5","2","1","",""
"animation","23","90404","0.0-5.0-2.9","61086469e5457fed4f164b8e","bdp_cybrbll","Wed Mar 29 2023 12:04:26 GMT-0700 (Pacific Daylight Time)","481132","1","3","","","","","","","","","","216","","","","2","1","[{""stimulus"":""img/2to1/1.png"",""time"":110},{""stimulus"":""img/2to1/2.png"",""time"":210},{""stimulus"":""img/2to1/3.png"",""time"":310},{""stimulus"":""img/2to1/4.png"",""time"":411},{""stimulus"":""img/2to1/5.png"",""time"":511},{""stimulus"":""img/2to1/6.png"",""time"":603},{""stimulus"":""img/2to1/7.png"",""time"":697},{""stimulus"":""img/2to1/8.png"",""time"":795},{""stimulus"":""img/2to1/9.png"",""time"":894},{""stimulus"":""img/2to1/10.png"",""time"":1000},{""stimulus"":""img/2to1/11.png"",""time"":1094},{""stimulus"":""img/2to1/12.png"",""time"":1199}]","[]"
"image-keyboard-response","24","90917","0.0-5.0-1.10","61086469e5457fed4f164b8e","bdp_cybrbll","Wed Mar 29 2023 12:04:26 GMT-0700 (Pacific Daylight Time)","481132","1","3","","null","","","","observe","","img/1to3/1.png","null","215","498","0.5","0.5","1","3","",""
"animation","25","92220","0.0-5.0-2.10","61086469e5457fed4f164b8e","bdp_cybrbll","Wed Mar 29 2023 12:04:26 GMT-0700 (Pacific Daylight Time)","481132","1","3","","","","","","","","","","215","","","","1","3","[{""stimulus"":""img/1to3/1.png"",""time"":111},{""stimulus"":""img/1to3/2.png"",""time"":215},{""stimulus"":""img/1to3/3.png"",""time"":308},{""stimulus"":""img/1to3/4.png"",""time"":411},{""stimulus"":""img/1to3/5.png"",""time"":511},{""stimulus"":""img/1to3/6.png"",""time"":597},{""stimulus"":""img/1to3/7.png"",""time"":704},{""stimulus"":""img/1to3/8.png"",""time"":794},{""stimulus"":""img/1to3/9.png"",""time"":904},{""stimulus"":""img/1to3/10.png"",""time"":1003},{""stimulus"":""img/1to3/11.png"",""time"":1101},{""stimulus"":""img/1to3/12.png"",""time"":1196}]","[]"
"image-keyboard-response","26","92552","0.0-5.0-1.11","61086469e5457fed4f164b8e","bdp_cybrbll","Wed Mar 29 2023 12:04:26 GMT-0700 (Pacific Daylight Time)","481132","1","3","","null","","","","observe","","img/3to2/1.png","null","214","319","0.5","0.5","3","2","",""
"animation","27","93849","0.0-5.0-2.11","61086469e5457fed4f164b8e","bdp_cybrbll","Wed Mar 29 2023 12:04:26 GMT-0700 (Pacific Daylight Time)","481132","1","3","","","","","","","","","","214","","","","3","2","[{""stimulus"":""img/3to2/1.png"",""time"":113},{""stimulus"":""img/3to2/2.png"",""time"":211},{""stimulus"":""img/3to2/3.png"",""time"":302},{""stimulus"":""img/3to2/4.png"",""time"":405},{""stimulus"":""img/3to2/5.png"",""time"":504},{""stimulus"":""img/3to2/6.png"",""time"":595},{""stimulus"":""img/3to2/7.png"",""time"":704},{""stimulus"":""img/3to2/8.png"",""time"":803},{""stimulus"":""img/3to2/9.png"",""time"":898},{""stimulus"":""img/3to2/10.png"",""time"":994},{""stimulus"":""img/3to2/11.png"",""time"":1102},{""stimulus"":""img/3to2/12.png"",""time"":1200}]","[]"
"image-keyboard-response","28","94110","0.0-5.0-1.12","61086469e5457fed4f164b8e","bdp_cybrbll","Wed Mar 29 2023 12:04:26 GMT-0700 (Pacific Daylight Time)","481132","1","3","","261","","","","choice","","img/2to1/1.png","1","213","384","0.5","0.5","2","1","",""
"animation","29","95404","0.0-5.0-2.12","61086469e5457fed4f164b8e","bdp_cybrbll","Wed Mar 29 2023 12:04:26 GMT-0700 (Pacific Daylight Time)","481132","1","3","","","","","","","","","","213","","","","2","1","[{""stimulus"":""img/2to1/1.png"",""time"":111},{""stimulus"":""img/2to1/2.png"",""time"":205},{""stimulus"":""img/2to1/3.png"",""time"":312},{""stimulus"":""img/2to1/4.png"",""time"":404},{""stimulus"":""img/2to1/5.png"",""time"":502},{""stimulus"":""img/2to1/6.png"",""time"":600},{""stimulus"":""img/2to1/7.png"",""time"":708},{""stimulus"":""img/2to1/8.png"",""time"":805},{""stimulus"":""img/2to1/9.png"",""time"":895},{""stimulus"":""img/2to1/10.png"",""time"":1002},{""stimulus"":""img/2to1/11.png"",""time"":1095},{""stimulus"":""img/2to1/12.png"",""time"":1204}]","[]"
"image-keyboard-response","30","95692","0.0-5.0-1.13","61086469e5457fed4f164b8e","bdp_cybrbll","Wed Mar 29 2023 12:04:26 GMT-0700 (Pacific Daylight Time)","481132","1","3","","null","","","","observe","","img/1to3/1.png","null","212","272","0.5","0.5","1","3","",""
"animation","31","96985","0.0-5.0-2.13","61086469e5457fed4f164b8e","bdp_cybrbll","Wed Mar 29 2023 12:04:26 GMT-0700 (Pacific Daylight Time)","481132","1","3","","","","","","","","","","212","","","","1","3","[{""stimulus"":""img/1to3/1.png"",""time"":112},{""stimulus"":""img/1to3/2.png"",""time"":201},{""stimulus"":""img/1to3/3.png"",""time"":300},{""stimulus"":""img/1to3/4.png"",""time"":412},{""stimulus"":""img/1to3/5.png"",""time"":502},{""stimulus"":""img/1to3/6.png"",""time"":598},{""stimulus"":""img/1to3/7.png"",""time"":696},{""stimulus"":""img/1to3/8.png"",""time"":809},{""stimulus"":""img/1to3/9.png"",""time"":895},{""stimulus"":""img/1to3/10.png"",""time"":994},{""stimulus"":""img/1to3/11.png"",""time"":1092},{""stimulus"":""img/1to3/12.png"",""time"":1190}]","[]"
"image-keyboard-response","32","97982","0.0-5.0-1.14","61086469e5457fed4f164b8e","bdp_cybrbll","Wed Mar 29 2023 12:04:26 GMT-0700 (Pacific Daylight Time)","481132","1","3","","null","","","","observe","","img/3to2/1.png","null","211","989","0.5","0.5","3","2","",""
"animation","33","99273","0.0-5.0-2.14","61086469e5457fed4f164b8e","bdp_cybrbll","Wed Mar 29 2023 12:04:26 GMT-0700 (Pacific Daylight Time)","481132","1","3","","","","","","","","","","211","","","","3","2","[{""stimulus"":""img/3to2/1.png"",""time"":111},{""stimulus"":""img/3to2/2.png"",""time"":200},{""stimulus"":""img/3to2/3.png"",""time"":312},{""stimulus"":""img/3to2/4.png"",""time"":408},{""stimulus"":""img/3to2/5.png"",""time"":505},{""stimulus"":""img/3to2/6.png"",""time"":597},{""stimulus"":""img/3to2/7.png"",""time"":703},{""stimulus"":""img/3to2/8.png"",""time"":807},{""stimulus"":""img/3to2/9.png"",""time"":897},{""stimulus"":""img/3to2/10.png"",""time"":1003},{""stimulus"":""img/3to2/11.png"",""time"":1101},{""stimulus"":""img/3to2/12.png"",""time"":1196}]","[]"
"image-keyboard-response","34","100124","0.0-5.0-1.15","61086469e5457fed4f164b8e","bdp_cybrbll","Wed Mar 29 2023 12:04:26 GMT-0700 (Pacific Daylight Time)","481132","1","3","","849","","","","choice","","img/2to1/1.png","2","210","911","0.5","0.5","2","3","",""
"animation","35","101420","0.0-5.0-2.15","61086469e5457fed4f164b8e","bdp_cybrbll","Wed Mar 29 2023 12:04:26 GMT-0700 (Pacific Daylight Time)","481132","1","3","","","","","","","","","","210","","","","2","3","[{""stimulus"":""img/2to3/1.png"",""time"":113},{""stimulus"":""img/2to3/2.png"",""time"":214},{""stimulus"":""img/2to3/3.png"",""time"":307},{""stimulus"":""img/2to3/4.png"",""time"":406},{""stimulus"":""img/2to3/5.png"",""time"":497},{""stimulus"":""img/2to3/6.png"",""time"":607},{""stimulus"":""img/2to3/7.png"",""time"":704},{""stimulus"":""img/2to3/8.png"",""time"":798},{""stimulus"":""img/2to3/9.png"",""time"":898},{""stimulus"":""img/2to3/10.png"",""time"":999},{""stimulus"":""img/2to3/11.png"",""time"":1099},{""stimulus"":""img/2to3/12.png"",""time"":1189}]","[]"
"image-keyboard-response","36","101733","0.0-5.0-1.16","61086469e5457fed4f164b8e","bdp_cybrbll","Wed Mar 29 2023 12:04:26 GMT-0700 (Pacific Daylight Time)","481132","1","3","","null","","","","observe","","img/3to2/1.png","null","209","298","0.5","0.5","3","1","",""
"animation","37","103021","0.0-5.0-2.16","61086469e5457fed4f164b8e","bdp_cybrbll","Wed Mar 29 2023 12:04:26 GMT-0700 (Pacific Daylight Time)","481132","1","3","","","","","","","","","","209","","","","3","1","[{""stimulus"":""img/3to1/1.png"",""time"":112},{""stimulus"":""img/3to1/2.png"",""time"":205},{""stimulus"":""img/3to1/3.png"",""time"":304},{""stimulus"":""img/3to1/4.png"",""time"":404},{""stimulus"":""img/3to1/5.png"",""time"":504},{""stimulus"":""img/3to1/6.png"",""time"":604},{""stimulus"":""img/3to1/7.png"",""time"":704},{""stimulus"":""img/3to1/8.png"",""time"":797},{""stimulus"":""img/3to1/9.png"",""time"":898},{""stimulus"":""img/3to1/10.png"",""time"":1005},{""stimulus"":""img/3to1/11.png"",""time"":1094},{""stimulus"":""img/3to1/12.png"",""time"":1190}]","[]"
"image-keyboard-response","38","103520","0.0-5.0-1.17","61086469e5457fed4f164b8e","bdp_cybrbll","Wed Mar 29 2023 12:04:26 GMT-0700 (Pacific Daylight Time)","481132","1","3","","null","","","","observe","","img/1to3/1.png","null","208","496","0.5","0.5","1","3","",""
"animation","39","104819","0.0-5.0-2.17","61086469e5457fed4f164b8e","bdp_cybrbll","Wed Mar 29 2023 12:04:26 GMT-0700 (Pacific Daylight Time)","481132","1","3","","","","","","","","","","208","","","","1","3","[{""stimulus"":""img/1to3/1.png"",""time"":111},{""stimulus"":""img/1to3/2.png"",""time"":215},{""stimulus"":""img/1to3/3.png"",""time"":311},{""stimulus"":""img/1to3/4.png"",""time"":407},{""stimulus"":""img/1to3/5.png"",""time"":504},{""stimulus"":""img/1to3/6.png"",""time"":602},{""stimulus"":""img/1to3/7.png"",""time"":702},{""stimulus"":""img/1to3/8.png"",""time"":809},{""stimulus"":""img/1to3/9.png"",""time"":893},{""stimulus"":""img/1to3/10.png"",""time"":1001},{""stimulus"":""img/1to3/11.png"",""time"":1105},{""stimulus"":""img/1to3/12.png"",""time"":1193}]","[]"
"image-keyboard-response","40","105020","0.0-5.0-1.18","61086469e5457fed4f164b8e","bdp_cybrbll","Wed Mar 29 2023 12:04:26 GMT-0700 (Pacific Daylight Time)","481132","1","3","","null","","","","observe","","img/3to2/1.png","null","207","199","0.5","0.5","3","1","",""
"animation","41","106311","0.0-5.0-2.18","61086469e5457fed4f164b8e","bdp_cybrbll","Wed Mar 29 2023 12:04:26 GMT-0700 (Pacific Daylight Time)","481132","1","3","","","","","","","","","","207","","","","3","1","[{""stimulus"":""img/3to1/1.png"",""time"":112},{""stimulus"":""img/3to1/2.png"",""time"":200},{""stimulus"":""img/3to1/3.png"",""time"":312},{""stimulus"":""img/3to1/4.png"",""time"":402},{""stimulus"":""img/3to1/5.png"",""time"":508},{""stimulus"":""img/3to1/6.png"",""time"":605},{""stimulus"":""img/3to1/7.png"",""time"":700},{""stimulus"":""img/3to1/8.png"",""time"":798},{""stimulus"":""img/3to1/9.png"",""time"":894},{""stimulus"":""img/3to1/10.png"",""time"":992},{""stimulus"":""img/3to1/11.png"",""time"":1092},{""stimulus"":""img/3to1/12.png"",""time"":1193}]","[]"
"image-keyboard-response","42","106561","0.0-5.0-1.19","61086469e5457fed4f164b8e","bdp_cybrbll","Wed Mar 29 2023 12:04:26 GMT-0700 (Pacific Daylight Time)","481132","1","3","","null","","","","observe","","img/1to3/1.png","null","206","238","0.5","0.5","1","3","",""
"animation","43","107865","0.0-5.0-2.19","61086469e5457fed4f164b8e","bdp_cybrbll","Wed Mar 29 2023 12:04:26 GMT-0700 (Pacific Daylight Time)","481132","1","3","","","","","","","","","","206","","","","1","3","[{""stimulus"":""img/1to3/1.png"",""time"":110},{""stimulus"":""img/1to3/2.png"",""time"":206},{""stimulus"":""img/1to3/3.png"",""time"":310},{""stimulus"":""img/1to3/4.png"",""time"":399},{""stimulus"":""img/1to3/5.png"",""time"":509},{""stimulus"":""img/1to3/6.png"",""time"":605},{""stimulus"":""img/1to3/7.png"",""time"":694},{""stimulus"":""img/1to3/8.png"",""time"":800},{""stimulus"":""img/1to3/9.png"",""time"":907},{""stimulus"":""img/1to3/10.png"",""time"":1005},{""stimulus"":""img/1to3/11.png"",""time"":1094},{""stimulus"":""img/1to3/12.png"",""time"":1196}]","[]"
"image-keyboard-response","44","108405","0.0-5.0-1.20","61086469e5457fed4f164b8e","bdp_cybrbll","Wed Mar 29 2023 12:04:26 GMT-0700 (Pacific Daylight Time)","481132","1","3","","null","","","","observe","","img/3to2/1.png","null","205","530","0.5","0.5","3","2","",""
"animation","45","109701","0.0-5.0-2.20","61086469e5457fed4f164b8e","bdp_cybrbll","Wed Mar 29 2023 12:04:26 GMT-0700 (Pacific Daylight Time)","481132","1","3","","","","","","","","","","205","","","","3","2","[{""stimulus"":""img/3to2/1.png"",""time"":112},{""stimulus"":""img/3to2/2.png"",""time"":212},{""stimulus"":""img/3to2/3.png"",""time"":307},{""stimulus"":""img/3to2/4.png"",""time"":408},{""stimulus"":""img/3to2/5.png"",""time"":499},{""stimulus"":""img/3to2/6.png"",""time"":605},{""stimulus"":""img/3to2/7.png"",""time"":705},{""stimulus"":""img/3to2/8.png"",""time"":805},{""stimulus"":""img/3to2/9.png"",""time"":901},{""stimulus"":""img/3to2/10.png"",""time"":1001},{""stimulus"":""img/3to2/11.png"",""time"":1091},{""stimulus"":""img/3to2/12.png"",""time"":1200}]","[]"
"image-keyboard-response","46","109910","0.0-5.0-1.21","61086469e5457fed4f164b8e","bdp_cybrbll","Wed Mar 29 2023 12:04:26 GMT-0700 (Pacific Daylight Time)","481132","1","3","","208","","","","choice","","img/2to1/1.png","1","204","416","0.5","0.5","2","1","",""
"animation","47","111204","0.0-5.0-2.21","61086469e5457fed4f164b8e","bdp_cybrbll","Wed Mar 29 2023 12:04:26 GMT-0700 (Pacific Daylight Time)","481132","1","3","","","","","","","","","","204","","","","2","1","[{""stimulus"":""img/2to1/1.png"",""time"":111},{""stimulus"":""img/2to1/2.png"",""time"":211},{""stimulus"":""img/2to1/3.png"",""time"":305},{""stimulus"":""img/2to1/4.png"",""time"":410},{""stimulus"":""img/2to1/5.png"",""time"":507},{""stimulus"":""img/2to1/6.png"",""time"":597},{""stimulus"":""img/2to1/7.png"",""time"":702},{""stimulus"":""img/2to1/8.png"",""time"":803},{""stimulus"":""img/2to1/9.png"",""time"":897},{""stimulus"":""img/2to1/10.png"",""time"":993},{""stimulus"":""img/2to1/11.png"",""time"":1091},{""stimulus"":""img/2to1/12.png"",""time"":1202}]","[]"
"image-keyboard-response","48","112840","0.0-5.0-1.22","61086469e5457fed4f164b8e","bdp_cybrbll","Wed Mar 29 2023 12:04:26 GMT-0700 (Pacific Daylight Time)","481132","1","3","","null","","","","observe","","img/1to3/1.png","null","203","1632","0.5","0.5","1","2","",""
"animation","49","114136","0.0-5.0-2.22","61086469e5457fed4f164b8e","bdp_cybrbll","Wed Mar 29 2023 12:04:26 GMT-0700 (Pacific Daylight Time)","481132","1","3","","","","","","","","","","203","","","","1","2","[{""stimulus"":""img/1to2/1.png"",""time"":112},{""stimulus"":""img/1to2/2.png"",""time"":199},{""stimulus"":""img/1to2/3.png"",""time"":298},{""stimulus"":""img/1to2/4.png"",""time"":408},{""stimulus"":""img/1to2/5.png"",""time"":498},{""stimulus"":""img/1to2/6.png"",""time"":598},{""stimulus"":""img/1to2/7.png"",""time"":708},{""stimulus"":""img/1to2/8.png"",""time"":800},{""stimulus"":""img/1to2/9.png"",""time"":906},{""stimulus"":""img/1to2/10.png"",""time"":997},{""stimulus"":""img/1to2/11.png"",""time"":1105},{""stimulus"":""img/1to2/12.png"",""time"":1198}]","[]"
"image-keyboard-response","50","114535","0.0-5.0-1.23","61086469e5457fed4f164b8e","bdp_cybrbll","Wed Mar 29 2023 12:04:26 GMT-0700 (Pacific Daylight Time)","481132","1","3","","397","","","","choice","","img/2to1/1.png","1","202","243","0.5","0.5","2","1","",""
"animation","51","115833","0.0-5.0-2.23","61086469e5457fed4f164b8e","bdp_cybrbll","Wed Mar 29 2023 12:04:26 GMT-0700 (Pacific Daylight Time)","481132","1","3","","","","","","","","","","202","","","","2","1","[{""stimulus"":""img/2to1/1.png"",""time"":101},{""stimulus"":""img/2to1/2.png"",""time"":214},{""stimulus"":""img/2to1/3.png"",""time"":304},{""stimulus"":""img/2to1/4.png"",""time"":411},{""stimulus"":""img/2to1/5.png"",""time"":505},{""stimulus"":""img/2to1/6.png"",""time"":609},{""stimulus"":""img/2to1/7.png"",""time"":705},{""stimulus"":""img/2to1/8.png"",""time"":805},{""stimulus"":""img/2to1/9.png"",""time"":895},{""stimulus"":""img/2to1/10.png"",""time"":1004},{""stimulus"":""img/2to1/11.png"",""time"":1103},{""stimulus"":""img/2to1/12.png"",""time"":1201}]","[]"
"image-keyboard-response","52","116826","0.0-5.0-1.24","61086469e5457fed4f164b8e","bdp_cybrbll","Wed Mar 29 2023 12:04:26 GMT-0700 (Pacific Daylight Time)","481132","1","3","","null","","","","observe","","img/1to3/1.png","null","201","987","0.5","0.5","1","2","",""
"animation","53","118122","0.0-5.0-2.24","61086469e5457fed4f164b8e","bdp_cybrbll","Wed Mar 29 2023 12:04:26 GMT-0700 (Pacific Daylight Time)","481132","1","3","","","","","","","","","","201","","","","1","2","[{""stimulus"":""img/1to2/1.png"",""time"":112},{""stimulus"":""img/1to2/2.png"",""time"":205},{""stimulus"":""img/1to2/3.png"",""time"":311},{""stimulus"":""img/1to2/4.png"",""time"":404},{""stimulus"":""img/1to2/5.png"",""time"":510},{""stimulus"":""img/1to2/6.png"",""time"":602},{""stimulus"":""img/1to2/7.png"",""time"":695},{""stimulus"":""img/1to2/8.png"",""time"":794},{""stimulus"":""img/1to2/9.png"",""time"":902},{""stimulus"":""img/1to2/10.png"",""time"":996},{""stimulus"":""img/1to2/11.png"",""time"":1094},{""stimulus"":""img/1to2/12.png"",""time"":1198}]","[]"
"image-keyboard-response","54","118446","0.0-5.0-1.25","61086469e5457fed4f164b8e","bdp_cybrbll","Wed Mar 29 2023 12:04:26 GMT-0700 (Pacific Daylight Time)","481132","1","3","","323","","","","choice","","img/2to1/1.png","2","200","549","0.5","0.5","2","3","",""
"animation","55","119736","0.0-5.0-2.25","61086469e5457fed4f164b8e","bdp_cybrbll","Wed Mar 29 2023 12:04:26 GMT-0700 (Pacific Daylight Time)","481132","1","3","","","","","","","","","","200","","","","2","3","[{""stimulus"":""img/2to3/1.png"",""time"":101},{""stimulus"":""img/2to3/2.png"",""time"":199},{""stimulus"":""img/2to3/3.png"",""time"":308},{""stimulus"":""img/2to3/4.png"",""time"":400},{""stimulus"":""img/2to3/5.png"",""time"":498},{""stimulus"":""img/2to3/6.png"",""time"":598},{""stimulus"":""img/2to3/7.png"",""time"":707},{""stimulus"":""img/2to3/8.png"",""time"":808},{""stimulus"":""img/2to3/9.png"",""time"":905},{""stimulus"":""img/2to3/10.png"",""time"":1004},{""stimulus"":""img/2to3/11.png"",""time"":1091},{""stimulus"":""img/2to3/12.png"",""time"":1191}]","[]"
"image-keyboard-response","56","120123","0.0-5.0-1.26","61086469e5457fed4f164b8e","bdp_cybrbll","Wed Mar 29 2023 12:04:26 GMT-0700 (Pacific Daylight Time)","481132","1","3","","null","","","","observe","","img/3to2/1.png","null","199","381","0.5","0.5","3","1","",""
"animation","57","121417","0.0-5.0-2.26","61086469e5457fed4f164b8e","bdp_cybrbll","Wed Mar 29 2023 12:04:26 GMT-0700 (Pacific Daylight Time)","481132","1","3","","","","","","","","","","199","","","","3","1","[{""stimulus"":""img/3to1/1.png"",""time"":109},{""stimulus"":""img/3to1/2.png"",""time"":214},{""stimulus"":""img/3to1/3.png"",""time"":311},{""stimulus"":""img/3to1/4.png"",""time"":406},{""stimulus"":""img/3to1/5.png"",""time"":504},{""stimulus"":""img/3to1/6.png"",""time"":600},{""stimulus"":""img/3to1/7.png"",""time"":698},{""stimulus"":""img/3to1/8.png"",""time"":807},{""stimulus"":""img/3to1/9.png"",""time"":891},{""stimulus"":""img/3to1/10.png"",""time"":997},{""stimulus"":""img/3to1/11.png"",""time"":1092},{""stimulus"":""img/3to1/12.png"",""time"":1196}]","[]"
"image-keyboard-response","58","122174","0.0-5.0-1.27","61086469e5457fed4f164b8e","bdp_cybrbll","Wed Mar 29 2023 12:04:26 GMT-0700 (Pacific Daylight Time)","481132","1","3","","null","","","","observe","","img/1to3/1.png","null","198","750","0.5","0.5","1","2","",""
"animation","59","123467","0.0-5.0-2.27","61086469e5457fed4f164b8e","bdp_cybrbll","Wed Mar 29 2023 12:04:26 GMT-0700 (Pacific Daylight Time)","481132","1","3","","","","","","","","","","198","","","","1","2","[{""stimulus"":""img/1to2/1.png"",""time"":111},{""stimulus"":""img/1to2/2.png"",""time"":200},{""stimulus"":""img/1to2/3.png"",""time"":314},{""stimulus"":""img/1to2/4.png"",""time"":404},{""stimulus"":""img/1to2/5.png"",""time"":502},{""stimulus"":""img/1to2/6.png"",""time"":606},{""stimulus"":""img/1to2/7.png"",""time"":704},{""stimulus"":""img/1to2/8.png"",""time"":797},{""stimulus"":""img/1to2/9.png"",""time"":907},{""stimulus"":""img/1to2/10.png"",""time"":998},{""stimulus"":""img/1to2/11.png"",""time"":1092},{""stimulus"":""img/1to2/12.png"",""time"":1196}]","[]"
"image-keyboard-response","60","123793","0.0-5.0-1.28","61086469e5457fed4f164b8e","bdp_cybrbll","Wed Mar 29 2023 12:04:26 GMT-0700 (Pacific Daylight Time)","481132","1","3","","326","","","","choice","","img/2to1/1.png","1","197","943","0.5","0.5","2","1","",""
"animation","61","125089","0.0-5.0-2.28","61086469e5457fed4f164b8e","bdp_cybrbll","Wed Mar 29 2023 12:04:26 GMT-0700 (Pacific Daylight Time)","481132","1","3","","","","","","","","","","197","","","","2","1","[{""stimulus"":""img/2to1/1.png"",""time"":105},{""stimulus"":""img/2to1/2.png"",""time"":204},{""stimulus"":""img/2to1/3.png"",""time"":303},{""stimulus"":""img/2to1/4.png"",""time"":398},{""stimulus"":""img/2to1/5.png"",""time"":496},{""stimulus"":""img/2to1/6.png"",""time"":603},{""stimulus"":""img/2to1/7.png"",""time"":697},{""stimulus"":""img/2to1/8.png"",""time"":801},{""stimulus"":""img/2to1/9.png"",""time"":903},{""stimulus"":""img/2to1/10.png"",""time"":997},{""stimulus"":""img/2to1/11.png"",""time"":1095},{""stimulus"":""img/2to1/12.png"",""time"":1202}]","[]"
"image-keyboard-response","62","125468","0.0-5.0-1.29","61086469e5457fed4f164b8e","bdp_cybrbll","Wed Mar 29 2023 12:04:26 GMT-0700 (Pacific Daylight Time)","481132","1","3","","null","","","","observe","","img/1to3/1.png","null","196","371","0.5","0.5","1","3","",""
"animation","63","126757","0.0-5.0-2.29","61086469e5457fed4f164b8e","bdp_cybrbll","Wed Mar 29 2023 12:04:26 GMT-0700 (Pacific Daylight Time)","481132","1","3","","","","","","","","","","196","","","","1","3","[{""stimulus"":""img/1to3/1.png"",""time"":111},{""stimulus"":""img/1to3/2.png"",""time"":205},{""stimulus"":""img/1to3/3.png"",""time"":312},{""stimulus"":""img/1to3/4.png"",""time"":404},{""stimulus"":""img/1to3/5.png"",""time"":498},{""stimulus"":""img/1to3/6.png"",""time"":604},{""stimulus"":""img/1to3/7.png"",""time"":696},{""stimulus"":""img/1to3/8.png"",""time"":805},{""stimulus"":""img/1to3/9.png"",""time"":905},{""stimulus"":""img/1to3/10.png"",""time"":995},{""stimulus"":""img/1to3/11.png"",""time"":1091},{""stimulus"":""img/1to3/12.png"",""time"":1205}]","[]"
"image-keyboard-response","64","127261","0.0-5.0-1.30","61086469e5457fed4f164b8e","bdp_cybrbll","Wed Mar 29 2023 12:04:26 GMT-0700 (Pacific Daylight Time)","481132","1","3","","null","","","","observe","","img/3to2/1.png","null","195","488","0.5","0.5","3","1","",""
"animation","65","128562","0.0-5.0-2.30","61086469e5457fed4f164b8e","bdp_cybrbll","Wed Mar 29 2023 12:04:26 GMT-0700 (Pacific Daylight Time)","481132","1","3","","","","","","","","","","195","","","","3","1","[{""stimulus"":""img/3to1/1.png"",""time"":111},{""stimulus"":""img/3to1/2.png"",""time"":204},{""stimulus"":""img/3to1/3.png"",""time"":312},{""stimulus"":""img/3to1/4.png"",""time"":398},{""stimulus"":""img/3to1/5.png"",""time"":500},{""stimulus"":""img/3to1/6.png"",""time"":601},{""stimulus"":""img/3to1/7.png"",""time"":709},{""stimulus"":""img/3to1/8.png"",""time"":806},{""stimulus"":""img/3to1/9.png"",""time"":903},{""stimulus"":""img/3to1/10.png"",""time"":997},{""stimulus"":""img/3to1/11.png"",""time"":1097},{""stimulus"":""img/3to1/12.png"",""time"":1201}]","[]"
"image-keyboard-response","66","128765","0.0-5.0-1.31","61086469e5457fed4f164b8e","bdp_cybrbll","Wed Mar 29 2023 12:04:26 GMT-0700 (Pacific Daylight Time)","481132","1","3","","null","","","","observe","","img/1to3/1.png","null","194","197","0.5","0.5","1","2","",""
"animation","67","130053","0.0-5.0-2.31","61086469e5457fed4f164b8e","bdp_cybrbll","Wed Mar 29 2023 12:04:26 GMT-0700 (Pacific Daylight Time)","481132","1","3","","","","","","","","","","194","","","","1","2","[{""stimulus"":""img/1to2/1.png"",""time"":111},{""stimulus"":""img/1to2/2.png"",""time"":208},{""stimulus"":""img/1to2/3.png"",""time"":308},{""stimulus"":""img/1to2/4.png"",""time"":406},{""stimulus"":""img/1to2/5.png"",""time"":500},{""stimulus"":""img/1to2/6.png"",""time"":597},{""stimulus"":""img/1to2/7.png"",""time"":705},{""stimulus"":""img/1to2/8.png"",""time"":801},{""stimulus"":""img/1to2/9.png"",""time"":906},{""stimulus"":""img/1to2/10.png"",""time"":991},{""stimulus"":""img/1to2/11.png"",""time"":1092},{""stimulus"":""img/1to2/12.png"",""time"":1189}]","[]"
"image-keyboard-response","68","130535","0.0-5.0-1.32","61086469e5457fed4f164b8e","bdp_cybrbll","Wed Mar 29 2023 12:04:26 GMT-0700 (Pacific Daylight Time)","481132","1","3","","482","","","","choice","","img/2to1/1.png","2","193","449","0.5","0.5","2","3","",""
"animation","69","131829","0.0-5.0-2.32","61086469e5457fed4f164b8e","bdp_cybrbll","Wed Mar 29 2023 12:04:26 GMT-0700 (Pacific Daylight Time)","481132","1","3","","","","","","","","","","193","","","","2","3","[{""stimulus"":""img/2to3/1.png"",""time"":111},{""stimulus"":""img/2to3/2.png"",""time"":203},{""stimulus"":""img/2to3/3.png"",""time"":302},{""stimulus"":""img/2to3/4.png"",""time"":399},{""stimulus"":""img/2to3/5.png"",""time"":511},{""stimulus"":""img/2to3/6.png"",""time"":595},{""stimulus"":""img/2to3/7.png"",""time"":709},{""stimulus"":""img/2to3/8.png"",""time"":803},{""stimulus"":""img/2to3/9.png"",""time"":900},{""stimulus"":""img/2to3/10.png"",""time"":1001},{""stimulus"":""img/2to3/11.png"",""time"":1099},{""stimulus"":""img/2to3/12.png"",""time"":1196}]","[]"
"image-keyboard-response","70","132928","0.0-5.0-1.33","61086469e5457fed4f164b8e","bdp_cybrbll","Wed Mar 29 2023 12:04:26 GMT-0700 (Pacific Daylight Time)","481132","1","3","","null","","","","observe","","img/3to2/1.png","null","192","1094","0.5","0.5","3","1","",""
"animation","71","134222","0.0-5.0-2.33","61086469e5457fed4f164b8e","bdp_cybrbll","Wed Mar 29 2023 12:04:26 GMT-0700 (Pacific Daylight Time)","481132","1","3","","","","","","","","","","192","","","","3","1","[{""stimulus"":""img/3to1/1.png"",""time"":112},{""stimulus"":""img/3to1/2.png"",""time"":205},{""stimulus"":""img/3to1/3.png"",""time"":312},{""stimulus"":""img/3to1/4.png"",""time"":403},{""stimulus"":""img/3to1/5.png"",""time"":510},{""stimulus"":""img/3to1/6.png"",""time"":598},{""stimulus"":""img/3to1/7.png"",""time"":697},{""stimulus"":""img/3to1/8.png"",""time"":795},{""stimulus"":""img/3to1/9.png"",""time"":895},{""stimulus"":""img/3to1/10.png"",""time"":1004},{""stimulus"":""img/3to1/11.png"",""time"":1102},{""stimulus"":""img/3to1/12.png"",""time"":1203}]","[]"
"image-keyboard-response","72","134583","0.0-5.0-1.34","61086469e5457fed4f164b8e","bdp_cybrbll","Wed Mar 29 2023 12:04:26 GMT-0700 (Pacific Daylight Time)","481132","1","3","","null","","","","observe","","img/1to3/1.png","null","191","356","0.5","0.5","1","3","",""
"animation","73","135872","0.0-5.0-2.34","61086469e5457fed4f164b8e","bdp_cybrbll","Wed Mar 29 2023 12:04:26 GMT-0700 (Pacific Daylight Time)","481132","1","3","","","","","","","","","","191","","","","1","3","[{""stimulus"":""img/1to3/1.png"",""time"":111},{""stimulus"":""img/1to3/2.png"",""time"":205},{""stimulus"":""img/1to3/3.png"",""time"":305},{""stimulus"":""img/1to3/4.png"",""time"":406},{""stimulus"":""img/1to3/5.png"",""time"":506},{""stimulus"":""img/1to3/6.png"",""time"":605},{""stimulus"":""img/1to3/7.png"",""time"":705},{""stimulus"":""img/1to3/8.png"",""time"":797},{""stimulus"":""img/1to3/9.png"",""time"":903},{""stimulus"":""img/1to3/10.png"",""time"":1000},{""stimulus"":""img/1to3/11.png"",""time"":1091},{""stimulus"":""img/1to3/12.png"",""time"":1190}]","[]"
"image-keyboard-response","74","136379","0.0-5.0-1.35","61086469e5457fed4f164b8e","bdp_cybrbll","Wed Mar 29 2023 12:04:26 GMT-0700 (Pacific Daylight Time)","481132","1","3","","null","","","","observe","","img/3to2/1.png","null","190","500","0.5","0.5","3","1","",""
"animation","75","137668","0.0-5.0-2.35","61086469e5457fed4f164b8e","bdp_cybrbll","Wed Mar 29 2023 12:04:26 GMT-0700 (Pacific Daylight Time)","481132","1","3","","","","","","","","","","190","","","","3","1","[{""stimulus"":""img/3to1/1.png"",""time"":110},{""stimulus"":""img/3to1/2.png"",""time"":210},{""stimulus"":""img/3to1/3.png"",""time"":312},{""stimulus"":""img/3to1/4.png"",""time"":409},{""stimulus"":""img/3to1/5.png"",""time"":507},{""stimulus"":""img/3to1/6.png"",""time"":605},{""stimulus"":""img/3to1/7.png"",""time"":705},{""stimulus"":""img/3to1/8.png"",""time"":802},{""stimulus"":""img/3to1/9.png"",""time"":897},{""stimulus"":""img/3to1/10.png"",""time"":1000},{""stimulus"":""img/3to1/11.png"",""time"":1098},{""stimulus"":""img/3to1/12.png"",""time"":1198}]","[]"
"image-keyboard-response","76","138289","0.0-5.0-1.36","61086469e5457fed4f164b8e","bdp_cybrbll","Wed Mar 29 2023 12:04:26 GMT-0700 (Pacific Daylight Time)","481132","1","3","","null","","","","observe","","img/1to3/1.png","null","189","614","0.5","0.5","1","3","",""
"animation","77","139583","0.0-5.0-2.36","61086469e5457fed4f164b8e","bdp_cybrbll","Wed Mar 29 2023 12:04:26 GMT-0700 (Pacific Daylight Time)","481132","1","3","","","","","","","","","","189","","","","1","3","[{""stimulus"":""img/1to3/1.png"",""time"":110},{""stimulus"":""img/1to3/2.png"",""time"":210},{""stimulus"":""img/1to3/3.png"",""time"":308},{""stimulus"":""img/1to3/4.png"",""time"":402},{""stimulus"":""img/1to3/5.png"",""time"":508},{""stimulus"":""img/1to3/6.png"",""time"":606},{""stimulus"":""img/1to3/7.png"",""time"":701},{""stimulus"":""img/1to3/8.png"",""time"":802},{""stimulus"":""img/1to3/9.png"",""time"":901},{""stimulus"":""img/1to3/10.png"",""time"":1000},{""stimulus"":""img/1to3/11.png"",""time"":1093},{""stimulus"":""img/1to3/12.png"",""time"":1198}]","[]"
"image-keyboard-response","78","139982","0.0-5.0-1.37","61086469e5457fed4f164b8e","bdp_cybrbll","Wed Mar 29 2023 12:04:26 GMT-0700 (Pacific Daylight Time)","481132","1","3","","null","","","","observe","","img/3to2/1.png","null","188","382","0.5","0.5","3","2","",""
"animation","79","141281","0.0-5.0-2.37","61086469e5457fed4f164b8e","bdp_cybrbll","Wed Mar 29 2023 12:04:26 GMT-0700 (Pacific Daylight Time)","481132","1","3","","","","","","","","","","188","","","","3","2","[{""stimulus"":""img/3to2/1.png"",""time"":110},{""stimulus"":""img/3to2/2.png"",""time"":201},{""stimulus"":""img/3to2/3.png"",""time"":308},{""stimulus"":""img/3to2/4.png"",""time"":409},{""stimulus"":""img/3to2/5.png"",""time"":499},{""stimulus"":""img/3to2/6.png"",""time"":598},{""stimulus"":""img/3to2/7.png"",""time"":706},{""stimulus"":""img/3to2/8.png"",""time"":798},{""stimulus"":""img/3to2/9.png"",""time"":906},{""stimulus"":""img/3to2/10.png"",""time"":1002},{""stimulus"":""img/3to2/11.png"",""time"":1102},{""stimulus"":""img/3to2/12.png"",""time"":1192}]","[]"
"image-keyboard-response","80","141546","0.0-5.0-1.38","61086469e5457fed4f164b8e","bdp_cybrbll","Wed Mar 29 2023 12:04:26 GMT-0700 (Pacific Daylight Time)","481132","1","3","","265","","","","choice","","img/2to1/1.png","2","187","1199","0.5","0.5","2","3","",""
"animation","81","142845","0.0-5.0-2.38","61086469e5457fed4f164b8e","bdp_cybrbll","Wed Mar 29 2023 12:04:26 GMT-0700 (Pacific Daylight Time)","481132","1","3","","","","","","","","","","187","","","","2","3","[{""stimulus"":""img/2to3/1.png"",""time"":110},{""stimulus"":""img/2to3/2.png"",""time"":205},{""stimulus"":""img/2to3/3.png"",""time"":303},{""stimulus"":""img/2to3/4.png"",""time"":409},{""stimulus"":""img/2to3/5.png"",""time"":501},{""stimulus"":""img/2to3/6.png"",""time"":596},{""stimulus"":""img/2to3/7.png"",""time"":710},{""stimulus"":""img/2to3/8.png"",""time"":796},{""stimulus"":""img/2to3/9.png"",""time"":893},{""stimulus"":""img/2to3/10.png"",""time"":1003},{""stimulus"":""img/2to3/11.png"",""time"":1091},{""stimulus"":""img/2to3/12.png"",""time"":1202}]","[]"
"image-keyboard-response","82","143462","0.0-5.0-1.39","61086469e5457fed4f164b8e","bdp_cybrbll","Wed Mar 29 2023 12:04:26 GMT-0700 (Pacific Daylight Time)","481132","1","3","","null","","","","observe","","img/3to2/1.png","null","186","610","0.5","0.5","3","1","",""
"animation","83","144755","0.0-5.0-2.39","61086469e5457fed4f164b8e","bdp_cybrbll","Wed Mar 29 2023 12:04:26 GMT-0700 (Pacific Daylight Time)","481132","1","3","","","","","","","","","","186","","","","3","1","[{""stimulus"":""img/3to1/1.png"",""time"":112},{""stimulus"":""img/3to1/2.png"",""time"":204},{""stimulus"":""img/3to1/3.png"",""time"":312},{""stimulus"":""img/3to1/4.png"",""time"":410},{""stimulus"":""img/3to1/5.png"",""time"":509},{""stimulus"":""img/3to1/6.png"",""time"":606},{""stimulus"":""img/3to1/7.png"",""time"":709},{""stimulus"":""img/3to1/8.png"",""time"":807},{""stimulus"":""img/3to1/9.png"",""time"":902},{""stimulus"":""img/3to1/10.png"",""time"":994},{""stimulus"":""img/3to1/11.png"",""time"":1103},{""stimulus"":""img/3to1/12.png"",""time"":1196}]","[]"
"image-keyboard-response","84","145054","0.0-5.0-1.40","61086469e5457fed4f164b8e","bdp_cybrbll","Wed Mar 29 2023 12:04:26 GMT-0700 (Pacific Daylight Time)","481132","1","3","","null","","","","observe","","img/1to3/1.png","null","185","291","0.5","0.5","1","3","",""
"animation","85","146349","0.0-5.0-2.40","61086469e5457fed4f164b8e","bdp_cybrbll","Wed Mar 29 2023 12:04:26 GMT-0700 (Pacific Daylight Time)","481132","1","3","","","","","","","","","","185","","","","1","3","[{""stimulus"":""img/1to3/1.png"",""time"":111},{""stimulus"":""img/1to3/2.png"",""time"":201},{""stimulus"":""img/1to3/3.png"",""time"":303},{""stimulus"":""img/1to3/4.png"",""time"":401},{""stimulus"":""img/1to3/5.png"",""time"":508},{""stimulus"":""img/1to3/6.png"",""time"":605},{""stimulus"":""img/1to3/7.png"",""time"":709},{""stimulus"":""img/1to3/8.png"",""time"":794},{""stimulus"":""img/1to3/9.png"",""time"":900},{""stimulus"":""img/1to3/10.png"",""time"":996},{""stimulus"":""img/1to3/11.png"",""time"":1102},{""stimulus"":""img/1to3/12.png"",""time"":1199}]","[]"
"image-keyboard-response","86","146820","0.0-5.0-1.41","61086469e5457fed4f164b8e","bdp_cybrbll","Wed Mar 29 2023 12:04:26 GMT-0700 (Pacific Daylight Time)","481132","1","3","","null","","","","observe","","img/3to2/1.png","null","184","457","0.5","0.5","3","2","",""
"animation","87","148118","0.0-5.0-2.41","61086469e5457fed4f164b8e","bdp_cybrbll","Wed Mar 29 2023 12:04:26 GMT-0700 (Pacific Daylight Time)","481132","1","3","","","","","","","","","","184","","","","3","2","[{""stimulus"":""img/3to2/1.png"",""time"":112},{""stimulus"":""img/3to2/2.png"",""time"":203},{""stimulus"":""img/3to2/3.png"",""time"":305},{""stimulus"":""img/3to2/4.png"",""time"":410},{""stimulus"":""img/3to2/5.png"",""time"":510},{""stimulus"":""img/3to2/6.png"",""time"":607},{""stimulus"":""img/3to2/7.png"",""time"":704},{""stimulus"":""img/3to2/8.png"",""time"":801},{""stimulus"":""img/3to2/9.png"",""time"":908},{""stimulus"":""img/3to2/10.png"",""time"":993},{""stimulus"":""img/3to2/11.png"",""time"":1093},{""stimulus"":""img/3to2/12.png"",""time"":1201}]","[]"
"image-keyboard-response","88","148539","0.0-5.0-1.42","61086469e5457fed4f164b8e","bdp_cybrbll","Wed Mar 29 2023 12:04:26 GMT-0700 (Pacific Daylight Time)","481132","1","3","","420","","","","choice","","img/2to1/1.png","1","183","211","0.5","0.5","2","1","",""
"animation","89","149839","0.0-5.0-2.42","61086469e5457fed4f164b8e","bdp_cybrbll","Wed Mar 29 2023 12:04:26 GMT-0700 (Pacific Daylight Time)","481132","1","3","","","","","","","","","","183","","","","2","1","[{""stimulus"":""img/2to1/1.png"",""time"":101},{""stimulus"":""img/2to1/2.png"",""time"":199},{""stimulus"":""img/2to1/3.png"",""time"":308},{""stimulus"":""img/2to1/4.png"",""time"":408},{""stimulus"":""img/2to1/5.png"",""time"":501},{""stimulus"":""img/2to1/6.png"",""time"":609},{""stimulus"":""img/2to1/7.png"",""time"":700},{""stimulus"":""img/2to1/8.png"",""time"":801},{""stimulus"":""img/2to1/9.png"",""time"":900},{""stimulus"":""img/2to1/10.png"",""time"":1002},{""stimulus"":""img/2to1/11.png"",""time"":1100},{""stimulus"":""img/2to1/12.png"",""time"":1204}]","[]"
"image-keyboard-response","90","150288","0.0-5.0-1.43","61086469e5457fed4f164b8e","bdp_cybrbll","Wed Mar 29 2023 12:04:26 GMT-0700 (Pacific Daylight Time)","481132","1","3","","null","","","","observe","","img/1to3/1.png","null","182","433","0.5","0.5","1","2","",""
"animation","91","151583","0.0-5.0-2.43","61086469e5457fed4f164b8e","bdp_cybrbll","Wed Mar 29 2023 12:04:26 GMT-0700 (Pacific Daylight Time)","481132","1","3","","","","","","","","","","182","","","","1","2","[{""stimulus"":""img/1to2/1.png"",""time"":111},{""stimulus"":""img/1to2/2.png"",""time"":202},{""stimulus"":""img/1to2/3.png"",""time"":303},{""stimulus"":""img/1to2/4.png"",""time"":401},{""stimulus"":""img/1to2/5.png"",""time"":511},{""stimulus"":""img/1to2/6.png"",""time"":605},{""stimulus"":""img/1to2/7.png"",""time"":702},{""stimulus"":""img/1to2/8.png"",""time"":794},{""stimulus"":""img/1to2/9.png"",""time"":900},{""stimulus"":""img/1to2/10.png"",""time"":996},{""stimulus"":""img/1to2/11.png"",""time"":1101},{""stimulus"":""img/1to2/12.png"",""time"":1201}]","[]"
"image-keyboard-response","92","151671","0.0-5.0-1.44","61086469e5457fed4f164b8e","bdp_cybrbll","Wed Mar 29 2023 12:04:26 GMT-0700 (Pacific Daylight Time)","481132","1","3","","87","","","","choice","","img/2to1/1.png","1","181","555","0.5","0.5","2","1","",""
"animation","93","152973","0.0-5.0-2.44","61086469e5457fed4f164b8e","bdp_cybrbll","Wed Mar 29 2023 12:04:26 GMT-0700 (Pacific Daylight Time)","481132","1","3","","","","","","","","","","181","","","","2","1","[{""stimulus"":""img/2to1/1.png"",""time"":114},{""stimulus"":""img/2to1/2.png"",""time"":211},{""stimulus"":""img/2to1/3.png"",""time"":302},{""stimulus"":""img/2to1/4.png"",""time"":404},{""stimulus"":""img/2to1/5.png"",""time"":504},{""stimulus"":""img/2to1/6.png"",""time"":603},{""stimulus"":""img/2to1/7.png"",""time"":703},{""stimulus"":""img/2to1/8.png"",""time"":802},{""stimulus"":""img/2to1/9.png"",""time"":901},{""stimulus"":""img/2to1/10.png"",""time"":1006},{""stimulus"":""img/2to1/11.png"",""time"":1103},{""stimulus"":""img/2to1/12.png"",""time"":1203}]","[]"
"image-keyboard-response","94","153256","0.0-5.0-1.45","61086469e5457fed4f164b8e","bdp_cybrbll","Wed Mar 29 2023 12:04:26 GMT-0700 (Pacific Daylight Time)","481132","1","3","","null","","","","observe","","img/1to3/1.png","null","180","281","0.5","0.5","1","2","",""
"animation","95","154548","0.0-5.0-2.45","61086469e5457fed4f164b8e","bdp_cybrbll","Wed Mar 29 2023 12:04:26 GMT-0700 (Pacific Daylight Time)","481132","1","3","","","","","","","","","","180","","","","1","2","[{""stimulus"":""img/1to2/1.png"",""time"":112},{""stimulus"":""img/1to2/2.png"",""time"":208},{""stimulus"":""img/1to2/3.png"",""time"":301},{""stimulus"":""img/1to2/4.png"",""time"":406},{""stimulus"":""img/1to2/5.png"",""time"":503},{""stimulus"":""img/1to2/6.png"",""time"":601},{""stimulus"":""img/1to2/7.png"",""time"":707},{""stimulus"":""img/1to2/8.png"",""time"":799},{""stimulus"":""img/1to2/9.png"",""time"":906},{""stimulus"":""img/1to2/10.png"",""time"":991},{""stimulus"":""img/1to2/11.png"",""time"":1101},{""stimulus"":""img/1to2/12.png"",""time"":1200}]","[]"
"image-keyboard-response","96","155098","0.0-5.0-1.46","61086469e5457fed4f164b8e","bdp_cybrbll","Wed Mar 29 2023 12:04:26 GMT-0700 (Pacific Daylight Time)","481132","1","3","","548","","","","choice","","img/2to1/1.png","2","179","527","0.5","0.5","2","3","",""
"animation","97","156389","0.0-5.0-2.46","61086469e5457fed4f164b8e","bdp_cybrbll","Wed Mar 29 2023 12:04:26 GMT-0700 (Pacific Daylight Time)","481132","1","3","","","","","","","","","","179","","","","2","3","[{""stimulus"":""img/2to3/1.png"",""time"":108},{""stimulus"":""img/2to3/2.png"",""time"":206},{""stimulus"":""img/2to3/3.png"",""time"":303},{""stimulus"":""img/2to3/4.png"",""time"":400},{""stimulus"":""img/2to3/5.png"",""time"":508},{""stimulus"":""img/2to3/6.png"",""time"":600},{""stimulus"":""img/2to3/7.png"",""time"":699},{""stimulus"":""img/2to3/8.png"",""time"":800},{""stimulus"":""img/2to3/9.png"",""time"":900},{""stimulus"":""img/2to3/10.png"",""time"":992},{""stimulus"":""img/2to3/11.png"",""time"":1093},{""stimulus"":""img/2to3/12.png"",""time"":1193}]","[]"
"image-keyboard-response","98","156659","0.0-5.0-1.47","61086469e5457fed4f164b8e","bdp_cybrbll","Wed Mar 29 2023 12:04:26 GMT-0700 (Pacific Daylight Time)","481132","1","3","","null","","","","observe","","img/3to2/1.png","null","178","253","0.5","0.5","3","2","",""
"animation","99","157956","0.0-5.0-2.47","61086469e5457fed4f164b8e","bdp_cybrbll","Wed Mar 29 2023 12:04:26 GMT-0700 (Pacific Daylight Time)","481132","1","3","","","","","","","","","","178","","","","3","2","[{""stimulus"":""img/3to2/1.png"",""time"":111},{""stimulus"":""img/3to2/2.png"",""time"":214},{""stimulus"":""img/3to2/3.png"",""time"":308},{""stimulus"":""img/3to2/4.png"",""time"":401},{""stimulus"":""img/3to2/5.png"",""time"":496},{""stimulus"":""img/3to2/6.png"",""time"":597},{""stimulus"":""img/3to2/7.png"",""time"":707},{""stimulus"":""img/3to2/8.png"",""time"":804},{""stimulus"":""img/3to2/9.png"",""time"":904},{""stimulus"":""img/3to2/10.png"",""time"":997},{""stimulus"":""img/3to2/11.png"",""time"":1104},{""stimulus"":""img/3to2/12.png"",""time"":1199}]","[]"
"image-keyboard-response","100","158750","0.0-5.0-1.48","61086469e5457fed4f164b8e","bdp_cybrbll","Wed Mar 29 2023 12:04:26 GMT-0700 (Pacific Daylight Time)","481132","1","3","","793","","","","choice","","img/2to1/1.png","2","177","264","0.5","0.5","2","3","",""
"animation","101","160046","0.0-5.0-2.48","61086469e5457fed4f164b8e","bdp_cybrbll","Wed Mar 29 2023 12:04:26 GMT-0700 (Pacific Daylight Time)","481132","1","3","","","","","","","","","","177","","","","2","3","[{""stimulus"":""img/2to3/1.png"",""time"":114},{""stimulus"":""img/2to3/2.png"",""time"":205},{""stimulus"":""img/2to3/3.png"",""time"":313},{""stimulus"":""img/2to3/4.png"",""time"":411},{""stimulus"":""img/2to3/5.png"",""time"":507},{""stimulus"":""img/2to3/6.png"",""time"":609},{""stimulus"":""img/2to3/7.png"",""time"":697},{""stimulus"":""img/2to3/8.png"",""time"":806},{""stimulus"":""img/2to3/9.png"",""time"":897},{""stimulus"":""img/2to3/10.png"",""time"":992},{""stimulus"":""img/2to3/11.png"",""time"":1096},{""stimulus"":""img/2to3/12.png"",""time"":1196}]","[]"
"image-keyboard-response","102","160266","0.0-5.0-1.49","61086469e5457fed4f164b8e","bdp_cybrbll","Wed Mar 29 2023 12:04:26 GMT-0700 (Pacific Daylight Time)","481132","1","3","","null","","","","observe","","img/3to2/1.png","null","176","218","0.5","0.5","3","2","",""
"animation","103","161557","0.0-5.0-2.49","61086469e5457fed4f164b8e","bdp_cybrbll","Wed Mar 29 2023 12:04:26 GMT-0700 (Pacific Daylight Time)","481132","1","3","","","","","","","","","","176","","","","3","2","[{""stimulus"":""img/3to2/1.png"",""time"":111},{""stimulus"":""img/3to2/2.png"",""time"":208},{""stimulus"":""img/3to2/3.png"",""time"":299},{""stimulus"":""img/3to2/4.png"",""time"":414},{""stimulus"":""img/3to2/5.png"",""time"":507},{""stimulus"":""img/3to2/6.png"",""time"":601},{""stimulus"":""img/3to2/7.png"",""time"":705},{""stimulus"":""img/3to2/8.png"",""time"":805},{""stimulus"":""img/3to2/9.png"",""time"":898},{""stimulus"":""img/3to2/10.png"",""time"":998},{""stimulus"":""img/3to2/11.png"",""time"":1092},{""stimulus"":""img/3to2/12.png"",""time"":1192}]","[]"
"image-keyboard-response","104","162017","0.0-5.0-1.50","61086469e5457fed4f164b8e","bdp_cybrbll","Wed Mar 29 2023 12:04:26 GMT-0700 (Pacific Daylight Time)","481132","1","3","","459","","","","choice","","img/2to1/1.png","1","175","325","0.5","0.5","2","1","",""
"animation","105","163313","0.0-5.0-2.50","61086469e5457fed4f164b8e","bdp_cybrbll","Wed Mar 29 2023 12:04:26 GMT-0700 (Pacific Daylight Time)","481132","1","3","","","","","","","","","","175","","","","2","1","[{""stimulus"":""img/2to1/1.png"",""time"":103},{""stimulus"":""img/2to1/2.png"",""time"":214},{""stimulus"":""img/2to1/3.png"",""time"":305},{""stimulus"":""img/2to1/4.png"",""time"":406},{""stimulus"":""img/2to1/5.png"",""time"":505},{""stimulus"":""img/2to1/6.png"",""time"":596},{""stimulus"":""img/2to1/7.png"",""time"":706},{""stimulus"":""img/2to1/8.png"",""time"":799},{""stimulus"":""img/2to1/9.png"",""time"":896},{""stimulus"":""img/2to1/10.png"",""time"":1005},{""stimulus"":""img/2to1/11.png"",""time"":1090},{""stimulus"":""img/2to1/12.png"",""time"":1191}]","[]"
"image-keyboard-response","106","163786","0.0-5.0-1.51","61086469e5457fed4f164b8e","bdp_cybrbll","Wed Mar 29 2023 12:04:26 GMT-0700 (Pacific Daylight Time)","481132","1","3","","null","","","","observe","","img/1to3/1.png","null","174","462","0.5","0.5","1","2","",""
"animation","107","165079","0.0-5.0-2.51","61086469e5457fed4f164b8e","bdp_cybrbll","Wed Mar 29 2023 12:04:26 GMT-0700 (Pacific Daylight Time)","481132","1","3","","","","","","","","","","174","","","","1","2","[{""stimulus"":""img/1to2/1.png"",""time"":111},{""stimulus"":""img/1to2/2.png"",""time"":204},{""stimulus"":""img/1to2/3.png"",""time"":303},{""stimulus"":""img/1to2/4.png"",""time"":398},{""stimulus"":""img/1to2/5.png"",""time"":510},{""stimulus"":""img/1to2/6.png"",""time"":603},{""stimulus"":""img/1to2/7.png"",""time"":695},{""stimulus"":""img/1to2/8.png"",""time"":795},{""stimulus"":""img/1to2/9.png"",""time"":894},{""stimulus"":""img/1to2/10.png"",""time"":993},{""stimulus"":""img/1to2/11.png"",""time"":1104},{""stimulus"":""img/1to2/12.png"",""time"":1195}]","[]"
"image-keyboard-response","108","165528","0.0-5.0-1.52","61086469e5457fed4f164b8e","bdp_cybrbll","Wed Mar 29 2023 12:04:26 GMT-0700 (Pacific Daylight Time)","481132","1","3","","448","","","","choice","","img/2to1/1.png","2","173","425","0.5","0.5","2","3","",""
"animation","109","166824","0.0-5.0-2.52","61086469e5457fed4f164b8e","bdp_cybrbll","Wed Mar 29 2023 12:04:26 GMT-0700 (Pacific Daylight Time)","481132","1","3","","","","","","","","","","173","","","","2","3","[{""stimulus"":""img/2to3/1.png"",""time"":111},{""stimulus"":""img/2to3/2.png"",""time"":210},{""stimulus"":""img/2to3/3.png"",""time"":312},{""stimulus"":""img/2to3/4.png"",""time"":403},{""stimulus"":""img/2to3/5.png"",""time"":503},{""stimulus"":""img/2to3/6.png"",""time"":596},{""stimulus"":""img/2to3/7.png"",""time"":702},{""stimulus"":""img/2to3/8.png"",""time"":795},{""stimulus"":""img/2to3/9.png"",""time"":903},{""stimulus"":""img/2to3/10.png"",""time"":1003},{""stimulus"":""img/2to3/11.png"",""time"":1094},{""stimulus"":""img/2to3/12.png"",""time"":1196}]","[]"
"image-keyboard-response","110","167722","0.0-5.0-1.53","61086469e5457fed4f164b8e","bdp_cybrbll","Wed Mar 29 2023 12:04:26 GMT-0700 (Pacific Daylight Time)","481132","1","3","","null","","","","observe","","img/3to2/1.png","null","172","896","0.5","0.5","3","1","",""
"animation","111","169017","0.0-5.0-2.53","61086469e5457fed4f164b8e","bdp_cybrbll","Wed Mar 29 2023 12:04:26 GMT-0700 (Pacific Daylight Time)","481132","1","3","","","","","","","","","","172","","","","3","1","[{""stimulus"":""img/3to1/1.png"",""time"":111},{""stimulus"":""img/3to1/2.png"",""time"":202},{""stimulus"":""img/3to1/3.png"",""time"":301},{""stimulus"":""img/3to1/4.png"",""time"":397},{""stimulus"":""img/3to1/5.png"",""time"":512},{""stimulus"":""img/3to1/6.png"",""time"":600},{""stimulus"":""img/3to1/7.png"",""time"":697},{""stimulus"":""img/3to1/8.png"",""time"":794},{""stimulus"":""img/3to1/9.png"",""time"":902},{""stimulus"":""img/3to1/10.png"",""time"":992},{""stimulus"":""img/3to1/11.png"",""time"":1091},{""stimulus"":""img/3to1/12.png"",""time"":1198}]","[]"
"image-keyboard-response","112","169448","0.0-5.0-1.54","61086469e5457fed4f164b8e","bdp_cybrbll","Wed Mar 29 2023 12:04:26 GMT-0700 (Pacific Daylight Time)","481132","1","3","","null","","","","observe","","img/1to3/1.png","null","171","415","0.5","0.5","1","3","",""
"animation","113","170740","0.0-5.0-2.54","61086469e5457fed4f164b8e","bdp_cybrbll","Wed Mar 29 2023 12:04:26 GMT-0700 (Pacific Daylight Time)","481132","1","3","","","","","","","","","","171","","","","1","3","[{""stimulus"":""img/1to3/1.png"",""time"":112},{""stimulus"":""img/1to3/2.png"",""time"":201},{""stimulus"":""img/1to3/3.png"",""time"":308},{""stimulus"":""img/1to3/4.png"",""time"":405},{""stimulus"":""img/1to3/5.png"",""time"":501},{""stimulus"":""img/1to3/6.png"",""time"":600},{""stimulus"":""img/1to3/7.png"",""time"":707},{""stimulus"":""img/1to3/8.png"",""time"":805},{""stimulus"":""img/1to3/9.png"",""time"":903},{""stimulus"":""img/1to3/10.png"",""time"":993},{""stimulus"":""img/1to3/11.png"",""time"":1091},{""stimulus"":""img/1to3/12.png"",""time"":1202}]","[]"
"image-keyboard-response","114","171317","0.0-5.0-1.55","61086469e5457fed4f164b8e","bdp_cybrbll","Wed Mar 29 2023 12:04:26 GMT-0700 (Pacific Daylight Time)","481132","1","3","","null","","","","observe","","img/3to2/1.png","null","170","569","0.5","0.5","3","1","",""
"animation","115","172607","0.0-5.0-2.55","61086469e5457fed4f164b8e","bdp_cybrbll","Wed Mar 29 2023 12:04:26 GMT-0700 (Pacific Daylight Time)","481132","1","3","","","","","","","","","","170","","","","3","1","[{""stimulus"":""img/3to1/1.png"",""time"":111},{""stimulus"":""img/3to1/2.png"",""time"":207},{""stimulus"":""img/3to1/3.png"",""time"":298},{""stimulus"":""img/3to1/4.png"",""time"":404},{""stimulus"":""img/3to1/5.png"",""time"":504},{""stimulus"":""img/3to1/6.png"",""time"":602},{""stimulus"":""img/3to1/7.png"",""time"":698},{""stimulus"":""img/3to1/8.png"",""time"":794},{""stimulus"":""img/3to1/9.png"",""time"":892},{""stimulus"":""img/3to1/10.png"",""time"":993},{""stimulus"":""img/3to1/11.png"",""time"":1094},{""stimulus"":""img/3to1/12.png"",""time"":1194}]","[]"
"image-keyboard-response","116","173191","0.0-5.0-1.56","61086469e5457fed4f164b8e","bdp_cybrbll","Wed Mar 29 2023 12:04:26 GMT-0700 (Pacific Daylight Time)","481132","1","3","","null","","","","observe","","img/1to3/1.png","null","169","582","0.5","0.5","1","2","",""
"animation","117","174485","0.0-5.0-2.56","61086469e5457fed4f164b8e","bdp_cybrbll","Wed Mar 29 2023 12:04:26 GMT-0700 (Pacific Daylight Time)","481132","1","3","","","","","","","","","","169","","","","1","2","[{""stimulus"":""img/1to2/1.png"",""time"":113},{""stimulus"":""img/1to2/2.png"",""time"":200},{""stimulus"":""img/1to2/3.png"",""time"":313},{""stimulus"":""img/1to2/4.png"",""time"":408},{""stimulus"":""img/1to2/5.png"",""time"":500},{""stimulus"":""img/1to2/6.png"",""time"":598},{""stimulus"":""img/1to2/7.png"",""time"":708},{""stimulus"":""img/1to2/8.png"",""time"":801},{""stimulus"":""img/1to2/9.png"",""time"":893},{""stimulus"":""img/1to2/10.png"",""time"":1005},{""stimulus"":""img/1to2/11.png"",""time"":1100},{""stimulus"":""img/1to2/12.png"",""time"":1197}]","[]"
"image-keyboard-response","118","174574","0.0-5.0-1.57","61086469e5457fed4f164b8e","bdp_cybrbll","Wed Mar 29 2023 12:04:26 GMT-0700 (Pacific Daylight Time)","481132","1","3","","88","","","","choice","","img/2to1/1.png","1","168","965","0.5","0.5","2","1","",""
"animation","119","175872","0.0-5.0-2.57","61086469e5457fed4f164b8e","bdp_cybrbll","Wed Mar 29 2023 12:04:26 GMT-0700 (Pacific Daylight Time)","481132","1","3","","","","","","","","","","168","","","","2","1","[{""stimulus"":""img/2to1/1.png"",""time"":114},{""stimulus"":""img/2to1/2.png"",""time"":212},{""stimulus"":""img/2to1/3.png"",""time"":309},{""stimulus"":""img/2to1/4.png"",""time"":400},{""stimulus"":""img/2to1/5.png"",""time"":499},{""stimulus"":""img/2to1/6.png"",""time"":608},{""stimulus"":""img/2to1/7.png"",""time"":698},{""stimulus"":""img/2to1/8.png"",""time"":805},{""stimulus"":""img/2to1/9.png"",""time"":892},{""stimulus"":""img/2to1/10.png"",""time"":997},{""stimulus"":""img/2to1/11.png"",""time"":1096},{""stimulus"":""img/2to1/12.png"",""time"":1193}]","[]"
"image-keyboard-response","120","176193","0.0-5.0-1.58","61086469e5457fed4f164b8e","bdp_cybrbll","Wed Mar 29 2023 12:04:26 GMT-0700 (Pacific Daylight Time)","481132","1","3","","null","","","","observe","","img/1to3/1.png","null","167","314","0.5","0.5","1","3","",""
"animation","121","177495","0.0-5.0-2.58","61086469e5457fed4f164b8e","bdp_cybrbll","Wed Mar 29 2023 12:04:26 GMT-0700 (Pacific Daylight Time)","481132","1","3","","","","","","","","","","167","","","","1","3","[{""stimulus"":""img/1to3/1.png"",""time"":111},{""stimulus"":""img/1to3/2.png"",""time"":208},{""stimulus"":""img/1to3/3.png"",""time"":312},{""stimulus"":""img/1to3/4.png"",""time"":410},{""stimulus"":""img/1to3/5.png"",""time"":506},{""stimulus"":""img/1to3/6.png"",""time"":605},{""stimulus"":""img/1to3/7.png"",""time"":696},{""stimulus"":""img/1to3/8.png"",""time"":805},{""stimulus"":""img/1to3/9.png"",""time"":902},{""stimulus"":""img/1to3/10.png"",""time"":996},{""stimulus"":""img/1to3/11.png"",""time"":1097},{""stimulus"":""img/1to3/12.png"",""time"":1196}]","[]"
"image-keyboard-response","122","178347","0.0-5.0-1.59","61086469e5457fed4f164b8e","bdp_cybrbll","Wed Mar 29 2023 12:04:26 GMT-0700 (Pacific Daylight Time)","481132","1","3","","null","","","","observe","","img/3to2/1.png","null","166","842","0.5","0.5","3","2","",""
"animation","123","179647","0.0-5.0-2.59","61086469e5457fed4f164b8e","bdp_cybrbll","Wed Mar 29 2023 12:04:26 GMT-0700 (Pacific Daylight Time)","481132","1","3","","","","","","","","","","166","","","","3","2","[{""stimulus"":""img/3to2/1.png"",""time"":111},{""stimulus"":""img/3to2/2.png"",""time"":204},{""stimulus"":""img/3to2/3.png"",""time"":301},{""stimulus"":""img/3to2/4.png"",""time"":399},{""stimulus"":""img/3to2/5.png"",""time"":509},{""stimulus"":""img/3to2/6.png"",""time"":609},{""stimulus"":""img/3to2/7.png"",""time"":703},{""stimulus"":""img/3to2/8.png"",""time"":794},{""stimulus"":""img/3to2/9.png"",""time"":900},{""stimulus"":""img/3to2/10.png"",""time"":996},{""stimulus"":""img/3to2/11.png"",""time"":1093},{""stimulus"":""img/3to2/12.png"",""time"":1201}]","[]"
"image-keyboard-response","124","180234","0.0-5.0-1.60","61086469e5457fed4f164b8e","bdp_cybrbll","Wed Mar 29 2023 12:04:26 GMT-0700 (Pacific Daylight Time)","481132","1","3","","585","","","","choice","","img/2to1/1.png","2","165","172","0.5","0.5","2","3","",""
"animation","125","181536","0.0-5.0-2.60","61086469e5457fed4f164b8e","bdp_cybrbll","Wed Mar 29 2023 12:04:26 GMT-0700 (Pacific Daylight Time)","481132","1","3","","","","","","","","","","165","","","","2","3","[{""stimulus"":""img/2to3/1.png"",""time"":115},{""stimulus"":""img/2to3/2.png"",""time"":202},{""stimulus"":""img/2to3/3.png"",""time"":300},{""stimulus"":""img/2to3/4.png"",""time"":413},{""stimulus"":""img/2to3/5.png"",""time"":509},{""stimulus"":""img/2to3/6.png"",""time"":605},{""stimulus"":""img/2to3/7.png"",""time"":705},{""stimulus"":""img/2to3/8.png"",""time"":795},{""stimulus"":""img/2to3/9.png"",""time"":894},{""stimulus"":""img/2to3/10.png"",""time"":1004},{""stimulus"":""img/2to3/11.png"",""time"":1101},{""stimulus"":""img/2to3/12.png"",""time"":1204}]","[]"
"image-keyboard-response","126","182669","0.0-5.0-1.61","61086469e5457fed4f164b8e","bdp_cybrbll","Wed Mar 29 2023 12:04:26 GMT-0700 (Pacific Daylight Time)","481132","1","3","","null","","","","observe","","img/3to2/1.png","null","164","1131","0.5","0.5","3","2","",""
"animation","127","183971","0.0-5.0-2.61","61086469e5457fed4f164b8e","bdp_cybrbll","Wed Mar 29 2023 12:04:26 GMT-0700 (Pacific Daylight Time)","481132","1","3","","","","","","","","","","164","","","","3","2","[{""stimulus"":""img/3to2/1.png"",""time"":105},{""stimulus"":""img/3to2/2.png"",""time"":203},{""stimulus"":""img/3to2/3.png"",""time"":304},{""stimulus"":""img/3to2/4.png"",""time"":398},{""stimulus"":""img/3to2/5.png"",""time"":504},{""stimulus"":""img/3to2/6.png"",""time"":603},{""stimulus"":""img/3to2/7.png"",""time"":705},{""stimulus"":""img/3to2/8.png"",""time"":806},{""stimulus"":""img/3to2/9.png"",""time"":903},{""stimulus"":""img/3to2/10.png"",""time"":994},{""stimulus"":""img/3to2/11.png"",""time"":1092},{""stimulus"":""img/3to2/12.png"",""time"":1195}]","[]"
"image-keyboard-response","128","185539","0.0-5.0-1.62","61086469e5457fed4f164b8e","bdp_cybrbll","Wed Mar 29 2023 12:04:26 GMT-0700 (Pacific Daylight Time)","481132","1","3","","1567","","","","choice","","img/2to1/1.png","1","163","331","0.5","0.5","2","1","",""
"animation","129","186830","0.0-5.0-2.62","61086469e5457fed4f164b8e","bdp_cybrbll","Wed Mar 29 2023 12:04:26 GMT-0700 (Pacific Daylight Time)","481132","1","3","","","","","","","","","","163","","","","2","1","[{""stimulus"":""img/2to1/1.png"",""time"":107},{""stimulus"":""img/2to1/2.png"",""time"":207},{""stimulus"":""img/2to1/3.png"",""time"":300},{""stimulus"":""img/2to1/4.png"",""time"":414},{""stimulus"":""img/2to1/5.png"",""time"":508},{""stimulus"":""img/2to1/6.png"",""time"":599},{""stimulus"":""img/2to1/7.png"",""time"":707},{""stimulus"":""img/2to1/8.png"",""time"":803},{""stimulus"":""img/2to1/9.png"",""time"":892},{""stimulus"":""img/2to1/10.png"",""time"":1006},{""stimulus"":""img/2to1/11.png"",""time"":1101},{""stimulus"":""img/2to1/12.png"",""time"":1191}]","[]"
"image-keyboard-response","130","187207","0.0-5.0-1.63","61086469e5457fed4f164b8e","bdp_cybrbll","Wed Mar 29 2023 12:04:26 GMT-0700 (Pacific Daylight Time)","481132","1","3","","null","","","","observe","","img/1to3/1.png","null","162","366","0.5","0.5","1","2","",""
"animation","131","188506","0.0-5.0-2.63","61086469e5457fed4f164b8e","bdp_cybrbll","Wed Mar 29 2023 12:04:26 GMT-0700 (Pacific Daylight Time)","481132","1","3","","","","","","","","","","162","","","","1","2","[{""stimulus"":""img/1to2/1.png"",""time"":110},{""stimulus"":""img/1to2/2.png"",""time"":215},{""stimulus"":""img/1to2/3.png"",""time"":312},{""stimulus"":""img/1to2/4.png"",""time"":401},{""stimulus"":""img/1to2/5.png"",""time"":506},{""stimulus"":""img/1to2/6.png"",""time"":598},{""stimulus"":""img/1to2/7.png"",""time"":704},{""stimulus"":""img/1to2/8.png"",""time"":798},{""stimulus"":""img/1to2/9.png"",""time"":900},{""stimulus"":""img/1to2/10.png"",""time"":997},{""stimulus"":""img/1to2/11.png"",""time"":1096},{""stimulus"":""img/1to2/12.png"",""time"":1191}]","[]"
"image-keyboard-response","132","189654","0.0-5.0-1.64","61086469e5457fed4f164b8e","bdp_cybrbll","Wed Mar 29 2023 12:04:26 GMT-0700 (Pacific Daylight Time)","481132","1","3","","1148","","","","choice","","img/2to1/1.png","2","161","149","0.5","0.5","2","3","",""
"animation","133","190946","0.0-5.0-2.64","61086469e5457fed4f164b8e","bdp_cybrbll","Wed Mar 29 2023 12:04:26 GMT-0700 (Pacific Daylight Time)","481132","1","3","","","","","","","","","","161","","","","2","3","[{""stimulus"":""img/2to3/1.png"",""time"":102},{""stimulus"":""img/2to3/2.png"",""time"":211},{""stimulus"":""img/2to3/3.png"",""time"":309},{""stimulus"":""img/2to3/4.png"",""time"":405},{""stimulus"":""img/2to3/5.png"",""time"":509},{""stimulus"":""img/2to3/6.png"",""time"":603},{""stimulus"":""img/2to3/7.png"",""time"":705},{""stimulus"":""img/2to3/8.png"",""time"":802},{""stimulus"":""img/2to3/9.png"",""time"":899},{""stimulus"":""img/2to3/10.png"",""time"":994},{""stimulus"":""img/2to3/11.png"",""time"":1101},{""stimulus"":""img/2to3/12.png"",""time"":1191}]","[]"
"image-keyboard-response","134","191595","0.0-5.0-1.65","61086469e5457fed4f164b8e","bdp_cybrbll","Wed Mar 29 2023 12:04:26 GMT-0700 (Pacific Daylight Time)","481132","1","3","","null","","","","observe","","img/3to2/1.png","null","160","634","0.5","0.5","3","2","",""
"animation","135","192898","0.0-5.0-2.65","61086469e5457fed4f164b8e","bdp_cybrbll","Wed Mar 29 2023 12:04:26 GMT-0700 (Pacific Daylight Time)","481132","1","3","","","","","","","","","","160","","","","3","2","[{""stimulus"":""img/3to2/1.png"",""time"":112},{""stimulus"":""img/3to2/2.png"",""time"":205},{""stimulus"":""img/3to2/3.png"",""time"":312},{""stimulus"":""img/3to2/4.png"",""time"":410},{""stimulus"":""img/3to2/5.png"",""time"":504},{""stimulus"":""img/3to2/6.png"",""time"":598},{""stimulus"":""img/3to2/7.png"",""time"":702},{""stimulus"":""img/3to2/8.png"",""time"":795},{""stimulus"":""img/3to2/9.png"",""time"":908},{""stimulus"":""img/3to2/10.png"",""time"":1004},{""stimulus"":""img/3to2/11.png"",""time"":1095},{""stimulus"":""img/3to2/12.png"",""time"":1193}]","[]"
"image-keyboard-response","136","193192","0.0-5.0-1.66","61086469e5457fed4f164b8e","bdp_cybrbll","Wed Mar 29 2023 12:04:26 GMT-0700 (Pacific Daylight Time)","481132","1","3","","294","","","","choice","","img/2to1/1.png","1","159","609","0.5","0.5","2","1","",""
"animation","137","194490","0.0-5.0-2.66","61086469e5457fed4f164b8e","bdp_cybrbll","Wed Mar 29 2023 12:04:26 GMT-0700 (Pacific Daylight Time)","481132","1","3","","","","","","","","","","159","","","","2","1","[{""stimulus"":""img/2to1/1.png"",""time"":114},{""stimulus"":""img/2to1/2.png"",""time"":209},{""stimulus"":""img/2to1/3.png"",""time"":300},{""stimulus"":""img/2to1/4.png"",""time"":399},{""stimulus"":""img/2to1/5.png"",""time"":498},{""stimulus"":""img/2to1/6.png"",""time"":596},{""stimulus"":""img/2to1/7.png"",""time"":706},{""stimulus"":""img/2to1/8.png"",""time"":800},{""stimulus"":""img/2to1/9.png"",""time"":903},{""stimulus"":""img/2to1/10.png"",""time"":1000},{""stimulus"":""img/2to1/11.png"",""time"":1097},{""stimulus"":""img/2to1/12.png"",""time"":1200}]","[]"
"image-keyboard-response","138","194702","0.0-5.0-1.67","61086469e5457fed4f164b8e","bdp_cybrbll","Wed Mar 29 2023 12:04:26 GMT-0700 (Pacific Daylight Time)","481132","1","3","","null","","","","observe","","img/1to3/1.png","null","158","208","0.5","0.5","1","3","",""
"animation","139","195997","0.0-5.0-2.67","61086469e5457fed4f164b8e","bdp_cybrbll","Wed Mar 29 2023 12:04:26 GMT-0700 (Pacific Daylight Time)","481132","1","3","","","","","","","","","","158","","","","1","3","[{""stimulus"":""img/1to3/1.png"",""time"":111},{""stimulus"":""img/1to3/2.png"",""time"":199},{""stimulus"":""img/1to3/3.png"",""time"":306},{""stimulus"":""img/1to3/4.png"",""time"":405},{""stimulus"":""img/1to3/5.png"",""time"":504},{""stimulus"":""img/1to3/6.png"",""time"":605},{""stimulus"":""img/1to3/7.png"",""time"":698},{""stimulus"":""img/1to3/8.png"",""time"":805},{""stimulus"":""img/1to3/9.png"",""time"":895},{""stimulus"":""img/1to3/10.png"",""time"":1004},{""stimulus"":""img/1to3/11.png"",""time"":1096},{""stimulus"":""img/1to3/12.png"",""time"":1191}]","[]"
"image-keyboard-response","140","196914","0.0-5.0-1.68","61086469e5457fed4f164b8e","bdp_cybrbll","Wed Mar 29 2023 12:04:26 GMT-0700 (Pacific Daylight Time)","481132","1","3","","null","","","","observe","","img/3to2/1.png","null","157","911","0.5","0.5","3","2","",""
"animation","141","198206","0.0-5.0-2.68","61086469e5457fed4f164b8e","bdp_cybrbll","Wed Mar 29 2023 12:04:26 GMT-0700 (Pacific Daylight Time)","481132","1","3","","","","","","","","","","157","","","","3","2","[{""stimulus"":""img/3to2/1.png"",""time"":110},{""stimulus"":""img/3to2/2.png"",""time"":210},{""stimulus"":""img/3to2/3.png"",""time"":298},{""stimulus"":""img/3to2/4.png"",""time"":409},{""stimulus"":""img/3to2/5.png"",""time"":509},{""stimulus"":""img/3to2/6.png"",""time"":601},{""stimulus"":""img/3to2/7.png"",""time"":694},{""stimulus"":""img/3to2/8.png"",""time"":799},{""stimulus"":""img/3to2/9.png"",""time"":898},{""stimulus"":""img/3to2/10.png"",""time"":997},{""stimulus"":""img/3to2/11.png"",""time"":1093},{""stimulus"":""img/3to2/12.png"",""time"":1193}]","[]"
"image-keyboard-response","142","198531","0.0-5.0-1.69","61086469e5457fed4f164b8e","bdp_cybrbll","Wed Mar 29 2023 12:04:26 GMT-0700 (Pacific Daylight Time)","481132","1","3","","324","","","","choice","","img/2to1/1.png","2","156","318","0.5","0.5","2","3","",""
"animation","143","199831","0.0-5.0-2.69","61086469e5457fed4f164b8e","bdp_cybrbll","Wed Mar 29 2023 12:04:26 GMT-0700 (Pacific Daylight Time)","481132","1","3","","","","","","","","","","156","","","","2","3","[{""stimulus"":""img/2to3/1.png"",""time"":108},{""stimulus"":""img/2to3/2.png"",""time"":205},{""stimulus"":""img/2to3/3.png"",""time"":302},{""stimulus"":""img/2to3/4.png"",""time"":408},{""stimulus"":""img/2to3/5.png"",""time"":498},{""stimulus"":""img/2to3/6.png"",""time"":599},{""stimulus"":""img/2to3/7.png"",""time"":700},{""stimulus"":""img/2to3/8.png"",""time"":807},{""stimulus"":""img/2to3/9.png"",""time"":904},{""stimulus"":""img/2to3/10.png"",""time"":1000},{""stimulus"":""img/2to3/11.png"",""time"":1100},{""stimulus"":""img/2to3/12.png"",""time"":1195}]","[]"
"image-keyboard-response","144","201411","0.0-5.0-1.70","61086469e5457fed4f164b8e","bdp_cybrbll","Wed Mar 29 2023 12:04:26 GMT-0700 (Pacific Daylight Time)","481132","1","3","","null","","","","observe","","img/3to2/1.png","null","155","1567","0.5","0.5","3","2","",""
"animation","145","202708","0.0-5.0-2.70","61086469e5457fed4f164b8e","bdp_cybrbll","Wed Mar 29 2023 12:04:26 GMT-0700 (Pacific Daylight Time)","481132","1","3","","","","","","","","","","155","","","","3","2","[{""stimulus"":""img/3to2/1.png"",""time"":110},{""stimulus"":""img/3to2/2.png"",""time"":208},{""stimulus"":""img/3to2/3.png"",""time"":305},{""stimulus"":""img/3to2/4.png"",""time"":412},{""stimulus"":""img/3to2/5.png"",""time"":497},{""stimulus"":""img/3to2/6.png"",""time"":603},{""stimulus"":""img/3to2/7.png"",""time"":701},{""stimulus"":""img/3to2/8.png"",""time"":803},{""stimulus"":""img/3to2/9.png"",""time"":898},{""stimulus"":""img/3to2/10.png"",""time"":1003},{""stimulus"":""img/3to2/11.png"",""time"":1103},{""stimulus"":""img/3to2/12.png"",""time"":1189}]","[]"
"image-keyboard-response","146","202758","0.0-5.0-1.71","61086469e5457fed4f164b8e","bdp_cybrbll","Wed Mar 29 2023 12:04:26 GMT-0700 (Pacific Daylight Time)","481132","1","3","","49","","","","choice","","img/2to1/1.png","1","154","495","0.5","0.5","2","1","",""
"animation","147","204053","0.0-5.0-2.71","61086469e5457fed4f164b8e","bdp_cybrbll","Wed Mar 29 2023 12:04:26 GMT-0700 (Pacific Daylight Time)","481132","1","3","","","","","","","","","","154","","","","2","1","[{""stimulus"":""img/2to1/1.png"",""time"":115},{""stimulus"":""img/2to1/2.png"",""time"":204},{""stimulus"":""img/2to1/3.png"",""time"":306},{""stimulus"":""img/2to1/4.png"",""time"":406},{""stimulus"":""img/2to1/5.png"",""time"":502},{""stimulus"":""img/2to1/6.png"",""time"":598},{""stimulus"":""img/2to1/7.png"",""time"":708},{""stimulus"":""img/2to1/8.png"",""time"":797},{""stimulus"":""img/2to1/9.png"",""time"":905},{""stimulus"":""img/2to1/10.png"",""time"":1006},{""stimulus"":""img/2to1/11.png"",""time"":1100},{""stimulus"":""img/2to1/12.png"",""time"":1197}]","[]"
"image-keyboard-response","148","204949","0.0-5.0-1.72","61086469e5457fed4f164b8e","bdp_cybrbll","Wed Mar 29 2023 12:04:26 GMT-0700 (Pacific Daylight Time)","481132","1","3","","null","","","","observe","","img/1to3/1.png","null","153","885","0.5","0.5","1","3","",""
"animation","149","206246","0.0-5.0-2.72","61086469e5457fed4f164b8e","bdp_cybrbll","Wed Mar 29 2023 12:04:26 GMT-0700 (Pacific Daylight Time)","481132","1","3","","","","","","","","","","153","","","","1","3","[{""stimulus"":""img/1to3/1.png"",""time"":111},{""stimulus"":""img/1to3/2.png"",""time"":209},{""stimulus"":""img/1to3/3.png"",""time"":298},{""stimulus"":""img/1to3/4.png"",""time"":407},{""stimulus"":""img/1to3/5.png"",""time"":506},{""stimulus"":""img/1to3/6.png"",""time"":598},{""stimulus"":""img/1to3/7.png"",""time"":708},{""stimulus"":""img/1to3/8.png"",""time"":808},{""stimulus"":""img/1to3/9.png"",""time"":906},{""stimulus"":""img/1to3/10.png"",""time"":996},{""stimulus"":""img/1to3/11.png"",""time"":1098},{""stimulus"":""img/1to3/12.png"",""time"":1191}]","[]"
"image-keyboard-response","150","206483","0.0-5.0-1.73","61086469e5457fed4f164b8e","bdp_cybrbll","Wed Mar 29 2023 12:04:26 GMT-0700 (Pacific Daylight Time)","481132","1","3","","null","","","","observe","","img/3to2/1.png","null","152","234","0.5","0.5","3","1","",""
"animation","151","207774","0.0-5.0-2.73","61086469e5457fed4f164b8e","bdp_cybrbll","Wed Mar 29 2023 12:04:26 GMT-0700 (Pacific Daylight Time)","481132","1","3","","","","","","","","","","152","","","","3","1","[{""stimulus"":""img/3to1/1.png"",""time"":112},{""stimulus"":""img/3to1/2.png"",""time"":209},{""stimulus"":""img/3to1/3.png"",""time"":308},{""stimulus"":""img/3to1/4.png"",""time"":406},{""stimulus"":""img/3to1/5.png"",""time"":504},{""stimulus"":""img/3to1/6.png"",""time"":603},{""stimulus"":""img/3to1/7.png"",""time"":706},{""stimulus"":""img/3to1/8.png"",""time"":803},{""stimulus"":""img/3to1/9.png"",""time"":901},{""stimulus"":""img/3to1/10.png"",""time"":991},{""stimulus"":""img/3to1/11.png"",""time"":1092},{""stimulus"":""img/3to1/12.png"",""time"":1192}]","[]"
"image-keyboard-response","152","208564","0.0-5.0-1.74","61086469e5457fed4f164b8e","bdp_cybrbll","Wed Mar 29 2023 12:04:26 GMT-0700 (Pacific Daylight Time)","481132","1","3","","null","","","","observe","","img/1to3/1.png","null","151","779","0.5","0.5","1","2","",""
"animation","153","209862","0.0-5.0-2.74","61086469e5457fed4f164b8e","bdp_cybrbll","Wed Mar 29 2023 12:04:26 GMT-0700 (Pacific Daylight Time)","481132","1","3","","","","","","","","","","151","","","","1","2","[{""stimulus"":""img/1to2/1.png"",""time"":111},{""stimulus"":""img/1to2/2.png"",""time"":204},{""stimulus"":""img/1to2/3.png"",""time"":311},{""stimulus"":""img/1to2/4.png"",""time"":401},{""stimulus"":""img/1to2/5.png"",""time"":499},{""stimulus"":""img/1to2/6.png"",""time"":608},{""stimulus"":""img/1to2/7.png"",""time"":699},{""stimulus"":""img/1to2/8.png"",""time"":794},{""stimulus"":""img/1to2/9.png"",""time"":899},{""stimulus"":""img/1to2/10.png"",""time"":999},{""stimulus"":""img/1to2/11.png"",""time"":1099},{""stimulus"":""img/1to2/12.png"",""time"":1192}]","[]"
"image-keyboard-response","154","210315","0.0-5.0-1.75","61086469e5457fed4f164b8e","bdp_cybrbll","Wed Mar 29 2023 12:04:26 GMT-0700 (Pacific Daylight Time)","481132","1","3","","452","","","","choice","","img/2to1/1.png","1","150","363","0.5","0.5","2","1","",""
"animation","155","211604","0.0-5.0-2.75","61086469e5457fed4f164b8e","bdp_cybrbll","Wed Mar 29 2023 12:04:26 GMT-0700 (Pacific Daylight Time)","481132","1","3","","","","","","","","","","150","","","","2","1","[{""stimulus"":""img/2to1/1.png"",""time"":107},{""stimulus"":""img/2to1/2.png"",""time"":201},{""stimulus"":""img/2to1/3.png"",""time"":308},{""stimulus"":""img/2to1/4.png"",""time"":402},{""stimulus"":""img/2to1/5.png"",""time"":499},{""stimulus"":""img/2to1/6.png"",""time"":599},{""stimulus"":""img/2to1/7.png"",""time"":706},{""stimulus"":""img/2to1/8.png"",""time"":803},{""stimulus"":""img/2to1/9.png"",""time"":900},{""stimulus"":""img/2to1/10.png"",""time"":998},{""stimulus"":""img/2to1/11.png"",""time"":1092},{""stimulus"":""img/2to1/12.png"",""time"":1191}]","[]"
"image-keyboard-response","156","212067","0.0-5.0-1.76","61086469e5457fed4f164b8e","bdp_cybrbll","Wed Mar 29 2023 12:04:26 GMT-0700 (Pacific Daylight Time)","481132","1","3","","null","","","","observe","","img/1to3/1.png","null","149","456","0.5","0.1","1","2","",""
"animation","157","213367","0.0-5.0-2.76","61086469e5457fed4f164b8e","bdp_cybrbll","Wed Mar 29 2023 12:04:26 GMT-0700 (Pacific Daylight Time)","481132","1","3","","","","","","","","","","149","","","","1","2","[{""stimulus"":""img/1to2/1.png"",""time"":111},{""stimulus"":""img/1to2/2.png"",""time"":208},{""stimulus"":""img/1to2/3.png"",""time"":309},{""stimulus"":""img/1to2/4.png"",""time"":398},{""stimulus"":""img/1to2/5.png"",""time"":497},{""stimulus"":""img/1to2/6.png"",""time"":600},{""stimulus"":""img/1to2/7.png"",""time"":707},{""stimulus"":""img/1to2/8.png"",""time"":803},{""stimulus"":""img/1to2/9.png"",""time"":903},{""stimulus"":""img/1to2/10.png"",""time"":999},{""stimulus"":""img/1to2/11.png"",""time"":1090},{""stimulus"":""img/1to2/12.png"",""time"":1204}]","[]"
"image-keyboard-response","158","213486","0.0-5.0-1.77","61086469e5457fed4f164b8e","bdp_cybrbll","Wed Mar 29 2023 12:04:26 GMT-0700 (Pacific Daylight Time)","481132","1","3","","118","","","","choice","","img/2to1/1.png","2","148","334","0.5","0.1","2","3","",""
"animation","159","214789","0.0-5.0-2.77","61086469e5457fed4f164b8e","bdp_cybrbll","Wed Mar 29 2023 12:04:26 GMT-0700 (Pacific Daylight Time)","481132","1","3","","","","","","","","","","148","","","","2","3","[{""stimulus"":""img/2to3/1.png"",""time"":114},{""stimulus"":""img/2to3/2.png"",""time"":204},{""stimulus"":""img/2to3/3.png"",""time"":306},{""stimulus"":""img/2to3/4.png"",""time"":403},{""stimulus"":""img/2to3/5.png"",""time"":498},{""stimulus"":""img/2to3/6.png"",""time"":595},{""stimulus"":""img/2to3/7.png"",""time"":710},{""stimulus"":""img/2to3/8.png"",""time"":795},{""stimulus"":""img/2to3/9.png"",""time"":893},{""stimulus"":""img/2to3/10.png"",""time"":1002},{""stimulus"":""img/2to3/11.png"",""time"":1100},{""stimulus"":""img/2to3/12.png"",""time"":1195}]","[]"
"image-keyboard-response","160","215880","0.0-5.0-1.78","61086469e5457fed4f164b8e","bdp_cybrbll","Wed Mar 29 2023 12:04:26 GMT-0700 (Pacific Daylight Time)","481132","1","3","","null","","","","observe","","img/3to2/1.png","null","147","1088","0.5","0.1","3","1","",""
"animation","161","217174","0.0-5.0-2.78","61086469e5457fed4f164b8e","bdp_cybrbll","Wed Mar 29 2023 12:04:26 GMT-0700 (Pacific Daylight Time)","481132","1","3","","","","","","","","","","147","","","","3","1","[{""stimulus"":""img/3to1/1.png"",""time"":111},{""stimulus"":""img/3to1/2.png"",""time"":198},{""stimulus"":""img/3to1/3.png"",""time"":313},{""stimulus"":""img/3to1/4.png"",""time"":409},{""stimulus"":""img/3to1/5.png"",""time"":507},{""stimulus"":""img/3to1/6.png"",""time"":595},{""stimulus"":""img/3to1/7.png"",""time"":695},{""stimulus"":""img/3to1/8.png"",""time"":796},{""stimulus"":""img/3to1/9.png"",""time"":894},{""stimulus"":""img/3to1/10.png"",""time"":996},{""stimulus"":""img/3to1/11.png"",""time"":1102},{""stimulus"":""img/3to1/12.png"",""time"":1195}]","[]"
"image-keyboard-response","162","217455","0.0-5.0-1.79","61086469e5457fed4f164b8e","bdp_cybrbll","Wed Mar 29 2023 12:04:26 GMT-0700 (Pacific Daylight Time)","481132","1","3","","null","","","","observe","","img/1to3/1.png","null","146","265","0.5","0.1","1","3","",""
"animation","163","218755","0.0-5.0-2.79","61086469e5457fed4f164b8e","bdp_cybrbll","Wed Mar 29 2023 12:04:26 GMT-0700 (Pacific Daylight Time)","481132","1","3","","","","","","","","","","146","","","","1","3","[{""stimulus"":""img/1to3/1.png"",""time"":112},{""stimulus"":""img/1to3/2.png"",""time"":221},{""stimulus"":""img/1to3/3.png"",""time"":304},{""stimulus"":""img/1to3/4.png"",""time"":409},{""stimulus"":""img/1to3/5.png"",""time"":502},{""stimulus"":""img/1to3/6.png"",""time"":595},{""stimulus"":""img/1to3/7.png"",""time"":709},{""stimulus"":""img/1to3/8.png"",""time"":806},{""stimulus"":""img/1to3/9.png"",""time"":903},{""stimulus"":""img/1to3/10.png"",""time"":1002},{""stimulus"":""img/1to3/11.png"",""time"":1093},{""stimulus"":""img/1to3/12.png"",""time"":1192}]","[]"
"image-keyboard-response","164","219144","0.0-5.0-1.80","61086469e5457fed4f164b8e","bdp_cybrbll","Wed Mar 29 2023 12:04:26 GMT-0700 (Pacific Daylight Time)","481132","1","3","","null","","","","observe","","img/3to2/1.png","null","145","388","0.5","0.1","3","1","",""
"animation","165","220439","0.0-5.0-2.80","61086469e5457fed4f164b8e","bdp_cybrbll","Wed Mar 29 2023 12:04:26 GMT-0700 (Pacific Daylight Time)","481132","1","3","","","","","","","","","","145","","","","3","1","[{""stimulus"":""img/3to1/1.png"",""time"":110},{""stimulus"":""img/3to1/2.png"",""time"":207},{""stimulus"":""img/3to1/3.png"",""time"":298},{""stimulus"":""img/3to1/4.png"",""time"":411},{""stimulus"":""img/3to1/5.png"",""time"":506},{""stimulus"":""img/3to1/6.png"",""time"":597},{""stimulus"":""img/3to1/7.png"",""time"":696},{""stimulus"":""img/3to1/8.png"",""time"":804},{""stimulus"":""img/3to1/9.png"",""time"":895},{""stimulus"":""img/3to1/10.png"",""time"":1003},{""stimulus"":""img/3to1/11.png"",""time"":1103},{""stimulus"":""img/3to1/12.png"",""time"":1195}]","[]"
"image-keyboard-response","166","220865","0.0-5.0-1.81","61086469e5457fed4f164b8e","bdp_cybrbll","Wed Mar 29 2023 12:04:26 GMT-0700 (Pacific Daylight Time)","481132","1","3","","null","","","","observe","","img/1to3/1.png","null","144","421","0.5","0.1","1","3","",""
"animation","167","222156","0.0-5.0-2.81","61086469e5457fed4f164b8e","bdp_cybrbll","Wed Mar 29 2023 12:04:26 GMT-0700 (Pacific Daylight Time)","481132","1","3","","","","","","","","","","144","","","","1","3","[{""stimulus"":""img/1to3/1.png"",""time"":111},{""stimulus"":""img/1to3/2.png"",""time"":210},{""stimulus"":""img/1to3/3.png"",""time"":309},{""stimulus"":""img/1to3/4.png"",""time"":410},{""stimulus"":""img/1to3/5.png"",""time"":510},{""stimulus"":""img/1to3/6.png"",""time"":602},{""stimulus"":""img/1to3/7.png"",""time"":700},{""stimulus"":""img/1to3/8.png"",""time"":793},{""stimulus"":""img/1to3/9.png"",""time"":901},{""stimulus"":""img/1to3/10.png"",""time"":999},{""stimulus"":""img/1to3/11.png"",""time"":1094},{""stimulus"":""img/1to3/12.png"",""time"":1199}]","[]"
"image-keyboard-response","168","222763","0.0-5.0-1.82","61086469e5457fed4f164b8e","bdp_cybrbll","Wed Mar 29 2023 12:04:26 GMT-0700 (Pacific Daylight Time)","481132","1","3","","null","","","","observe","","img/3to2/1.png","null","143","598","0.5","0.1","3","1","",""
"animation","169","224058","0.0-5.0-2.82","61086469e5457fed4f164b8e","bdp_cybrbll","Wed Mar 29 2023 12:04:26 GMT-0700 (Pacific Daylight Time)","481132","1","3","","","","","","","","","","143","","","","3","1","[{""stimulus"":""img/3to1/1.png"",""time"":111},{""stimulus"":""img/3to1/2.png"",""time"":199},{""stimulus"":""img/3to1/3.png"",""time"":312},{""stimulus"":""img/3to1/4.png"",""time"":412},{""stimulus"":""img/3to1/5.png"",""time"":503},{""stimulus"":""img/3to1/6.png"",""time"":602},{""stimulus"":""img/3to1/7.png"",""time"":709},{""stimulus"":""img/3to1/8.png"",""time"":797},{""stimulus"":""img/3to1/9.png"",""time"":893},{""stimulus"":""img/3to1/10.png"",""time"":994},{""stimulus"":""img/3to1/11.png"",""time"":1095},{""stimulus"":""img/3to1/12.png"",""time"":1199}]","[]"
"image-keyboard-response","170","224408","0.0-5.0-1.83","61086469e5457fed4f164b8e","bdp_cybrbll","Wed Mar 29 2023 12:04:26 GMT-0700 (Pacific Daylight Time)","481132","1","3","","null","","","","observe","","img/1to3/1.png","null","142","344","0.5","0.1","1","2","",""
"animation","171","225698","0.0-5.0-2.83","61086469e5457fed4f164b8e","bdp_cybrbll","Wed Mar 29 2023 12:04:26 GMT-0700 (Pacific Daylight Time)","481132","1","3","","","","","","","","","","142","","","","1","2","[{""stimulus"":""img/1to2/1.png"",""time"":112},{""stimulus"":""img/1to2/2.png"",""time"":200},{""stimulus"":""img/1to2/3.png"",""time"":300},{""stimulus"":""img/1to2/4.png"",""time"":401},{""stimulus"":""img/1to2/5.png"",""time"":501},{""stimulus"":""img/1to2/6.png"",""time"":599},{""stimulus"":""img/1to2/7.png"",""time"":707},{""stimulus"":""img/1to2/8.png"",""time"":801},{""stimulus"":""img/1to2/9.png"",""time"":899},{""stimulus"":""img/1to2/10.png"",""time"":999},{""stimulus"":""img/1to2/11.png"",""time"":1101},{""stimulus"":""img/1to2/12.png"",""time"":1192}]","[]"
"image-keyboard-response","172","225710","0.0-5.0-1.84","61086469e5457fed4f164b8e","bdp_cybrbll","Wed Mar 29 2023 12:04:26 GMT-0700 (Pacific Daylight Time)","481132","1","3","","11","","","","choice","","img/2to1/1.png","1","141","1203","0.5","0.1","2","1","",""
"animation","173","227011","0.0-5.0-2.84","61086469e5457fed4f164b8e","bdp_cybrbll","Wed Mar 29 2023 12:04:26 GMT-0700 (Pacific Daylight Time)","481132","1","3","","","","","","","","","","141","","","","2","1","[{""stimulus"":""img/2to1/1.png"",""time"":112},{""stimulus"":""img/2to1/2.png"",""time"":206},{""stimulus"":""img/2to1/3.png"",""time"":312},{""stimulus"":""img/2to1/4.png"",""time"":403},{""stimulus"":""img/2to1/5.png"",""time"":496},{""stimulus"":""img/2to1/6.png"",""time"":606},{""stimulus"":""img/2to1/7.png"",""time"":697},{""stimulus"":""img/2to1/8.png"",""time"":795},{""stimulus"":""img/2to1/9.png"",""time"":892},{""stimulus"":""img/2to1/10.png"",""time"":994},{""stimulus"":""img/2to1/11.png"",""time"":1105},{""stimulus"":""img/2to1/12.png"",""time"":1188}]","[]"
"image-keyboard-response","174","227857","0.0-5.0-1.85","61086469e5457fed4f164b8e","bdp_cybrbll","Wed Mar 29 2023 12:04:26 GMT-0700 (Pacific Daylight Time)","481132","1","3","","null","","","","observe","","img/1to3/1.png","null","140","837","0.5","0.1","1","2","",""
"animation","175","229157","0.0-5.0-2.85","61086469e5457fed4f164b8e","bdp_cybrbll","Wed Mar 29 2023 12:04:26 GMT-0700 (Pacific Daylight Time)","481132","1","3","","","","","","","","","","140","","","","1","2","[{""stimulus"":""img/1to2/1.png"",""time"":111},{""stimulus"":""img/1to2/2.png"",""time"":212},{""stimulus"":""img/1to2/3.png"",""time"":301},{""stimulus"":""img/1to2/4.png"",""time"":409},{""stimulus"":""img/1to2/5.png"",""time"":501},{""stimulus"":""img/1to2/6.png"",""time"":599},{""stimulus"":""img/1to2/7.png"",""time"":710},{""stimulus"":""img/1to2/8.png"",""time"":802},{""stimulus"":""img/1to2/9.png"",""time"":907},{""stimulus"":""img/1to2/10.png"",""time"":1001},{""stimulus"":""img/1to2/11.png"",""time"":1098},{""stimulus"":""img/1to2/12.png"",""time"":1193}]","[]"
"image-keyboard-response","176","229651","0.0-5.0-1.86","61086469e5457fed4f164b8e","bdp_cybrbll","Wed Mar 29 2023 12:04:26 GMT-0700 (Pacific Daylight Time)","481132","1","3","","492","","","","choice","","img/2to1/1.png","1","139","1471","0.5","0.1","2","1","",""
"animation","177","230949","0.0-5.0-2.86","61086469e5457fed4f164b8e","bdp_cybrbll","Wed Mar 29 2023 12:04:26 GMT-0700 (Pacific Daylight Time)","481132","1","3","","","","","","","","","","139","","","","2","1","[{""stimulus"":""img/2to1/1.png"",""time"":115},{""stimulus"":""img/2to1/2.png"",""time"":206},{""stimulus"":""img/2to1/3.png"",""time"":299},{""stimulus"":""img/2to1/4.png"",""time"":407},{""stimulus"":""img/2to1/5.png"",""time"":508},{""stimulus"":""img/2to1/6.png"",""time"":606},{""stimulus"":""img/2to1/7.png"",""time"":706},{""stimulus"":""img/2to1/8.png"",""time"":795},{""stimulus"":""img/2to1/9.png"",""time"":893},{""stimulus"":""img/2to1/10.png"",""time"":992},{""stimulus"":""img/2to1/11.png"",""time"":1105},{""stimulus"":""img/2to1/12.png"",""time"":1190}]","[]"
"image-keyboard-response","178","231754","0.0-5.0-1.87","61086469e5457fed4f164b8e","bdp_cybrbll","Wed Mar 29 2023 12:04:26 GMT-0700 (Pacific Daylight Time)","481132","1","3","","null","","","","observe","","img/1to3/1.png","null","138","799","0.5","0.1","1","3","",""
"animation","179","233057","0.0-5.0-2.87","61086469e5457fed4f164b8e","bdp_cybrbll","Wed Mar 29 2023 12:04:26 GMT-0700 (Pacific Daylight Time)","481132","1","3","","","","","","","","","","138","","","","1","3","[{""stimulus"":""img/1to3/1.png"",""time"":112},{""stimulus"":""img/1to3/2.png"",""time"":204},{""stimulus"":""img/1to3/3.png"",""time"":305},{""stimulus"":""img/1to3/4.png"",""time"":411},{""stimulus"":""img/1to3/5.png"",""time"":507},{""stimulus"":""img/1to3/6.png"",""time"":603},{""stimulus"":""img/1to3/7.png"",""time"":697},{""stimulus"":""img/1to3/8.png"",""time"":794},{""stimulus"":""img/1to3/9.png"",""time"":899},{""stimulus"":""img/1to3/10.png"",""time"":1003},{""stimulus"":""img/1to3/11.png"",""time"":1105},{""stimulus"":""img/1to3/12.png"",""time"":1204}]","[]"
"image-keyboard-response","180","233248","0.0-5.0-1.88","61086469e5457fed4f164b8e","bdp_cybrbll","Wed Mar 29 2023 12:04:26 GMT-0700 (Pacific Daylight Time)","481132","1","3","","null","","","","observe","","img/3to2/1.png","null","137","180","0.5","0.1","3","1","",""
"animation","181","234548","0.0-5.0-2.88","61086469e5457fed4f164b8e","bdp_cybrbll","Wed Mar 29 2023 12:04:26 GMT-0700 (Pacific Daylight Time)","481132","1","3","","","","","","","","","","137","","","","3","1","[{""stimulus"":""img/3to1/1.png"",""time"":112},{""stimulus"":""img/3to1/2.png"",""time"":204},{""stimulus"":""img/3to1/3.png"",""time"":310},{""stimulus"":""img/3to1/4.png"",""time"":410},{""stimulus"":""img/3to1/5.png"",""time"":503},{""stimulus"":""img/3to1/6.png"",""time"":609},{""stimulus"":""img/3to1/7.png"",""time"":704},{""stimulus"":""img/3to1/8.png"",""time"":793},{""stimulus"":""img/3to1/9.png"",""time"":908},{""stimulus"":""img/3to1/10.png"",""time"":1006},{""stimulus"":""img/3to1/11.png"",""time"":1104},{""stimulus"":""img/3to1/12.png"",""time"":1192}]","[]"
"image-keyboard-response","182","234924","0.0-5.0-1.89","61086469e5457fed4f164b8e","bdp_cybrbll","Wed Mar 29 2023 12:04:26 GMT-0700 (Pacific Daylight Time)","481132","1","3","","null","","","","observe","","img/1to3/1.png","null","136","375","0.5","0.1","1","2","",""
"animation","183","236218","0.0-5.0-2.89","61086469e5457fed4f164b8e","bdp_cybrbll","Wed Mar 29 2023 12:04:26 GMT-0700 (Pacific Daylight Time)","481132","1","3","","","","","","","","","","136","","","","1","2","[{""stimulus"":""img/1to2/1.png"",""time"":111},{""stimulus"":""img/1to2/2.png"",""time"":200},{""stimulus"":""img/1to2/3.png"",""time"":299},{""stimulus"":""img/1to2/4.png"",""time"":408},{""stimulus"":""img/1to2/5.png"",""time"":507},{""stimulus"":""img/1to2/6.png"",""time"":600},{""stimulus"":""img/1to2/7.png"",""time"":707},{""stimulus"":""img/1to2/8.png"",""time"":804},{""stimulus"":""img/1to2/9.png"",""time"":905},{""stimulus"":""img/1to2/10.png"",""time"":1005},{""stimulus"":""img/1to2/11.png"",""time"":1099},{""stimulus"":""img/1to2/12.png"",""time"":1196}]","[]"
"image-keyboard-response","184","236354","0.0-5.0-1.90","61086469e5457fed4f164b8e","bdp_cybrbll","Wed Mar 29 2023 12:04:26 GMT-0700 (Pacific Daylight Time)","481132","1","3","","135","","","","choice","","img/2to1/1.png","1","135","1194","0.5","0.1","2","1","",""
"animation","185","237660","0.0-5.0-2.90","61086469e5457fed4f164b8e","bdp_cybrbll","Wed Mar 29 2023 12:04:26 GMT-0700 (Pacific Daylight Time)","481132","1","3","","","","","","","","","","135","","","","2","1","[{""stimulus"":""img/2to1/1.png"",""time"":101},{""stimulus"":""img/2to1/2.png"",""time"":212},{""stimulus"":""img/2to1/3.png"",""time"":304},{""stimulus"":""img/2to1/4.png"",""time"":405},{""stimulus"":""img/2to1/5.png"",""time"":504},{""stimulus"":""img/2to1/6.png"",""time"":601},{""stimulus"":""img/2to1/7.png"",""time"":695},{""stimulus"":""img/2to1/8.png"",""time"":804},{""stimulus"":""img/2to1/9.png"",""time"":904},{""stimulus"":""img/2to1/10.png"",""time"":1002},{""stimulus"":""img/2to1/11.png"",""time"":1100},{""stimulus"":""img/2to1/12.png"",""time"":1202}]","[]"
"image-keyboard-response","186","238323","0.0-5.0-1.91","61086469e5457fed4f164b8e","bdp_cybrbll","Wed Mar 29 2023 12:04:26 GMT-0700 (Pacific Daylight Time)","481132","1","3","","null","","","","observe","","img/1to3/1.png","null","134","647","0.5","0.1","1","3","",""
"animation","187","239623","0.0-5.0-2.91","61086469e5457fed4f164b8e","bdp_cybrbll","Wed Mar 29 2023 12:04:26 GMT-0700 (Pacific Daylight Time)","481132","1","3","","","","","","","","","","134","","","","1","3","[{""stimulus"":""img/1to3/1.png"",""time"":111},{""stimulus"":""img/1to3/2.png"",""time"":202},{""stimulus"":""img/1to3/3.png"",""time"":307},{""stimulus"":""img/1to3/4.png"",""time"":405},{""stimulus"":""img/1to3/5.png"",""time"":503},{""stimulus"":""img/1to3/6.png"",""time"":609},{""stimulus"":""img/1to3/7.png"",""time"":705},{""stimulus"":""img/1to3/8.png"",""time"":806},{""stimulus"":""img/1to3/9.png"",""time"":904},{""stimulus"":""img/1to3/10.png"",""time"":1007},{""stimulus"":""img/1to3/11.png"",""time"":1101},{""stimulus"":""img/1to3/12.png"",""time"":1190}]","[]"
"image-keyboard-response","188","240035","0.0-5.0-1.92","61086469e5457fed4f164b8e","bdp_cybrbll","Wed Mar 29 2023 12:04:26 GMT-0700 (Pacific Daylight Time)","481132","1","3","","null","","","","observe","","img/3to2/1.png","null","133","409","0.5","0.1","3","1","",""
"animation","189","241323","0.0-5.0-2.92","61086469e5457fed4f164b8e","bdp_cybrbll","Wed Mar 29 2023 12:04:26 GMT-0700 (Pacific Daylight Time)","481132","1","3","","","","","","","","","","133","","","","3","1","[{""stimulus"":""img/3to1/1.png"",""time"":112},{""stimulus"":""img/3to1/2.png"",""time"":201},{""stimulus"":""img/3to1/3.png"",""time"":307},{""stimulus"":""img/3to1/4.png"",""time"":408},{""stimulus"":""img/3to1/5.png"",""time"":505},{""stimulus"":""img/3to1/6.png"",""time"":609},{""stimulus"":""img/3to1/7.png"",""time"":709},{""stimulus"":""img/3to1/8.png"",""time"":808},{""stimulus"":""img/3to1/9.png"",""time"":898},{""stimulus"":""img/3to1/10.png"",""time"":997},{""stimulus"":""img/3to1/11.png"",""time"":1092},{""stimulus"":""img/3to1/12.png"",""time"":1196}]","[]"
"image-keyboard-response","190","241944","0.0-5.0-1.93","61086469e5457fed4f164b8e","bdp_cybrbll","Wed Mar 29 2023 12:04:26 GMT-0700 (Pacific Daylight Time)","481132","1","3","","null","","","","observe","","img/1to3/1.png","null","132","616","0.5","0.1","1","2","",""
