"event","trial","time","trialtype","subject_id","task","startTime","totalTime","fairPartner","unfairPartner","trial_type","trial_index","time_elapsed","internal_node_id","view_history","rt","success","stimulus","key_press","throwsLeft","rtDur","pFair","pUnfair","holder","receiver","animation_sequence","responses"
"focus","0","0","focusevent","63d9f41910c61f3eb102079f","bdp_cybrbll","Sat Apr 01 2023 18:46:23 GMT-0500 (Central Daylight Time)","504222","3","1","","","","","","","","","","","","","","","","",""
"","","","","63d9f41910c61f3eb102079f","bdp_cybrbll","Sat Apr 01 2023 18:46:23 GMT-0500 (Central Daylight Time)","504222","3","1","pavlovia","0","7","0.0-0.0","","","","","","","","","","","","",""
"","","","","63d9f41910c61f3eb102079f","bdp_cybrbll","Sat Apr 01 2023 18:46:23 GMT-0500 (Central Daylight Time)","504222","3","1","instructions","1","3405","0.0-1.0","[{""page_index"":0,""viewing_time"":3396}]","3396","","","","","","","","","","",""
"fullscreenexit","2","9624","fullscreenexit","63d9f41910c61f3eb102079f","bdp_cybrbll","Sat Apr 01 2023 18:46:23 GMT-0500 (Central Daylight Time)","504222","3","1","","","","","","","","","","","","","","","","",""
"","","","","63d9f41910c61f3eb102079f","bdp_cybrbll","Sat Apr 01 2023 18:46:23 GMT-0500 (Central Daylight Time)","504222","3","1","fullscreen","2","10616","0.0-2.0","","","true","","","","","","","","","",""
"","","","fullscreenfail","63d9f41910c61f3eb102079f","bdp_cybrbll","Sat Apr 01 2023 18:46:23 GMT-0500 (Central Daylight Time)","504222","3","1","image-keyboard-response","3","12012","0.0-3.0-0.0","","1390","","","32","","","","","","","",""
"","","","","63d9f41910c61f3eb102079f","bdp_cybrbll","Sat Apr 01 2023 18:46:23 GMT-0500 (Central Daylight Time)","504222","3","1","instructions","4","65181","0.0-4.0","[{""page_index"":0,""viewing_time"":52916}]","52916","","","","","","","","","","",""
"","","","choice","63d9f41910c61f3eb102079f","bdp_cybrbll","Sat Apr 01 2023 18:46:23 GMT-0500 (Central Daylight Time)","504222","3","1","image-keyboard-response","5","67786","0.0-5.0-1.0","","2602","","img/2to1/1.png","1","225","285","0.5","0.5","2","1","",""
"","","","","63d9f41910c61f3eb102079f","bdp_cybrbll","Sat Apr 01 2023 18:46:23 GMT-0500 (Central Daylight Time)","504222","3","1","animation","6","69203","0.0-5.0-2.0","","","","","","225","","","","2","1","[{""stimulus"":""img/2to1/1.png"",""time"":103},{""stimulus"":""img/2to1/2.png"",""time"":214},{""stimulus"":""img/2to1/3.png"",""time"":323},{""stimulus"":""img/2to1/4.png"",""time"":433},{""stimulus"":""img/2to1/5.png"",""time"":543},{""stimulus"":""img/2to1/6.png"",""time"":651},{""stimulus"":""img/2to1/7.png"",""time"":761},{""stimulus"":""img/2to1/8.png"",""time"":870},{""stimulus"":""img/2to1/9.png"",""time"":978},{""stimulus"":""img/2to1/10.png"",""time"":1088},{""stimulus"":""img/2to1/11.png"",""time"":1197},{""stimulus"":""img/2to1/12.png"",""time"":1307}]","[]"
"","","","observe","63d9f41910c61f3eb102079f","bdp_cybrbll","Sat Apr 01 2023 18:46:23 GMT-0500 (Central Daylight Time)","504222","3","1","image-keyboard-response","7","70314","0.0-5.0-1.1","","null","","img/1to3/1.png","null","224","1092","0.5","0.5","1","3","",""
"","","","","63d9f41910c61f3eb102079f","bdp_cybrbll","Sat Apr 01 2023 18:46:23 GMT-0500 (Central Daylight Time)","504222","3","1","animation","8","71729","0.0-5.0-2.1","","","","","","224","","","","1","3","[{""stimulus"":""img/1to3/1.png"",""time"":107},{""stimulus"":""img/1to3/2.png"",""time"":214},{""stimulus"":""img/1to3/3.png"",""time"":324},{""stimulus"":""img/1to3/4.png"",""time"":434},{""stimulus"":""img/1to3/5.png"",""time"":542},{""stimulus"":""img/1to3/6.png"",""time"":651},{""stimulus"":""img/1to3/7.png"",""time"":762},{""stimulus"":""img/1to3/8.png"",""time"":871},{""stimulus"":""img/1to3/9.png"",""time"":981},{""stimulus"":""img/1to3/10.png"",""time"":1088},{""stimulus"":""img/1to3/11.png"",""time"":1196},{""stimulus"":""img/1to3/12.png"",""time"":1305}]","[]"
"","","","observe","63d9f41910c61f3eb102079f","bdp_cybrbll","Sat Apr 01 2023 18:46:23 GMT-0500 (Central Daylight Time)","504222","3","1","image-keyboard-response","9","72086","0.0-5.0-1.2","","null","","img/3to2/1.png","null","223","351","0.5","0.5","3","1","",""
"","","","","63d9f41910c61f3eb102079f","bdp_cybrbll","Sat Apr 01 2023 18:46:23 GMT-0500 (Central Daylight Time)","504222","3","1","animation","10","73506","0.0-5.0-2.2","","","","","","223","","","","3","1","[{""stimulus"":""img/3to1/1.png"",""time"":108},{""stimulus"":""img/3to1/2.png"",""time"":217},{""stimulus"":""img/3to1/3.png"",""time"":327},{""stimulus"":""img/3to1/4.png"",""time"":437},{""stimulus"":""img/3to1/5.png"",""time"":545},{""stimulus"":""img/3to1/6.png"",""time"":656},{""stimulus"":""img/3to1/7.png"",""time"":765},{""stimulus"":""img/3to1/8.png"",""time"":874},{""stimulus"":""img/3to1/9.png"",""time"":983},{""stimulus"":""img/3to1/10.png"",""time"":1092},{""stimulus"":""img/3to1/11.png"",""time"":1201},{""stimulus"":""img/3to1/12.png"",""time"":1311}]","[]"
"","","","observe","63d9f41910c61f3eb102079f","bdp_cybrbll","Sat Apr 01 2023 18:46:23 GMT-0500 (Central Daylight Time)","504222","3","1","image-keyboard-response","11","73692","0.0-5.0-1.3","","null","","img/1to3/1.png","null","222","169","0.5","0.5","1","2","",""
"","","","","63d9f41910c61f3eb102079f","bdp_cybrbll","Sat Apr 01 2023 18:46:23 GMT-0500 (Central Daylight Time)","504222","3","1","animation","12","75105","0.0-5.0-2.3","","","","","","222","","","","1","2","[{""stimulus"":""img/1to2/1.png"",""time"":109},{""stimulus"":""img/1to2/2.png"",""time"":218},{""stimulus"":""img/1to2/3.png"",""time"":328},{""stimulus"":""img/1to2/4.png"",""time"":434},{""stimulus"":""img/1to2/5.png"",""time"":545},{""stimulus"":""img/1to2/6.png"",""time"":652},{""stimulus"":""img/1to2/7.png"",""time"":759},{""stimulus"":""img/1to2/8.png"",""time"":869},{""stimulus"":""img/1to2/9.png"",""time"":977},{""stimulus"":""img/1to2/10.png"",""time"":1087},{""stimulus"":""img/1to2/11.png"",""time"":1195},{""stimulus"":""img/1to2/12.png"",""time"":1304}]","[]"
"","","","choice","63d9f41910c61f3eb102079f","bdp_cybrbll","Sat Apr 01 2023 18:46:23 GMT-0500 (Central Daylight Time)","504222","3","1","image-keyboard-response","13","76318","0.0-5.0-1.4","","1211","","img/2to1/1.png","1","221","367","0.5","0.5","2","1","",""
"","","","","63d9f41910c61f3eb102079f","bdp_cybrbll","Sat Apr 01 2023 18:46:23 GMT-0500 (Central Daylight Time)","504222","3","1","animation","14","77720","0.0-5.0-2.4","","","","","","221","","","","2","1","[{""stimulus"":""img/2to1/1.png"",""time"":103},{""stimulus"":""img/2to1/2.png"",""time"":211},{""stimulus"":""img/2to1/3.png"",""time"":319},{""stimulus"":""img/2to1/4.png"",""time"":427},{""stimulus"":""img/2to1/5.png"",""time"":535},{""stimulus"":""img/2to1/6.png"",""time"":642},{""stimulus"":""img/2to1/7.png"",""time"":750},{""stimulus"":""img/2to1/8.png"",""time"":860},{""stimulus"":""img/2to1/9.png"",""time"":969},{""stimulus"":""img/2to1/10.png"",""time"":1078},{""stimulus"":""img/2to1/11.png"",""time"":1184},{""stimulus"":""img/2to1/12.png"",""time"":1293}]","[]"
"","","","observe","63d9f41910c61f3eb102079f","bdp_cybrbll","Sat Apr 01 2023 18:46:23 GMT-0500 (Central Daylight Time)","504222","3","1","image-keyboard-response","15","77967","0.0-5.0-1.5","","null","","img/1to3/1.png","null","220","243","0.5","0.5","1","2","",""
"","","","","63d9f41910c61f3eb102079f","bdp_cybrbll","Sat Apr 01 2023 18:46:23 GMT-0500 (Central Daylight Time)","504222","3","1","animation","16","79372","0.0-5.0-2.5","","","","","","220","","","","1","2","[{""stimulus"":""img/1to2/1.png"",""time"":108},{""stimulus"":""img/1to2/2.png"",""time"":217},{""stimulus"":""img/1to2/3.png"",""time"":325},{""stimulus"":""img/1to2/4.png"",""time"":433},{""stimulus"":""img/1to2/5.png"",""time"":541},{""stimulus"":""img/1to2/6.png"",""time"":649},{""stimulus"":""img/1to2/7.png"",""time"":756},{""stimulus"":""img/1to2/8.png"",""time"":865},{""stimulus"":""img/1to2/9.png"",""time"":974},{""stimulus"":""img/1to2/10.png"",""time"":1083},{""stimulus"":""img/1to2/11.png"",""time"":1190},{""stimulus"":""img/1to2/12.png"",""time"":1299}]","[]"
"","","","choice","63d9f41910c61f3eb102079f","bdp_cybrbll","Sat Apr 01 2023 18:46:23 GMT-0500 (Central Daylight Time)","504222","3","1","image-keyboard-response","17","80928","0.0-5.0-1.6","","1554","","img/2to1/1.png","2","219","450","0.5","0.5","2","3","",""
"","","","","63d9f41910c61f3eb102079f","bdp_cybrbll","Sat Apr 01 2023 18:46:23 GMT-0500 (Central Daylight Time)","504222","3","1","animation","18","82340","0.0-5.0-2.6","","","","","","219","","","","2","3","[{""stimulus"":""img/2to3/1.png"",""time"":108},{""stimulus"":""img/2to3/2.png"",""time"":216},{""stimulus"":""img/2to3/3.png"",""time"":326},{""stimulus"":""img/2to3/4.png"",""time"":434},{""stimulus"":""img/2to3/5.png"",""time"":541},{""stimulus"":""img/2to3/6.png"",""time"":650},{""stimulus"":""img/2to3/7.png"",""time"":756},{""stimulus"":""img/2to3/8.png"",""time"":866},{""stimulus"":""img/2to3/9.png"",""time"":975},{""stimulus"":""img/2to3/10.png"",""time"":1083},{""stimulus"":""img/2to3/11.png"",""time"":1193},{""stimulus"":""img/2to3/12.png"",""time"":1302}]","[]"
"","","","observe","63d9f41910c61f3eb102079f","bdp_cybrbll","Sat Apr 01 2023 18:46:23 GMT-0500 (Central Daylight Time)","504222","3","1","image-keyboard-response","19","83189","0.0-5.0-1.7","","null","","img/3to2/1.png","null","218","836","0.5","0.5","3","2","",""
"","","","","63d9f41910c61f3eb102079f","bdp_cybrbll","Sat Apr 01 2023 18:46:23 GMT-0500 (Central Daylight Time)","504222","3","1","animation","20","84606","0.0-5.0-2.7","","","","","","218","","","","3","2","[{""stimulus"":""img/3to2/1.png"",""time"":108},{""stimulus"":""img/3to2/2.png"",""time"":215},{""stimulus"":""img/3to2/3.png"",""time"":324},{""stimulus"":""img/3to2/4.png"",""time"":434},{""stimulus"":""img/3to2/5.png"",""time"":544},{""stimulus"":""img/3to2/6.png"",""time"":652},{""stimulus"":""img/3to2/7.png"",""time"":762},{""stimulus"":""img/3to2/8.png"",""time"":872},{""stimulus"":""img/3to2/9.png"",""time"":981},{""stimulus"":""img/3to2/10.png"",""time"":1089},{""stimulus"":""img/3to2/11.png"",""time"":1199},{""stimulus"":""img/3to2/12.png"",""time"":1307}]","[]"
"","","","choice","63d9f41910c61f3eb102079f","bdp_cybrbll","Sat Apr 01 2023 18:46:23 GMT-0500 (Central Daylight Time)","504222","3","1","image-keyboard-response","21","85907","0.0-5.0-1.8","","1300","","img/2to1/1.png","1","217","265","0.5","0.5","2","1","",""
"","","","","63d9f41910c61f3eb102079f","bdp_cybrbll","Sat Apr 01 2023 18:46:23 GMT-0500 (Central Daylight Time)","504222","3","1","animation","22","87305","0.0-5.0-2.8","","","","","","217","","","","2","1","[{""stimulus"":""img/2to1/1.png"",""time"":103},{""stimulus"":""img/2to1/2.png"",""time"":211},{""stimulus"":""img/2to1/3.png"",""time"":318},{""stimulus"":""img/2to1/4.png"",""time"":427},{""stimulus"":""img/2to1/5.png"",""time"":533},{""stimulus"":""img/2to1/6.png"",""time"":642},{""stimulus"":""img/2to1/7.png"",""time"":749},{""stimulus"":""img/2to1/8.png"",""time"":858},{""stimulus"":""img/2to1/9.png"",""time"":966},{""stimulus"":""img/2to1/10.png"",""time"":1075},{""stimulus"":""img/2to1/11.png"",""time"":1184},{""stimulus"":""img/2to1/12.png"",""time"":1292}]","[]"
"","","","observe","63d9f41910c61f3eb102079f","bdp_cybrbll","Sat Apr 01 2023 18:46:23 GMT-0500 (Central Daylight Time)","504222","3","1","image-keyboard-response","23","87568","0.0-5.0-1.9","","null","","img/1to3/1.png","null","216","249","0.5","0.5","1","3","",""
"","","","","63d9f41910c61f3eb102079f","bdp_cybrbll","Sat Apr 01 2023 18:46:23 GMT-0500 (Central Daylight Time)","504222","3","1","animation","24","88968","0.0-5.0-2.9","","","","","","216","","","","1","3","[{""stimulus"":""img/1to3/1.png"",""time"":109},{""stimulus"":""img/1to3/2.png"",""time"":216},{""stimulus"":""img/1to3/3.png"",""time"":324},{""stimulus"":""img/1to3/4.png"",""time"":431},{""stimulus"":""img/1to3/5.png"",""time"":539},{""stimulus"":""img/1to3/6.png"",""time"":647},{""stimulus"":""img/1to3/7.png"",""time"":755},{""stimulus"":""img/1to3/8.png"",""time"":863},{""stimulus"":""img/1to3/9.png"",""time"":970},{""stimulus"":""img/1to3/10.png"",""time"":1077},{""stimulus"":""img/1to3/11.png"",""time"":1185},{""stimulus"":""img/1to3/12.png"",""time"":1293}]","[]"
"","","","observe","63d9f41910c61f3eb102079f","bdp_cybrbll","Sat Apr 01 2023 18:46:23 GMT-0500 (Central Daylight Time)","504222","3","1","image-keyboard-response","25","89757","0.0-5.0-1.10","","null","","img/3to2/1.png","null","215","771","0.5","0.5","3","1","",""
"","","","","63d9f41910c61f3eb102079f","bdp_cybrbll","Sat Apr 01 2023 18:46:23 GMT-0500 (Central Daylight Time)","504222","3","1","animation","26","91160","0.0-5.0-2.10","","","","","","215","","","","3","1","[{""stimulus"":""img/3to1/1.png"",""time"":107},{""stimulus"":""img/3to1/2.png"",""time"":214},{""stimulus"":""img/3to1/3.png"",""time"":323},{""stimulus"":""img/3to1/4.png"",""time"":430},{""stimulus"":""img/3to1/5.png"",""time"":538},{""stimulus"":""img/3to1/6.png"",""time"":646},{""stimulus"":""img/3to1/7.png"",""time"":753},{""stimulus"":""img/3to1/8.png"",""time"":860},{""stimulus"":""img/3to1/9.png"",""time"":968},{""stimulus"":""img/3to1/10.png"",""time"":1078},{""stimulus"":""img/3to1/11.png"",""time"":1186},{""stimulus"":""img/3to1/12.png"",""time"":1295}]","[]"
"","","","observe","63d9f41910c61f3eb102079f","bdp_cybrbll","Sat Apr 01 2023 18:46:23 GMT-0500 (Central Daylight Time)","504222","3","1","image-keyboard-response","27","91544","0.0-5.0-1.11","","null","","img/1to3/1.png","null","214","373","0.5","0.5","1","2","",""
"","","","","63d9f41910c61f3eb102079f","bdp_cybrbll","Sat Apr 01 2023 18:46:23 GMT-0500 (Central Daylight Time)","504222","3","1","animation","28","92949","0.0-5.0-2.11","","","","","","214","","","","1","2","[{""stimulus"":""img/1to2/1.png"",""time"":109},{""stimulus"":""img/1to2/2.png"",""time"":216},{""stimulus"":""img/1to2/3.png"",""time"":325},{""stimulus"":""img/1to2/4.png"",""time"":432},{""stimulus"":""img/1to2/5.png"",""time"":539},{""stimulus"":""img/1to2/6.png"",""time"":648},{""stimulus"":""img/1to2/7.png"",""time"":755},{""stimulus"":""img/1to2/8.png"",""time"":864},{""stimulus"":""img/1to2/9.png"",""time"":971},{""stimulus"":""img/1to2/10.png"",""time"":1080},{""stimulus"":""img/1to2/11.png"",""time"":1188},{""stimulus"":""img/1to2/12.png"",""time"":1297}]","[]"
"","","","choice","63d9f41910c61f3eb102079f","bdp_cybrbll","Sat Apr 01 2023 18:46:23 GMT-0500 (Central Daylight Time)","504222","3","1","image-keyboard-response","29","94079","0.0-5.0-1.12","","1128","","img/2to1/1.png","1","213","499","0.5","0.5","2","1","",""
"","","","","63d9f41910c61f3eb102079f","bdp_cybrbll","Sat Apr 01 2023 18:46:23 GMT-0500 (Central Daylight Time)","504222","3","1","animation","30","95475","0.0-5.0-2.12","","","","","","213","","","","2","1","[{""stimulus"":""img/2to1/1.png"",""time"":101},{""stimulus"":""img/2to1/2.png"",""time"":209},{""stimulus"":""img/2to1/3.png"",""time"":316},{""stimulus"":""img/2to1/4.png"",""time"":425},{""stimulus"":""img/2to1/5.png"",""time"":533},{""stimulus"":""img/2to1/6.png"",""time"":642},{""stimulus"":""img/2to1/7.png"",""time"":750},{""stimulus"":""img/2to1/8.png"",""time"":858},{""stimulus"":""img/2to1/9.png"",""time"":965},{""stimulus"":""img/2to1/10.png"",""time"":1072},{""stimulus"":""img/2to1/11.png"",""time"":1181},{""stimulus"":""img/2to1/12.png"",""time"":1290}]","[]"
"","","","observe","63d9f41910c61f3eb102079f","bdp_cybrbll","Sat Apr 01 2023 18:46:23 GMT-0500 (Central Daylight Time)","504222","3","1","image-keyboard-response","31","96184","0.0-5.0-1.13","","null","","img/1to3/1.png","null","212","706","0.5","0.5","1","2","",""
"","","","","63d9f41910c61f3eb102079f","bdp_cybrbll","Sat Apr 01 2023 18:46:23 GMT-0500 (Central Daylight Time)","504222","3","1","animation","32","97590","0.0-5.0-2.13","","","","","","212","","","","1","2","[{""stimulus"":""img/1to2/1.png"",""time"":107},{""stimulus"":""img/1to2/2.png"",""time"":214},{""stimulus"":""img/1to2/3.png"",""time"":322},{""stimulus"":""img/1to2/4.png"",""time"":432},{""stimulus"":""img/1to2/5.png"",""time"":541},{""stimulus"":""img/1to2/6.png"",""time"":648},{""stimulus"":""img/1to2/7.png"",""time"":756},{""stimulus"":""img/1to2/8.png"",""time"":865},{""stimulus"":""img/1to2/9.png"",""time"":973},{""stimulus"":""img/1to2/10.png"",""time"":1081},{""stimulus"":""img/1to2/11.png"",""time"":1189},{""stimulus"":""img/1to2/12.png"",""time"":1297}]","[]"
"","","","choice","63d9f41910c61f3eb102079f","bdp_cybrbll","Sat Apr 01 2023 18:46:23 GMT-0500 (Central Daylight Time)","504222","3","1","image-keyboard-response","33","98516","0.0-5.0-1.14","","925","","img/2to1/1.png","2","211","281","0.5","0.5","2","3","",""
"","","","","63d9f41910c61f3eb102079f","bdp_cybrbll","Sat Apr 01 2023 18:46:23 GMT-0500 (Central Daylight Time)","504222","3","1","animation","34","99922","0.0-5.0-2.14","","","","","","211","","","","2","3","[{""stimulus"":""img/2to3/1.png"",""time"":107},{""stimulus"":""img/2to3/2.png"",""time"":216},{""stimulus"":""img/2to3/3.png"",""time"":324},{""stimulus"":""img/2to3/4.png"",""time"":431},{""stimulus"":""img/2to3/5.png"",""time"":540},{""stimulus"":""img/2to3/6.png"",""time"":648},{""stimulus"":""img/2to3/7.png"",""time"":756},{""stimulus"":""img/2to3/8.png"",""time"":865},{""stimulus"":""img/2to3/9.png"",""time"":974},{""stimulus"":""img/2to3/10.png"",""time"":1081},{""stimulus"":""img/2to3/11.png"",""time"":1190},{""stimulus"":""img/2to3/12.png"",""time"":1298}]","[]"
"","","","observe","63d9f41910c61f3eb102079f","bdp_cybrbll","Sat Apr 01 2023 18:46:23 GMT-0500 (Central Daylight Time)","504222","3","1","image-keyboard-response","35","100199","0.0-5.0-1.15","","null","","img/3to2/1.png","null","210","266","0.5","0.5","3","1","",""
"","","","","63d9f41910c61f3eb102079f","bdp_cybrbll","Sat Apr 01 2023 18:46:23 GMT-0500 (Central Daylight Time)","504222","3","1","animation","36","101603","0.0-5.0-2.15","","","","","","210","","","","3","1","[{""stimulus"":""img/3to1/1.png"",""time"":107},{""stimulus"":""img/3to1/2.png"",""time"":215},{""stimulus"":""img/3to1/3.png"",""time"":324},{""stimulus"":""img/3to1/4.png"",""time"":430},{""stimulus"":""img/3to1/5.png"",""time"":540},{""stimulus"":""img/3to1/6.png"",""time"":648},{""stimulus"":""img/3to1/7.png"",""time"":755},{""stimulus"":""img/3to1/8.png"",""time"":864},{""stimulus"":""img/3to1/9.png"",""time"":972},{""stimulus"":""img/3to1/10.png"",""time"":1079},{""stimulus"":""img/3to1/11.png"",""time"":1188},{""stimulus"":""img/3to1/12.png"",""time"":1295}]","[]"
"","","","observe","63d9f41910c61f3eb102079f","bdp_cybrbll","Sat Apr 01 2023 18:46:23 GMT-0500 (Central Daylight Time)","504222","3","1","image-keyboard-response","37","102883","0.0-5.0-1.16","","null","","img/1to3/1.png","null","209","1268","0.5","0.5","1","2","",""
"","","","","63d9f41910c61f3eb102079f","bdp_cybrbll","Sat Apr 01 2023 18:46:23 GMT-0500 (Central Daylight Time)","504222","3","1","animation","38","104288","0.0-5.0-2.16","","","","","","209","","","","1","2","[{""stimulus"":""img/1to2/1.png"",""time"":108},{""stimulus"":""img/1to2/2.png"",""time"":216},{""stimulus"":""img/1to2/3.png"",""time"":323},{""stimulus"":""img/1to2/4.png"",""time"":432},{""stimulus"":""img/1to2/5.png"",""time"":539},{""stimulus"":""img/1to2/6.png"",""time"":647},{""stimulus"":""img/1to2/7.png"",""time"":755},{""stimulus"":""img/1to2/8.png"",""time"":862},{""stimulus"":""img/1to2/9.png"",""time"":969},{""stimulus"":""img/1to2/10.png"",""time"":1078},{""stimulus"":""img/1to2/11.png"",""time"":1187},{""stimulus"":""img/1to2/12.png"",""time"":1296}]","[]"
"","","","choice","63d9f41910c61f3eb102079f","bdp_cybrbll","Sat Apr 01 2023 18:46:23 GMT-0500 (Central Daylight Time)","504222","3","1","image-keyboard-response","39","109062","0.0-5.0-1.17","","4773","","img/2to1/1.png","1","208","834","0.5","0.5","2","1","",""
"","","","","63d9f41910c61f3eb102079f","bdp_cybrbll","Sat Apr 01 2023 18:46:23 GMT-0500 (Central Daylight Time)","504222","3","1","animation","40","110466","0.0-5.0-2.17","","","","","","208","","","","2","1","[{""stimulus"":""img/2to1/1.png"",""time"":104},{""stimulus"":""img/2to1/2.png"",""time"":212},{""stimulus"":""img/2to1/3.png"",""time"":320},{""stimulus"":""img/2to1/4.png"",""time"":428},{""stimulus"":""img/2to1/5.png"",""time"":538},{""stimulus"":""img/2to1/6.png"",""time"":646},{""stimulus"":""img/2to1/7.png"",""time"":754},{""stimulus"":""img/2to1/8.png"",""time"":862},{""stimulus"":""img/2to1/9.png"",""time"":971},{""stimulus"":""img/2to1/10.png"",""time"":1078},{""stimulus"":""img/2to1/11.png"",""time"":1186},{""stimulus"":""img/2to1/12.png"",""time"":1295}]","[]"
"","","","observe","63d9f41910c61f3eb102079f","bdp_cybrbll","Sat Apr 01 2023 18:46:23 GMT-0500 (Central Daylight Time)","504222","3","1","image-keyboard-response","41","110822","0.0-5.0-1.18","","null","","img/1to3/1.png","null","207","353","0.5","0.5","1","2","",""
"","","","","63d9f41910c61f3eb102079f","bdp_cybrbll","Sat Apr 01 2023 18:46:23 GMT-0500 (Central Daylight Time)","504222","3","1","animation","42","112225","0.0-5.0-2.18","","","","","","207","","","","1","2","[{""stimulus"":""img/1to2/1.png"",""time"":108},{""stimulus"":""img/1to2/2.png"",""time"":216},{""stimulus"":""img/1to2/3.png"",""time"":325},{""stimulus"":""img/1to2/4.png"",""time"":432},{""stimulus"":""img/1to2/5.png"",""time"":541},{""stimulus"":""img/1to2/6.png"",""time"":648},{""stimulus"":""img/1to2/7.png"",""time"":756},{""stimulus"":""img/1to2/8.png"",""time"":863},{""stimulus"":""img/1to2/9.png"",""time"":972},{""stimulus"":""img/1to2/10.png"",""time"":1079},{""stimulus"":""img/1to2/11.png"",""time"":1187},{""stimulus"":""img/1to2/12.png"",""time"":1294}]","[]"
"","","","choice","63d9f41910c61f3eb102079f","bdp_cybrbll","Sat Apr 01 2023 18:46:23 GMT-0500 (Central Daylight Time)","504222","3","1","image-keyboard-response","43","112845","0.0-5.0-1.19","","619","","img/2to1/1.png","2","206","1567","0.5","0.5","2","3","",""
"","","","","63d9f41910c61f3eb102079f","bdp_cybrbll","Sat Apr 01 2023 18:46:23 GMT-0500 (Central Daylight Time)","504222","3","1","animation","44","114243","0.0-5.0-2.19","","","","","","206","","","","2","3","[{""stimulus"":""img/2to3/1.png"",""time"":105},{""stimulus"":""img/2to3/2.png"",""time"":213},{""stimulus"":""img/2to3/3.png"",""time"":320},{""stimulus"":""img/2to3/4.png"",""time"":427},{""stimulus"":""img/2to3/5.png"",""time"":534},{""stimulus"":""img/2to3/6.png"",""time"":642},{""stimulus"":""img/2to3/7.png"",""time"":750},{""stimulus"":""img/2to3/8.png"",""time"":857},{""stimulus"":""img/2to3/9.png"",""time"":965},{""stimulus"":""img/2to3/10.png"",""time"":1073},{""stimulus"":""img/2to3/11.png"",""time"":1182},{""stimulus"":""img/2to3/12.png"",""time"":1290}]","[]"
"","","","observe","63d9f41910c61f3eb102079f","bdp_cybrbll","Sat Apr 01 2023 18:46:23 GMT-0500 (Central Daylight Time)","504222","3","1","image-keyboard-response","45","115508","0.0-5.0-1.20","","null","","img/3to2/1.png","null","205","1262","0.5","0.5","3","2","",""
"","","","","63d9f41910c61f3eb102079f","bdp_cybrbll","Sat Apr 01 2023 18:46:23 GMT-0500 (Central Daylight Time)","504222","3","1","animation","46","116911","0.0-5.0-2.20","","","","","","205","","","","3","2","[{""stimulus"":""img/3to2/1.png"",""time"":107},{""stimulus"":""img/3to2/2.png"",""time"":215},{""stimulus"":""img/3to2/3.png"",""time"":324},{""stimulus"":""img/3to2/4.png"",""time"":432},{""stimulus"":""img/3to2/5.png"",""time"":539},{""stimulus"":""img/3to2/6.png"",""time"":646},{""stimulus"":""img/3to2/7.png"",""time"":754},{""stimulus"":""img/3to2/8.png"",""time"":861},{""stimulus"":""img/3to2/9.png"",""time"":969},{""stimulus"":""img/3to2/10.png"",""time"":1076},{""stimulus"":""img/3to2/11.png"",""time"":1185},{""stimulus"":""img/3to2/12.png"",""time"":1295}]","[]"
"","","","choice","63d9f41910c61f3eb102079f","bdp_cybrbll","Sat Apr 01 2023 18:46:23 GMT-0500 (Central Daylight Time)","504222","3","1","image-keyboard-response","47","118644","0.0-5.0-1.21","","1732","","img/2to1/1.png","1","204","785","0.5","0.5","2","1","",""
"","","","","63d9f41910c61f3eb102079f","bdp_cybrbll","Sat Apr 01 2023 18:46:23 GMT-0500 (Central Daylight Time)","504222","3","1","animation","48","120042","0.0-5.0-2.21","","","","","","204","","","","2","1","[{""stimulus"":""img/2to1/1.png"",""time"":104},{""stimulus"":""img/2to1/2.png"",""time"":212},{""stimulus"":""img/2to1/3.png"",""time"":318},{""stimulus"":""img/2to1/4.png"",""time"":427},{""stimulus"":""img/2to1/5.png"",""time"":535},{""stimulus"":""img/2to1/6.png"",""time"":643},{""stimulus"":""img/2to1/7.png"",""time"":750},{""stimulus"":""img/2to1/8.png"",""time"":857},{""stimulus"":""img/2to1/9.png"",""time"":966},{""stimulus"":""img/2to1/10.png"",""time"":1074},{""stimulus"":""img/2to1/11.png"",""time"":1183},{""stimulus"":""img/2to1/12.png"",""time"":1291}]","[]"
"","","","observe","63d9f41910c61f3eb102079f","bdp_cybrbll","Sat Apr 01 2023 18:46:23 GMT-0500 (Central Daylight Time)","504222","3","1","image-keyboard-response","49","120211","0.0-5.0-1.22","","null","","img/1to3/1.png","null","203","167","0.5","0.5","1","2","",""
"","","","","63d9f41910c61f3eb102079f","bdp_cybrbll","Sat Apr 01 2023 18:46:23 GMT-0500 (Central Daylight Time)","504222","3","1","animation","50","121620","0.0-5.0-2.22","","","","","","203","","","","1","2","[{""stimulus"":""img/1to2/1.png"",""time"":108},{""stimulus"":""img/1to2/2.png"",""time"":216},{""stimulus"":""img/1to2/3.png"",""time"":325},{""stimulus"":""img/1to2/4.png"",""time"":433},{""stimulus"":""img/1to2/5.png"",""time"":541},{""stimulus"":""img/1to2/6.png"",""time"":650},{""stimulus"":""img/1to2/7.png"",""time"":760},{""stimulus"":""img/1to2/8.png"",""time"":868},{""stimulus"":""img/1to2/9.png"",""time"":975},{""stimulus"":""img/1to2/10.png"",""time"":1083},{""stimulus"":""img/1to2/11.png"",""time"":1193},{""stimulus"":""img/1to2/12.png"",""time"":1300}]","[]"
"","","","choice","63d9f41910c61f3eb102079f","bdp_cybrbll","Sat Apr 01 2023 18:46:23 GMT-0500 (Central Daylight Time)","504222","3","1","image-keyboard-response","51","121918","0.0-5.0-1.23","","296","","img/2to1/1.png","2","202","215","0.5","0.5","2","3","",""
"","","","","63d9f41910c61f3eb102079f","bdp_cybrbll","Sat Apr 01 2023 18:46:23 GMT-0500 (Central Daylight Time)","504222","3","1","animation","52","123318","0.0-5.0-2.23","","","","","","202","","","","2","3","[{""stimulus"":""img/2to3/1.png"",""time"":102},{""stimulus"":""img/2to3/2.png"",""time"":210},{""stimulus"":""img/2to3/3.png"",""time"":317},{""stimulus"":""img/2to3/4.png"",""time"":427},{""stimulus"":""img/2to3/5.png"",""time"":535},{""stimulus"":""img/2to3/6.png"",""time"":643},{""stimulus"":""img/2to3/7.png"",""time"":751},{""stimulus"":""img/2to3/8.png"",""time"":859},{""stimulus"":""img/2to3/9.png"",""time"":966},{""stimulus"":""img/2to3/10.png"",""time"":1075},{""stimulus"":""img/2to3/11.png"",""time"":1182},{""stimulus"":""img/2to3/12.png"",""time"":1291}]","[]"
"","","","observe","63d9f41910c61f3eb102079f","bdp_cybrbll","Sat Apr 01 2023 18:46:23 GMT-0500 (Central Daylight Time)","504222","3","1","image-keyboard-response","53","123580","0.0-5.0-1.24","","null","","img/3to2/1.png","null","201","260","0.5","0.5","3","2","",""
"","","","","63d9f41910c61f3eb102079f","bdp_cybrbll","Sat Apr 01 2023 18:46:23 GMT-0500 (Central Daylight Time)","504222","3","1","animation","54","124990","0.0-5.0-2.24","","","","","","201","","","","3","2","[{""stimulus"":""img/3to2/1.png"",""time"":107},{""stimulus"":""img/3to2/2.png"",""time"":215},{""stimulus"":""img/3to2/3.png"",""time"":324},{""stimulus"":""img/3to2/4.png"",""time"":432},{""stimulus"":""img/3to2/5.png"",""time"":541},{""stimulus"":""img/3to2/6.png"",""time"":650},{""stimulus"":""img/3to2/7.png"",""time"":757},{""stimulus"":""img/3to2/8.png"",""time"":867},{""stimulus"":""img/3to2/9.png"",""time"":975},{""stimulus"":""img/3to2/10.png"",""time"":1083},{""stimulus"":""img/3to2/11.png"",""time"":1192},{""stimulus"":""img/3to2/12.png"",""time"":1300}]","[]"
"","","","choice","63d9f41910c61f3eb102079f","bdp_cybrbll","Sat Apr 01 2023 18:46:23 GMT-0500 (Central Daylight Time)","504222","3","1","image-keyboard-response","55","126182","0.0-5.0-1.25","","1190","","img/2to1/1.png","1","200","686","0.5","0.5","2","1","",""
"","","","","63d9f41910c61f3eb102079f","bdp_cybrbll","Sat Apr 01 2023 18:46:23 GMT-0500 (Central Daylight Time)","504222","3","1","animation","56","127578","0.0-5.0-2.25","","","","","","200","","","","2","1","[{""stimulus"":""img/2to1/1.png"",""time"":103},{""stimulus"":""img/2to1/2.png"",""time"":210},{""stimulus"":""img/2to1/3.png"",""time"":318},{""stimulus"":""img/2to1/4.png"",""time"":425},{""stimulus"":""img/2to1/5.png"",""time"":532},{""stimulus"":""img/2to1/6.png"",""time"":640},{""stimulus"":""img/2to1/7.png"",""time"":749},{""stimulus"":""img/2to1/8.png"",""time"":858},{""stimulus"":""img/2to1/9.png"",""time"":964},{""stimulus"":""img/2to1/10.png"",""time"":1073},{""stimulus"":""img/2to1/11.png"",""time"":1181},{""stimulus"":""img/2to1/12.png"",""time"":1288}]","[]"
"","","","observe","63d9f41910c61f3eb102079f","bdp_cybrbll","Sat Apr 01 2023 18:46:23 GMT-0500 (Central Daylight Time)","504222","3","1","image-keyboard-response","57","127947","0.0-5.0-1.26","","null","","img/1to3/1.png","null","199","366","0.5","0.5","1","3","",""
"","","","","63d9f41910c61f3eb102079f","bdp_cybrbll","Sat Apr 01 2023 18:46:23 GMT-0500 (Central Daylight Time)","504222","3","1","animation","58","129349","0.0-5.0-2.26","","","","","","199","","","","1","3","[{""stimulus"":""img/1to3/1.png"",""time"":108},{""stimulus"":""img/1to3/2.png"",""time"":215},{""stimulus"":""img/1to3/3.png"",""time"":323},{""stimulus"":""img/1to3/4.png"",""time"":431},{""stimulus"":""img/1to3/5.png"",""time"":539},{""stimulus"":""img/1to3/6.png"",""time"":645},{""stimulus"":""img/1to3/7.png"",""time"":754},{""stimulus"":""img/1to3/8.png"",""time"":861},{""stimulus"":""img/1to3/9.png"",""time"":971},{""stimulus"":""img/1to3/10.png"",""time"":1078},{""stimulus"":""img/1to3/11.png"",""time"":1186},{""stimulus"":""img/1to3/12.png"",""time"":1295}]","[]"
"","","","observe","63d9f41910c61f3eb102079f","bdp_cybrbll","Sat Apr 01 2023 18:46:23 GMT-0500 (Central Daylight Time)","504222","3","1","image-keyboard-response","59","129611","0.0-5.0-1.27","","null","","img/3to2/1.png","null","198","254","0.5","0.5","3","1","",""
"","","","","63d9f41910c61f3eb102079f","bdp_cybrbll","Sat Apr 01 2023 18:46:23 GMT-0500 (Central Daylight Time)","504222","3","1","animation","60","131017","0.0-5.0-2.27","","","","","","198","","","","3","1","[{""stimulus"":""img/3to1/1.png"",""time"":108},{""stimulus"":""img/3to1/2.png"",""time"":217},{""stimulus"":""img/3to1/3.png"",""time"":325},{""stimulus"":""img/3to1/4.png"",""time"":433},{""stimulus"":""img/3to1/5.png"",""time"":543},{""stimulus"":""img/3to1/6.png"",""time"":652},{""stimulus"":""img/3to1/7.png"",""time"":760},{""stimulus"":""img/3to1/8.png"",""time"":868},{""stimulus"":""img/3to1/9.png"",""time"":975},{""stimulus"":""img/3to1/10.png"",""time"":1083},{""stimulus"":""img/3to1/11.png"",""time"":1192},{""stimulus"":""img/3to1/12.png"",""time"":1299}]","[]"
"","","","observe","63d9f41910c61f3eb102079f","bdp_cybrbll","Sat Apr 01 2023 18:46:23 GMT-0500 (Central Daylight Time)","504222","3","1","image-keyboard-response","61","131496","0.0-5.0-1.28","","null","","img/1to3/1.png","null","197","474","0.5","0.5","1","2","",""
"","","","","63d9f41910c61f3eb102079f","bdp_cybrbll","Sat Apr 01 2023 18:46:23 GMT-0500 (Central Daylight Time)","504222","3","1","animation","62","132898","0.0-5.0-2.28","","","","","","197","","","","1","2","[{""stimulus"":""img/1to2/1.png"",""time"":107},{""stimulus"":""img/1to2/2.png"",""time"":215},{""stimulus"":""img/1to2/3.png"",""time"":324},{""stimulus"":""img/1to2/4.png"",""time"":431},{""stimulus"":""img/1to2/5.png"",""time"":540},{""stimulus"":""img/1to2/6.png"",""time"":648},{""stimulus"":""img/1to2/7.png"",""time"":756},{""stimulus"":""img/1to2/8.png"",""time"":863},{""stimulus"":""img/1to2/9.png"",""time"":971},{""stimulus"":""img/1to2/10.png"",""time"":1079},{""stimulus"":""img/1to2/11.png"",""time"":1187},{""stimulus"":""img/1to2/12.png"",""time"":1294}]","[]"
"","","","choice","63d9f41910c61f3eb102079f","bdp_cybrbll","Sat Apr 01 2023 18:46:23 GMT-0500 (Central Daylight Time)","504222","3","1","image-keyboard-response","63","133091","0.0-5.0-1.29","","190","","img/2to1/1.png","2","196","421","0.5","0.5","2","3","",""
"","","","","63d9f41910c61f3eb102079f","bdp_cybrbll","Sat Apr 01 2023 18:46:23 GMT-0500 (Central Daylight Time)","504222","3","1","animation","64","134484","0.0-5.0-2.29","","","","","","196","","","","2","3","[{""stimulus"":""img/2to3/1.png"",""time"":100},{""stimulus"":""img/2to3/2.png"",""time"":209},{""stimulus"":""img/2to3/3.png"",""time"":316},{""stimulus"":""img/2to3/4.png"",""time"":424},{""stimulus"":""img/2to3/5.png"",""time"":532},{""stimulus"":""img/2to3/6.png"",""time"":638},{""stimulus"":""img/2to3/7.png"",""time"":746},{""stimulus"":""img/2to3/8.png"",""time"":854},{""stimulus"":""img/2to3/9.png"",""time"":963},{""stimulus"":""img/2to3/10.png"",""time"":1070},{""stimulus"":""img/2to3/11.png"",""time"":1178},{""stimulus"":""img/2to3/12.png"",""time"":1286}]","[]"
"","","","observe","63d9f41910c61f3eb102079f","bdp_cybrbll","Sat Apr 01 2023 18:46:23 GMT-0500 (Central Daylight Time)","504222","3","1","image-keyboard-response","65","134856","0.0-5.0-1.30","","null","","img/3to2/1.png","null","195","363","0.5","0.5","3","2","",""
"","","","","63d9f41910c61f3eb102079f","bdp_cybrbll","Sat Apr 01 2023 18:46:23 GMT-0500 (Central Daylight Time)","504222","3","1","animation","66","136259","0.0-5.0-2.30","","","","","","195","","","","3","2","[{""stimulus"":""img/3to2/1.png"",""time"":108},{""stimulus"":""img/3to2/2.png"",""time"":216},{""stimulus"":""img/3to2/3.png"",""time"":324},{""stimulus"":""img/3to2/4.png"",""time"":431},{""stimulus"":""img/3to2/5.png"",""time"":540},{""stimulus"":""img/3to2/6.png"",""time"":649},{""stimulus"":""img/3to2/7.png"",""time"":757},{""stimulus"":""img/3to2/8.png"",""time"":866},{""stimulus"":""img/3to2/9.png"",""time"":973},{""stimulus"":""img/3to2/10.png"",""time"":1081},{""stimulus"":""img/3to2/11.png"",""time"":1189},{""stimulus"":""img/3to2/12.png"",""time"":1295}]","[]"
"","","","choice","63d9f41910c61f3eb102079f","bdp_cybrbll","Sat Apr 01 2023 18:46:23 GMT-0500 (Central Daylight Time)","504222","3","1","image-keyboard-response","67","136839","0.0-5.0-1.31","","579","","img/2to1/1.png","2","194","526","0.5","0.5","2","3","",""
"","","","","63d9f41910c61f3eb102079f","bdp_cybrbll","Sat Apr 01 2023 18:46:23 GMT-0500 (Central Daylight Time)","504222","3","1","animation","68","138243","0.0-5.0-2.31","","","","","","194","","","","2","3","[{""stimulus"":""img/2to3/1.png"",""time"":105},{""stimulus"":""img/2to3/2.png"",""time"":213},{""stimulus"":""img/2to3/3.png"",""time"":321},{""stimulus"":""img/2to3/4.png"",""time"":430},{""stimulus"":""img/2to3/5.png"",""time"":537},{""stimulus"":""img/2to3/6.png"",""time"":646},{""stimulus"":""img/2to3/7.png"",""time"":755},{""stimulus"":""img/2to3/8.png"",""time"":863},{""stimulus"":""img/2to3/9.png"",""time"":972},{""stimulus"":""img/2to3/10.png"",""time"":1079},{""stimulus"":""img/2to3/11.png"",""time"":1187},{""stimulus"":""img/2to3/12.png"",""time"":1295}]","[]"
"","","","observe","63d9f41910c61f3eb102079f","bdp_cybrbll","Sat Apr 01 2023 18:46:23 GMT-0500 (Central Daylight Time)","504222","3","1","image-keyboard-response","69","138646","0.0-5.0-1.32","","null","","img/3to2/1.png","null","193","400","0.5","0.5","3","2","",""
"","","","","63d9f41910c61f3eb102079f","bdp_cybrbll","Sat Apr 01 2023 18:46:23 GMT-0500 (Central Daylight Time)","504222","3","1","animation","70","140050","0.0-5.0-2.32","","","","","","193","","","","3","2","[{""stimulus"":""img/3to2/1.png"",""time"":109},{""stimulus"":""img/3to2/2.png"",""time"":217},{""stimulus"":""img/3to2/3.png"",""time"":325},{""stimulus"":""img/3to2/4.png"",""time"":432},{""stimulus"":""img/3to2/5.png"",""time"":540},{""stimulus"":""img/3to2/6.png"",""time"":648},{""stimulus"":""img/3to2/7.png"",""time"":755},{""stimulus"":""img/3to2/8.png"",""time"":865},{""stimulus"":""img/3to2/9.png"",""time"":972},{""stimulus"":""img/3to2/10.png"",""time"":1080},{""stimulus"":""img/3to2/11.png"",""time"":1189},{""stimulus"":""img/3to2/12.png"",""time"":1296}]","[]"
"","","","choice","63d9f41910c61f3eb102079f","bdp_cybrbll","Sat Apr 01 2023 18:46:23 GMT-0500 (Central Daylight Time)","504222","3","1","image-keyboard-response","71","140178","0.0-5.0-1.33","","125","","img/2to1/1.png","1","192","388","0.5","0.5","2","1","",""
"","","","","63d9f41910c61f3eb102079f","bdp_cybrbll","Sat Apr 01 2023 18:46:23 GMT-0500 (Central Daylight Time)","504222","3","1","animation","72","141584","0.0-5.0-2.33","","","","","","192","","","","2","1","[{""stimulus"":""img/2to1/1.png"",""time"":106},{""stimulus"":""img/2to1/2.png"",""time"":214},{""stimulus"":""img/2to1/3.png"",""time"":322},{""stimulus"":""img/2to1/4.png"",""time"":430},{""stimulus"":""img/2to1/5.png"",""time"":539},{""stimulus"":""img/2to1/6.png"",""time"":649},{""stimulus"":""img/2to1/7.png"",""time"":758},{""stimulus"":""img/2to1/8.png"",""time"":866},{""stimulus"":""img/2to1/9.png"",""time"":975},{""stimulus"":""img/2to1/10.png"",""time"":1082},{""stimulus"":""img/2to1/11.png"",""time"":1189},{""stimulus"":""img/2to1/12.png"",""time"":1296}]","[]"
"","","","observe","63d9f41910c61f3eb102079f","bdp_cybrbll","Sat Apr 01 2023 18:46:23 GMT-0500 (Central Daylight Time)","504222","3","1","image-keyboard-response","73","142321","0.0-5.0-1.34","","null","","img/1to3/1.png","null","191","727","0.5","0.5","1","2","",""
"","","","","63d9f41910c61f3eb102079f","bdp_cybrbll","Sat Apr 01 2023 18:46:23 GMT-0500 (Central Daylight Time)","504222","3","1","animation","74","143726","0.0-5.0-2.34","","","","","","191","","","","1","2","[{""stimulus"":""img/1to2/1.png"",""time"":106},{""stimulus"":""img/1to2/2.png"",""time"":216},{""stimulus"":""img/1to2/3.png"",""time"":325},{""stimulus"":""img/1to2/4.png"",""time"":432},{""stimulus"":""img/1to2/5.png"",""time"":541},{""stimulus"":""img/1to2/6.png"",""time"":647},{""stimulus"":""img/1to2/7.png"",""time"":756},{""stimulus"":""img/1to2/8.png"",""time"":865},{""stimulus"":""img/1to2/9.png"",""time"":972},{""stimulus"":""img/1to2/10.png"",""time"":1081},{""stimulus"":""img/1to2/11.png"",""time"":1188},{""stimulus"":""img/1to2/12.png"",""time"":1296}]","[]"
"","","","choice","63d9f41910c61f3eb102079f","bdp_cybrbll","Sat Apr 01 2023 18:46:23 GMT-0500 (Central Daylight Time)","504222","3","1","image-keyboard-response","75","144192","0.0-5.0-1.35","","465","","img/2to1/1.png","2","190","449","0.5","0.5","2","3","",""
"","","","","63d9f41910c61f3eb102079f","bdp_cybrbll","Sat Apr 01 2023 18:46:23 GMT-0500 (Central Daylight Time)","504222","3","1","animation","76","145588","0.0-5.0-2.35","","","","","","190","","","","2","3","[{""stimulus"":""img/2to3/1.png"",""time"":105},{""stimulus"":""img/2to3/2.png"",""time"":212},{""stimulus"":""img/2to3/3.png"",""time"":318},{""stimulus"":""img/2to3/4.png"",""time"":425},{""stimulus"":""img/2to3/5.png"",""time"":534},{""stimulus"":""img/2to3/6.png"",""time"":642},{""stimulus"":""img/2to3/7.png"",""time"":750},{""stimulus"":""img/2to3/8.png"",""time"":859},{""stimulus"":""img/2to3/9.png"",""time"":966},{""stimulus"":""img/2to3/10.png"",""time"":1073},{""stimulus"":""img/2to3/11.png"",""time"":1181},{""stimulus"":""img/2to3/12.png"",""time"":1288}]","[]"
"","","","observe","63d9f41910c61f3eb102079f","bdp_cybrbll","Sat Apr 01 2023 18:46:23 GMT-0500 (Central Daylight Time)","504222","3","1","image-keyboard-response","77","147034","0.0-5.0-1.36","","null","","img/3to2/1.png","null","189","1444","0.5","0.5","3","2","",""
"","","","","63d9f41910c61f3eb102079f","bdp_cybrbll","Sat Apr 01 2023 18:46:23 GMT-0500 (Central Daylight Time)","504222","3","1","animation","78","148433","0.0-5.0-2.36","","","","","","189","","","","3","2","[{""stimulus"":""img/3to2/1.png"",""time"":108},{""stimulus"":""img/3to2/2.png"",""time"":216},{""stimulus"":""img/3to2/3.png"",""time"":324},{""stimulus"":""img/3to2/4.png"",""time"":431},{""stimulus"":""img/3to2/5.png"",""time"":538},{""stimulus"":""img/3to2/6.png"",""time"":646},{""stimulus"":""img/3to2/7.png"",""time"":754},{""stimulus"":""img/3to2/8.png"",""time"":862},{""stimulus"":""img/3to2/9.png"",""time"":970},{""stimulus"":""img/3to2/10.png"",""time"":1077},{""stimulus"":""img/3to2/11.png"",""time"":1185},{""stimulus"":""img/3to2/12.png"",""time"":1293}]","[]"
"","","","choice","63d9f41910c61f3eb102079f","bdp_cybrbll","Sat Apr 01 2023 18:46:23 GMT-0500 (Central Daylight Time)","504222","3","1","image-keyboard-response","79","148477","0.0-5.0-1.37","","42","","img/2to1/1.png","1","188","596","0.5","0.5","2","1","",""
"","","","","63d9f41910c61f3eb102079f","bdp_cybrbll","Sat Apr 01 2023 18:46:23 GMT-0500 (Central Daylight Time)","504222","3","1","animation","80","149888","0.0-5.0-2.37","","","","","","188","","","","2","1","[{""stimulus"":""img/2to1/1.png"",""time"":112},{""stimulus"":""img/2to1/2.png"",""time"":219},{""stimulus"":""img/2to1/3.png"",""time"":327},{""stimulus"":""img/2to1/4.png"",""time"":437},{""stimulus"":""img/2to1/5.png"",""time"":546},{""stimulus"":""img/2to1/6.png"",""time"":654},{""stimulus"":""img/2to1/7.png"",""time"":762},{""stimulus"":""img/2to1/8.png"",""time"":871},{""stimulus"":""img/2to1/9.png"",""time"":979},{""stimulus"":""img/2to1/10.png"",""time"":1085},{""stimulus"":""img/2to1/11.png"",""time"":1194},{""stimulus"":""img/2to1/12.png"",""time"":1302}]","[]"
"","","","observe","63d9f41910c61f3eb102079f","bdp_cybrbll","Sat Apr 01 2023 18:46:23 GMT-0500 (Central Daylight Time)","504222","3","1","image-keyboard-response","81","150754","0.0-5.0-1.38","","null","","img/1to3/1.png","null","187","858","0.5","0.5","1","3","",""
"","","","","63d9f41910c61f3eb102079f","bdp_cybrbll","Sat Apr 01 2023 18:46:23 GMT-0500 (Central Daylight Time)","504222","3","1","animation","82","152160","0.0-5.0-2.38","","","","","","187","","","","1","3","[{""stimulus"":""img/1to3/1.png"",""time"":108},{""stimulus"":""img/1to3/2.png"",""time"":217},{""stimulus"":""img/1to3/3.png"",""time"":324},{""stimulus"":""img/1to3/4.png"",""time"":432},{""stimulus"":""img/1to3/5.png"",""time"":541},{""stimulus"":""img/1to3/6.png"",""time"":650},{""stimulus"":""img/1to3/7.png"",""time"":757},{""stimulus"":""img/1to3/8.png"",""time"":864},{""stimulus"":""img/1to3/9.png"",""time"":973},{""stimulus"":""img/1to3/10.png"",""time"":1081},{""stimulus"":""img/1to3/11.png"",""time"":1190},{""stimulus"":""img/1to3/12.png"",""time"":1299}]","[]"
"","","","observe","63d9f41910c61f3eb102079f","bdp_cybrbll","Sat Apr 01 2023 18:46:23 GMT-0500 (Central Daylight Time)","504222","3","1","image-keyboard-response","83","152484","0.0-5.0-1.39","","null","","img/3to2/1.png","null","186","310","0.5","0.5","3","1","",""
"","","","","63d9f41910c61f3eb102079f","bdp_cybrbll","Sat Apr 01 2023 18:46:23 GMT-0500 (Central Daylight Time)","504222","3","1","animation","84","153893","0.0-5.0-2.39","","","","","","186","","","","3","1","[{""stimulus"":""img/3to1/1.png"",""time"":110},{""stimulus"":""img/3to1/2.png"",""time"":217},{""stimulus"":""img/3to1/3.png"",""time"":325},{""stimulus"":""img/3to1/4.png"",""time"":433},{""stimulus"":""img/3to1/5.png"",""time"":542},{""stimulus"":""img/3to1/6.png"",""time"":650},{""stimulus"":""img/3to1/7.png"",""time"":758},{""stimulus"":""img/3to1/8.png"",""time"":866},{""stimulus"":""img/3to1/9.png"",""time"":974},{""stimulus"":""img/3to1/10.png"",""time"":1082},{""stimulus"":""img/3to1/11.png"",""time"":1192},{""stimulus"":""img/3to1/12.png"",""time"":1300}]","[]"
"","","","observe","63d9f41910c61f3eb102079f","bdp_cybrbll","Sat Apr 01 2023 18:46:23 GMT-0500 (Central Daylight Time)","504222","3","1","image-keyboard-response","85","154526","0.0-5.0-1.40","","null","","img/1to3/1.png","null","185","630","0.5","0.5","1","3","",""
"","","","","63d9f41910c61f3eb102079f","bdp_cybrbll","Sat Apr 01 2023 18:46:23 GMT-0500 (Central Daylight Time)","504222","3","1","animation","86","155929","0.0-5.0-2.40","","","","","","185","","","","1","3","[{""stimulus"":""img/1to3/1.png"",""time"":107},{""stimulus"":""img/1to3/2.png"",""time"":216},{""stimulus"":""img/1to3/3.png"",""time"":324},{""stimulus"":""img/1to3/4.png"",""time"":431},{""stimulus"":""img/1to3/5.png"",""time"":540},{""stimulus"":""img/1to3/6.png"",""time"":649},{""stimulus"":""img/1to3/7.png"",""time"":756},{""stimulus"":""img/1to3/8.png"",""time"":864},{""stimulus"":""img/1to3/9.png"",""time"":971},{""stimulus"":""img/1to3/10.png"",""time"":1079},{""stimulus"":""img/1to3/11.png"",""time"":1186},{""stimulus"":""img/1to3/12.png"",""time"":1293}]","[]"
"","","","observe","63d9f41910c61f3eb102079f","bdp_cybrbll","Sat Apr 01 2023 18:46:23 GMT-0500 (Central Daylight Time)","504222","3","1","image-keyboard-response","87","156592","0.0-5.0-1.41","","null","","img/3to2/1.png","null","184","647","0.5","0.5","3","1","",""
"","","","","63d9f41910c61f3eb102079f","bdp_cybrbll","Sat Apr 01 2023 18:46:23 GMT-0500 (Central Daylight Time)","504222","3","1","animation","88","157996","0.0-5.0-2.41","","","","","","184","","","","3","1","[{""stimulus"":""img/3to1/1.png"",""time"":110},{""stimulus"":""img/3to1/2.png"",""time"":217},{""stimulus"":""img/3to1/3.png"",""time"":325},{""stimulus"":""img/3to1/4.png"",""time"":433},{""stimulus"":""img/3to1/5.png"",""time"":540},{""stimulus"":""img/3to1/6.png"",""time"":649},{""stimulus"":""img/3to1/7.png"",""time"":758},{""stimulus"":""img/3to1/8.png"",""time"":866},{""stimulus"":""img/3to1/9.png"",""time"":973},{""stimulus"":""img/3to1/10.png"",""time"":1081},{""stimulus"":""img/3to1/11.png"",""time"":1188},{""stimulus"":""img/3to1/12.png"",""time"":1297}]","[]"
"","","","observe","63d9f41910c61f3eb102079f","bdp_cybrbll","Sat Apr 01 2023 18:46:23 GMT-0500 (Central Daylight Time)","504222","3","1","image-keyboard-response","89","158351","0.0-5.0-1.42","","null","","img/1to3/1.png","null","183","346","0.5","0.5","1","2","",""
"","","","","63d9f41910c61f3eb102079f","bdp_cybrbll","Sat Apr 01 2023 18:46:23 GMT-0500 (Central Daylight Time)","504222","3","1","animation","90","159754","0.0-5.0-2.42","","","","","","183","","","","1","2","[{""stimulus"":""img/1to2/1.png"",""time"":107},{""stimulus"":""img/1to2/2.png"",""time"":215},{""stimulus"":""img/1to2/3.png"",""time"":324},{""stimulus"":""img/1to2/4.png"",""time"":431},{""stimulus"":""img/1to2/5.png"",""time"":539},{""stimulus"":""img/1to2/6.png"",""time"":646},{""stimulus"":""img/1to2/7.png"",""time"":755},{""stimulus"":""img/1to2/8.png"",""time"":863},{""stimulus"":""img/1to2/9.png"",""time"":972},{""stimulus"":""img/1to2/10.png"",""time"":1080},{""stimulus"":""img/1to2/11.png"",""time"":1187},{""stimulus"":""img/1to2/12.png"",""time"":1296}]","[]"
"","","","choice","63d9f41910c61f3eb102079f","bdp_cybrbll","Sat Apr 01 2023 18:46:23 GMT-0500 (Central Daylight Time)","504222","3","1","image-keyboard-response","91","160722","0.0-5.0-1.43","","966","","img/2to1/1.png","2","182","264","0.5","0.5","2","3","",""
"","","","","63d9f41910c61f3eb102079f","bdp_cybrbll","Sat Apr 01 2023 18:46:23 GMT-0500 (Central Daylight Time)","504222","3","1","animation","92","162126","0.0-5.0-2.43","","","","","","182","","","","2","3","[{""stimulus"":""img/2to3/1.png"",""time"":112},{""stimulus"":""img/2to3/2.png"",""time"":220},{""stimulus"":""img/2to3/3.png"",""time"":327},{""stimulus"":""img/2to3/4.png"",""time"":436},{""stimulus"":""img/2to3/5.png"",""time"":544},{""stimulus"":""img/2to3/6.png"",""time"":651},{""stimulus"":""img/2to3/7.png"",""time"":760},{""stimulus"":""img/2to3/8.png"",""time"":866},{""stimulus"":""img/2to3/9.png"",""time"":974},{""stimulus"":""img/2to3/10.png"",""time"":1082},{""stimulus"":""img/2to3/11.png"",""time"":1189},{""stimulus"":""img/2to3/12.png"",""time"":1297}]","[]"
"","","","observe","63d9f41910c61f3eb102079f","bdp_cybrbll","Sat Apr 01 2023 18:46:23 GMT-0500 (Central Daylight Time)","504222","3","1","image-keyboard-response","93","162666","0.0-5.0-1.44","","null","","img/3to2/1.png","null","181","526","0.5","0.5","3","1","",""
"","","","","63d9f41910c61f3eb102079f","bdp_cybrbll","Sat Apr 01 2023 18:46:23 GMT-0500 (Central Daylight Time)","504222","3","1","animation","94","164071","0.0-5.0-2.44","","","","","","181","","","","3","1","[{""stimulus"":""img/3to1/1.png"",""time"":108},{""stimulus"":""img/3to1/2.png"",""time"":215},{""stimulus"":""img/3to1/3.png"",""time"":323},{""stimulus"":""img/3to1/4.png"",""time"":431},{""stimulus"":""img/3to1/5.png"",""time"":538},{""stimulus"":""img/3to1/6.png"",""time"":646},{""stimulus"":""img/3to1/7.png"",""time"":755},{""stimulus"":""img/3to1/8.png"",""time"":863},{""stimulus"":""img/3to1/9.png"",""time"":971},{""stimulus"":""img/3to1/10.png"",""time"":1079},{""stimulus"":""img/3to1/11.png"",""time"":1187},{""stimulus"":""img/3to1/12.png"",""time"":1295}]","[]"
"","","","observe","63d9f41910c61f3eb102079f","bdp_cybrbll","Sat Apr 01 2023 18:46:23 GMT-0500 (Central Daylight Time)","504222","3","1","image-keyboard-response","95","165258","0.0-5.0-1.45","","null","","img/1to3/1.png","null","180","1175","0.5","0.5","1","3","",""
"","","","","63d9f41910c61f3eb102079f","bdp_cybrbll","Sat Apr 01 2023 18:46:23 GMT-0500 (Central Daylight Time)","504222","3","1","animation","96","166664","0.0-5.0-2.45","","","","","","180","","","","1","3","[{""stimulus"":""img/1to3/1.png"",""time"":106},{""stimulus"":""img/1to3/2.png"",""time"":215},{""stimulus"":""img/1to3/3.png"",""time"":323},{""stimulus"":""img/1to3/4.png"",""time"":432},{""stimulus"":""img/1to3/5.png"",""time"":539},{""stimulus"":""img/1to3/6.png"",""time"":647},{""stimulus"":""img/1to3/7.png"",""time"":756},{""stimulus"":""img/1to3/8.png"",""time"":864},{""stimulus"":""img/1to3/9.png"",""time"":973},{""stimulus"":""img/1to3/10.png"",""time"":1080},{""stimulus"":""img/1to3/11.png"",""time"":1188},{""stimulus"":""img/1to3/12.png"",""time"":1297}]","[]"
"","","","observe","63d9f41910c61f3eb102079f","bdp_cybrbll","Sat Apr 01 2023 18:46:23 GMT-0500 (Central Daylight Time)","504222","3","1","image-keyboard-response","97","167051","0.0-5.0-1.46","","null","","img/3to2/1.png","null","179","379","0.5","0.5","3","2","",""
"","","","","63d9f41910c61f3eb102079f","bdp_cybrbll","Sat Apr 01 2023 18:46:23 GMT-0500 (Central Daylight Time)","504222","3","1","animation","98","168456","0.0-5.0-2.46","","","","","","179","","","","3","2","[{""stimulus"":""img/3to2/1.png"",""time"":107},{""stimulus"":""img/3to2/2.png"",""time"":214},{""stimulus"":""img/3to2/3.png"",""time"":323},{""stimulus"":""img/3to2/4.png"",""time"":432},{""stimulus"":""img/3to2/5.png"",""time"":540},{""stimulus"":""img/3to2/6.png"",""time"":649},{""stimulus"":""img/3to2/7.png"",""time"":757},{""stimulus"":""img/3to2/8.png"",""time"":867},{""stimulus"":""img/3to2/9.png"",""time"":973},{""stimulus"":""img/3to2/10.png"",""time"":1082},{""stimulus"":""img/3to2/11.png"",""time"":1190},{""stimulus"":""img/3to2/12.png"",""time"":1298}]","[]"
"","","","choice","63d9f41910c61f3eb102079f","bdp_cybrbll","Sat Apr 01 2023 18:46:23 GMT-0500 (Central Daylight Time)","504222","3","1","image-keyboard-response","99","168796","0.0-5.0-1.47","","338","","img/2to1/1.png","1","178","451","0.5","0.5","2","1","",""
"","","","","63d9f41910c61f3eb102079f","bdp_cybrbll","Sat Apr 01 2023 18:46:23 GMT-0500 (Central Daylight Time)","504222","3","1","animation","100","170200","0.0-5.0-2.47","","","","","","178","","","","2","1","[{""stimulus"":""img/2to1/1.png"",""time"":107},{""stimulus"":""img/2to1/2.png"",""time"":214},{""stimulus"":""img/2to1/3.png"",""time"":323},{""stimulus"":""img/2to1/4.png"",""time"":430},{""stimulus"":""img/2to1/5.png"",""time"":538},{""stimulus"":""img/2to1/6.png"",""time"":646},{""stimulus"":""img/2to1/7.png"",""time"":753},{""stimulus"":""img/2to1/8.png"",""time"":863},{""stimulus"":""img/2to1/9.png"",""time"":971},{""stimulus"":""img/2to1/10.png"",""time"":1079},{""stimulus"":""img/2to1/11.png"",""time"":1186},{""stimulus"":""img/2to1/12.png"",""time"":1294}]","[]"
"","","","observe","63d9f41910c61f3eb102079f","bdp_cybrbll","Sat Apr 01 2023 18:46:23 GMT-0500 (Central Daylight Time)","504222","3","1","image-keyboard-response","101","170524","0.0-5.0-1.48","","null","","img/1to3/1.png","null","177","319","0.5","0.5","1","3","",""
"","","","","63d9f41910c61f3eb102079f","bdp_cybrbll","Sat Apr 01 2023 18:46:23 GMT-0500 (Central Daylight Time)","504222","3","1","animation","102","171926","0.0-5.0-2.48","","","","","","177","","","","1","3","[{""stimulus"":""img/1to3/1.png"",""time"":108},{""stimulus"":""img/1to3/2.png"",""time"":216},{""stimulus"":""img/1to3/3.png"",""time"":325},{""stimulus"":""img/1to3/4.png"",""time"":432},{""stimulus"":""img/1to3/5.png"",""time"":539},{""stimulus"":""img/1to3/6.png"",""time"":648},{""stimulus"":""img/1to3/7.png"",""time"":754},{""stimulus"":""img/1to3/8.png"",""time"":862},{""stimulus"":""img/1to3/9.png"",""time"":970},{""stimulus"":""img/1to3/10.png"",""time"":1077},{""stimulus"":""img/1to3/11.png"",""time"":1185},{""stimulus"":""img/1to3/12.png"",""time"":1295}]","[]"
"","","","observe","63d9f41910c61f3eb102079f","bdp_cybrbll","Sat Apr 01 2023 18:46:23 GMT-0500 (Central Daylight Time)","504222","3","1","image-keyboard-response","103","172310","0.0-5.0-1.49","","null","","img/3to2/1.png","null","176","369","0.5","0.5","3","1","",""
"","","","","63d9f41910c61f3eb102079f","bdp_cybrbll","Sat Apr 01 2023 18:46:23 GMT-0500 (Central Daylight Time)","504222","3","1","animation","104","173708","0.0-5.0-2.49","","","","","","176","","","","3","1","[{""stimulus"":""img/3to1/1.png"",""time"":110},{""stimulus"":""img/3to1/2.png"",""time"":217},{""stimulus"":""img/3to1/3.png"",""time"":323},{""stimulus"":""img/3to1/4.png"",""time"":431},{""stimulus"":""img/3to1/5.png"",""time"":539},{""stimulus"":""img/3to1/6.png"",""time"":646},{""stimulus"":""img/3to1/7.png"",""time"":753},{""stimulus"":""img/3to1/8.png"",""time"":861},{""stimulus"":""img/3to1/9.png"",""time"":968},{""stimulus"":""img/3to1/10.png"",""time"":1076},{""stimulus"":""img/3to1/11.png"",""time"":1184},{""stimulus"":""img/3to1/12.png"",""time"":1291}]","[]"
"","","","observe","63d9f41910c61f3eb102079f","bdp_cybrbll","Sat Apr 01 2023 18:46:23 GMT-0500 (Central Daylight Time)","504222","3","1","image-keyboard-response","105","174004","0.0-5.0-1.50","","null","","img/1to3/1.png","null","175","293","0.5","0.5","1","3","",""
"","","","","63d9f41910c61f3eb102079f","bdp_cybrbll","Sat Apr 01 2023 18:46:23 GMT-0500 (Central Daylight Time)","504222","3","1","animation","106","175411","0.0-5.0-2.50","","","","","","175","","","","1","3","[{""stimulus"":""img/1to3/1.png"",""time"":109},{""stimulus"":""img/1to3/2.png"",""time"":216},{""stimulus"":""img/1to3/3.png"",""time"":324},{""stimulus"":""img/1to3/4.png"",""time"":432},{""stimulus"":""img/1to3/5.png"",""time"":540},{""stimulus"":""img/1to3/6.png"",""time"":648},{""stimulus"":""img/1to3/7.png"",""time"":757},{""stimulus"":""img/1to3/8.png"",""time"":868},{""stimulus"":""img/1to3/9.png"",""time"":976},{""stimulus"":""img/1to3/10.png"",""time"":1084},{""stimulus"":""img/1to3/11.png"",""time"":1192},{""stimulus"":""img/1to3/12.png"",""time"":1300}]","[]"
"","","","observe","63d9f41910c61f3eb102079f","bdp_cybrbll","Sat Apr 01 2023 18:46:23 GMT-0500 (Central Daylight Time)","504222","3","1","image-keyboard-response","107","175596","0.0-5.0-1.51","","null","","img/3to2/1.png","null","174","178","0.5","0.5","3","2","",""
"","","","","63d9f41910c61f3eb102079f","bdp_cybrbll","Sat Apr 01 2023 18:46:23 GMT-0500 (Central Daylight Time)","504222","3","1","animation","108","177003","0.0-5.0-2.51","","","","","","174","","","","3","2","[{""stimulus"":""img/3to2/1.png"",""time"":107},{""stimulus"":""img/3to2/2.png"",""time"":216},{""stimulus"":""img/3to2/3.png"",""time"":324},{""stimulus"":""img/3to2/4.png"",""time"":431},{""stimulus"":""img/3to2/5.png"",""time"":539},{""stimulus"":""img/3to2/6.png"",""time"":647},{""stimulus"":""img/3to2/7.png"",""time"":754},{""stimulus"":""img/3to2/8.png"",""time"":862},{""stimulus"":""img/3to2/9.png"",""time"":971},{""stimulus"":""img/3to2/10.png"",""time"":1081},{""stimulus"":""img/3to2/11.png"",""time"":1189},{""stimulus"":""img/3to2/12.png"",""time"":1297}]","[]"
"","","","choice","63d9f41910c61f3eb102079f","bdp_cybrbll","Sat Apr 01 2023 18:46:23 GMT-0500 (Central Daylight Time)","504222","3","1","image-keyboard-response","109","178279","0.0-5.0-1.52","","1274","","img/2to1/1.png","2","173","736","0.5","0.5","2","3","",""
"","","","","63d9f41910c61f3eb102079f","bdp_cybrbll","Sat Apr 01 2023 18:46:23 GMT-0500 (Central Daylight Time)","504222","3","1","animation","110","179688","0.0-5.0-2.52","","","","","","173","","","","2","3","[{""stimulus"":""img/2to3/1.png"",""time"":110},{""stimulus"":""img/2to3/2.png"",""time"":220},{""stimulus"":""img/2to3/3.png"",""time"":327},{""stimulus"":""img/2to3/4.png"",""time"":436},{""stimulus"":""img/2to3/5.png"",""time"":543},{""stimulus"":""img/2to3/6.png"",""time"":651},{""stimulus"":""img/2to3/7.png"",""time"":760},{""stimulus"":""img/2to3/8.png"",""time"":869},{""stimulus"":""img/2to3/9.png"",""time"":977},{""stimulus"":""img/2to3/10.png"",""time"":1085},{""stimulus"":""img/2to3/11.png"",""time"":1193},{""stimulus"":""img/2to3/12.png"",""time"":1301}]","[]"
"","","","observe","63d9f41910c61f3eb102079f","bdp_cybrbll","Sat Apr 01 2023 18:46:23 GMT-0500 (Central Daylight Time)","504222","3","1","image-keyboard-response","111","180875","0.0-5.0-1.53","","null","","img/3to2/1.png","null","172","1177","0.5","0.5","3","1","",""
"","","","","63d9f41910c61f3eb102079f","bdp_cybrbll","Sat Apr 01 2023 18:46:23 GMT-0500 (Central Daylight Time)","504222","3","1","animation","112","182280","0.0-5.0-2.53","","","","","","172","","","","3","1","[{""stimulus"":""img/3to1/1.png"",""time"":108},{""stimulus"":""img/3to1/2.png"",""time"":216},{""stimulus"":""img/3to1/3.png"",""time"":323},{""stimulus"":""img/3to1/4.png"",""time"":430},{""stimulus"":""img/3to1/5.png"",""time"":539},{""stimulus"":""img/3to1/6.png"",""time"":647},{""stimulus"":""img/3to1/7.png"",""time"":755},{""stimulus"":""img/3to1/8.png"",""time"":863},{""stimulus"":""img/3to1/9.png"",""time"":972},{""stimulus"":""img/3to1/10.png"",""time"":1080},{""stimulus"":""img/3to1/11.png"",""time"":1189},{""stimulus"":""img/3to1/12.png"",""time"":1298}]","[]"
"","","","observe","63d9f41910c61f3eb102079f","bdp_cybrbll","Sat Apr 01 2023 18:46:23 GMT-0500 (Central Daylight Time)","504222","3","1","image-keyboard-response","113","183128","0.0-5.0-1.54","","null","","img/1to3/1.png","null","171","841","0.5","0.5","1","2","",""
"","","","","63d9f41910c61f3eb102079f","bdp_cybrbll","Sat Apr 01 2023 18:46:23 GMT-0500 (Central Daylight Time)","504222","3","1","animation","114","184534","0.0-5.0-2.54","","","","","","171","","","","1","2","[{""stimulus"":""img/1to2/1.png"",""time"":109},{""stimulus"":""img/1to2/2.png"",""time"":217},{""stimulus"":""img/1to2/3.png"",""time"":324},{""stimulus"":""img/1to2/4.png"",""time"":433},{""stimulus"":""img/1to2/5.png"",""time"":541},{""stimulus"":""img/1to2/6.png"",""time"":649},{""stimulus"":""img/1to2/7.png"",""time"":758},{""stimulus"":""img/1to2/8.png"",""time"":866},{""stimulus"":""img/1to2/9.png"",""time"":973},{""stimulus"":""img/1to2/10.png"",""time"":1082},{""stimulus"":""img/1to2/11.png"",""time"":1189},{""stimulus"":""img/1to2/12.png"",""time"":1298}]","[]"
"","","","choice","63d9f41910c61f3eb102079f","bdp_cybrbll","Sat Apr 01 2023 18:46:23 GMT-0500 (Central Daylight Time)","504222","3","1","image-keyboard-response","115","185498","0.0-5.0-1.55","","963","","img/2to1/1.png","1","170","231","0.5","0.5","2","1","",""
"","","","","63d9f41910c61f3eb102079f","bdp_cybrbll","Sat Apr 01 2023 18:46:23 GMT-0500 (Central Daylight Time)","504222","3","1","animation","116","186898","0.0-5.0-2.55","","","","","","170","","","","2","1","[{""stimulus"":""img/2to1/1.png"",""time"":101},{""stimulus"":""img/2to1/2.png"",""time"":210},{""stimulus"":""img/2to1/3.png"",""time"":318},{""stimulus"":""img/2to1/4.png"",""time"":426},{""stimulus"":""img/2to1/5.png"",""time"":535},{""stimulus"":""img/2to1/6.png"",""time"":643},{""stimulus"":""img/2to1/7.png"",""time"":751},{""stimulus"":""img/2to1/8.png"",""time"":860},{""stimulus"":""img/2to1/9.png"",""time"":967},{""stimulus"":""img/2to1/10.png"",""time"":1076},{""stimulus"":""img/2to1/11.png"",""time"":1184},{""stimulus"":""img/2to1/12.png"",""time"":1293}]","[]"
"","","","observe","63d9f41910c61f3eb102079f","bdp_cybrbll","Sat Apr 01 2023 18:46:23 GMT-0500 (Central Daylight Time)","504222","3","1","image-keyboard-response","117","187255","0.0-5.0-1.56","","null","","img/1to3/1.png","null","169","355","0.5","0.5","1","2","",""
"","","","","63d9f41910c61f3eb102079f","bdp_cybrbll","Sat Apr 01 2023 18:46:23 GMT-0500 (Central Daylight Time)","504222","3","1","animation","118","188658","0.0-5.0-2.56","","","","","","169","","","","1","2","[{""stimulus"":""img/1to2/1.png"",""time"":110},{""stimulus"":""img/1to2/2.png"",""time"":217},{""stimulus"":""img/1to2/3.png"",""time"":326},{""stimulus"":""img/1to2/4.png"",""time"":434},{""stimulus"":""img/1to2/5.png"",""time"":542},{""stimulus"":""img/1to2/6.png"",""time"":649},{""stimulus"":""img/1to2/7.png"",""time"":756},{""stimulus"":""img/1to2/8.png"",""time"":863},{""stimulus"":""img/1to2/9.png"",""time"":971},{""stimulus"":""img/1to2/10.png"",""time"":1078},{""stimulus"":""img/1to2/11.png"",""time"":1186},{""stimulus"":""img/1to2/12.png"",""time"":1295}]","[]"
"","","","choice","63d9f41910c61f3eb102079f","bdp_cybrbll","Sat Apr 01 2023 18:46:23 GMT-0500 (Central Daylight Time)","504222","3","1","image-keyboard-response","119","189176","0.0-5.0-1.57","","517","","img/2to1/1.png","2","168","621","0.5","0.5","2","3","",""
"","","","","63d9f41910c61f3eb102079f","bdp_cybrbll","Sat Apr 01 2023 18:46:23 GMT-0500 (Central Daylight Time)","504222","3","1","animation","120","190577","0.0-5.0-2.57","","","","","","168","","","","2","3","[{""stimulus"":""img/2to3/1.png"",""time"":101},{""stimulus"":""img/2to3/2.png"",""time"":210},{""stimulus"":""img/2to3/3.png"",""time"":317},{""stimulus"":""img/2to3/4.png"",""time"":426},{""stimulus"":""img/2to3/5.png"",""time"":532},{""stimulus"":""img/2to3/6.png"",""time"":641},{""stimulus"":""img/2to3/7.png"",""time"":749},{""stimulus"":""img/2to3/8.png"",""time"":859},{""stimulus"":""img/2to3/9.png"",""time"":968},{""stimulus"":""img/2to3/10.png"",""time"":1076},{""stimulus"":""img/2to3/11.png"",""time"":1184},{""stimulus"":""img/2to3/12.png"",""time"":1292}]","[]"
"","","","observe","63d9f41910c61f3eb102079f","bdp_cybrbll","Sat Apr 01 2023 18:46:23 GMT-0500 (Central Daylight Time)","504222","3","1","image-keyboard-response","121","191593","0.0-5.0-1.58","","null","","img/3to2/1.png","null","167","1008","0.5","0.5","3","2","",""
"","","","","63d9f41910c61f3eb102079f","bdp_cybrbll","Sat Apr 01 2023 18:46:23 GMT-0500 (Central Daylight Time)","504222","3","1","animation","122","193001","0.0-5.0-2.58","","","","","","167","","","","3","2","[{""stimulus"":""img/3to2/1.png"",""time"":106},{""stimulus"":""img/3to2/2.png"",""time"":215},{""stimulus"":""img/3to2/3.png"",""time"":322},{""stimulus"":""img/3to2/4.png"",""time"":431},{""stimulus"":""img/3to2/5.png"",""time"":539},{""stimulus"":""img/3to2/6.png"",""time"":647},{""stimulus"":""img/3to2/7.png"",""time"":755},{""stimulus"":""img/3to2/8.png"",""time"":865},{""stimulus"":""img/3to2/9.png"",""time"":974},{""stimulus"":""img/3to2/10.png"",""time"":1082},{""stimulus"":""img/3to2/11.png"",""time"":1191},{""stimulus"":""img/3to2/12.png"",""time"":1298}]","[]"
"","","","choice","63d9f41910c61f3eb102079f","bdp_cybrbll","Sat Apr 01 2023 18:46:23 GMT-0500 (Central Daylight Time)","504222","3","1","image-keyboard-response","123","193113","0.0-5.0-1.59","","110","","img/2to1/1.png","1","166","571","0.5","0.5","2","1","",""
"","","","","63d9f41910c61f3eb102079f","bdp_cybrbll","Sat Apr 01 2023 18:46:23 GMT-0500 (Central Daylight Time)","504222","3","1","animation","124","194513","0.0-5.0-2.59","","","","","","166","","","","2","1","[{""stimulus"":""img/2to1/1.png"",""time"":104},{""stimulus"":""img/2to1/2.png"",""time"":212},{""stimulus"":""img/2to1/3.png"",""time"":321},{""stimulus"":""img/2to1/4.png"",""time"":431},{""stimulus"":""img/2to1/5.png"",""time"":538},{""stimulus"":""img/2to1/6.png"",""time"":645},{""stimulus"":""img/2to1/7.png"",""time"":753},{""stimulus"":""img/2to1/8.png"",""time"":861},{""stimulus"":""img/2to1/9.png"",""time"":969},{""stimulus"":""img/2to1/10.png"",""time"":1077},{""stimulus"":""img/2to1/11.png"",""time"":1185},{""stimulus"":""img/2to1/12.png"",""time"":1292}]","[]"
"","","","observe","63d9f41910c61f3eb102079f","bdp_cybrbll","Sat Apr 01 2023 18:46:23 GMT-0500 (Central Daylight Time)","504222","3","1","image-keyboard-response","125","194777","0.0-5.0-1.60","","null","","img/1to3/1.png","null","165","258","0.5","0.5","1","3","",""
"","","","","63d9f41910c61f3eb102079f","bdp_cybrbll","Sat Apr 01 2023 18:46:23 GMT-0500 (Central Daylight Time)","504222","3","1","animation","126","196183","0.0-5.0-2.60","","","","","","165","","","","1","3","[{""stimulus"":""img/1to3/1.png"",""time"":108},{""stimulus"":""img/1to3/2.png"",""time"":215},{""stimulus"":""img/1to3/3.png"",""time"":323},{""stimulus"":""img/1to3/4.png"",""time"":431},{""stimulus"":""img/1to3/5.png"",""time"":540},{""stimulus"":""img/1to3/6.png"",""time"":648},{""stimulus"":""img/1to3/7.png"",""time"":757},{""stimulus"":""img/1to3/8.png"",""time"":866},{""stimulus"":""img/1to3/9.png"",""time"":974},{""stimulus"":""img/1to3/10.png"",""time"":1083},{""stimulus"":""img/1to3/11.png"",""time"":1190},{""stimulus"":""img/1to3/12.png"",""time"":1298}]","[]"
"","","","observe","63d9f41910c61f3eb102079f","bdp_cybrbll","Sat Apr 01 2023 18:46:23 GMT-0500 (Central Daylight Time)","504222","3","1","image-keyboard-response","127","196478","0.0-5.0-1.61","","null","","img/3to2/1.png","null","164","289","0.5","0.5","3","2","",""
"","","","","63d9f41910c61f3eb102079f","bdp_cybrbll","Sat Apr 01 2023 18:46:23 GMT-0500 (Central Daylight Time)","504222","3","1","animation","128","197886","0.0-5.0-2.61","","","","","","164","","","","3","2","[{""stimulus"":""img/3to2/1.png"",""time"":108},{""stimulus"":""img/3to2/2.png"",""time"":218},{""stimulus"":""img/3to2/3.png"",""time"":325},{""stimulus"":""img/3to2/4.png"",""time"":433},{""stimulus"":""img/3to2/5.png"",""time"":543},{""stimulus"":""img/3to2/6.png"",""time"":651},{""stimulus"":""img/3to2/7.png"",""time"":759},{""stimulus"":""img/3to2/8.png"",""time"":867},{""stimulus"":""img/3to2/9.png"",""time"":975},{""stimulus"":""img/3to2/10.png"",""time"":1084},{""stimulus"":""img/3to2/11.png"",""time"":1192},{""stimulus"":""img/3to2/12.png"",""time"":1301}]","[]"
"","","","choice","63d9f41910c61f3eb102079f","bdp_cybrbll","Sat Apr 01 2023 18:46:23 GMT-0500 (Central Daylight Time)","504222","3","1","image-keyboard-response","129","198367","0.0-5.0-1.62","","480","","img/2to1/1.png","1","163","946","0.5","0.5","2","1","",""
"","","","","63d9f41910c61f3eb102079f","bdp_cybrbll","Sat Apr 01 2023 18:46:23 GMT-0500 (Central Daylight Time)","504222","3","1","animation","130","199772","0.0-5.0-2.62","","","","","","163","","","","2","1","[{""stimulus"":""img/2to1/1.png"",""time"":105},{""stimulus"":""img/2to1/2.png"",""time"":213},{""stimulus"":""img/2to1/3.png"",""time"":322},{""stimulus"":""img/2to1/4.png"",""time"":430},{""stimulus"":""img/2to1/5.png"",""time"":539},{""stimulus"":""img/2to1/6.png"",""time"":647},{""stimulus"":""img/2to1/7.png"",""time"":755},{""stimulus"":""img/2to1/8.png"",""time"":863},{""stimulus"":""img/2to1/9.png"",""time"":972},{""stimulus"":""img/2to1/10.png"",""time"":1080},{""stimulus"":""img/2to1/11.png"",""time"":1188},{""stimulus"":""img/2to1/12.png"",""time"":1295}]","[]"
"","","","observe","63d9f41910c61f3eb102079f","bdp_cybrbll","Sat Apr 01 2023 18:46:23 GMT-0500 (Central Daylight Time)","504222","3","1","image-keyboard-response","131","200034","0.0-5.0-1.63","","null","","img/1to3/1.png","null","162","251","0.5","0.5","1","2","",""
"","","","","63d9f41910c61f3eb102079f","bdp_cybrbll","Sat Apr 01 2023 18:46:23 GMT-0500 (Central Daylight Time)","504222","3","1","animation","132","201440","0.0-5.0-2.63","","","","","","162","","","","1","2","[{""stimulus"":""img/1to2/1.png"",""time"":107},{""stimulus"":""img/1to2/2.png"",""time"":215},{""stimulus"":""img/1to2/3.png"",""time"":325},{""stimulus"":""img/1to2/4.png"",""time"":434},{""stimulus"":""img/1to2/5.png"",""time"":542},{""stimulus"":""img/1to2/6.png"",""time"":649},{""stimulus"":""img/1to2/7.png"",""time"":758},{""stimulus"":""img/1to2/8.png"",""time"":867},{""stimulus"":""img/1to2/9.png"",""time"":975},{""stimulus"":""img/1to2/10.png"",""time"":1081},{""stimulus"":""img/1to2/11.png"",""time"":1188},{""stimulus"":""img/1to2/12.png"",""time"":1296}]","[]"
"","","","choice","63d9f41910c61f3eb102079f","bdp_cybrbll","Sat Apr 01 2023 18:46:23 GMT-0500 (Central Daylight Time)","504222","3","1","image-keyboard-response","133","201603","0.0-5.0-1.64","","162","","img/2to1/1.png","2","161","157","0.5","0.5","2","3","",""
"","","","","63d9f41910c61f3eb102079f","bdp_cybrbll","Sat Apr 01 2023 18:46:23 GMT-0500 (Central Daylight Time)","504222","3","1","animation","134","203014","0.0-5.0-2.64","","","","","","161","","","","2","3","[{""stimulus"":""img/2to3/1.png"",""time"":113},{""stimulus"":""img/2to3/2.png"",""time"":221},{""stimulus"":""img/2to3/3.png"",""time"":329},{""stimulus"":""img/2to3/4.png"",""time"":437},{""stimulus"":""img/2to3/5.png"",""time"":545},{""stimulus"":""img/2to3/6.png"",""time"":653},{""stimulus"":""img/2to3/7.png"",""time"":761},{""stimulus"":""img/2to3/8.png"",""time"":869},{""stimulus"":""img/2to3/9.png"",""time"":978},{""stimulus"":""img/2to3/10.png"",""time"":1087},{""stimulus"":""img/2to3/11.png"",""time"":1195},{""stimulus"":""img/2to3/12.png"",""time"":1304}]","[]"
"","","","observe","63d9f41910c61f3eb102079f","bdp_cybrbll","Sat Apr 01 2023 18:46:23 GMT-0500 (Central Daylight Time)","504222","3","1","image-keyboard-response","135","203324","0.0-5.0-1.65","","null","","img/3to2/1.png","null","160","306","0.5","0.5","3","2","",""
"","","","","63d9f41910c61f3eb102079f","bdp_cybrbll","Sat Apr 01 2023 18:46:23 GMT-0500 (Central Daylight Time)","504222","3","1","animation","136","204730","0.0-5.0-2.65","","","","","","160","","","","3","2","[{""stimulus"":""img/3to2/1.png"",""time"":108},{""stimulus"":""img/3to2/2.png"",""time"":216},{""stimulus"":""img/3to2/3.png"",""time"":324},{""stimulus"":""img/3to2/4.png"",""time"":432},{""stimulus"":""img/3to2/5.png"",""time"":541},{""stimulus"":""img/3to2/6.png"",""time"":649},{""stimulus"":""img/3to2/7.png"",""time"":757},{""stimulus"":""img/3to2/8.png"",""time"":864},{""stimulus"":""img/3to2/9.png"",""time"":972},{""stimulus"":""img/3to2/10.png"",""time"":1081},{""stimulus"":""img/3to2/11.png"",""time"":1190},{""stimulus"":""img/3to2/12.png"",""time"":1298}]","[]"
"","","","choice","63d9f41910c61f3eb102079f","bdp_cybrbll","Sat Apr 01 2023 18:46:23 GMT-0500 (Central Daylight Time)","504222","3","1","image-keyboard-response","137","205168","0.0-5.0-1.66","","437","","img/2to1/1.png","1","159","685","0.5","0.5","2","1","",""
"","","","","63d9f41910c61f3eb102079f","bdp_cybrbll","Sat Apr 01 2023 18:46:23 GMT-0500 (Central Daylight Time)","504222","3","1","animation","138","206589","0.0-5.0-2.66","","","","","","159","","","","2","1","[{""stimulus"":""img/2to1/1.png"",""time"":103},{""stimulus"":""img/2to1/2.png"",""time"":210},{""stimulus"":""img/2to1/3.png"",""time"":318},{""stimulus"":""img/2to1/4.png"",""time"":426},{""stimulus"":""img/2to1/5.png"",""time"":534},{""stimulus"":""img/2to1/6.png"",""time"":642},{""stimulus"":""img/2to1/7.png"",""time"":751},{""stimulus"":""img/2to1/8.png"",""time"":860},{""stimulus"":""img/2to1/9.png"",""time"":967},{""stimulus"":""img/2to1/10.png"",""time"":1076},{""stimulus"":""img/2to1/11.png"",""time"":1188},{""stimulus"":""img/2to1/12.png"",""time"":1308}]","[]"
"","","","observe","63d9f41910c61f3eb102079f","bdp_cybrbll","Sat Apr 01 2023 18:46:23 GMT-0500 (Central Daylight Time)","504222","3","1","image-keyboard-response","139","207349","0.0-5.0-1.67","","null","","img/1to3/1.png","null","158","747","0.5","0.5","1","2","",""
"","","","","63d9f41910c61f3eb102079f","bdp_cybrbll","Sat Apr 01 2023 18:46:23 GMT-0500 (Central Daylight Time)","504222","3","1","animation","140","208756","0.0-5.0-2.67","","","","","","158","","","","1","2","[{""stimulus"":""img/1to2/1.png"",""time"":107},{""stimulus"":""img/1to2/2.png"",""time"":215},{""stimulus"":""img/1to2/3.png"",""time"":325},{""stimulus"":""img/1to2/4.png"",""time"":433},{""stimulus"":""img/1to2/5.png"",""time"":541},{""stimulus"":""img/1to2/6.png"",""time"":650},{""stimulus"":""img/1to2/7.png"",""time"":757},{""stimulus"":""img/1to2/8.png"",""time"":865},{""stimulus"":""img/1to2/9.png"",""time"":973},{""stimulus"":""img/1to2/10.png"",""time"":1081},{""stimulus"":""img/1to2/11.png"",""time"":1190},{""stimulus"":""img/1to2/12.png"",""time"":1298}]","[]"
"","","","choice","63d9f41910c61f3eb102079f","bdp_cybrbll","Sat Apr 01 2023 18:46:23 GMT-0500 (Central Daylight Time)","504222","3","1","image-keyboard-response","141","209036","0.0-5.0-1.68","","279","","img/2to1/1.png","2","157","634","0.5","0.5","2","3","",""
"","","","","63d9f41910c61f3eb102079f","bdp_cybrbll","Sat Apr 01 2023 18:46:23 GMT-0500 (Central Daylight Time)","504222","3","1","animation","142","210439","0.0-5.0-2.68","","","","","","157","","","","2","3","[{""stimulus"":""img/2to3/1.png"",""time"":107},{""stimulus"":""img/2to3/2.png"",""time"":216},{""stimulus"":""img/2to3/3.png"",""time"":324},{""stimulus"":""img/2to3/4.png"",""time"":431},{""stimulus"":""img/2to3/5.png"",""time"":539},{""stimulus"":""img/2to3/6.png"",""time"":647},{""stimulus"":""img/2to3/7.png"",""time"":755},{""stimulus"":""img/2to3/8.png"",""time"":864},{""stimulus"":""img/2to3/9.png"",""time"":971},{""stimulus"":""img/2to3/10.png"",""time"":1079},{""stimulus"":""img/2to3/11.png"",""time"":1187},{""stimulus"":""img/2to3/12.png"",""time"":1296}]","[]"
"","","","observe","63d9f41910c61f3eb102079f","bdp_cybrbll","Sat Apr 01 2023 18:46:23 GMT-0500 (Central Daylight Time)","504222","3","1","image-keyboard-response","143","211242","0.0-5.0-1.69","","null","","img/3to2/1.png","null","156","791","0.5","0.5","3","2","",""
"","","","","63d9f41910c61f3eb102079f","bdp_cybrbll","Sat Apr 01 2023 18:46:23 GMT-0500 (Central Daylight Time)","504222","3","1","animation","144","212649","0.0-5.0-2.69","","","","","","156","","","","3","2","[{""stimulus"":""img/3to2/1.png"",""time"":110},{""stimulus"":""img/3to2/2.png"",""time"":219},{""stimulus"":""img/3to2/3.png"",""time"":325},{""stimulus"":""img/3to2/4.png"",""time"":433},{""stimulus"":""img/3to2/5.png"",""time"":542},{""stimulus"":""img/3to2/6.png"",""time"":649},{""stimulus"":""img/3to2/7.png"",""time"":757},{""stimulus"":""img/3to2/8.png"",""time"":865},{""stimulus"":""img/3to2/9.png"",""time"":974},{""stimulus"":""img/3to2/10.png"",""time"":1083},{""stimulus"":""img/3to2/11.png"",""time"":1191},{""stimulus"":""img/3to2/12.png"",""time"":1299}]","[]"
"","","","choice","63d9f41910c61f3eb102079f","bdp_cybrbll","Sat Apr 01 2023 18:46:23 GMT-0500 (Central Daylight Time)","504222","3","1","image-keyboard-response","145","212921","0.0-5.0-1.70","","271","","img/2to1/1.png","1","155","888","0.5","0.5","2","1","",""
"","","","","63d9f41910c61f3eb102079f","bdp_cybrbll","Sat Apr 01 2023 18:46:23 GMT-0500 (Central Daylight Time)","504222","3","1","animation","146","214330","0.0-5.0-2.70","","","","","","155","","","","2","1","[{""stimulus"":""img/2to1/1.png"",""time"":114},{""stimulus"":""img/2to1/2.png"",""time"":221},{""stimulus"":""img/2to1/3.png"",""time"":329},{""stimulus"":""img/2to1/4.png"",""time"":437},{""stimulus"":""img/2to1/5.png"",""time"":545},{""stimulus"":""img/2to1/6.png"",""time"":652},{""stimulus"":""img/2to1/7.png"",""time"":759},{""stimulus"":""img/2to1/8.png"",""time"":868},{""stimulus"":""img/2to1/9.png"",""time"":976},{""stimulus"":""img/2to1/10.png"",""time"":1084},{""stimulus"":""img/2to1/11.png"",""time"":1192},{""stimulus"":""img/2to1/12.png"",""time"":1302}]","[]"
"","","","observe","63d9f41910c61f3eb102079f","bdp_cybrbll","Sat Apr 01 2023 18:46:23 GMT-0500 (Central Daylight Time)","504222","3","1","image-keyboard-response","147","214765","0.0-5.0-1.71","","null","","img/1to3/1.png","null","154","419","0.5","0.5","1","2","",""
"","","","","63d9f41910c61f3eb102079f","bdp_cybrbll","Sat Apr 01 2023 18:46:23 GMT-0500 (Central Daylight Time)","504222","3","1","animation","148","216171","0.0-5.0-2.71","","","","","","154","","","","1","2","[{""stimulus"":""img/1to2/1.png"",""time"":108},{""stimulus"":""img/1to2/2.png"",""time"":215},{""stimulus"":""img/1to2/3.png"",""time"":324},{""stimulus"":""img/1to2/4.png"",""time"":432},{""stimulus"":""img/1to2/5.png"",""time"":540},{""stimulus"":""img/1to2/6.png"",""time"":649},{""stimulus"":""img/1to2/7.png"",""time"":757},{""stimulus"":""img/1to2/8.png"",""time"":865},{""stimulus"":""img/1to2/9.png"",""time"":974},{""stimulus"":""img/1to2/10.png"",""time"":1082},{""stimulus"":""img/1to2/11.png"",""time"":1189},{""stimulus"":""img/1to2/12.png"",""time"":1299}]","[]"
"","","","choice","63d9f41910c61f3eb102079f","bdp_cybrbll","Sat Apr 01 2023 18:46:23 GMT-0500 (Central Daylight Time)","504222","3","1","image-keyboard-response","149","216511","0.0-5.0-1.72","","339","","img/2to1/1.png","2","153","389","0.5","0.5","2","3","",""
"","","","","63d9f41910c61f3eb102079f","bdp_cybrbll","Sat Apr 01 2023 18:46:23 GMT-0500 (Central Daylight Time)","504222","3","1","animation","150","217916","0.0-5.0-2.72","","","","","","153","","","","2","3","[{""stimulus"":""img/2to3/1.png"",""time"":107},{""stimulus"":""img/2to3/2.png"",""time"":214},{""stimulus"":""img/2to3/3.png"",""time"":323},{""stimulus"":""img/2to3/4.png"",""time"":431},{""stimulus"":""img/2to3/5.png"",""time"":540},{""stimulus"":""img/2to3/6.png"",""time"":648},{""stimulus"":""img/2to3/7.png"",""time"":756},{""stimulus"":""img/2to3/8.png"",""time"":863},{""stimulus"":""img/2to3/9.png"",""time"":972},{""stimulus"":""img/2to3/10.png"",""time"":1079},{""stimulus"":""img/2to3/11.png"",""time"":1188},{""stimulus"":""img/2to3/12.png"",""time"":1296}]","[]"
"","","","observe","63d9f41910c61f3eb102079f","bdp_cybrbll","Sat Apr 01 2023 18:46:23 GMT-0500 (Central Daylight Time)","504222","3","1","image-keyboard-response","151","218208","0.0-5.0-1.73","","null","","img/3to2/1.png","null","152","283","0.5","0.5","3","1","",""
"","","","","63d9f41910c61f3eb102079f","bdp_cybrbll","Sat Apr 01 2023 18:46:23 GMT-0500 (Central Daylight Time)","504222","3","1","animation","152","219616","0.0-5.0-2.73","","","","","","152","","","","3","1","[{""stimulus"":""img/3to1/1.png"",""time"":109},{""stimulus"":""img/3to1/2.png"",""time"":217},{""stimulus"":""img/3to1/3.png"",""time"":327},{""stimulus"":""img/3to1/4.png"",""time"":434},{""stimulus"":""img/3to1/5.png"",""time"":542},{""stimulus"":""img/3to1/6.png"",""time"":650},{""stimulus"":""img/3to1/7.png"",""time"":759},{""stimulus"":""img/3to1/8.png"",""time"":867},{""stimulus"":""img/3to1/9.png"",""time"":977},{""stimulus"":""img/3to1/10.png"",""time"":1084},{""stimulus"":""img/3to1/11.png"",""time"":1193},{""stimulus"":""img/3to1/12.png"",""time"":1301}]","[]"
"","","","observe","63d9f41910c61f3eb102079f","bdp_cybrbll","Sat Apr 01 2023 18:46:23 GMT-0500 (Central Daylight Time)","504222","3","1","image-keyboard-response","153","220185","0.0-5.0-1.74","","null","","img/1to3/1.png","null","151","563","0.5","0.5","1","3","",""
"","","","","63d9f41910c61f3eb102079f","bdp_cybrbll","Sat Apr 01 2023 18:46:23 GMT-0500 (Central Daylight Time)","504222","3","1","animation","154","221591","0.0-5.0-2.74","","","","","","151","","","","1","3","[{""stimulus"":""img/1to3/1.png"",""time"":108},{""stimulus"":""img/1to3/2.png"",""time"":217},{""stimulus"":""img/1to3/3.png"",""time"":326},{""stimulus"":""img/1to3/4.png"",""time"":433},{""stimulus"":""img/1to3/5.png"",""time"":542},{""stimulus"":""img/1to3/6.png"",""time"":650},{""stimulus"":""img/1to3/7.png"",""time"":757},{""stimulus"":""img/1to3/8.png"",""time"":865},{""stimulus"":""img/1to3/9.png"",""time"":973},{""stimulus"":""img/1to3/10.png"",""time"":1082},{""stimulus"":""img/1to3/11.png"",""time"":1190},{""stimulus"":""img/1to3/12.png"",""time"":1298}]","[]"
"","","","observe","63d9f41910c61f3eb102079f","bdp_cybrbll","Sat Apr 01 2023 18:46:23 GMT-0500 (Central Daylight Time)","504222","3","1","image-keyboard-response","155","222639","0.0-5.0-1.75","","null","","img/3to2/1.png","null","150","1042","0.5","0.5","3","1","",""
"","","","","63d9f41910c61f3eb102079f","bdp_cybrbll","Sat Apr 01 2023 18:46:23 GMT-0500 (Central Daylight Time)","504222","3","1","animation","156","224047","0.0-5.0-2.75","","","","","","150","","","","3","1","[{""stimulus"":""img/3to1/1.png"",""time"":108},{""stimulus"":""img/3to1/2.png"",""time"":217},{""stimulus"":""img/3to1/3.png"",""time"":325},{""stimulus"":""img/3to1/4.png"",""time"":435},{""stimulus"":""img/3to1/5.png"",""time"":544},{""stimulus"":""img/3to1/6.png"",""time"":652},{""stimulus"":""img/3to1/7.png"",""time"":761},{""stimulus"":""img/3to1/8.png"",""time"":868},{""stimulus"":""img/3to1/9.png"",""time"":976},{""stimulus"":""img/3to1/10.png"",""time"":1084},{""stimulus"":""img/3to1/11.png"",""time"":1193},{""stimulus"":""img/3to1/12.png"",""time"":1300}]","[]"
"","","","observe","63d9f41910c61f3eb102079f","bdp_cybrbll","Sat Apr 01 2023 18:46:23 GMT-0500 (Central Daylight Time)","504222","3","1","image-keyboard-response","157","225017","0.0-5.0-1.76","","null","","img/1to3/1.png","null","149","957","0.5","0.1","1","3","",""
"","","","","63d9f41910c61f3eb102079f","bdp_cybrbll","Sat Apr 01 2023 18:46:23 GMT-0500 (Central Daylight Time)","504222","3","1","animation","158","226420","0.0-5.0-2.76","","","","","","149","","","","1","3","[{""stimulus"":""img/1to3/1.png"",""time"":107},{""stimulus"":""img/1to3/2.png"",""time"":215},{""stimulus"":""img/1to3/3.png"",""time"":322},{""stimulus"":""img/1to3/4.png"",""time"":430},{""stimulus"":""img/1to3/5.png"",""time"":537},{""stimulus"":""img/1to3/6.png"",""time"":646},{""stimulus"":""img/1to3/7.png"",""time"":754},{""stimulus"":""img/1to3/8.png"",""time"":862},{""stimulus"":""img/1to3/9.png"",""time"":971},{""stimulus"":""img/1to3/10.png"",""time"":1080},{""stimulus"":""img/1to3/11.png"",""time"":1187},{""stimulus"":""img/1to3/12.png"",""time"":1296}]","[]"
"","","","observe","63d9f41910c61f3eb102079f","bdp_cybrbll","Sat Apr 01 2023 18:46:23 GMT-0500 (Central Daylight Time)","504222","3","1","image-keyboard-response","159","227223","0.0-5.0-1.77","","null","","img/3to2/1.png","null","148","793","0.5","0.1","3","2","",""
"","","","","63d9f41910c61f3eb102079f","bdp_cybrbll","Sat Apr 01 2023 18:46:23 GMT-0500 (Central Daylight Time)","504222","3","1","animation","160","228629","0.0-5.0-2.77","","","","","","148","","","","3","2","[{""stimulus"":""img/3to2/1.png"",""time"":109},{""stimulus"":""img/3to2/2.png"",""time"":216},{""stimulus"":""img/3to2/3.png"",""time"":326},{""stimulus"":""img/3to2/4.png"",""time"":434},{""stimulus"":""img/3to2/5.png"",""time"":543},{""stimulus"":""img/3to2/6.png"",""time"":649},{""stimulus"":""img/3to2/7.png"",""time"":757},{""stimulus"":""img/3to2/8.png"",""time"":864},{""stimulus"":""img/3to2/9.png"",""time"":973},{""stimulus"":""img/3to2/10.png"",""time"":1081},{""stimulus"":""img/3to2/11.png"",""time"":1190},{""stimulus"":""img/3to2/12.png"",""time"":1298}]","[]"
"","","","choice","63d9f41910c61f3eb102079f","bdp_cybrbll","Sat Apr 01 2023 18:46:23 GMT-0500 (Central Daylight Time)","504222","3","1","image-keyboard-response","161","228824","0.0-5.0-1.78","","194","","img/2to1/1.png","1","147","262","0.5","0.1","2","1","",""
"","","","","63d9f41910c61f3eb102079f","bdp_cybrbll","Sat Apr 01 2023 18:46:23 GMT-0500 (Central Daylight Time)","504222","3","1","animation","162","230234","0.0-5.0-2.78","","","","","","147","","","","2","1","[{""stimulus"":""img/2to1/1.png"",""time"":113},{""stimulus"":""img/2to1/2.png"",""time"":222},{""stimulus"":""img/2to1/3.png"",""time"":330},{""stimulus"":""img/2to1/4.png"",""time"":438},{""stimulus"":""img/2to1/5.png"",""time"":546},{""stimulus"":""img/2to1/6.png"",""time"":654},{""stimulus"":""img/2to1/7.png"",""time"":763},{""stimulus"":""img/2to1/8.png"",""time"":869},{""stimulus"":""img/2to1/9.png"",""time"":978},{""stimulus"":""img/2to1/10.png"",""time"":1086},{""stimulus"":""img/2to1/11.png"",""time"":1193},{""stimulus"":""img/2to1/12.png"",""time"":1302}]","[]"
"","","","observe","63d9f41910c61f3eb102079f","bdp_cybrbll","Sat Apr 01 2023 18:46:23 GMT-0500 (Central Daylight Time)","504222","3","1","image-keyboard-response","163","230602","0.0-5.0-1.79","","null","","img/1to3/1.png","null","146","361","0.5","0.1","1","2","",""
"","","","","63d9f41910c61f3eb102079f","bdp_cybrbll","Sat Apr 01 2023 18:46:23 GMT-0500 (Central Daylight Time)","504222","3","1","animation","164","232004","0.0-5.0-2.79","","","","","","146","","","","1","2","[{""stimulus"":""img/1to2/1.png"",""time"":108},{""stimulus"":""img/1to2/2.png"",""time"":216},{""stimulus"":""img/1to2/3.png"",""time"":323},{""stimulus"":""img/1to2/4.png"",""time"":431},{""stimulus"":""img/1to2/5.png"",""time"":539},{""stimulus"":""img/1to2/6.png"",""time"":646},{""stimulus"":""img/1to2/7.png"",""time"":753},{""stimulus"":""img/1to2/8.png"",""time"":861},{""stimulus"":""img/1to2/9.png"",""time"":969},{""stimulus"":""img/1to2/10.png"",""time"":1078},{""stimulus"":""img/1to2/11.png"",""time"":1185},{""stimulus"":""img/1to2/12.png"",""time"":1294}]","[]"
"","","","choice","63d9f41910c61f3eb102079f","bdp_cybrbll","Sat Apr 01 2023 18:46:23 GMT-0500 (Central Daylight Time)","504222","3","1","image-keyboard-response","165","232170","0.0-5.0-1.80","","164","","img/2to1/1.png","2","145","651","0.5","0.1","2","3","",""
"","","","","63d9f41910c61f3eb102079f","bdp_cybrbll","Sat Apr 01 2023 18:46:23 GMT-0500 (Central Daylight Time)","504222","3","1","animation","166","233576","0.0-5.0-2.80","","","","","","145","","","","2","3","[{""stimulus"":""img/2to3/1.png"",""time"":112},{""stimulus"":""img/2to3/2.png"",""time"":220},{""stimulus"":""img/2to3/3.png"",""time"":327},{""stimulus"":""img/2to3/4.png"",""time"":434},{""stimulus"":""img/2to3/5.png"",""time"":543},{""stimulus"":""img/2to3/6.png"",""time"":650},{""stimulus"":""img/2to3/7.png"",""time"":758},{""stimulus"":""img/2to3/8.png"",""time"":866},{""stimulus"":""img/2to3/9.png"",""time"":974},{""stimulus"":""img/2to3/10.png"",""time"":1083},{""stimulus"":""img/2to3/11.png"",""time"":1192},{""stimulus"":""img/2to3/12.png"",""time"":1299}]","[]"
"","","","observe","63d9f41910c61f3eb102079f","bdp_cybrbll","Sat Apr 01 2023 18:46:23 GMT-0500 (Central Daylight Time)","504222","3","1","image-keyboard-response","167","233869","0.0-5.0-1.81","","null","","img/3to2/1.png","null","144","286","0.5","0.1","3","2","",""
"","","","","63d9f41910c61f3eb102079f","bdp_cybrbll","Sat Apr 01 2023 18:46:23 GMT-0500 (Central Daylight Time)","504222","3","1","animation","168","235278","0.0-5.0-2.81","","","","","","144","","","","3","2","[{""stimulus"":""img/3to2/1.png"",""time"":109},{""stimulus"":""img/3to2/2.png"",""time"":215},{""stimulus"":""img/3to2/3.png"",""time"":324},{""stimulus"":""img/3to2/4.png"",""time"":432},{""stimulus"":""img/3to2/5.png"",""time"":540},{""stimulus"":""img/3to2/6.png"",""time"":648},{""stimulus"":""img/3to2/7.png"",""time"":757},{""stimulus"":""img/3to2/8.png"",""time"":865},{""stimulus"":""img/3to2/9.png"",""time"":973},{""stimulus"":""img/3to2/10.png"",""time"":1084},{""stimulus"":""img/3to2/11.png"",""time"":1192},{""stimulus"":""img/3to2/12.png"",""time"":1300}]","[]"
"","","","choice","63d9f41910c61f3eb102079f","bdp_cybrbll","Sat Apr 01 2023 18:46:23 GMT-0500 (Central Daylight Time)","504222","3","1","image-keyboard-response","169","235859","0.0-5.0-1.82","","580","","img/2to1/1.png","1","143","708","0.5","0.1","2","1","",""
"","","","","63d9f41910c61f3eb102079f","bdp_cybrbll","Sat Apr 01 2023 18:46:23 GMT-0500 (Central Daylight Time)","504222","3","1","animation","170","237270","0.0-5.0-2.82","","","","","","143","","","","2","1","[{""stimulus"":""img/2to1/1.png"",""time"":114},{""stimulus"":""img/2to1/2.png"",""time"":222},{""stimulus"":""img/2to1/3.png"",""time"":329},{""stimulus"":""img/2to1/4.png"",""time"":436},{""stimulus"":""img/2to1/5.png"",""time"":546},{""stimulus"":""img/2to1/6.png"",""time"":655},{""stimulus"":""img/2to1/7.png"",""time"":763},{""stimulus"":""img/2to1/8.png"",""time"":872},{""stimulus"":""img/2to1/9.png"",""time"":980},{""stimulus"":""img/2to1/10.png"",""time"":1088},{""stimulus"":""img/2to1/11.png"",""time"":1196},{""stimulus"":""img/2to1/12.png"",""time"":1303}]","[]"
"","","","observe","63d9f41910c61f3eb102079f","bdp_cybrbll","Sat Apr 01 2023 18:46:23 GMT-0500 (Central Daylight Time)","504222","3","1","image-keyboard-response","171","238022","0.0-5.0-1.83","","null","","img/1to3/1.png","null","142","750","0.5","0.1","1","2","",""
"","","","","63d9f41910c61f3eb102079f","bdp_cybrbll","Sat Apr 01 2023 18:46:23 GMT-0500 (Central Daylight Time)","504222","3","1","animation","172","239431","0.0-5.0-2.83","","","","","","142","","","","1","2","[{""stimulus"":""img/1to2/1.png"",""time"":109},{""stimulus"":""img/1to2/2.png"",""time"":217},{""stimulus"":""img/1to2/3.png"",""time"":326},{""stimulus"":""img/1to2/4.png"",""time"":434},{""stimulus"":""img/1to2/5.png"",""time"":543},{""stimulus"":""img/1to2/6.png"",""time"":651},{""stimulus"":""img/1to2/7.png"",""time"":759},{""stimulus"":""img/1to2/8.png"",""time"":867},{""stimulus"":""img/1to2/9.png"",""time"":974},{""stimulus"":""img/1to2/10.png"",""time"":1083},{""stimulus"":""img/1to2/11.png"",""time"":1193},{""stimulus"":""img/1to2/12.png"",""time"":1301}]","[]"
"","","","choice","63d9f41910c61f3eb102079f","bdp_cybrbll","Sat Apr 01 2023 18:46:23 GMT-0500 (Central Daylight Time)","504222","3","1","image-keyboard-response","173","239818","0.0-5.0-1.84","","386","","img/2to1/1.png","2","141","720","0.5","0.1","2","3","",""
"","","","","63d9f41910c61f3eb102079f","bdp_cybrbll","Sat Apr 01 2023 18:46:23 GMT-0500 (Central Daylight Time)","504222","3","1","animation","174","241226","0.0-5.0-2.84","","","","","","141","","","","2","3","[{""stimulus"":""img/2to3/1.png"",""time"":104},{""stimulus"":""img/2to3/2.png"",""time"":214},{""stimulus"":""img/2to3/3.png"",""time"":324},{""stimulus"":""img/2to3/4.png"",""time"":432},{""stimulus"":""img/2to3/5.png"",""time"":540},{""stimulus"":""img/2to3/6.png"",""time"":648},{""stimulus"":""img/2to3/7.png"",""time"":755},{""stimulus"":""img/2to3/8.png"",""time"":863},{""stimulus"":""img/2to3/9.png"",""time"":972},{""stimulus"":""img/2to3/10.png"",""time"":1081},{""stimulus"":""img/2to3/11.png"",""time"":1190},{""stimulus"":""img/2to3/12.png"",""time"":1298}]","[]"
"","","","observe","63d9f41910c61f3eb102079f","bdp_cybrbll","Sat Apr 01 2023 18:46:23 GMT-0500 (Central Daylight Time)","504222","3","1","image-keyboard-response","175","241917","0.0-5.0-1.85","","null","","img/3to2/1.png","null","140","682","0.5","0.1","3","1","",""
"","","","","63d9f41910c61f3eb102079f","bdp_cybrbll","Sat Apr 01 2023 18:46:23 GMT-0500 (Central Daylight Time)","504222","3","1","animation","176","243324","0.0-5.0-2.85","","","","","","140","","","","3","1","[{""stimulus"":""img/3to1/1.png"",""time"":108},{""stimulus"":""img/3to1/2.png"",""time"":217},{""stimulus"":""img/3to1/3.png"",""time"":326},{""stimulus"":""img/3to1/4.png"",""time"":434},{""stimulus"":""img/3to1/5.png"",""time"":542},{""stimulus"":""img/3to1/6.png"",""time"":651},{""stimulus"":""img/3to1/7.png"",""time"":759},{""stimulus"":""img/3to1/8.png"",""time"":866},{""stimulus"":""img/3to1/9.png"",""time"":974},{""stimulus"":""img/3to1/10.png"",""time"":1081},{""stimulus"":""img/3to1/11.png"",""time"":1190},{""stimulus"":""img/3to1/12.png"",""time"":1299}]","[]"
"","","","observe","63d9f41910c61f3eb102079f","bdp_cybrbll","Sat Apr 01 2023 18:46:23 GMT-0500 (Central Daylight Time)","504222","3","1","image-keyboard-response","177","243677","0.0-5.0-1.86","","null","","img/1to3/1.png","null","139","349","0.5","0.1","1","3","",""
"","","","","63d9f41910c61f3eb102079f","bdp_cybrbll","Sat Apr 01 2023 18:46:23 GMT-0500 (Central Daylight Time)","504222","3","1","animation","178","245082","0.0-5.0-2.86","","","","","","139","","","","1","3","[{""stimulus"":""img/1to3/1.png"",""time"":108},{""stimulus"":""img/1to3/2.png"",""time"":216},{""stimulus"":""img/1to3/3.png"",""time"":323},{""stimulus"":""img/1to3/4.png"",""time"":432},{""stimulus"":""img/1to3/5.png"",""time"":539},{""stimulus"":""img/1to3/6.png"",""time"":649},{""stimulus"":""img/1to3/7.png"",""time"":757},{""stimulus"":""img/1to3/8.png"",""time"":865},{""stimulus"":""img/1to3/9.png"",""time"":974},{""stimulus"":""img/1to3/10.png"",""time"":1082},{""stimulus"":""img/1to3/11.png"",""time"":1190},{""stimulus"":""img/1to3/12.png"",""time"":1298}]","[]"
"","","","observe","63d9f41910c61f3eb102079f","bdp_cybrbll","Sat Apr 01 2023 18:46:23 GMT-0500 (Central Daylight Time)","504222","3","1","image-keyboard-response","179","245529","0.0-5.0-1.87","","null","","img/3to2/1.png","null","138","433","0.5","0.1","3","2","",""
"","","","","63d9f41910c61f3eb102079f","bdp_cybrbll","Sat Apr 01 2023 18:46:23 GMT-0500 (Central Daylight Time)","504222","3","1","animation","180","246930","0.0-5.0-2.87","","","","","","138","","","","3","2","[{""stimulus"":""img/3to2/1.png"",""time"":108},{""stimulus"":""img/3to2/2.png"",""time"":216},{""stimulus"":""img/3to2/3.png"",""time"":323},{""stimulus"":""img/3to2/4.png"",""time"":430},{""stimulus"":""img/3to2/5.png"",""time"":538},{""stimulus"":""img/3to2/6.png"",""time"":647},{""stimulus"":""img/3to2/7.png"",""time"":755},{""stimulus"":""img/3to2/8.png"",""time"":862},{""stimulus"":""img/3to2/9.png"",""time"":969},{""stimulus"":""img/3to2/10.png"",""time"":1078},{""stimulus"":""img/3to2/11.png"",""time"":1186},{""stimulus"":""img/3to2/12.png"",""time"":1293}]","[]"
"","","","choice","63d9f41910c61f3eb102079f","bdp_cybrbll","Sat Apr 01 2023 18:46:23 GMT-0500 (Central Daylight Time)","504222","3","1","image-keyboard-response","181","247046","0.0-5.0-1.88","","114","","img/2to1/1.png","1","137","1137","0.5","0.1","2","1","",""
"","","","","63d9f41910c61f3eb102079f","bdp_cybrbll","Sat Apr 01 2023 18:46:23 GMT-0500 (Central Daylight Time)","504222","3","1","animation","182","248445","0.0-5.0-2.88","","","","","","137","","","","2","1","[{""stimulus"":""img/2to1/1.png"",""time"":101},{""stimulus"":""img/2to1/2.png"",""time"":208},{""stimulus"":""img/2to1/3.png"",""time"":318},{""stimulus"":""img/2to1/4.png"",""time"":426},{""stimulus"":""img/2to1/5.png"",""time"":535},{""stimulus"":""img/2to1/6.png"",""time"":643},{""stimulus"":""img/2to1/7.png"",""time"":751},{""stimulus"":""img/2to1/8.png"",""time"":859},{""stimulus"":""img/2to1/9.png"",""time"":967},{""stimulus"":""img/2to1/10.png"",""time"":1074},{""stimulus"":""img/2to1/11.png"",""time"":1182},{""stimulus"":""img/2to1/12.png"",""time"":1291}]","[]"
"","","","observe","63d9f41910c61f3eb102079f","bdp_cybrbll","Sat Apr 01 2023 18:46:23 GMT-0500 (Central Daylight Time)","504222","3","1","image-keyboard-response","183","248785","0.0-5.0-1.89","","null","","img/1to3/1.png","null","136","335","0.5","0.1","1","2","",""
"","","","","63d9f41910c61f3eb102079f","bdp_cybrbll","Sat Apr 01 2023 18:46:23 GMT-0500 (Central Daylight Time)","504222","3","1","animation","184","250190","0.0-5.0-2.89","","","","","","136","","","","1","2","[{""stimulus"":""img/1to2/1.png"",""time"":108},{""stimulus"":""img/1to2/2.png"",""time"":215},{""stimulus"":""img/1to2/3.png"",""time"":323},{""stimulus"":""img/1to2/4.png"",""time"":432},{""stimulus"":""img/1to2/5.png"",""time"":540},{""stimulus"":""img/1to2/6.png"",""time"":647},{""stimulus"":""img/1to2/7.png"",""time"":757},{""stimulus"":""img/1to2/8.png"",""time"":864},{""stimulus"":""img/1to2/9.png"",""time"":972},{""stimulus"":""img/1to2/10.png"",""time"":1080},{""stimulus"":""img/1to2/11.png"",""time"":1189},{""stimulus"":""img/1to2/12.png"",""time"":1297}]","[]"
"","","","choice","63d9f41910c61f3eb102079f","bdp_cybrbll","Sat Apr 01 2023 18:46:23 GMT-0500 (Central Daylight Time)","504222","3","1","image-keyboard-response","185","250483","0.0-5.0-1.90","","292","","img/2to1/1.png","2","135","701","0.5","0.1","2","3","",""
"","","","","63d9f41910c61f3eb102079f","bdp_cybrbll","Sat Apr 01 2023 18:46:23 GMT-0500 (Central Daylight Time)","504222","3","1","animation","186","251888","0.0-5.0-2.90","","","","","","135","","","","2","3","[{""stimulus"":""img/2to3/1.png"",""time"":109},{""stimulus"":""img/2to3/2.png"",""time"":216},{""stimulus"":""img/2to3/3.png"",""time"":324},{""stimulus"":""img/2to3/4.png"",""time"":434},{""stimulus"":""img/2to3/5.png"",""time"":542},{""stimulus"":""img/2to3/6.png"",""time"":650},{""stimulus"":""img/2to3/7.png"",""time"":759},{""stimulus"":""img/2to3/8.png"",""time"":866},{""stimulus"":""img/2to3/9.png"",""time"":974},{""stimulus"":""img/2to3/10.png"",""time"":1081},{""stimulus"":""img/2to3/11.png"",""time"":1189},{""stimulus"":""img/2to3/12.png"",""time"":1297}]","[]"
"","","","observe","63d9f41910c61f3eb102079f","bdp_cybrbll","Sat Apr 01 2023 18:46:23 GMT-0500 (Central Daylight Time)","504222","3","1","image-keyboard-response","187","252150","0.0-5.0-1.91","","null","","img/3to2/1.png","null","134","256","0.5","0.1","3","1","",""
"","","","","63d9f41910c61f3eb102079f","bdp_cybrbll","Sat Apr 01 2023 18:46:23 GMT-0500 (Central Daylight Time)","504222","3","1","animation","188","253556","0.0-5.0-2.91","","","","","","134","","","","3","1","[{""stimulus"":""img/3to1/1.png"",""time"":109},{""stimulus"":""img/3to1/2.png"",""time"":218},{""stimulus"":""img/3to1/3.png"",""time"":326},{""stimulus"":""img/3to1/4.png"",""time"":435},{""stimulus"":""img/3to1/5.png"",""time"":543},{""stimulus"":""img/3to1/6.png"",""time"":651},{""stimulus"":""img/3to1/7.png"",""time"":758},{""stimulus"":""img/3to1/8.png"",""time"":865},{""stimulus"":""img/3to1/9.png"",""time"":973},{""stimulus"":""img/3to1/10.png"",""time"":1081},{""stimulus"":""img/3to1/11.png"",""time"":1190},{""stimulus"":""img/3to1/12.png"",""time"":1298}]","[]"
"","","","observe","63d9f41910c61f3eb102079f","bdp_cybrbll","Sat Apr 01 2023 18:46:23 GMT-0500 (Central Daylight Time)","504222","3","1","image-keyboard-response","189","255202","0.0-5.0-1.92","","null","","img/1to3/1.png","null","133","1632","0.5","0.1","1","3","",""
"","","","","63d9f41910c61f3eb102079f","bdp_cybrbll","Sat Apr 01 2023 18:46:23 GMT-0500 (Central Daylight Time)","504222","3","1","animation","190","256609","0.0-5.0-2.92","","","","","","133","","","","1","3","[{""stimulus"":""img/1to3/1.png"",""time"":107},{""stimulus"":""img/1to3/2.png"",""time"":215},{""stimulus"":""img/1to3/3.png"",""time"":324},{""stimulus"":""img/1to3/4.png"",""time"":434},{""stimulus"":""img/1to3/5.png"",""time"":542},{""stimulus"":""img/1to3/6.png"",""time"":651},{""stimulus"":""img/1to3/7.png"",""time"":759},{""stimulus"":""img/1to3/8.png"",""time"":867},{""stimulus"":""img/1to3/9.png"",""time"":976},{""stimulus"":""img/1to3/10.png"",""time"":1084},{""stimulus"":""img/1to3/11.png"",""time"":1192},{""stimulus"":""img/1to3/12.png"",""time"":1300}]","[]"
