"trial_type","trial_index","time_elapsed","internal_node_id","subject_id","task","startTime","totalTime","fairPartner","unfairPartner","view_history","rt","event","trial","time","trialtype","success","stimulus","key_press","throwsLeft","rtDur","pFair","pUnfair","holder","receiver","animation_sequence","responses"
"pavlovia","0","2","0.0-0.0","63f796a016e377d12cff50f1","bdp_cybrbll","Sat Mar 25 2023 19:21:31 GMT-0500 (Central Daylight Time)","488135","3","1","","","","","","","","","","","","","","","","",""
"instructions","1","8014","0.0-1.0","63f796a016e377d12cff50f1","bdp_cybrbll","Sat Mar 25 2023 19:21:31 GMT-0500 (Central Daylight Time)","488135","3","1","[{""page_index"":0,""viewing_time"":8012}]","8012","","","","","","","","","","","","","","",""
"","","","","63f796a016e377d12cff50f1","bdp_cybrbll","Sat Mar 25 2023 19:21:31 GMT-0500 (Central Daylight Time)","488135","3","1","","","fullscreenenter","2","11344","fullscreenenter","","","","","","","","","","",""
"fullscreen","2","12342","0.0-2.0","63f796a016e377d12cff50f1","bdp_cybrbll","Sat Mar 25 2023 19:21:31 GMT-0500 (Central Daylight Time)","488135","3","1","","","","","","","true","","","","","","","","","",""
"instructions","3","67627","0.0-4.0","63f796a016e377d12cff50f1","bdp_cybrbll","Sat Mar 25 2023 19:21:31 GMT-0500 (Central Daylight Time)","488135","3","1","[{""page_index"":0,""viewing_time"":55283}]","55283","","","","","","","","","","","","","","",""
"image-keyboard-response","4","72339","0.0-5.0-1.0","63f796a016e377d12cff50f1","bdp_cybrbll","Sat Mar 25 2023 19:21:31 GMT-0500 (Central Daylight Time)","488135","3","1","","4709","","","","choice","","img/2to1/1.png","1","225","794","0.5","0.5","2","1","",""
"animation","5","73628","0.0-5.0-2.0","63f796a016e377d12cff50f1","bdp_cybrbll","Sat Mar 25 2023 19:21:31 GMT-0500 (Central Daylight Time)","488135","3","1","","","","","","","","","","225","","","","2","1","[{""stimulus"":""img/2to1/1.png"",""time"":108},{""stimulus"":""img/2to1/2.png"",""time"":205},{""stimulus"":""img/2to1/3.png"",""time"":302},{""stimulus"":""img/2to1/4.png"",""time"":398},{""stimulus"":""img/2to1/5.png"",""time"":496},{""stimulus"":""img/2to1/6.png"",""time"":603},{""stimulus"":""img/2to1/7.png"",""time"":700},{""stimulus"":""img/2to1/8.png"",""time"":797},{""stimulus"":""img/2to1/9.png"",""time"":894},{""stimulus"":""img/2to1/10.png"",""time"":999},{""stimulus"":""img/2to1/11.png"",""time"":1097},{""stimulus"":""img/2to1/12.png"",""time"":1193}]","[]"
"image-keyboard-response","6","73863","0.0-5.0-1.1","63f796a016e377d12cff50f1","bdp_cybrbll","Sat Mar 25 2023 19:21:31 GMT-0500 (Central Daylight Time)","488135","3","1","","null","","","","observe","","img/1to3/1.png","null","224","225","0.5","0.5","1","2","",""
"animation","7","75158","0.0-5.0-2.1","63f796a016e377d12cff50f1","bdp_cybrbll","Sat Mar 25 2023 19:21:31 GMT-0500 (Central Daylight Time)","488135","3","1","","","","","","","","","","224","","","","1","2","[{""stimulus"":""img/1to2/1.png"",""time"":104},{""stimulus"":""img/1to2/2.png"",""time"":200},{""stimulus"":""img/1to2/3.png"",""time"":298},{""stimulus"":""img/1to2/4.png"",""time"":401},{""stimulus"":""img/1to2/5.png"",""time"":508},{""stimulus"":""img/1to2/6.png"",""time"":599},{""stimulus"":""img/1to2/7.png"",""time"":694},{""stimulus"":""img/1to2/8.png"",""time"":800},{""stimulus"":""img/1to2/9.png"",""time"":897},{""stimulus"":""img/1to2/10.png"",""time"":995},{""stimulus"":""img/1to2/11.png"",""time"":1091},{""stimulus"":""img/1to2/12.png"",""time"":1189}]","[]"
"image-keyboard-response","8","76673","0.0-5.0-1.2","63f796a016e377d12cff50f1","bdp_cybrbll","Sat Mar 25 2023 19:21:31 GMT-0500 (Central Daylight Time)","488135","3","1","","1514","","","","choice","","img/2to1/1.png","2","223","837","0.5","0.5","2","3","",""
"animation","9","77962","0.0-5.0-2.2","63f796a016e377d12cff50f1","bdp_cybrbll","Sat Mar 25 2023 19:21:31 GMT-0500 (Central Daylight Time)","488135","3","1","","","","","","","","","","223","","","","2","3","[{""stimulus"":""img/2to3/1.png"",""time"":107},{""stimulus"":""img/2to3/2.png"",""time"":206},{""stimulus"":""img/2to3/3.png"",""time"":305},{""stimulus"":""img/2to3/4.png"",""time"":402},{""stimulus"":""img/2to3/5.png"",""time"":507},{""stimulus"":""img/2to3/6.png"",""time"":596},{""stimulus"":""img/2to3/7.png"",""time"":701},{""stimulus"":""img/2to3/8.png"",""time"":799},{""stimulus"":""img/2to3/9.png"",""time"":907},{""stimulus"":""img/2to3/10.png"",""time"":995},{""stimulus"":""img/2to3/11.png"",""time"":1093},{""stimulus"":""img/2to3/12.png"",""time"":1191}]","[]"
"image-keyboard-response","10","78380","0.0-5.0-1.3","63f796a016e377d12cff50f1","bdp_cybrbll","Sat Mar 25 2023 19:21:31 GMT-0500 (Central Daylight Time)","488135","3","1","","null","","","","observe","","img/3to2/1.png","null","222","416","0.5","0.5","3","2","",""
"animation","11","79672","0.0-5.0-2.3","63f796a016e377d12cff50f1","bdp_cybrbll","Sat Mar 25 2023 19:21:31 GMT-0500 (Central Daylight Time)","488135","3","1","","","","","","","","","","222","","","","3","2","[{""stimulus"":""img/3to2/1.png"",""time"":104},{""stimulus"":""img/3to2/2.png"",""time"":200},{""stimulus"":""img/3to2/3.png"",""time"":305},{""stimulus"":""img/3to2/4.png"",""time"":402},{""stimulus"":""img/3to2/5.png"",""time"":499},{""stimulus"":""img/3to2/6.png"",""time"":598},{""stimulus"":""img/3to2/7.png"",""time"":696},{""stimulus"":""img/3to2/8.png"",""time"":793},{""stimulus"":""img/3to2/9.png"",""time"":898},{""stimulus"":""img/3to2/10.png"",""time"":994},{""stimulus"":""img/3to2/11.png"",""time"":1090},{""stimulus"":""img/3to2/12.png"",""time"":1196}]","[]"
"image-keyboard-response","12","80407","0.0-5.0-1.4","63f796a016e377d12cff50f1","bdp_cybrbll","Sat Mar 25 2023 19:21:31 GMT-0500 (Central Daylight Time)","488135","3","1","","734","","","","choice","","img/2to1/1.png","1","221","503","0.5","0.5","2","1","",""
"animation","13","81701","0.0-5.0-2.4","63f796a016e377d12cff50f1","bdp_cybrbll","Sat Mar 25 2023 19:21:31 GMT-0500 (Central Daylight Time)","488135","3","1","","","","","","","","","","221","","","","2","1","[{""stimulus"":""img/2to1/1.png"",""time"":105},{""stimulus"":""img/2to1/2.png"",""time"":200},{""stimulus"":""img/2to1/3.png"",""time"":313},{""stimulus"":""img/2to1/4.png"",""time"":403},{""stimulus"":""img/2to1/5.png"",""time"":510},{""stimulus"":""img/2to1/6.png"",""time"":599},{""stimulus"":""img/2to1/7.png"",""time"":697},{""stimulus"":""img/2to1/8.png"",""time"":794},{""stimulus"":""img/2to1/9.png"",""time"":900},{""stimulus"":""img/2to1/10.png"",""time"":997},{""stimulus"":""img/2to1/11.png"",""time"":1101},{""stimulus"":""img/2to1/12.png"",""time"":1190}]","[]"
"image-keyboard-response","14","82108","0.0-5.0-1.5","63f796a016e377d12cff50f1","bdp_cybrbll","Sat Mar 25 2023 19:21:31 GMT-0500 (Central Daylight Time)","488135","3","1","","null","","","","observe","","img/1to3/1.png","null","220","403","0.5","0.5","1","3","",""
"animation","15","83401","0.0-5.0-2.5","63f796a016e377d12cff50f1","bdp_cybrbll","Sat Mar 25 2023 19:21:31 GMT-0500 (Central Daylight Time)","488135","3","1","","","","","","","","","","220","","","","1","3","[{""stimulus"":""img/1to3/1.png"",""time"":107},{""stimulus"":""img/1to3/2.png"",""time"":205},{""stimulus"":""img/1to3/3.png"",""time"":311},{""stimulus"":""img/1to3/4.png"",""time"":400},{""stimulus"":""img/1to3/5.png"",""time"":498},{""stimulus"":""img/1to3/6.png"",""time"":604},{""stimulus"":""img/1to3/7.png"",""time"":710},{""stimulus"":""img/1to3/8.png"",""time"":798},{""stimulus"":""img/1to3/9.png"",""time"":896},{""stimulus"":""img/1to3/10.png"",""time"":994},{""stimulus"":""img/1to3/11.png"",""time"":1091},{""stimulus"":""img/1to3/12.png"",""time"":1205}]","[]"
"image-keyboard-response","16","83908","0.0-5.0-1.6","63f796a016e377d12cff50f1","bdp_cybrbll","Sat Mar 25 2023 19:21:31 GMT-0500 (Central Daylight Time)","488135","3","1","","null","","","","observe","","img/3to2/1.png","null","219","498","0.5","0.5","3","2","",""
"animation","17","85197","0.0-5.0-2.6","63f796a016e377d12cff50f1","bdp_cybrbll","Sat Mar 25 2023 19:21:31 GMT-0500 (Central Daylight Time)","488135","3","1","","","","","","","","","","219","","","","3","2","[{""stimulus"":""img/3to2/1.png"",""time"":106},{""stimulus"":""img/3to2/2.png"",""time"":204},{""stimulus"":""img/3to2/3.png"",""time"":301},{""stimulus"":""img/3to2/4.png"",""time"":399},{""stimulus"":""img/3to2/5.png"",""time"":512},{""stimulus"":""img/3to2/6.png"",""time"":611},{""stimulus"":""img/3to2/7.png"",""time"":698},{""stimulus"":""img/3to2/8.png"",""time"":796},{""stimulus"":""img/3to2/9.png"",""time"":901},{""stimulus"":""img/3to2/10.png"",""time"":998},{""stimulus"":""img/3to2/11.png"",""time"":1096},{""stimulus"":""img/3to2/12.png"",""time"":1192}]","[]"
"image-keyboard-response","18","85961","0.0-5.0-1.7","63f796a016e377d12cff50f1","bdp_cybrbll","Sat Mar 25 2023 19:21:31 GMT-0500 (Central Daylight Time)","488135","3","1","","763","","","","choice","","img/2to1/1.png","1","218","298","0.5","0.5","2","1","",""
"animation","19","87254","0.0-5.0-2.7","63f796a016e377d12cff50f1","bdp_cybrbll","Sat Mar 25 2023 19:21:31 GMT-0500 (Central Daylight Time)","488135","3","1","","","","","","","","","","218","","","","2","1","[{""stimulus"":""img/2to1/1.png"",""time"":102},{""stimulus"":""img/2to1/2.png"",""time"":207},{""stimulus"":""img/2to1/3.png"",""time"":299},{""stimulus"":""img/2to1/4.png"",""time"":413},{""stimulus"":""img/2to1/5.png"",""time"":509},{""stimulus"":""img/2to1/6.png"",""time"":605},{""stimulus"":""img/2to1/7.png"",""time"":703},{""stimulus"":""img/2to1/8.png"",""time"":799},{""stimulus"":""img/2to1/9.png"",""time"":899},{""stimulus"":""img/2to1/10.png"",""time"":993},{""stimulus"":""img/2to1/11.png"",""time"":1099},{""stimulus"":""img/2to1/12.png"",""time"":1196}]","[]"
"image-keyboard-response","20","87425","0.0-5.0-1.8","63f796a016e377d12cff50f1","bdp_cybrbll","Sat Mar 25 2023 19:21:31 GMT-0500 (Central Daylight Time)","488135","3","1","","null","","","","observe","","img/1to3/1.png","null","217","168","0.5","0.5","1","2","",""
"animation","21","88715","0.0-5.0-2.8","63f796a016e377d12cff50f1","bdp_cybrbll","Sat Mar 25 2023 19:21:31 GMT-0500 (Central Daylight Time)","488135","3","1","","","","","","","","","","217","","","","1","2","[{""stimulus"":""img/1to2/1.png"",""time"":108},{""stimulus"":""img/1to2/2.png"",""time"":206},{""stimulus"":""img/1to2/3.png"",""time"":305},{""stimulus"":""img/1to2/4.png"",""time"":403},{""stimulus"":""img/1to2/5.png"",""time"":509},{""stimulus"":""img/1to2/6.png"",""time"":598},{""stimulus"":""img/1to2/7.png"",""time"":695},{""stimulus"":""img/1to2/8.png"",""time"":801},{""stimulus"":""img/1to2/9.png"",""time"":899},{""stimulus"":""img/1to2/10.png"",""time"":998},{""stimulus"":""img/1to2/11.png"",""time"":1103},{""stimulus"":""img/1to2/12.png"",""time"":1192}]","[]"
"image-keyboard-response","22","90082","0.0-5.0-1.9","63f796a016e377d12cff50f1","bdp_cybrbll","Sat Mar 25 2023 19:21:31 GMT-0500 (Central Daylight Time)","488135","3","1","","1366","","","","choice","","img/2to1/1.png","2","216","1569","0.5","0.5","2","3","",""
"animation","23","91372","0.0-5.0-2.9","63f796a016e377d12cff50f1","bdp_cybrbll","Sat Mar 25 2023 19:21:31 GMT-0500 (Central Daylight Time)","488135","3","1","","","","","","","","","","216","","","","2","3","[{""stimulus"":""img/2to3/1.png"",""time"":101},{""stimulus"":""img/2to3/2.png"",""time"":215},{""stimulus"":""img/2to3/3.png"",""time"":304},{""stimulus"":""img/2to3/4.png"",""time"":410},{""stimulus"":""img/2to3/5.png"",""time"":502},{""stimulus"":""img/2to3/6.png"",""time"":598},{""stimulus"":""img/2to3/7.png"",""time"":696},{""stimulus"":""img/2to3/8.png"",""time"":793},{""stimulus"":""img/2to3/9.png"",""time"":907},{""stimulus"":""img/2to3/10.png"",""time"":997},{""stimulus"":""img/2to3/11.png"",""time"":1093},{""stimulus"":""img/2to3/12.png"",""time"":1192}]","[]"
"image-keyboard-response","24","92258","0.0-5.0-1.10","63f796a016e377d12cff50f1","bdp_cybrbll","Sat Mar 25 2023 19:21:31 GMT-0500 (Central Daylight Time)","488135","3","1","","null","","","","observe","","img/3to2/1.png","null","215","878","0.5","0.5","3","1","",""
"animation","25","93552","0.0-5.0-2.10","63f796a016e377d12cff50f1","bdp_cybrbll","Sat Mar 25 2023 19:21:31 GMT-0500 (Central Daylight Time)","488135","3","1","","","","","","","","","","215","","","","3","1","[{""stimulus"":""img/3to1/1.png"",""time"":107},{""stimulus"":""img/3to1/2.png"",""time"":204},{""stimulus"":""img/3to1/3.png"",""time"":303},{""stimulus"":""img/3to1/4.png"",""time"":408},{""stimulus"":""img/3to1/5.png"",""time"":497},{""stimulus"":""img/3to1/6.png"",""time"":602},{""stimulus"":""img/3to1/7.png"",""time"":699},{""stimulus"":""img/3to1/8.png"",""time"":797},{""stimulus"":""img/3to1/9.png"",""time"":893},{""stimulus"":""img/3to1/10.png"",""time"":997},{""stimulus"":""img/3to1/11.png"",""time"":1103},{""stimulus"":""img/3to1/12.png"",""time"":1193}]","[]"
"image-keyboard-response","26","93863","0.0-5.0-1.11","63f796a016e377d12cff50f1","bdp_cybrbll","Sat Mar 25 2023 19:21:31 GMT-0500 (Central Daylight Time)","488135","3","1","","null","","","","observe","","img/1to3/1.png","null","214","303","0.5","0.5","1","3","",""
"animation","27","95154","0.0-5.0-2.11","63f796a016e377d12cff50f1","bdp_cybrbll","Sat Mar 25 2023 19:21:31 GMT-0500 (Central Daylight Time)","488135","3","1","","","","","","","","","","214","","","","1","3","[{""stimulus"":""img/1to3/1.png"",""time"":105},{""stimulus"":""img/1to3/2.png"",""time"":201},{""stimulus"":""img/1to3/3.png"",""time"":300},{""stimulus"":""img/1to3/4.png"",""time"":404},{""stimulus"":""img/1to3/5.png"",""time"":501},{""stimulus"":""img/1to3/6.png"",""time"":599},{""stimulus"":""img/1to3/7.png"",""time"":697},{""stimulus"":""img/1to3/8.png"",""time"":795},{""stimulus"":""img/1to3/9.png"",""time"":893},{""stimulus"":""img/1to3/10.png"",""time"":992},{""stimulus"":""img/1to3/11.png"",""time"":1097},{""stimulus"":""img/1to3/12.png"",""time"":1194}]","[]"
"image-keyboard-response","28","96727","0.0-5.0-1.12","63f796a016e377d12cff50f1","bdp_cybrbll","Sat Mar 25 2023 19:21:31 GMT-0500 (Central Daylight Time)","488135","3","1","","null","","","","observe","","img/3to2/1.png","null","213","1564","0.5","0.5","3","2","",""
"animation","29","98016","0.0-5.0-2.12","63f796a016e377d12cff50f1","bdp_cybrbll","Sat Mar 25 2023 19:21:31 GMT-0500 (Central Daylight Time)","488135","3","1","","","","","","","","","","213","","","","3","2","[{""stimulus"":""img/3to2/1.png"",""time"":107},{""stimulus"":""img/3to2/2.png"",""time"":206},{""stimulus"":""img/3to2/3.png"",""time"":302},{""stimulus"":""img/3to2/4.png"",""time"":399},{""stimulus"":""img/3to2/5.png"",""time"":504},{""stimulus"":""img/3to2/6.png"",""time"":602},{""stimulus"":""img/3to2/7.png"",""time"":708},{""stimulus"":""img/3to2/8.png"",""time"":807},{""stimulus"":""img/3to2/9.png"",""time"":896},{""stimulus"":""img/3to2/10.png"",""time"":995},{""stimulus"":""img/3to2/11.png"",""time"":1093},{""stimulus"":""img/3to2/12.png"",""time"":1191}]","[]"
"image-keyboard-response","30","98780","0.0-5.0-1.13","63f796a016e377d12cff50f1","bdp_cybrbll","Sat Mar 25 2023 19:21:31 GMT-0500 (Central Daylight Time)","488135","3","1","","763","","","","choice","","img/2to1/1.png","1","212","363","0.5","0.5","2","1","",""
"animation","31","100081","0.0-5.0-2.13","63f796a016e377d12cff50f1","bdp_cybrbll","Sat Mar 25 2023 19:21:31 GMT-0500 (Central Daylight Time)","488135","3","1","","","","","","","","","","212","","","","2","1","[{""stimulus"":""img/2to1/1.png"",""time"":105},{""stimulus"":""img/2to1/2.png"",""time"":202},{""stimulus"":""img/2to1/3.png"",""time"":299},{""stimulus"":""img/2to1/4.png"",""time"":403},{""stimulus"":""img/2to1/5.png"",""time"":499},{""stimulus"":""img/2to1/6.png"",""time"":596},{""stimulus"":""img/2to1/7.png"",""time"":701},{""stimulus"":""img/2to1/8.png"",""time"":798},{""stimulus"":""img/2to1/9.png"",""time"":895},{""stimulus"":""img/2to1/10.png"",""time"":1000},{""stimulus"":""img/2to1/11.png"",""time"":1090},{""stimulus"":""img/2to1/12.png"",""time"":1195}]","[]"
"image-keyboard-response","32","100642","0.0-5.0-1.14","63f796a016e377d12cff50f1","bdp_cybrbll","Sat Mar 25 2023 19:21:31 GMT-0500 (Central Daylight Time)","488135","3","1","","null","","","","observe","","img/1to3/1.png","null","211","554","0.5","0.5","1","3","",""
"animation","33","101945","0.0-5.0-2.14","63f796a016e377d12cff50f1","bdp_cybrbll","Sat Mar 25 2023 19:21:31 GMT-0500 (Central Daylight Time)","488135","3","1","","","","","","","","","","211","","","","1","3","[{""stimulus"":""img/1to3/1.png"",""time"":104},{""stimulus"":""img/1to3/2.png"",""time"":211},{""stimulus"":""img/1to3/3.png"",""time"":301},{""stimulus"":""img/1to3/4.png"",""time"":399},{""stimulus"":""img/1to3/5.png"",""time"":504},{""stimulus"":""img/1to3/6.png"",""time"":601},{""stimulus"":""img/1to3/7.png"",""time"":700},{""stimulus"":""img/1to3/8.png"",""time"":804},{""stimulus"":""img/1to3/9.png"",""time"":895},{""stimulus"":""img/1to3/10.png"",""time"":992},{""stimulus"":""img/1to3/11.png"",""time"":1090},{""stimulus"":""img/1to3/12.png"",""time"":1204}]","[]"
"image-keyboard-response","34","102319","0.0-5.0-1.15","63f796a016e377d12cff50f1","bdp_cybrbll","Sat Mar 25 2023 19:21:31 GMT-0500 (Central Daylight Time)","488135","3","1","","null","","","","observe","","img/3to2/1.png","null","210","369","0.5","0.5","3","1","",""
"animation","35","103606","0.0-5.0-2.15","63f796a016e377d12cff50f1","bdp_cybrbll","Sat Mar 25 2023 19:21:31 GMT-0500 (Central Daylight Time)","488135","3","1","","","","","","","","","","210","","","","3","1","[{""stimulus"":""img/3to1/1.png"",""time"":106},{""stimulus"":""img/3to1/2.png"",""time"":201},{""stimulus"":""img/3to1/3.png"",""time"":300},{""stimulus"":""img/3to1/4.png"",""time"":406},{""stimulus"":""img/3to1/5.png"",""time"":509},{""stimulus"":""img/3to1/6.png"",""time"":596},{""stimulus"":""img/3to1/7.png"",""time"":709},{""stimulus"":""img/3to1/8.png"",""time"":797},{""stimulus"":""img/3to1/9.png"",""time"":893},{""stimulus"":""img/3to1/10.png"",""time"":996},{""stimulus"":""img/3to1/11.png"",""time"":1093},{""stimulus"":""img/3to1/12.png"",""time"":1190}]","[]"
"image-keyboard-response","36","104161","0.0-5.0-1.16","63f796a016e377d12cff50f1","bdp_cybrbll","Sat Mar 25 2023 19:21:31 GMT-0500 (Central Daylight Time)","488135","3","1","","null","","","","observe","","img/1to3/1.png","null","209","549","0.5","0.5","1","2","",""
"animation","37","105450","0.0-5.0-2.16","63f796a016e377d12cff50f1","bdp_cybrbll","Sat Mar 25 2023 19:21:31 GMT-0500 (Central Daylight Time)","488135","3","1","","","","","","","","","","209","","","","1","2","[{""stimulus"":""img/1to2/1.png"",""time"":109},{""stimulus"":""img/1to2/2.png"",""time"":200},{""stimulus"":""img/1to2/3.png"",""time"":298},{""stimulus"":""img/1to2/4.png"",""time"":404},{""stimulus"":""img/1to2/5.png"",""time"":500},{""stimulus"":""img/1to2/6.png"",""time"":597},{""stimulus"":""img/1to2/7.png"",""time"":694},{""stimulus"":""img/1to2/8.png"",""time"":808},{""stimulus"":""img/1to2/9.png"",""time"":905},{""stimulus"":""img/1to2/10.png"",""time"":1003},{""stimulus"":""img/1to2/11.png"",""time"":1091},{""stimulus"":""img/1to2/12.png"",""time"":1191}]","[]"
"image-keyboard-response","38","106271","0.0-5.0-1.17","63f796a016e377d12cff50f1","bdp_cybrbll","Sat Mar 25 2023 19:21:31 GMT-0500 (Central Daylight Time)","488135","3","1","","821","","","","choice","","img/2to1/1.png","2","208","228","0.5","0.5","2","3","",""
"animation","39","107561","0.0-5.0-2.17","63f796a016e377d12cff50f1","bdp_cybrbll","Sat Mar 25 2023 19:21:31 GMT-0500 (Central Daylight Time)","488135","3","1","","","","","","","","","","208","","","","2","3","[{""stimulus"":""img/2to3/1.png"",""time"":106},{""stimulus"":""img/2to3/2.png"",""time"":204},{""stimulus"":""img/2to3/3.png"",""time"":300},{""stimulus"":""img/2to3/4.png"",""time"":398},{""stimulus"":""img/2to3/5.png"",""time"":497},{""stimulus"":""img/2to3/6.png"",""time"":595},{""stimulus"":""img/2to3/7.png"",""time"":701},{""stimulus"":""img/2to3/8.png"",""time"":798},{""stimulus"":""img/2to3/9.png"",""time"":894},{""stimulus"":""img/2to3/10.png"",""time"":1007},{""stimulus"":""img/2to3/11.png"",""time"":1095},{""stimulus"":""img/2to3/12.png"",""time"":1193}]","[]"
"image-keyboard-response","40","107888","0.0-5.0-1.18","63f796a016e377d12cff50f1","bdp_cybrbll","Sat Mar 25 2023 19:21:31 GMT-0500 (Central Daylight Time)","488135","3","1","","null","","","","observe","","img/3to2/1.png","null","207","311","0.5","0.5","3","2","",""
"animation","41","109177","0.0-5.0-2.18","63f796a016e377d12cff50f1","bdp_cybrbll","Sat Mar 25 2023 19:21:31 GMT-0500 (Central Daylight Time)","488135","3","1","","","","","","","","","","207","","","","3","2","[{""stimulus"":""img/3to2/1.png"",""time"":106},{""stimulus"":""img/3to2/2.png"",""time"":212},{""stimulus"":""img/3to2/3.png"",""time"":309},{""stimulus"":""img/3to2/4.png"",""time"":398},{""stimulus"":""img/3to2/5.png"",""time"":504},{""stimulus"":""img/3to2/6.png"",""time"":600},{""stimulus"":""img/3to2/7.png"",""time"":698},{""stimulus"":""img/3to2/8.png"",""time"":795},{""stimulus"":""img/3to2/9.png"",""time"":900},{""stimulus"":""img/3to2/10.png"",""time"":1006},{""stimulus"":""img/3to2/11.png"",""time"":1096},{""stimulus"":""img/3to2/12.png"",""time"":1193}]","[]"
"image-keyboard-response","42","111047","0.0-5.0-1.19","63f796a016e377d12cff50f1","bdp_cybrbll","Sat Mar 25 2023 19:21:31 GMT-0500 (Central Daylight Time)","488135","3","1","","1868","","","","choice","","img/2to1/1.png","1","206","380","0.5","0.5","2","1","",""
"animation","43","112346","0.0-5.0-2.19","63f796a016e377d12cff50f1","bdp_cybrbll","Sat Mar 25 2023 19:21:31 GMT-0500 (Central Daylight Time)","488135","3","1","","","","","","","","","","206","","","","2","1","[{""stimulus"":""img/2to1/1.png"",""time"":113},{""stimulus"":""img/2to1/2.png"",""time"":202},{""stimulus"":""img/2to1/3.png"",""time"":300},{""stimulus"":""img/2to1/4.png"",""time"":397},{""stimulus"":""img/2to1/5.png"",""time"":503},{""stimulus"":""img/2to1/6.png"",""time"":608},{""stimulus"":""img/2to1/7.png"",""time"":698},{""stimulus"":""img/2to1/8.png"",""time"":795},{""stimulus"":""img/2to1/9.png"",""time"":894},{""stimulus"":""img/2to1/10.png"",""time"":1000},{""stimulus"":""img/2to1/11.png"",""time"":1097},{""stimulus"":""img/2to1/12.png"",""time"":1194}]","[]"
"image-keyboard-response","44","113360","0.0-5.0-1.20","63f796a016e377d12cff50f1","bdp_cybrbll","Sat Mar 25 2023 19:21:31 GMT-0500 (Central Daylight Time)","488135","3","1","","null","","","","observe","","img/1to3/1.png","null","205","1004","0.5","0.5","1","3","",""
"animation","45","114649","0.0-5.0-2.20","63f796a016e377d12cff50f1","bdp_cybrbll","Sat Mar 25 2023 19:21:31 GMT-0500 (Central Daylight Time)","488135","3","1","","","","","","","","","","205","","","","1","3","[{""stimulus"":""img/1to3/1.png"",""time"":106},{""stimulus"":""img/1to3/2.png"",""time"":204},{""stimulus"":""img/1to3/3.png"",""time"":302},{""stimulus"":""img/1to3/4.png"",""time"":398},{""stimulus"":""img/1to3/5.png"",""time"":504},{""stimulus"":""img/1to3/6.png"",""time"":600},{""stimulus"":""img/1to3/7.png"",""time"":708},{""stimulus"":""img/1to3/8.png"",""time"":796},{""stimulus"":""img/1to3/9.png"",""time"":892},{""stimulus"":""img/1to3/10.png"",""time"":999},{""stimulus"":""img/1to3/11.png"",""time"":1095},{""stimulus"":""img/1to3/12.png"",""time"":1192}]","[]"
"image-keyboard-response","46","115946","0.0-5.0-1.21","63f796a016e377d12cff50f1","bdp_cybrbll","Sat Mar 25 2023 19:21:31 GMT-0500 (Central Daylight Time)","488135","3","1","","null","","","","observe","","img/3to2/1.png","null","204","1293","0.5","0.5","3","1","",""
"animation","47","117240","0.0-5.0-2.21","63f796a016e377d12cff50f1","bdp_cybrbll","Sat Mar 25 2023 19:21:31 GMT-0500 (Central Daylight Time)","488135","3","1","","","","","","","","","","204","","","","3","1","[{""stimulus"":""img/3to1/1.png"",""time"":107},{""stimulus"":""img/3to1/2.png"",""time"":203},{""stimulus"":""img/3to1/3.png"",""time"":310},{""stimulus"":""img/3to1/4.png"",""time"":398},{""stimulus"":""img/3to1/5.png"",""time"":497},{""stimulus"":""img/3to1/6.png"",""time"":596},{""stimulus"":""img/3to1/7.png"",""time"":701},{""stimulus"":""img/3to1/8.png"",""time"":798},{""stimulus"":""img/3to1/9.png"",""time"":897},{""stimulus"":""img/3to1/10.png"",""time"":994},{""stimulus"":""img/3to1/11.png"",""time"":1091},{""stimulus"":""img/3to1/12.png"",""time"":1196}]","[]"
"image-keyboard-response","48","118421","0.0-5.0-1.22","63f796a016e377d12cff50f1","bdp_cybrbll","Sat Mar 25 2023 19:21:31 GMT-0500 (Central Daylight Time)","488135","3","1","","null","","","","observe","","img/1to3/1.png","null","203","1177","0.5","0.5","1","2","",""
"animation","49","119712","0.0-5.0-2.22","63f796a016e377d12cff50f1","bdp_cybrbll","Sat Mar 25 2023 19:21:31 GMT-0500 (Central Daylight Time)","488135","3","1","","","","","","","","","","203","","","","1","2","[{""stimulus"":""img/1to2/1.png"",""time"":107},{""stimulus"":""img/1to2/2.png"",""time"":204},{""stimulus"":""img/1to2/3.png"",""time"":301},{""stimulus"":""img/1to2/4.png"",""time"":398},{""stimulus"":""img/1to2/5.png"",""time"":503},{""stimulus"":""img/1to2/6.png"",""time"":602},{""stimulus"":""img/1to2/7.png"",""time"":699},{""stimulus"":""img/1to2/8.png"",""time"":797},{""stimulus"":""img/1to2/9.png"",""time"":895},{""stimulus"":""img/1to2/10.png"",""time"":999},{""stimulus"":""img/1to2/11.png"",""time"":1098},{""stimulus"":""img/1to2/12.png"",""time"":1203}]","[]"
"image-keyboard-response","50","120877","0.0-5.0-1.23","63f796a016e377d12cff50f1","bdp_cybrbll","Sat Mar 25 2023 19:21:31 GMT-0500 (Central Daylight Time)","488135","3","1","","1164","","","","choice","","img/2to1/1.png","2","202","215","0.5","0.5","2","3","",""
"animation","51","122167","0.0-5.0-2.23","63f796a016e377d12cff50f1","bdp_cybrbll","Sat Mar 25 2023 19:21:31 GMT-0500 (Central Daylight Time)","488135","3","1","","","","","","","","","","202","","","","2","3","[{""stimulus"":""img/2to3/1.png"",""time"":115},{""stimulus"":""img/2to3/2.png"",""time"":204},{""stimulus"":""img/2to3/3.png"",""time"":302},{""stimulus"":""img/2to3/4.png"",""time"":407},{""stimulus"":""img/2to3/5.png"",""time"":503},{""stimulus"":""img/2to3/6.png"",""time"":601},{""stimulus"":""img/2to3/7.png"",""time"":698},{""stimulus"":""img/2to3/8.png"",""time"":795},{""stimulus"":""img/2to3/9.png"",""time"":899},{""stimulus"":""img/2to3/10.png"",""time"":991},{""stimulus"":""img/2to3/11.png"",""time"":1104},{""stimulus"":""img/2to3/12.png"",""time"":1192}]","[]"
"image-keyboard-response","52","122582","0.0-5.0-1.24","63f796a016e377d12cff50f1","bdp_cybrbll","Sat Mar 25 2023 19:21:31 GMT-0500 (Central Daylight Time)","488135","3","1","","null","","","","observe","","img/3to2/1.png","null","201","410","0.5","0.5","3","2","",""
"animation","53","123876","0.0-5.0-2.24","63f796a016e377d12cff50f1","bdp_cybrbll","Sat Mar 25 2023 19:21:31 GMT-0500 (Central Daylight Time)","488135","3","1","","","","","","","","","","201","","","","3","2","[{""stimulus"":""img/3to2/1.png"",""time"":105},{""stimulus"":""img/3to2/2.png"",""time"":202},{""stimulus"":""img/3to2/3.png"",""time"":303},{""stimulus"":""img/3to2/4.png"",""time"":406},{""stimulus"":""img/3to2/5.png"",""time"":502},{""stimulus"":""img/3to2/6.png"",""time"":600},{""stimulus"":""img/3to2/7.png"",""time"":696},{""stimulus"":""img/3to2/8.png"",""time"":794},{""stimulus"":""img/3to2/9.png"",""time"":893},{""stimulus"":""img/3to2/10.png"",""time"":991},{""stimulus"":""img/3to2/11.png"",""time"":1104},{""stimulus"":""img/3to2/12.png"",""time"":1204}]","[]"
"image-keyboard-response","54","124671","0.0-5.0-1.25","63f796a016e377d12cff50f1","bdp_cybrbll","Sat Mar 25 2023 19:21:31 GMT-0500 (Central Daylight Time)","488135","3","1","","794","","","","choice","","img/2to1/1.png","2","200","301","0.5","0.5","2","3","",""
"animation","55","125963","0.0-5.0-2.25","63f796a016e377d12cff50f1","bdp_cybrbll","Sat Mar 25 2023 19:21:31 GMT-0500 (Central Daylight Time)","488135","3","1","","","","","","","","","","200","","","","2","3","[{""stimulus"":""img/2to3/1.png"",""time"":104},{""stimulus"":""img/2to3/2.png"",""time"":203},{""stimulus"":""img/2to3/3.png"",""time"":300},{""stimulus"":""img/2to3/4.png"",""time"":398},{""stimulus"":""img/2to3/5.png"",""time"":503},{""stimulus"":""img/2to3/6.png"",""time"":608},{""stimulus"":""img/2to3/7.png"",""time"":698},{""stimulus"":""img/2to3/8.png"",""time"":796},{""stimulus"":""img/2to3/9.png"",""time"":893},{""stimulus"":""img/2to3/10.png"",""time"":997},{""stimulus"":""img/2to3/11.png"",""time"":1104},{""stimulus"":""img/2to3/12.png"",""time"":1203}]","[]"
"image-keyboard-response","56","126220","0.0-5.0-1.26","63f796a016e377d12cff50f1","bdp_cybrbll","Sat Mar 25 2023 19:21:31 GMT-0500 (Central Daylight Time)","488135","3","1","","null","","","","observe","","img/3to2/1.png","null","199","254","0.5","0.5","3","2","",""
"animation","57","127512","0.0-5.0-2.26","63f796a016e377d12cff50f1","bdp_cybrbll","Sat Mar 25 2023 19:21:31 GMT-0500 (Central Daylight Time)","488135","3","1","","","","","","","","","","199","","","","3","2","[{""stimulus"":""img/3to2/1.png"",""time"":104},{""stimulus"":""img/3to2/2.png"",""time"":202},{""stimulus"":""img/3to2/3.png"",""time"":298},{""stimulus"":""img/3to2/4.png"",""time"":403},{""stimulus"":""img/3to2/5.png"",""time"":501},{""stimulus"":""img/3to2/6.png"",""time"":601},{""stimulus"":""img/3to2/7.png"",""time"":700},{""stimulus"":""img/3to2/8.png"",""time"":797},{""stimulus"":""img/3to2/9.png"",""time"":893},{""stimulus"":""img/3to2/10.png"",""time"":992},{""stimulus"":""img/3to2/11.png"",""time"":1097},{""stimulus"":""img/3to2/12.png"",""time"":1202}]","[]"
"image-keyboard-response","58","128144","0.0-5.0-1.27","63f796a016e377d12cff50f1","bdp_cybrbll","Sat Mar 25 2023 19:21:31 GMT-0500 (Central Daylight Time)","488135","3","1","","631","","","","choice","","img/2to1/1.png","1","198","411","0.5","0.5","2","1","",""
"animation","59","129434","0.0-5.0-2.27","63f796a016e377d12cff50f1","bdp_cybrbll","Sat Mar 25 2023 19:21:31 GMT-0500 (Central Daylight Time)","488135","3","1","","","","","","","","","","198","","","","2","1","[{""stimulus"":""img/2to1/1.png"",""time"":109},{""stimulus"":""img/2to1/2.png"",""time"":206},{""stimulus"":""img/2to1/3.png"",""time"":304},{""stimulus"":""img/2to1/4.png"",""time"":401},{""stimulus"":""img/2to1/5.png"",""time"":498},{""stimulus"":""img/2to1/6.png"",""time"":597},{""stimulus"":""img/2to1/7.png"",""time"":695},{""stimulus"":""img/2to1/8.png"",""time"":799},{""stimulus"":""img/2to1/9.png"",""time"":897},{""stimulus"":""img/2to1/10.png"",""time"":994},{""stimulus"":""img/2to1/11.png"",""time"":1098},{""stimulus"":""img/2to1/12.png"",""time"":1194}]","[]"
"image-keyboard-response","60","129769","0.0-5.0-1.28","63f796a016e377d12cff50f1","bdp_cybrbll","Sat Mar 25 2023 19:21:31 GMT-0500 (Central Daylight Time)","488135","3","1","","null","","","","observe","","img/1to3/1.png","null","197","328","0.5","0.5","1","2","",""
"animation","61","131059","0.0-5.0-2.28","63f796a016e377d12cff50f1","bdp_cybrbll","Sat Mar 25 2023 19:21:31 GMT-0500 (Central Daylight Time)","488135","3","1","","","","","","","","","","197","","","","1","2","[{""stimulus"":""img/1to2/1.png"",""time"":105},{""stimulus"":""img/1to2/2.png"",""time"":203},{""stimulus"":""img/1to2/3.png"",""time"":309},{""stimulus"":""img/1to2/4.png"",""time"":407},{""stimulus"":""img/1to2/5.png"",""time"":503},{""stimulus"":""img/1to2/6.png"",""time"":600},{""stimulus"":""img/1to2/7.png"",""time"":696},{""stimulus"":""img/1to2/8.png"",""time"":793},{""stimulus"":""img/1to2/9.png"",""time"":900},{""stimulus"":""img/1to2/10.png"",""time"":995},{""stimulus"":""img/1to2/11.png"",""time"":1095},{""stimulus"":""img/1to2/12.png"",""time"":1194}]","[]"
"image-keyboard-response","62","131880","0.0-5.0-1.29","63f796a016e377d12cff50f1","bdp_cybrbll","Sat Mar 25 2023 19:21:31 GMT-0500 (Central Daylight Time)","488135","3","1","","820","","","","choice","","img/2to1/1.png","2","196","673","0.5","0.5","2","3","",""
"animation","63","133171","0.0-5.0-2.29","63f796a016e377d12cff50f1","bdp_cybrbll","Sat Mar 25 2023 19:21:31 GMT-0500 (Central Daylight Time)","488135","3","1","","","","","","","","","","196","","","","2","3","[{""stimulus"":""img/2to3/1.png"",""time"":105},{""stimulus"":""img/2to3/2.png"",""time"":202},{""stimulus"":""img/2to3/3.png"",""time"":307},{""stimulus"":""img/2to3/4.png"",""time"":405},{""stimulus"":""img/2to3/5.png"",""time"":496},{""stimulus"":""img/2to3/6.png"",""time"":602},{""stimulus"":""img/2to3/7.png"",""time"":699},{""stimulus"":""img/2to3/8.png"",""time"":796},{""stimulus"":""img/2to3/9.png"",""time"":894},{""stimulus"":""img/2to3/10.png"",""time"":992},{""stimulus"":""img/2to3/11.png"",""time"":1098},{""stimulus"":""img/2to3/12.png"",""time"":1194}]","[]"
"image-keyboard-response","64","133740","0.0-5.0-1.30","63f796a016e377d12cff50f1","bdp_cybrbll","Sat Mar 25 2023 19:21:31 GMT-0500 (Central Daylight Time)","488135","3","1","","null","","","","observe","","img/3to2/1.png","null","195","556","0.5","0.5","3","2","",""
"animation","65","135028","0.0-5.0-2.30","63f796a016e377d12cff50f1","bdp_cybrbll","Sat Mar 25 2023 19:21:31 GMT-0500 (Central Daylight Time)","488135","3","1","","","","","","","","","","195","","","","3","2","[{""stimulus"":""img/3to2/1.png"",""time"":100},{""stimulus"":""img/3to2/2.png"",""time"":215},{""stimulus"":""img/3to2/3.png"",""time"":303},{""stimulus"":""img/3to2/4.png"",""time"":399},{""stimulus"":""img/3to2/5.png"",""time"":498},{""stimulus"":""img/3to2/6.png"",""time"":595},{""stimulus"":""img/3to2/7.png"",""time"":700},{""stimulus"":""img/3to2/8.png"",""time"":798},{""stimulus"":""img/3to2/9.png"",""time"":895},{""stimulus"":""img/3to2/10.png"",""time"":992},{""stimulus"":""img/3to2/11.png"",""time"":1091},{""stimulus"":""img/3to2/12.png"",""time"":1190}]","[]"
"image-keyboard-response","66","135692","0.0-5.0-1.31","63f796a016e377d12cff50f1","bdp_cybrbll","Sat Mar 25 2023 19:21:31 GMT-0500 (Central Daylight Time)","488135","3","1","","663","","","","choice","","img/2to1/1.png","1","194","418","0.5","0.5","2","1","",""
"animation","67","136992","0.0-5.0-2.31","63f796a016e377d12cff50f1","bdp_cybrbll","Sat Mar 25 2023 19:21:31 GMT-0500 (Central Daylight Time)","488135","3","1","","","","","","","","","","194","","","","2","1","[{""stimulus"":""img/2to1/1.png"",""time"":101},{""stimulus"":""img/2to1/2.png"",""time"":206},{""stimulus"":""img/2to1/3.png"",""time"":304},{""stimulus"":""img/2to1/4.png"",""time"":402},{""stimulus"":""img/2to1/5.png"",""time"":499},{""stimulus"":""img/2to1/6.png"",""time"":597},{""stimulus"":""img/2to1/7.png"",""time"":698},{""stimulus"":""img/2to1/8.png"",""time"":797},{""stimulus"":""img/2to1/9.png"",""time"":897},{""stimulus"":""img/2to1/10.png"",""time"":992},{""stimulus"":""img/2to1/11.png"",""time"":1096},{""stimulus"":""img/2to1/12.png"",""time"":1202}]","[]"
"image-keyboard-response","68","137588","0.0-5.0-1.32","63f796a016e377d12cff50f1","bdp_cybrbll","Sat Mar 25 2023 19:21:31 GMT-0500 (Central Daylight Time)","488135","3","1","","null","","","","observe","","img/1to3/1.png","null","193","584","0.5","0.5","1","2","",""
"animation","69","138876","0.0-5.0-2.32","63f796a016e377d12cff50f1","bdp_cybrbll","Sat Mar 25 2023 19:21:31 GMT-0500 (Central Daylight Time)","488135","3","1","","","","","","","","","","193","","","","1","2","[{""stimulus"":""img/1to2/1.png"",""time"":107},{""stimulus"":""img/1to2/2.png"",""time"":205},{""stimulus"":""img/1to2/3.png"",""time"":303},{""stimulus"":""img/1to2/4.png"",""time"":399},{""stimulus"":""img/1to2/5.png"",""time"":497},{""stimulus"":""img/1to2/6.png"",""time"":602},{""stimulus"":""img/1to2/7.png"",""time"":699},{""stimulus"":""img/1to2/8.png"",""time"":807},{""stimulus"":""img/1to2/9.png"",""time"":896},{""stimulus"":""img/1to2/10.png"",""time"":998},{""stimulus"":""img/1to2/11.png"",""time"":1093},{""stimulus"":""img/1to2/12.png"",""time"":1190}]","[]"
"image-keyboard-response","70","139460","0.0-5.0-1.33","63f796a016e377d12cff50f1","bdp_cybrbll","Sat Mar 25 2023 19:21:31 GMT-0500 (Central Daylight Time)","488135","3","1","","583","","","","choice","","img/2to1/1.png","2","192","448","0.5","0.5","2","3","",""
"animation","71","140756","0.0-5.0-2.33","63f796a016e377d12cff50f1","bdp_cybrbll","Sat Mar 25 2023 19:21:31 GMT-0500 (Central Daylight Time)","488135","3","1","","","","","","","","","","192","","","","2","3","[{""stimulus"":""img/2to3/1.png"",""time"":103},{""stimulus"":""img/2to3/2.png"",""time"":201},{""stimulus"":""img/2to3/3.png"",""time"":307},{""stimulus"":""img/2to3/4.png"",""time"":405},{""stimulus"":""img/2to3/5.png"",""time"":503},{""stimulus"":""img/2to3/6.png"",""time"":600},{""stimulus"":""img/2to3/7.png"",""time"":696},{""stimulus"":""img/2to3/8.png"",""time"":793},{""stimulus"":""img/2to3/9.png"",""time"":898},{""stimulus"":""img/2to3/10.png"",""time"":994},{""stimulus"":""img/2to3/11.png"",""time"":1093},{""stimulus"":""img/2to3/12.png"",""time"":1191}]","[]"
"image-keyboard-response","72","141929","0.0-5.0-1.34","63f796a016e377d12cff50f1","bdp_cybrbll","Sat Mar 25 2023 19:21:31 GMT-0500 (Central Daylight Time)","488135","3","1","","null","","","","observe","","img/3to2/1.png","null","191","1163","0.5","0.5","3","2","",""
"animation","73","143222","0.0-5.0-2.34","63f796a016e377d12cff50f1","bdp_cybrbll","Sat Mar 25 2023 19:21:31 GMT-0500 (Central Daylight Time)","488135","3","1","","","","","","","","","","191","","","","3","2","[{""stimulus"":""img/3to2/1.png"",""time"":107},{""stimulus"":""img/3to2/2.png"",""time"":204},{""stimulus"":""img/3to2/3.png"",""time"":302},{""stimulus"":""img/3to2/4.png"",""time"":399},{""stimulus"":""img/3to2/5.png"",""time"":499},{""stimulus"":""img/3to2/6.png"",""time"":597},{""stimulus"":""img/3to2/7.png"",""time"":702},{""stimulus"":""img/3to2/8.png"",""time"":807},{""stimulus"":""img/3to2/9.png"",""time"":895},{""stimulus"":""img/3to2/10.png"",""time"":993},{""stimulus"":""img/3to2/11.png"",""time"":1090},{""stimulus"":""img/3to2/12.png"",""time"":1196}]","[]"
"image-keyboard-response","74","143861","0.0-5.0-1.35","63f796a016e377d12cff50f1","bdp_cybrbll","Sat Mar 25 2023 19:21:31 GMT-0500 (Central Daylight Time)","488135","3","1","","638","","","","choice","","img/2to1/1.png","1","190","325","0.5","0.5","2","1","",""
"animation","75","145150","0.0-5.0-2.35","63f796a016e377d12cff50f1","bdp_cybrbll","Sat Mar 25 2023 19:21:31 GMT-0500 (Central Daylight Time)","488135","3","1","","","","","","","","","","190","","","","2","1","[{""stimulus"":""img/2to1/1.png"",""time"":102},{""stimulus"":""img/2to1/2.png"",""time"":200},{""stimulus"":""img/2to1/3.png"",""time"":303},{""stimulus"":""img/2to1/4.png"",""time"":400},{""stimulus"":""img/2to1/5.png"",""time"":497},{""stimulus"":""img/2to1/6.png"",""time"":610},{""stimulus"":""img/2to1/7.png"",""time"":698},{""stimulus"":""img/2to1/8.png"",""time"":796},{""stimulus"":""img/2to1/9.png"",""time"":892},{""stimulus"":""img/2to1/10.png"",""time"":1005},{""stimulus"":""img/2to1/11.png"",""time"":1093},{""stimulus"":""img/2to1/12.png"",""time"":1190}]","[]"
"image-keyboard-response","76","145546","0.0-5.0-1.36","63f796a016e377d12cff50f1","bdp_cybrbll","Sat Mar 25 2023 19:21:31 GMT-0500 (Central Daylight Time)","488135","3","1","","null","","","","observe","","img/1to3/1.png","null","189","394","0.5","0.5","1","3","",""
"animation","77","146834","0.0-5.0-2.36","63f796a016e377d12cff50f1","bdp_cybrbll","Sat Mar 25 2023 19:21:31 GMT-0500 (Central Daylight Time)","488135","3","1","","","","","","","","","","189","","","","1","3","[{""stimulus"":""img/1to3/1.png"",""time"":105},{""stimulus"":""img/1to3/2.png"",""time"":203},{""stimulus"":""img/1to3/3.png"",""time"":300},{""stimulus"":""img/1to3/4.png"",""time"":397},{""stimulus"":""img/1to3/5.png"",""time"":504},{""stimulus"":""img/1to3/6.png"",""time"":608},{""stimulus"":""img/1to3/7.png"",""time"":696},{""stimulus"":""img/1to3/8.png"",""time"":801},{""stimulus"":""img/1to3/9.png"",""time"":907},{""stimulus"":""img/1to3/10.png"",""time"":996},{""stimulus"":""img/1to3/11.png"",""time"":1102},{""stimulus"":""img/1to3/12.png"",""time"":1190}]","[]"
"image-keyboard-response","78","147120","0.0-5.0-1.37","63f796a016e377d12cff50f1","bdp_cybrbll","Sat Mar 25 2023 19:21:31 GMT-0500 (Central Daylight Time)","488135","3","1","","null","","","","observe","","img/3to2/1.png","null","188","281","0.5","0.5","3","1","",""
"animation","79","148414","0.0-5.0-2.37","63f796a016e377d12cff50f1","bdp_cybrbll","Sat Mar 25 2023 19:21:31 GMT-0500 (Central Daylight Time)","488135","3","1","","","","","","","","","","188","","","","3","1","[{""stimulus"":""img/3to1/1.png"",""time"":105},{""stimulus"":""img/3to1/2.png"",""time"":201},{""stimulus"":""img/3to1/3.png"",""time"":298},{""stimulus"":""img/3to1/4.png"",""time"":404},{""stimulus"":""img/3to1/5.png"",""time"":509},{""stimulus"":""img/3to1/6.png"",""time"":599},{""stimulus"":""img/3to1/7.png"",""time"":695},{""stimulus"":""img/3to1/8.png"",""time"":800},{""stimulus"":""img/3to1/9.png"",""time"":899},{""stimulus"":""img/3to1/10.png"",""time"":1003},{""stimulus"":""img/3to1/11.png"",""time"":1092},{""stimulus"":""img/3to1/12.png"",""time"":1190}]","[]"
"image-keyboard-response","80","148857","0.0-5.0-1.38","63f796a016e377d12cff50f1","bdp_cybrbll","Sat Mar 25 2023 19:21:31 GMT-0500 (Central Daylight Time)","488135","3","1","","null","","","","observe","","img/1to3/1.png","null","187","435","0.5","0.5","1","3","",""
"animation","81","150152","0.0-5.0-2.38","63f796a016e377d12cff50f1","bdp_cybrbll","Sat Mar 25 2023 19:21:31 GMT-0500 (Central Daylight Time)","488135","3","1","","","","","","","","","","187","","","","1","3","[{""stimulus"":""img/1to3/1.png"",""time"":105},{""stimulus"":""img/1to3/2.png"",""time"":203},{""stimulus"":""img/1to3/3.png"",""time"":301},{""stimulus"":""img/1to3/4.png"",""time"":398},{""stimulus"":""img/1to3/5.png"",""time"":502},{""stimulus"":""img/1to3/6.png"",""time"":608},{""stimulus"":""img/1to3/7.png"",""time"":695},{""stimulus"":""img/1to3/8.png"",""time"":800},{""stimulus"":""img/1to3/9.png"",""time"":899},{""stimulus"":""img/1to3/10.png"",""time"":998},{""stimulus"":""img/1to3/11.png"",""time"":1095},{""stimulus"":""img/1to3/12.png"",""time"":1192}]","[]"
"image-keyboard-response","82","151002","0.0-5.0-1.39","63f796a016e377d12cff50f1","bdp_cybrbll","Sat Mar 25 2023 19:21:31 GMT-0500 (Central Daylight Time)","488135","3","1","","null","","","","observe","","img/3to2/1.png","null","186","848","0.5","0.5","3","1","",""
"animation","83","152296","0.0-5.0-2.39","63f796a016e377d12cff50f1","bdp_cybrbll","Sat Mar 25 2023 19:21:31 GMT-0500 (Central Daylight Time)","488135","3","1","","","","","","","","","","186","","","","3","1","[{""stimulus"":""img/3to1/1.png"",""time"":105},{""stimulus"":""img/3to1/2.png"",""time"":201},{""stimulus"":""img/3to1/3.png"",""time"":299},{""stimulus"":""img/3to1/4.png"",""time"":398},{""stimulus"":""img/3to1/5.png"",""time"":502},{""stimulus"":""img/3to1/6.png"",""time"":599},{""stimulus"":""img/3to1/7.png"",""time"":697},{""stimulus"":""img/3to1/8.png"",""time"":796},{""stimulus"":""img/3to1/9.png"",""time"":896},{""stimulus"":""img/3to1/10.png"",""time"":993},{""stimulus"":""img/3to1/11.png"",""time"":1091},{""stimulus"":""img/3to1/12.png"",""time"":1198}]","[]"
"image-keyboard-response","84","153040","0.0-5.0-1.40","63f796a016e377d12cff50f1","bdp_cybrbll","Sat Mar 25 2023 19:21:31 GMT-0500 (Central Daylight Time)","488135","3","1","","null","","","","observe","","img/1to3/1.png","null","185","743","0.5","0.5","1","3","",""
"animation","85","154328","0.0-5.0-2.40","63f796a016e377d12cff50f1","bdp_cybrbll","Sat Mar 25 2023 19:21:31 GMT-0500 (Central Daylight Time)","488135","3","1","","","","","","","","","","185","","","","1","3","[{""stimulus"":""img/1to3/1.png"",""time"":105},{""stimulus"":""img/1to3/2.png"",""time"":201},{""stimulus"":""img/1to3/3.png"",""time"":313},{""stimulus"":""img/1to3/4.png"",""time"":404},{""stimulus"":""img/1to3/5.png"",""time"":502},{""stimulus"":""img/1to3/6.png"",""time"":600},{""stimulus"":""img/1to3/7.png"",""time"":697},{""stimulus"":""img/1to3/8.png"",""time"":795},{""stimulus"":""img/1to3/9.png"",""time"":893},{""stimulus"":""img/1to3/10.png"",""time"":998},{""stimulus"":""img/1to3/11.png"",""time"":1096},{""stimulus"":""img/1to3/12.png"",""time"":1192}]","[]"
"image-keyboard-response","86","154859","0.0-5.0-1.41","63f796a016e377d12cff50f1","bdp_cybrbll","Sat Mar 25 2023 19:21:31 GMT-0500 (Central Daylight Time)","488135","3","1","","null","","","","observe","","img/3to2/1.png","null","184","517","0.5","0.5","3","1","",""
"animation","87","156149","0.0-5.0-2.41","63f796a016e377d12cff50f1","bdp_cybrbll","Sat Mar 25 2023 19:21:31 GMT-0500 (Central Daylight Time)","488135","3","1","","","","","","","","","","184","","","","3","1","[{""stimulus"":""img/3to1/1.png"",""time"":106},{""stimulus"":""img/3to1/2.png"",""time"":212},{""stimulus"":""img/3to1/3.png"",""time"":301},{""stimulus"":""img/3to1/4.png"",""time"":398},{""stimulus"":""img/3to1/5.png"",""time"":497},{""stimulus"":""img/3to1/6.png"",""time"":602},{""stimulus"":""img/3to1/7.png"",""time"":699},{""stimulus"":""img/3to1/8.png"",""time"":799},{""stimulus"":""img/3to1/9.png"",""time"":898},{""stimulus"":""img/3to1/10.png"",""time"":1006},{""stimulus"":""img/3to1/11.png"",""time"":1094},{""stimulus"":""img/3to1/12.png"",""time"":1191}]","[]"
"image-keyboard-response","88","157900","0.0-5.0-1.42","63f796a016e377d12cff50f1","bdp_cybrbll","Sat Mar 25 2023 19:21:31 GMT-0500 (Central Daylight Time)","488135","3","1","","null","","","","observe","","img/1to3/1.png","null","183","1737","0.5","0.5","1","3","",""
"animation","89","159194","0.0-5.0-2.42","63f796a016e377d12cff50f1","bdp_cybrbll","Sat Mar 25 2023 19:21:31 GMT-0500 (Central Daylight Time)","488135","3","1","","","","","","","","","","183","","","","1","3","[{""stimulus"":""img/1to3/1.png"",""time"":104},{""stimulus"":""img/1to3/2.png"",""time"":201},{""stimulus"":""img/1to3/3.png"",""time"":300},{""stimulus"":""img/1to3/4.png"",""time"":397},{""stimulus"":""img/1to3/5.png"",""time"":502},{""stimulus"":""img/1to3/6.png"",""time"":607},{""stimulus"":""img/1to3/7.png"",""time"":699},{""stimulus"":""img/1to3/8.png"",""time"":797},{""stimulus"":""img/1to3/9.png"",""time"":894},{""stimulus"":""img/1to3/10.png"",""time"":992},{""stimulus"":""img/1to3/11.png"",""time"":1090},{""stimulus"":""img/1to3/12.png"",""time"":1197}]","[]"
"image-keyboard-response","90","159447","0.0-5.0-1.43","63f796a016e377d12cff50f1","bdp_cybrbll","Sat Mar 25 2023 19:21:31 GMT-0500 (Central Daylight Time)","488135","3","1","","null","","","","observe","","img/3to2/1.png","null","182","251","0.5","0.5","3","1","",""
"animation","91","160739","0.0-5.0-2.43","63f796a016e377d12cff50f1","bdp_cybrbll","Sat Mar 25 2023 19:21:31 GMT-0500 (Central Daylight Time)","488135","3","1","","","","","","","","","","182","","","","3","1","[{""stimulus"":""img/3to1/1.png"",""time"":106},{""stimulus"":""img/3to1/2.png"",""time"":203},{""stimulus"":""img/3to1/3.png"",""time"":300},{""stimulus"":""img/3to1/4.png"",""time"":407},{""stimulus"":""img/3to1/5.png"",""time"":512},{""stimulus"":""img/3to1/6.png"",""time"":600},{""stimulus"":""img/3to1/7.png"",""time"":706},{""stimulus"":""img/3to1/8.png"",""time"":796},{""stimulus"":""img/3to1/9.png"",""time"":894},{""stimulus"":""img/3to1/10.png"",""time"":991},{""stimulus"":""img/3to1/11.png"",""time"":1106},{""stimulus"":""img/3to1/12.png"",""time"":1194}]","[]"
"image-keyboard-response","92","161113","0.0-5.0-1.44","63f796a016e377d12cff50f1","bdp_cybrbll","Sat Mar 25 2023 19:21:31 GMT-0500 (Central Daylight Time)","488135","3","1","","null","","","","observe","","img/1to3/1.png","null","181","372","0.5","0.5","1","3","",""
"animation","93","162402","0.0-5.0-2.44","63f796a016e377d12cff50f1","bdp_cybrbll","Sat Mar 25 2023 19:21:31 GMT-0500 (Central Daylight Time)","488135","3","1","","","","","","","","","","181","","","","1","3","[{""stimulus"":""img/1to3/1.png"",""time"":106},{""stimulus"":""img/1to3/2.png"",""time"":203},{""stimulus"":""img/1to3/3.png"",""time"":302},{""stimulus"":""img/1to3/4.png"",""time"":400},{""stimulus"":""img/1to3/5.png"",""time"":496},{""stimulus"":""img/1to3/6.png"",""time"":595},{""stimulus"":""img/1to3/7.png"",""time"":695},{""stimulus"":""img/1to3/8.png"",""time"":794},{""stimulus"":""img/1to3/9.png"",""time"":892},{""stimulus"":""img/1to3/10.png"",""time"":997},{""stimulus"":""img/1to3/11.png"",""time"":1094},{""stimulus"":""img/1to3/12.png"",""time"":1192}]","[]"
"image-keyboard-response","94","162606","0.0-5.0-1.45","63f796a016e377d12cff50f1","bdp_cybrbll","Sat Mar 25 2023 19:21:31 GMT-0500 (Central Daylight Time)","488135","3","1","","null","","","","observe","","img/3to2/1.png","null","180","202","0.5","0.5","3","2","",""
"animation","95","163898","0.0-5.0-2.45","63f796a016e377d12cff50f1","bdp_cybrbll","Sat Mar 25 2023 19:21:31 GMT-0500 (Central Daylight Time)","488135","3","1","","","","","","","","","","180","","","","3","2","[{""stimulus"":""img/3to2/1.png"",""time"":104},{""stimulus"":""img/3to2/2.png"",""time"":202},{""stimulus"":""img/3to2/3.png"",""time"":300},{""stimulus"":""img/3to2/4.png"",""time"":397},{""stimulus"":""img/3to2/5.png"",""time"":503},{""stimulus"":""img/3to2/6.png"",""time"":600},{""stimulus"":""img/3to2/7.png"",""time"":697},{""stimulus"":""img/3to2/8.png"",""time"":793},{""stimulus"":""img/3to2/9.png"",""time"":892},{""stimulus"":""img/3to2/10.png"",""time"":997},{""stimulus"":""img/3to2/11.png"",""time"":1096},{""stimulus"":""img/3to2/12.png"",""time"":1197}]","[]"
"image-keyboard-response","96","164577","0.0-5.0-1.46","63f796a016e377d12cff50f1","bdp_cybrbll","Sat Mar 25 2023 19:21:31 GMT-0500 (Central Daylight Time)","488135","3","1","","678","","","","choice","","img/2to1/1.png","1","179","392","0.5","0.5","2","1","",""
"animation","97","165865","0.0-5.0-2.46","63f796a016e377d12cff50f1","bdp_cybrbll","Sat Mar 25 2023 19:21:31 GMT-0500 (Central Daylight Time)","488135","3","1","","","","","","","","","","179","","","","2","1","[{""stimulus"":""img/2to1/1.png"",""time"":103},{""stimulus"":""img/2to1/2.png"",""time"":201},{""stimulus"":""img/2to1/3.png"",""time"":306},{""stimulus"":""img/2to1/4.png"",""time"":403},{""stimulus"":""img/2to1/5.png"",""time"":499},{""stimulus"":""img/2to1/6.png"",""time"":596},{""stimulus"":""img/2to1/7.png"",""time"":701},{""stimulus"":""img/2to1/8.png"",""time"":797},{""stimulus"":""img/2to1/9.png"",""time"":895},{""stimulus"":""img/2to1/10.png"",""time"":993},{""stimulus"":""img/2to1/11.png"",""time"":1097},{""stimulus"":""img/2to1/12.png"",""time"":1197}]","[]"
"image-keyboard-response","98","166633","0.0-5.0-1.47","63f796a016e377d12cff50f1","bdp_cybrbll","Sat Mar 25 2023 19:21:31 GMT-0500 (Central Daylight Time)","488135","3","1","","null","","","","observe","","img/1to3/1.png","null","178","761","0.5","0.5","1","2","",""
"animation","99","167921","0.0-5.0-2.47","63f796a016e377d12cff50f1","bdp_cybrbll","Sat Mar 25 2023 19:21:31 GMT-0500 (Central Daylight Time)","488135","3","1","","","","","","","","","","178","","","","1","2","[{""stimulus"":""img/1to2/1.png"",""time"":108},{""stimulus"":""img/1to2/2.png"",""time"":205},{""stimulus"":""img/1to2/3.png"",""time"":301},{""stimulus"":""img/1to2/4.png"",""time"":400},{""stimulus"":""img/1to2/5.png"",""time"":496},{""stimulus"":""img/1to2/6.png"",""time"":611},{""stimulus"":""img/1to2/7.png"",""time"":699},{""stimulus"":""img/1to2/8.png"",""time"":805},{""stimulus"":""img/1to2/9.png"",""time"":894},{""stimulus"":""img/1to2/10.png"",""time"":999},{""stimulus"":""img/1to2/11.png"",""time"":1097},{""stimulus"":""img/1to2/12.png"",""time"":1192}]","[]"
"image-keyboard-response","100","168480","0.0-5.0-1.48","63f796a016e377d12cff50f1","bdp_cybrbll","Sat Mar 25 2023 19:21:31 GMT-0500 (Central Daylight Time)","488135","3","1","","558","","","","choice","","img/2to1/1.png","2","177","777","0.5","0.5","2","3","",""
"animation","101","169773","0.0-5.0-2.48","63f796a016e377d12cff50f1","bdp_cybrbll","Sat Mar 25 2023 19:21:31 GMT-0500 (Central Daylight Time)","488135","3","1","","","","","","","","","","177","","","","2","3","[{""stimulus"":""img/2to3/1.png"",""time"":101},{""stimulus"":""img/2to3/2.png"",""time"":198},{""stimulus"":""img/2to3/3.png"",""time"":304},{""stimulus"":""img/2to3/4.png"",""time"":397},{""stimulus"":""img/2to3/5.png"",""time"":502},{""stimulus"":""img/2to3/6.png"",""time"":606},{""stimulus"":""img/2to3/7.png"",""time"":695},{""stimulus"":""img/2to3/8.png"",""time"":808},{""stimulus"":""img/2to3/9.png"",""time"":898},{""stimulus"":""img/2to3/10.png"",""time"":993},{""stimulus"":""img/2to3/11.png"",""time"":1091},{""stimulus"":""img/2to3/12.png"",""time"":1197}]","[]"
"image-keyboard-response","102","170024","0.0-5.0-1.49","63f796a016e377d12cff50f1","bdp_cybrbll","Sat Mar 25 2023 19:21:31 GMT-0500 (Central Daylight Time)","488135","3","1","","null","","","","observe","","img/3to2/1.png","null","176","247","0.5","0.5","3","1","",""
"animation","103","171315","0.0-5.0-2.49","63f796a016e377d12cff50f1","bdp_cybrbll","Sat Mar 25 2023 19:21:31 GMT-0500 (Central Daylight Time)","488135","3","1","","","","","","","","","","176","","","","3","1","[{""stimulus"":""img/3to1/1.png"",""time"":106},{""stimulus"":""img/3to1/2.png"",""time"":204},{""stimulus"":""img/3to1/3.png"",""time"":301},{""stimulus"":""img/3to1/4.png"",""time"":398},{""stimulus"":""img/3to1/5.png"",""time"":511},{""stimulus"":""img/3to1/6.png"",""time"":600},{""stimulus"":""img/3to1/7.png"",""time"":697},{""stimulus"":""img/3to1/8.png"",""time"":793},{""stimulus"":""img/3to1/9.png"",""time"":892},{""stimulus"":""img/3to1/10.png"",""time"":998},{""stimulus"":""img/3to1/11.png"",""time"":1095},{""stimulus"":""img/3to1/12.png"",""time"":1194}]","[]"
"image-keyboard-response","104","171641","0.0-5.0-1.50","63f796a016e377d12cff50f1","bdp_cybrbll","Sat Mar 25 2023 19:21:31 GMT-0500 (Central Daylight Time)","488135","3","1","","null","","","","observe","","img/1to3/1.png","null","175","321","0.5","0.5","1","2","",""
"animation","105","172933","0.0-5.0-2.50","63f796a016e377d12cff50f1","bdp_cybrbll","Sat Mar 25 2023 19:21:31 GMT-0500 (Central Daylight Time)","488135","3","1","","","","","","","","","","175","","","","1","2","[{""stimulus"":""img/1to2/1.png"",""time"":105},{""stimulus"":""img/1to2/2.png"",""time"":203},{""stimulus"":""img/1to2/3.png"",""time"":301},{""stimulus"":""img/1to2/4.png"",""time"":398},{""stimulus"":""img/1to2/5.png"",""time"":497},{""stimulus"":""img/1to2/6.png"",""time"":594},{""stimulus"":""img/1to2/7.png"",""time"":701},{""stimulus"":""img/1to2/8.png"",""time"":799},{""stimulus"":""img/1to2/9.png"",""time"":896},{""stimulus"":""img/1to2/10.png"",""time"":995},{""stimulus"":""img/1to2/11.png"",""time"":1091},{""stimulus"":""img/1to2/12.png"",""time"":1203}]","[]"
"image-keyboard-response","106","173666","0.0-5.0-1.51","63f796a016e377d12cff50f1","bdp_cybrbll","Sat Mar 25 2023 19:21:31 GMT-0500 (Central Daylight Time)","488135","3","1","","732","","","","choice","","img/2to1/1.png","2","174","191","0.5","0.5","2","3","",""
"animation","107","174955","0.0-5.0-2.51","63f796a016e377d12cff50f1","bdp_cybrbll","Sat Mar 25 2023 19:21:31 GMT-0500 (Central Daylight Time)","488135","3","1","","","","","","","","","","174","","","","2","3","[{""stimulus"":""img/2to3/1.png"",""time"":104},{""stimulus"":""img/2to3/2.png"",""time"":201},{""stimulus"":""img/2to3/3.png"",""time"":306},{""stimulus"":""img/2to3/4.png"",""time"":403},{""stimulus"":""img/2to3/5.png"",""time"":500},{""stimulus"":""img/2to3/6.png"",""time"":600},{""stimulus"":""img/2to3/7.png"",""time"":697},{""stimulus"":""img/2to3/8.png"",""time"":795},{""stimulus"":""img/2to3/9.png"",""time"":903},{""stimulus"":""img/2to3/10.png"",""time"":993},{""stimulus"":""img/2to3/11.png"",""time"":1106},{""stimulus"":""img/2to3/12.png"",""time"":1193}]","[]"
"image-keyboard-response","108","175125","0.0-5.0-1.52","63f796a016e377d12cff50f1","bdp_cybrbll","Sat Mar 25 2023 19:21:31 GMT-0500 (Central Daylight Time)","488135","3","1","","null","","","","observe","","img/3to2/1.png","null","173","169","0.5","0.5","3","1","",""
"animation","109","176415","0.0-5.0-2.52","63f796a016e377d12cff50f1","bdp_cybrbll","Sat Mar 25 2023 19:21:31 GMT-0500 (Central Daylight Time)","488135","3","1","","","","","","","","","","173","","","","3","1","[{""stimulus"":""img/3to1/1.png"",""time"":104},{""stimulus"":""img/3to1/2.png"",""time"":202},{""stimulus"":""img/3to1/3.png"",""time"":299},{""stimulus"":""img/3to1/4.png"",""time"":404},{""stimulus"":""img/3to1/5.png"",""time"":500},{""stimulus"":""img/3to1/6.png"",""time"":597},{""stimulus"":""img/3to1/7.png"",""time"":697},{""stimulus"":""img/3to1/8.png"",""time"":796},{""stimulus"":""img/3to1/9.png"",""time"":894},{""stimulus"":""img/3to1/10.png"",""time"":1000},{""stimulus"":""img/3to1/11.png"",""time"":1096},{""stimulus"":""img/3to1/12.png"",""time"":1193}]","[]"
"image-keyboard-response","110","176844","0.0-5.0-1.53","63f796a016e377d12cff50f1","bdp_cybrbll","Sat Mar 25 2023 19:21:31 GMT-0500 (Central Daylight Time)","488135","3","1","","null","","","","observe","","img/1to3/1.png","null","172","423","0.5","0.5","1","3","",""
"animation","111","178134","0.0-5.0-2.53","63f796a016e377d12cff50f1","bdp_cybrbll","Sat Mar 25 2023 19:21:31 GMT-0500 (Central Daylight Time)","488135","3","1","","","","","","","","","","172","","","","1","3","[{""stimulus"":""img/1to3/1.png"",""time"":106},{""stimulus"":""img/1to3/2.png"",""time"":201},{""stimulus"":""img/1to3/3.png"",""time"":300},{""stimulus"":""img/1to3/4.png"",""time"":404},{""stimulus"":""img/1to3/5.png"",""time"":502},{""stimulus"":""img/1to3/6.png"",""time"":607},{""stimulus"":""img/1to3/7.png"",""time"":696},{""stimulus"":""img/1to3/8.png"",""time"":797},{""stimulus"":""img/1to3/9.png"",""time"":894},{""stimulus"":""img/1to3/10.png"",""time"":992},{""stimulus"":""img/1to3/11.png"",""time"":1097},{""stimulus"":""img/1to3/12.png"",""time"":1201}]","[]"
"image-keyboard-response","112","178527","0.0-5.0-1.54","63f796a016e377d12cff50f1","bdp_cybrbll","Sat Mar 25 2023 19:21:31 GMT-0500 (Central Daylight Time)","488135","3","1","","null","","","","observe","","img/3to2/1.png","null","171","388","0.5","0.5","3","2","",""
"animation","113","179816","0.0-5.0-2.54","63f796a016e377d12cff50f1","bdp_cybrbll","Sat Mar 25 2023 19:21:31 GMT-0500 (Central Daylight Time)","488135","3","1","","","","","","","","","","171","","","","3","2","[{""stimulus"":""img/3to2/1.png"",""time"":104},{""stimulus"":""img/3to2/2.png"",""time"":202},{""stimulus"":""img/3to2/3.png"",""time"":299},{""stimulus"":""img/3to2/4.png"",""time"":397},{""stimulus"":""img/3to2/5.png"",""time"":497},{""stimulus"":""img/3to2/6.png"",""time"":610},{""stimulus"":""img/3to2/7.png"",""time"":698},{""stimulus"":""img/3to2/8.png"",""time"":796},{""stimulus"":""img/3to2/9.png"",""time"":893},{""stimulus"":""img/3to2/10.png"",""time"":998},{""stimulus"":""img/3to2/11.png"",""time"":1097},{""stimulus"":""img/3to2/12.png"",""time"":1191}]","[]"
"image-keyboard-response","114","180488","0.0-5.0-1.55","63f796a016e377d12cff50f1","bdp_cybrbll","Sat Mar 25 2023 19:21:31 GMT-0500 (Central Daylight Time)","488135","3","1","","671","","","","choice","","img/2to1/1.png","1","170","675","0.5","0.5","2","1","",""
"animation","115","181780","0.0-5.0-2.55","63f796a016e377d12cff50f1","bdp_cybrbll","Sat Mar 25 2023 19:21:31 GMT-0500 (Central Daylight Time)","488135","3","1","","","","","","","","","","170","","","","2","1","[{""stimulus"":""img/2to1/1.png"",""time"":101},{""stimulus"":""img/2to1/2.png"",""time"":206},{""stimulus"":""img/2to1/3.png"",""time"":301},{""stimulus"":""img/2to1/4.png"",""time"":399},{""stimulus"":""img/2to1/5.png"",""time"":504},{""stimulus"":""img/2to1/6.png"",""time"":600},{""stimulus"":""img/2to1/7.png"",""time"":697},{""stimulus"":""img/2to1/8.png"",""time"":796},{""stimulus"":""img/2to1/9.png"",""time"":895},{""stimulus"":""img/2to1/10.png"",""time"":992},{""stimulus"":""img/2to1/11.png"",""time"":1090},{""stimulus"":""img/2to1/12.png"",""time"":1195}]","[]"
"image-keyboard-response","116","182417","0.0-5.0-1.56","63f796a016e377d12cff50f1","bdp_cybrbll","Sat Mar 25 2023 19:21:31 GMT-0500 (Central Daylight Time)","488135","3","1","","null","","","","observe","","img/1to3/1.png","null","169","634","0.5","0.5","1","3","",""
"animation","117","183711","0.0-5.0-2.56","63f796a016e377d12cff50f1","bdp_cybrbll","Sat Mar 25 2023 19:21:31 GMT-0500 (Central Daylight Time)","488135","3","1","","","","","","","","","","169","","","","1","3","[{""stimulus"":""img/1to3/1.png"",""time"":107},{""stimulus"":""img/1to3/2.png"",""time"":212},{""stimulus"":""img/1to3/3.png"",""time"":300},{""stimulus"":""img/1to3/4.png"",""time"":405},{""stimulus"":""img/1to3/5.png"",""time"":502},{""stimulus"":""img/1to3/6.png"",""time"":598},{""stimulus"":""img/1to3/7.png"",""time"":694},{""stimulus"":""img/1to3/8.png"",""time"":799},{""stimulus"":""img/1to3/9.png"",""time"":897},{""stimulus"":""img/1to3/10.png"",""time"":995},{""stimulus"":""img/1to3/11.png"",""time"":1093},{""stimulus"":""img/1to3/12.png"",""time"":1198}]","[]"
"image-keyboard-response","118","184029","0.0-5.0-1.57","63f796a016e377d12cff50f1","bdp_cybrbll","Sat Mar 25 2023 19:21:31 GMT-0500 (Central Daylight Time)","488135","3","1","","null","","","","observe","","img/3to2/1.png","null","168","310","0.5","0.5","3","2","",""
"animation","119","185318","0.0-5.0-2.57","63f796a016e377d12cff50f1","bdp_cybrbll","Sat Mar 25 2023 19:21:31 GMT-0500 (Central Daylight Time)","488135","3","1","","","","","","","","","","168","","","","3","2","[{""stimulus"":""img/3to2/1.png"",""time"":105},{""stimulus"":""img/3to2/2.png"",""time"":211},{""stimulus"":""img/3to2/3.png"",""time"":299},{""stimulus"":""img/3to2/4.png"",""time"":397},{""stimulus"":""img/3to2/5.png"",""time"":502},{""stimulus"":""img/3to2/6.png"",""time"":600},{""stimulus"":""img/3to2/7.png"",""time"":706},{""stimulus"":""img/3to2/8.png"",""time"":795},{""stimulus"":""img/3to2/9.png"",""time"":893},{""stimulus"":""img/3to2/10.png"",""time"":998},{""stimulus"":""img/3to2/11.png"",""time"":1095},{""stimulus"":""img/3to2/12.png"",""time"":1192}]","[]"
"image-keyboard-response","120","185913","0.0-5.0-1.58","63f796a016e377d12cff50f1","bdp_cybrbll","Sat Mar 25 2023 19:21:31 GMT-0500 (Central Daylight Time)","488135","3","1","","594","","","","choice","","img/2to1/1.png","1","167","911","0.5","0.5","2","1","",""
"animation","121","187204","0.0-5.0-2.58","63f796a016e377d12cff50f1","bdp_cybrbll","Sat Mar 25 2023 19:21:31 GMT-0500 (Central Daylight Time)","488135","3","1","","","","","","","","","","167","","","","2","1","[{""stimulus"":""img/2to1/1.png"",""time"":100},{""stimulus"":""img/2to1/2.png"",""time"":202},{""stimulus"":""img/2to1/3.png"",""time"":298},{""stimulus"":""img/2to1/4.png"",""time"":404},{""stimulus"":""img/2to1/5.png"",""time"":501},{""stimulus"":""img/2to1/6.png"",""time"":600},{""stimulus"":""img/2to1/7.png"",""time"":698},{""stimulus"":""img/2to1/8.png"",""time"":797},{""stimulus"":""img/2to1/9.png"",""time"":902},{""stimulus"":""img/2to1/10.png"",""time"":992},{""stimulus"":""img/2to1/11.png"",""time"":1097},{""stimulus"":""img/2to1/12.png"",""time"":1196}]","[]"
"image-keyboard-response","122","187828","0.0-5.0-1.59","63f796a016e377d12cff50f1","bdp_cybrbll","Sat Mar 25 2023 19:21:31 GMT-0500 (Central Daylight Time)","488135","3","1","","null","","","","observe","","img/1to3/1.png","null","166","620","0.5","0.5","1","3","",""
"animation","123","189122","0.0-5.0-2.59","63f796a016e377d12cff50f1","bdp_cybrbll","Sat Mar 25 2023 19:21:31 GMT-0500 (Central Daylight Time)","488135","3","1","","","","","","","","","","166","","","","1","3","[{""stimulus"":""img/1to3/1.png"",""time"":106},{""stimulus"":""img/1to3/2.png"",""time"":212},{""stimulus"":""img/1to3/3.png"",""time"":300},{""stimulus"":""img/1to3/4.png"",""time"":411},{""stimulus"":""img/1to3/5.png"",""time"":508},{""stimulus"":""img/1to3/6.png"",""time"":606},{""stimulus"":""img/1to3/7.png"",""time"":703},{""stimulus"":""img/1to3/8.png"",""time"":800},{""stimulus"":""img/1to3/9.png"",""time"":912},{""stimulus"":""img/1to3/10.png"",""time"":1001},{""stimulus"":""img/1to3/11.png"",""time"":1098},{""stimulus"":""img/1to3/12.png"",""time"":1196}]","[]"
"image-keyboard-response","124","189470","0.0-5.0-1.60","63f796a016e377d12cff50f1","bdp_cybrbll","Sat Mar 25 2023 19:21:31 GMT-0500 (Central Daylight Time)","488135","3","1","","null","","","","observe","","img/3to2/1.png","null","165","329","0.5","0.5","3","1","",""
"animation","125","190770","0.0-5.0-2.60","63f796a016e377d12cff50f1","bdp_cybrbll","Sat Mar 25 2023 19:21:31 GMT-0500 (Central Daylight Time)","488135","3","1","","","","","","","","","","165","","","","3","1","[{""stimulus"":""img/3to1/1.png"",""time"":107},{""stimulus"":""img/3to1/2.png"",""time"":211},{""stimulus"":""img/3to1/3.png"",""time"":299},{""stimulus"":""img/3to1/4.png"",""time"":405},{""stimulus"":""img/3to1/5.png"",""time"":502},{""stimulus"":""img/3to1/6.png"",""time"":602},{""stimulus"":""img/3to1/7.png"",""time"":700},{""stimulus"":""img/3to1/8.png"",""time"":797},{""stimulus"":""img/3to1/9.png"",""time"":901},{""stimulus"":""img/3to1/10.png"",""time"":993},{""stimulus"":""img/3to1/11.png"",""time"":1097},{""stimulus"":""img/3to1/12.png"",""time"":1195}]","[]"
"image-keyboard-response","126","191593","0.0-5.0-1.61","63f796a016e377d12cff50f1","bdp_cybrbll","Sat Mar 25 2023 19:21:31 GMT-0500 (Central Daylight Time)","488135","3","1","","null","","","","observe","","img/1to3/1.png","null","164","819","0.5","0.5","1","3","",""
"animation","127","192884","0.0-5.0-2.61","63f796a016e377d12cff50f1","bdp_cybrbll","Sat Mar 25 2023 19:21:31 GMT-0500 (Central Daylight Time)","488135","3","1","","","","","","","","","","164","","","","1","3","[{""stimulus"":""img/1to3/1.png"",""time"":106},{""stimulus"":""img/1to3/2.png"",""time"":203},{""stimulus"":""img/1to3/3.png"",""time"":299},{""stimulus"":""img/1to3/4.png"",""time"":398},{""stimulus"":""img/1to3/5.png"",""time"":504},{""stimulus"":""img/1to3/6.png"",""time"":601},{""stimulus"":""img/1to3/7.png"",""time"":697},{""stimulus"":""img/1to3/8.png"",""time"":795},{""stimulus"":""img/1to3/9.png"",""time"":893},{""stimulus"":""img/1to3/10.png"",""time"":991},{""stimulus"":""img/1to3/11.png"",""time"":1096},{""stimulus"":""img/1to3/12.png"",""time"":1203}]","[]"
"image-keyboard-response","128","193356","0.0-5.0-1.62","63f796a016e377d12cff50f1","bdp_cybrbll","Sat Mar 25 2023 19:21:31 GMT-0500 (Central Daylight Time)","488135","3","1","","null","","","","observe","","img/3to2/1.png","null","163","463","0.5","0.5","3","2","",""
"animation","129","194645","0.0-5.0-2.62","63f796a016e377d12cff50f1","bdp_cybrbll","Sat Mar 25 2023 19:21:31 GMT-0500 (Central Daylight Time)","488135","3","1","","","","","","","","","","163","","","","3","2","[{""stimulus"":""img/3to2/1.png"",""time"":105},{""stimulus"":""img/3to2/2.png"",""time"":202},{""stimulus"":""img/3to2/3.png"",""time"":299},{""stimulus"":""img/3to2/4.png"",""time"":404},{""stimulus"":""img/3to2/5.png"",""time"":502},{""stimulus"":""img/3to2/6.png"",""time"":607},{""stimulus"":""img/3to2/7.png"",""time"":704},{""stimulus"":""img/3to2/8.png"",""time"":794},{""stimulus"":""img/3to2/9.png"",""time"":899},{""stimulus"":""img/3to2/10.png"",""time"":997},{""stimulus"":""img/3to2/11.png"",""time"":1094},{""stimulus"":""img/3to2/12.png"",""time"":1191}]","[]"
"image-keyboard-response","130","194959","0.0-5.0-1.63","63f796a016e377d12cff50f1","bdp_cybrbll","Sat Mar 25 2023 19:21:31 GMT-0500 (Central Daylight Time)","488135","3","1","","313","","","","choice","","img/2to1/1.png","1","162","506","0.5","0.5","2","1","",""
"animation","131","196259","0.0-5.0-2.63","63f796a016e377d12cff50f1","bdp_cybrbll","Sat Mar 25 2023 19:21:31 GMT-0500 (Central Daylight Time)","488135","3","1","","","","","","","","","","162","","","","2","1","[{""stimulus"":""img/2to1/1.png"",""time"":102},{""stimulus"":""img/2to1/2.png"",""time"":207},{""stimulus"":""img/2to1/3.png"",""time"":305},{""stimulus"":""img/2to1/4.png"",""time"":402},{""stimulus"":""img/2to1/5.png"",""time"":498},{""stimulus"":""img/2to1/6.png"",""time"":605},{""stimulus"":""img/2to1/7.png"",""time"":702},{""stimulus"":""img/2to1/8.png"",""time"":799},{""stimulus"":""img/2to1/9.png"",""time"":896},{""stimulus"":""img/2to1/10.png"",""time"":993},{""stimulus"":""img/2to1/11.png"",""time"":1098},{""stimulus"":""img/2to1/12.png"",""time"":1195}]","[]"
"image-keyboard-response","132","196705","0.0-5.0-1.64","63f796a016e377d12cff50f1","bdp_cybrbll","Sat Mar 25 2023 19:21:31 GMT-0500 (Central Daylight Time)","488135","3","1","","null","","","","observe","","img/1to3/1.png","null","161","443","0.5","0.5","1","2","",""
"animation","133","197993","0.0-5.0-2.64","63f796a016e377d12cff50f1","bdp_cybrbll","Sat Mar 25 2023 19:21:31 GMT-0500 (Central Daylight Time)","488135","3","1","","","","","","","","","","161","","","","1","2","[{""stimulus"":""img/1to2/1.png"",""time"":108},{""stimulus"":""img/1to2/2.png"",""time"":205},{""stimulus"":""img/1to2/3.png"",""time"":304},{""stimulus"":""img/1to2/4.png"",""time"":409},{""stimulus"":""img/1to2/5.png"",""time"":497},{""stimulus"":""img/1to2/6.png"",""time"":603},{""stimulus"":""img/1to2/7.png"",""time"":708},{""stimulus"":""img/1to2/8.png"",""time"":795},{""stimulus"":""img/1to2/9.png"",""time"":892},{""stimulus"":""img/1to2/10.png"",""time"":998},{""stimulus"":""img/1to2/11.png"",""time"":1094},{""stimulus"":""img/1to2/12.png"",""time"":1192}]","[]"
"image-keyboard-response","134","198537","0.0-5.0-1.65","63f796a016e377d12cff50f1","bdp_cybrbll","Sat Mar 25 2023 19:21:31 GMT-0500 (Central Daylight Time)","488135","3","1","","543","","","","choice","","img/2to1/1.png","2","160","1132","0.5","0.5","2","3","",""
"animation","135","199827","0.0-5.0-2.65","63f796a016e377d12cff50f1","bdp_cybrbll","Sat Mar 25 2023 19:21:31 GMT-0500 (Central Daylight Time)","488135","3","1","","","","","","","","","","160","","","","2","3","[{""stimulus"":""img/2to3/1.png"",""time"":102},{""stimulus"":""img/2to3/2.png"",""time"":199},{""stimulus"":""img/2to3/3.png"",""time"":306},{""stimulus"":""img/2to3/4.png"",""time"":400},{""stimulus"":""img/2to3/5.png"",""time"":497},{""stimulus"":""img/2to3/6.png"",""time"":603},{""stimulus"":""img/2to3/7.png"",""time"":700},{""stimulus"":""img/2to3/8.png"",""time"":797},{""stimulus"":""img/2to3/9.png"",""time"":895},{""stimulus"":""img/2to3/10.png"",""time"":993},{""stimulus"":""img/2to3/11.png"",""time"":1097},{""stimulus"":""img/2to3/12.png"",""time"":1194}]","[]"
"image-keyboard-response","136","200422","0.0-5.0-1.66","63f796a016e377d12cff50f1","bdp_cybrbll","Sat Mar 25 2023 19:21:31 GMT-0500 (Central Daylight Time)","488135","3","1","","null","","","","observe","","img/3to2/1.png","null","159","589","0.5","0.5","3","1","",""
"animation","137","201711","0.0-5.0-2.66","63f796a016e377d12cff50f1","bdp_cybrbll","Sat Mar 25 2023 19:21:31 GMT-0500 (Central Daylight Time)","488135","3","1","","","","","","","","","","159","","","","3","1","[{""stimulus"":""img/3to1/1.png"",""time"":105},{""stimulus"":""img/3to1/2.png"",""time"":204},{""stimulus"":""img/3to1/3.png"",""time"":301},{""stimulus"":""img/3to1/4.png"",""time"":405},{""stimulus"":""img/3to1/5.png"",""time"":502},{""stimulus"":""img/3to1/6.png"",""time"":601},{""stimulus"":""img/3to1/7.png"",""time"":698},{""stimulus"":""img/3to1/8.png"",""time"":795},{""stimulus"":""img/3to1/9.png"",""time"":899},{""stimulus"":""img/3to1/10.png"",""time"":995},{""stimulus"":""img/3to1/11.png"",""time"":1095},{""stimulus"":""img/3to1/12.png"",""time"":1191}]","[]"
"image-keyboard-response","138","201985","0.0-5.0-1.67","63f796a016e377d12cff50f1","bdp_cybrbll","Sat Mar 25 2023 19:21:31 GMT-0500 (Central Daylight Time)","488135","3","1","","null","","","","observe","","img/1to3/1.png","null","158","267","0.5","0.5","1","3","",""
"animation","139","203275","0.0-5.0-2.67","63f796a016e377d12cff50f1","bdp_cybrbll","Sat Mar 25 2023 19:21:31 GMT-0500 (Central Daylight Time)","488135","3","1","","","","","","","","","","158","","","","1","3","[{""stimulus"":""img/1to3/1.png"",""time"":105},{""stimulus"":""img/1to3/2.png"",""time"":203},{""stimulus"":""img/1to3/3.png"",""time"":300},{""stimulus"":""img/1to3/4.png"",""time"":398},{""stimulus"":""img/1to3/5.png"",""time"":495},{""stimulus"":""img/1to3/6.png"",""time"":608},{""stimulus"":""img/1to3/7.png"",""time"":699},{""stimulus"":""img/1to3/8.png"",""time"":794},{""stimulus"":""img/1to3/9.png"",""time"":893},{""stimulus"":""img/1to3/10.png"",""time"":998},{""stimulus"":""img/1to3/11.png"",""time"":1094},{""stimulus"":""img/1to3/12.png"",""time"":1193}]","[]"
"image-keyboard-response","140","203866","0.0-5.0-1.68","63f796a016e377d12cff50f1","bdp_cybrbll","Sat Mar 25 2023 19:21:31 GMT-0500 (Central Daylight Time)","488135","3","1","","null","","","","observe","","img/3to2/1.png","null","157","581","0.5","0.5","3","1","",""
"animation","141","205159","0.0-5.0-2.68","63f796a016e377d12cff50f1","bdp_cybrbll","Sat Mar 25 2023 19:21:31 GMT-0500 (Central Daylight Time)","488135","3","1","","","","","","","","","","157","","","","3","1","[{""stimulus"":""img/3to1/1.png"",""time"":107},{""stimulus"":""img/3to1/2.png"",""time"":206},{""stimulus"":""img/3to1/3.png"",""time"":302},{""stimulus"":""img/3to1/4.png"",""time"":400},{""stimulus"":""img/3to1/5.png"",""time"":497},{""stimulus"":""img/3to1/6.png"",""time"":596},{""stimulus"":""img/3to1/7.png"",""time"":701},{""stimulus"":""img/3to1/8.png"",""time"":807},{""stimulus"":""img/3to1/9.png"",""time"":897},{""stimulus"":""img/3to1/10.png"",""time"":994},{""stimulus"":""img/3to1/11.png"",""time"":1091},{""stimulus"":""img/3to1/12.png"",""time"":1189}]","[]"
"image-keyboard-response","142","205436","0.0-5.0-1.69","63f796a016e377d12cff50f1","bdp_cybrbll","Sat Mar 25 2023 19:21:31 GMT-0500 (Central Daylight Time)","488135","3","1","","null","","","","observe","","img/1to3/1.png","null","156","274","0.5","0.5","1","2","",""
"animation","143","206727","0.0-5.0-2.69","63f796a016e377d12cff50f1","bdp_cybrbll","Sat Mar 25 2023 19:21:31 GMT-0500 (Central Daylight Time)","488135","3","1","","","","","","","","","","156","","","","1","2","[{""stimulus"":""img/1to2/1.png"",""time"":106},{""stimulus"":""img/1to2/2.png"",""time"":211},{""stimulus"":""img/1to2/3.png"",""time"":299},{""stimulus"":""img/1to2/4.png"",""time"":398},{""stimulus"":""img/1to2/5.png"",""time"":503},{""stimulus"":""img/1to2/6.png"",""time"":601},{""stimulus"":""img/1to2/7.png"",""time"":706},{""stimulus"":""img/1to2/8.png"",""time"":794},{""stimulus"":""img/1to2/9.png"",""time"":892},{""stimulus"":""img/1to2/10.png"",""time"":998},{""stimulus"":""img/1to2/11.png"",""time"":1096},{""stimulus"":""img/1to2/12.png"",""time"":1193}]","[]"
"image-keyboard-response","144","207191","0.0-5.0-1.70","63f796a016e377d12cff50f1","bdp_cybrbll","Sat Mar 25 2023 19:21:31 GMT-0500 (Central Daylight Time)","488135","3","1","","461","","","","choice","","img/2to1/1.png","2","155","178","0.5","0.5","2","3","",""
"animation","145","208484","0.0-5.0-2.70","63f796a016e377d12cff50f1","bdp_cybrbll","Sat Mar 25 2023 19:21:31 GMT-0500 (Central Daylight Time)","488135","3","1","","","","","","","","","","155","","","","2","3","[{""stimulus"":""img/2to3/1.png"",""time"":101},{""stimulus"":""img/2to3/2.png"",""time"":205},{""stimulus"":""img/2to3/3.png"",""time"":302},{""stimulus"":""img/2to3/4.png"",""time"":400},{""stimulus"":""img/2to3/5.png"",""time"":497},{""stimulus"":""img/2to3/6.png"",""time"":596},{""stimulus"":""img/2to3/7.png"",""time"":702},{""stimulus"":""img/2to3/8.png"",""time"":798},{""stimulus"":""img/2to3/9.png"",""time"":895},{""stimulus"":""img/2to3/10.png"",""time"":993},{""stimulus"":""img/2to3/11.png"",""time"":1090},{""stimulus"":""img/2to3/12.png"",""time"":1197}]","[]"
"image-keyboard-response","146","208624","0.0-5.0-1.71","63f796a016e377d12cff50f1","bdp_cybrbll","Sat Mar 25 2023 19:21:31 GMT-0500 (Central Daylight Time)","488135","3","1","","null","","","","observe","","img/3to2/1.png","null","154","131","0.5","0.5","3","1","",""
"animation","147","209915","0.0-5.0-2.71","63f796a016e377d12cff50f1","bdp_cybrbll","Sat Mar 25 2023 19:21:31 GMT-0500 (Central Daylight Time)","488135","3","1","","","","","","","","","","154","","","","3","1","[{""stimulus"":""img/3to1/1.png"",""time"":106},{""stimulus"":""img/3to1/2.png"",""time"":205},{""stimulus"":""img/3to1/3.png"",""time"":302},{""stimulus"":""img/3to1/4.png"",""time"":399},{""stimulus"":""img/3to1/5.png"",""time"":496},{""stimulus"":""img/3to1/6.png"",""time"":602},{""stimulus"":""img/3to1/7.png"",""time"":699},{""stimulus"":""img/3to1/8.png"",""time"":797},{""stimulus"":""img/3to1/9.png"",""time"":894},{""stimulus"":""img/3to1/10.png"",""time"":999},{""stimulus"":""img/3to1/11.png"",""time"":1096},{""stimulus"":""img/3to1/12.png"",""time"":1193}]","[]"
"image-keyboard-response","148","210842","0.0-5.0-1.72","63f796a016e377d12cff50f1","bdp_cybrbll","Sat Mar 25 2023 19:21:31 GMT-0500 (Central Daylight Time)","488135","3","1","","null","","","","observe","","img/1to3/1.png","null","153","921","0.5","0.5","1","2","",""
"animation","149","212131","0.0-5.0-2.72","63f796a016e377d12cff50f1","bdp_cybrbll","Sat Mar 25 2023 19:21:31 GMT-0500 (Central Daylight Time)","488135","3","1","","","","","","","","","","153","","","","1","2","[{""stimulus"":""img/1to2/1.png"",""time"":104},{""stimulus"":""img/1to2/2.png"",""time"":210},{""stimulus"":""img/1to2/3.png"",""time"":301},{""stimulus"":""img/1to2/4.png"",""time"":398},{""stimulus"":""img/1to2/5.png"",""time"":511},{""stimulus"":""img/1to2/6.png"",""time"":603},{""stimulus"":""img/1to2/7.png"",""time"":699},{""stimulus"":""img/1to2/8.png"",""time"":804},{""stimulus"":""img/1to2/9.png"",""time"":893},{""stimulus"":""img/1to2/10.png"",""time"":1006},{""stimulus"":""img/1to2/11.png"",""time"":1096},{""stimulus"":""img/1to2/12.png"",""time"":1192}]","[]"
"image-keyboard-response","150","212633","0.0-5.0-1.73","63f796a016e377d12cff50f1","bdp_cybrbll","Sat Mar 25 2023 19:21:31 GMT-0500 (Central Daylight Time)","488135","3","1","","501","","","","choice","","img/2to1/1.png","2","152","307","0.5","0.5","2","3","",""
"animation","151","213928","0.0-5.0-2.73","63f796a016e377d12cff50f1","bdp_cybrbll","Sat Mar 25 2023 19:21:31 GMT-0500 (Central Daylight Time)","488135","3","1","","","","","","","","","","152","","","","2","3","[{""stimulus"":""img/2to3/1.png"",""time"":108},{""stimulus"":""img/2to3/2.png"",""time"":205},{""stimulus"":""img/2to3/3.png"",""time"":303},{""stimulus"":""img/2to3/4.png"",""time"":400},{""stimulus"":""img/2to3/5.png"",""time"":498},{""stimulus"":""img/2to3/6.png"",""time"":603},{""stimulus"":""img/2to3/7.png"",""time"":701},{""stimulus"":""img/2to3/8.png"",""time"":798},{""stimulus"":""img/2to3/9.png"",""time"":895},{""stimulus"":""img/2to3/10.png"",""time"":992},{""stimulus"":""img/2to3/11.png"",""time"":1090},{""stimulus"":""img/2to3/12.png"",""time"":1196}]","[]"
"image-keyboard-response","152","214425","0.0-5.0-1.74","63f796a016e377d12cff50f1","bdp_cybrbll","Sat Mar 25 2023 19:21:31 GMT-0500 (Central Daylight Time)","488135","3","1","","null","","","","observe","","img/3to2/1.png","null","151","495","0.5","0.5","3","1","",""
"animation","153","215717","0.0-5.0-2.74","63f796a016e377d12cff50f1","bdp_cybrbll","Sat Mar 25 2023 19:21:31 GMT-0500 (Central Daylight Time)","488135","3","1","","","","","","","","","","151","","","","3","1","[{""stimulus"":""img/3to1/1.png"",""time"":107},{""stimulus"":""img/3to1/2.png"",""time"":205},{""stimulus"":""img/3to1/3.png"",""time"":302},{""stimulus"":""img/3to1/4.png"",""time"":399},{""stimulus"":""img/3to1/5.png"",""time"":503},{""stimulus"":""img/3to1/6.png"",""time"":600},{""stimulus"":""img/3to1/7.png"",""time"":700},{""stimulus"":""img/3to1/8.png"",""time"":797},{""stimulus"":""img/3to1/9.png"",""time"":894},{""stimulus"":""img/3to1/10.png"",""time"":991},{""stimulus"":""img/3to1/11.png"",""time"":1097},{""stimulus"":""img/3to1/12.png"",""time"":1194}]","[]"
"image-keyboard-response","154","215878","0.0-5.0-1.75","63f796a016e377d12cff50f1","bdp_cybrbll","Sat Mar 25 2023 19:21:31 GMT-0500 (Central Daylight Time)","488135","3","1","","null","","","","observe","","img/1to3/1.png","null","150","157","0.5","0.5","1","2","",""
"animation","155","217170","0.0-5.0-2.75","63f796a016e377d12cff50f1","bdp_cybrbll","Sat Mar 25 2023 19:21:31 GMT-0500 (Central Daylight Time)","488135","3","1","","","","","","","","","","150","","","","1","2","[{""stimulus"":""img/1to2/1.png"",""time"":105},{""stimulus"":""img/1to2/2.png"",""time"":201},{""stimulus"":""img/1to2/3.png"",""time"":299},{""stimulus"":""img/1to2/4.png"",""time"":405},{""stimulus"":""img/1to2/5.png"",""time"":501},{""stimulus"":""img/1to2/6.png"",""time"":597},{""stimulus"":""img/1to2/7.png"",""time"":701},{""stimulus"":""img/1to2/8.png"",""time"":806},{""stimulus"":""img/1to2/9.png"",""time"":894},{""stimulus"":""img/1to2/10.png"",""time"":992},{""stimulus"":""img/1to2/11.png"",""time"":1105},{""stimulus"":""img/1to2/12.png"",""time"":1195}]","[]"
"image-keyboard-response","156","217777","0.0-5.0-1.76","63f796a016e377d12cff50f1","bdp_cybrbll","Sat Mar 25 2023 19:21:31 GMT-0500 (Central Daylight Time)","488135","3","1","","607","","","","choice","","img/2to1/1.png","2","149","1444","0.5","0.1","2","3","",""
"animation","157","219071","0.0-5.0-2.76","63f796a016e377d12cff50f1","bdp_cybrbll","Sat Mar 25 2023 19:21:31 GMT-0500 (Central Daylight Time)","488135","3","1","","","","","","","","","","149","","","","2","3","[{""stimulus"":""img/2to3/1.png"",""time"":107},{""stimulus"":""img/2to3/2.png"",""time"":204},{""stimulus"":""img/2to3/3.png"",""time"":301},{""stimulus"":""img/2to3/4.png"",""time"":399},{""stimulus"":""img/2to3/5.png"",""time"":504},{""stimulus"":""img/2to3/6.png"",""time"":601},{""stimulus"":""img/2to3/7.png"",""time"":697},{""stimulus"":""img/2to3/8.png"",""time"":794},{""stimulus"":""img/2to3/9.png"",""time"":899},{""stimulus"":""img/2to3/10.png"",""time"":996},{""stimulus"":""img/2to3/11.png"",""time"":1093},{""stimulus"":""img/2to3/12.png"",""time"":1189}]","[]"
"image-keyboard-response","158","219256","0.0-5.0-1.77","63f796a016e377d12cff50f1","bdp_cybrbll","Sat Mar 25 2023 19:21:31 GMT-0500 (Central Daylight Time)","488135","3","1","","null","","","","observe","","img/3to2/1.png","null","148","181","0.5","0.1","3","1","",""
"animation","159","220549","0.0-5.0-2.77","63f796a016e377d12cff50f1","bdp_cybrbll","Sat Mar 25 2023 19:21:31 GMT-0500 (Central Daylight Time)","488135","3","1","","","","","","","","","","148","","","","3","1","[{""stimulus"":""img/3to1/1.png"",""time"":105},{""stimulus"":""img/3to1/2.png"",""time"":201},{""stimulus"":""img/3to1/3.png"",""time"":305},{""stimulus"":""img/3to1/4.png"",""time"":402},{""stimulus"":""img/3to1/5.png"",""time"":500},{""stimulus"":""img/3to1/6.png"",""time"":596},{""stimulus"":""img/3to1/7.png"",""time"":693},{""stimulus"":""img/3to1/8.png"",""time"":799},{""stimulus"":""img/3to1/9.png"",""time"":904},{""stimulus"":""img/3to1/10.png"",""time"":992},{""stimulus"":""img/3to1/11.png"",""time"":1098},{""stimulus"":""img/3to1/12.png"",""time"":1194}]","[]"
"image-keyboard-response","160","220800","0.0-5.0-1.78","63f796a016e377d12cff50f1","bdp_cybrbll","Sat Mar 25 2023 19:21:31 GMT-0500 (Central Daylight Time)","488135","3","1","","null","","","","observe","","img/1to3/1.png","null","147","246","0.5","0.1","1","3","",""
"animation","161","222099","0.0-5.0-2.78","63f796a016e377d12cff50f1","bdp_cybrbll","Sat Mar 25 2023 19:21:31 GMT-0500 (Central Daylight Time)","488135","3","1","","","","","","","","","","147","","","","1","3","[{""stimulus"":""img/1to3/1.png"",""time"":106},{""stimulus"":""img/1to3/2.png"",""time"":207},{""stimulus"":""img/1to3/3.png"",""time"":304},{""stimulus"":""img/1to3/4.png"",""time"":400},{""stimulus"":""img/1to3/5.png"",""time"":498},{""stimulus"":""img/1to3/6.png"",""time"":601},{""stimulus"":""img/1to3/7.png"",""time"":699},{""stimulus"":""img/1to3/8.png"",""time"":796},{""stimulus"":""img/1to3/9.png"",""time"":893},{""stimulus"":""img/1to3/10.png"",""time"":998},{""stimulus"":""img/1to3/11.png"",""time"":1094},{""stimulus"":""img/1to3/12.png"",""time"":1193}]","[]"
"image-keyboard-response","162","222246","0.0-5.0-1.79","63f796a016e377d12cff50f1","bdp_cybrbll","Sat Mar 25 2023 19:21:31 GMT-0500 (Central Daylight Time)","488135","3","1","","null","","","","observe","","img/3to2/1.png","null","146","144","0.5","0.1","3","1","",""
"animation","163","223536","0.0-5.0-2.79","63f796a016e377d12cff50f1","bdp_cybrbll","Sat Mar 25 2023 19:21:31 GMT-0500 (Central Daylight Time)","488135","3","1","","","","","","","","","","146","","","","3","1","[{""stimulus"":""img/3to1/1.png"",""time"":108},{""stimulus"":""img/3to1/2.png"",""time"":204},{""stimulus"":""img/3to1/3.png"",""time"":301},{""stimulus"":""img/3to1/4.png"",""time"":398},{""stimulus"":""img/3to1/5.png"",""time"":503},{""stimulus"":""img/3to1/6.png"",""time"":599},{""stimulus"":""img/3to1/7.png"",""time"":697},{""stimulus"":""img/3to1/8.png"",""time"":794},{""stimulus"":""img/3to1/9.png"",""time"":893},{""stimulus"":""img/3to1/10.png"",""time"":998},{""stimulus"":""img/3to1/11.png"",""time"":1095},{""stimulus"":""img/3to1/12.png"",""time"":1193}]","[]"
"image-keyboard-response","164","223878","0.0-5.0-1.80","63f796a016e377d12cff50f1","bdp_cybrbll","Sat Mar 25 2023 19:21:31 GMT-0500 (Central Daylight Time)","488135","3","1","","null","","","","observe","","img/1to3/1.png","null","145","339","0.5","0.1","1","3","",""
"animation","165","225167","0.0-5.0-2.80","63f796a016e377d12cff50f1","bdp_cybrbll","Sat Mar 25 2023 19:21:31 GMT-0500 (Central Daylight Time)","488135","3","1","","","","","","","","","","145","","","","1","3","[{""stimulus"":""img/1to3/1.png"",""time"":105},{""stimulus"":""img/1to3/2.png"",""time"":204},{""stimulus"":""img/1to3/3.png"",""time"":301},{""stimulus"":""img/1to3/4.png"",""time"":398},{""stimulus"":""img/1to3/5.png"",""time"":497},{""stimulus"":""img/1to3/6.png"",""time"":602},{""stimulus"":""img/1to3/7.png"",""time"":698},{""stimulus"":""img/1to3/8.png"",""time"":804},{""stimulus"":""img/1to3/9.png"",""time"":893},{""stimulus"":""img/1to3/10.png"",""time"":999},{""stimulus"":""img/1to3/11.png"",""time"":1096},{""stimulus"":""img/1to3/12.png"",""time"":1192}]","[]"
"image-keyboard-response","166","226033","0.0-5.0-1.81","63f796a016e377d12cff50f1","bdp_cybrbll","Sat Mar 25 2023 19:21:31 GMT-0500 (Central Daylight Time)","488135","3","1","","null","","","","observe","","img/3to2/1.png","null","144","858","0.5","0.1","3","1","",""
"animation","167","227323","0.0-5.0-2.81","63f796a016e377d12cff50f1","bdp_cybrbll","Sat Mar 25 2023 19:21:31 GMT-0500 (Central Daylight Time)","488135","3","1","","","","","","","","","","144","","","","3","1","[{""stimulus"":""img/3to1/1.png"",""time"":106},{""stimulus"":""img/3to1/2.png"",""time"":204},{""stimulus"":""img/3to1/3.png"",""time"":309},{""stimulus"":""img/3to1/4.png"",""time"":398},{""stimulus"":""img/3to1/5.png"",""time"":512},{""stimulus"":""img/3to1/6.png"",""time"":600},{""stimulus"":""img/3to1/7.png"",""time"":701},{""stimulus"":""img/3to1/8.png"",""time"":797},{""stimulus"":""img/3to1/9.png"",""time"":893},{""stimulus"":""img/3to1/10.png"",""time"":998},{""stimulus"":""img/3to1/11.png"",""time"":1095},{""stimulus"":""img/3to1/12.png"",""time"":1193}]","[]"
"image-keyboard-response","168","227643","0.0-5.0-1.82","63f796a016e377d12cff50f1","bdp_cybrbll","Sat Mar 25 2023 19:21:31 GMT-0500 (Central Daylight Time)","488135","3","1","","null","","","","observe","","img/1to3/1.png","null","143","317","0.5","0.1","1","3","",""
"animation","169","228938","0.0-5.0-2.82","63f796a016e377d12cff50f1","bdp_cybrbll","Sat Mar 25 2023 19:21:31 GMT-0500 (Central Daylight Time)","488135","3","1","","","","","","","","","","143","","","","1","3","[{""stimulus"":""img/1to3/1.png"",""time"":106},{""stimulus"":""img/1to3/2.png"",""time"":206},{""stimulus"":""img/1to3/3.png"",""time"":304},{""stimulus"":""img/1to3/4.png"",""time"":401},{""stimulus"":""img/1to3/5.png"",""time"":499},{""stimulus"":""img/1to3/6.png"",""time"":596},{""stimulus"":""img/1to3/7.png"",""time"":701},{""stimulus"":""img/1to3/8.png"",""time"":799},{""stimulus"":""img/1to3/9.png"",""time"":898},{""stimulus"":""img/1to3/10.png"",""time"":994},{""stimulus"":""img/1to3/11.png"",""time"":1090},{""stimulus"":""img/1to3/12.png"",""time"":1198}]","[]"
"image-keyboard-response","170","229224","0.0-5.0-1.83","63f796a016e377d12cff50f1","bdp_cybrbll","Sat Mar 25 2023 19:21:31 GMT-0500 (Central Daylight Time)","488135","3","1","","null","","","","observe","","img/3to2/1.png","null","142","278","0.5","0.1","3","1","",""
"animation","171","230518","0.0-5.0-2.83","63f796a016e377d12cff50f1","bdp_cybrbll","Sat Mar 25 2023 19:21:31 GMT-0500 (Central Daylight Time)","488135","3","1","","","","","","","","","","142","","","","3","1","[{""stimulus"":""img/3to1/1.png"",""time"":107},{""stimulus"":""img/3to1/2.png"",""time"":205},{""stimulus"":""img/3to1/3.png"",""time"":304},{""stimulus"":""img/3to1/4.png"",""time"":408},{""stimulus"":""img/3to1/5.png"",""time"":498},{""stimulus"":""img/3to1/6.png"",""time"":595},{""stimulus"":""img/3to1/7.png"",""time"":707},{""stimulus"":""img/3to1/8.png"",""time"":798},{""stimulus"":""img/3to1/9.png"",""time"":896},{""stimulus"":""img/3to1/10.png"",""time"":1002},{""stimulus"":""img/3to1/11.png"",""time"":1092},{""stimulus"":""img/3to1/12.png"",""time"":1189}]","[]"
"image-keyboard-response","172","231360","0.0-5.0-1.84","63f796a016e377d12cff50f1","bdp_cybrbll","Sat Mar 25 2023 19:21:31 GMT-0500 (Central Daylight Time)","488135","3","1","","null","","","","observe","","img/1to3/1.png","null","141","835","0.5","0.1","1","2","",""
"animation","173","232647","0.0-5.0-2.84","63f796a016e377d12cff50f1","bdp_cybrbll","Sat Mar 25 2023 19:21:31 GMT-0500 (Central Daylight Time)","488135","3","1","","","","","","","","","","141","","","","1","2","[{""stimulus"":""img/1to2/1.png"",""time"":106},{""stimulus"":""img/1to2/2.png"",""time"":203},{""stimulus"":""img/1to2/3.png"",""time"":299},{""stimulus"":""img/1to2/4.png"",""time"":400},{""stimulus"":""img/1to2/5.png"",""time"":497},{""stimulus"":""img/1to2/6.png"",""time"":602},{""stimulus"":""img/1to2/7.png"",""time"":698},{""stimulus"":""img/1to2/8.png"",""time"":795},{""stimulus"":""img/1to2/9.png"",""time"":891},{""stimulus"":""img/1to2/10.png"",""time"":999},{""stimulus"":""img/1to2/11.png"",""time"":1094},{""stimulus"":""img/1to2/12.png"",""time"":1191}]","[]"
"image-keyboard-response","174","233145","0.0-5.0-1.85","63f796a016e377d12cff50f1","bdp_cybrbll","Sat Mar 25 2023 19:21:31 GMT-0500 (Central Daylight Time)","488135","3","1","","497","","","","choice","","img/2to1/1.png","2","140","439","0.5","0.1","2","3","",""
"animation","175","234439","0.0-5.0-2.85","63f796a016e377d12cff50f1","bdp_cybrbll","Sat Mar 25 2023 19:21:31 GMT-0500 (Central Daylight Time)","488135","3","1","","","","","","","","","","140","","","","2","3","[{""stimulus"":""img/2to3/1.png"",""time"":100},{""stimulus"":""img/2to3/2.png"",""time"":214},{""stimulus"":""img/2to3/3.png"",""time"":302},{""stimulus"":""img/2to3/4.png"",""time"":400},{""stimulus"":""img/2to3/5.png"",""time"":498},{""stimulus"":""img/2to3/6.png"",""time"":595},{""stimulus"":""img/2to3/7.png"",""time"":701},{""stimulus"":""img/2to3/8.png"",""time"":799},{""stimulus"":""img/2to3/9.png"",""time"":898},{""stimulus"":""img/2to3/10.png"",""time"":994},{""stimulus"":""img/2to3/11.png"",""time"":1091},{""stimulus"":""img/2to3/12.png"",""time"":1189}]","[]"
"image-keyboard-response","176","234879","0.0-5.0-1.86","63f796a016e377d12cff50f1","bdp_cybrbll","Sat Mar 25 2023 19:21:31 GMT-0500 (Central Daylight Time)","488135","3","1","","null","","","","observe","","img/3to2/1.png","null","139","421","0.5","0.1","3","2","",""
"animation","177","236167","0.0-5.0-2.86","63f796a016e377d12cff50f1","bdp_cybrbll","Sat Mar 25 2023 19:21:31 GMT-0500 (Central Daylight Time)","488135","3","1","","","","","","","","","","139","","","","3","2","[{""stimulus"":""img/3to2/1.png"",""time"":107},{""stimulus"":""img/3to2/2.png"",""time"":202},{""stimulus"":""img/3to2/3.png"",""time"":299},{""stimulus"":""img/3to2/4.png"",""time"":404},{""stimulus"":""img/3to2/5.png"",""time"":502},{""stimulus"":""img/3to2/6.png"",""time"":600},{""stimulus"":""img/3to2/7.png"",""time"":697},{""stimulus"":""img/3to2/8.png"",""time"":795},{""stimulus"":""img/3to2/9.png"",""time"":900},{""stimulus"":""img/3to2/10.png"",""time"":997},{""stimulus"":""img/3to2/11.png"",""time"":1094},{""stimulus"":""img/3to2/12.png"",""time"":1191}]","[]"
"image-keyboard-response","178","236717","0.0-5.0-1.87","63f796a016e377d12cff50f1","bdp_cybrbll","Sat Mar 25 2023 19:21:31 GMT-0500 (Central Daylight Time)","488135","3","1","","549","","","","choice","","img/2to1/1.png","1","138","492","0.5","0.1","2","1","",""
"animation","179","238011","0.0-5.0-2.87","63f796a016e377d12cff50f1","bdp_cybrbll","Sat Mar 25 2023 19:21:31 GMT-0500 (Central Daylight Time)","488135","3","1","","","","","","","","","","138","","","","2","1","[{""stimulus"":""img/2to1/1.png"",""time"":106},{""stimulus"":""img/2to1/2.png"",""time"":201},{""stimulus"":""img/2to1/3.png"",""time"":298},{""stimulus"":""img/2to1/4.png"",""time"":404},{""stimulus"":""img/2to1/5.png"",""time"":503},{""stimulus"":""img/2to1/6.png"",""time"":601},{""stimulus"":""img/2to1/7.png"",""time"":699},{""stimulus"":""img/2to1/8.png"",""time"":795},{""stimulus"":""img/2to1/9.png"",""time"":894},{""stimulus"":""img/2to1/10.png"",""time"":992},{""stimulus"":""img/2to1/11.png"",""time"":1090},{""stimulus"":""img/2to1/12.png"",""time"":1197}]","[]"
"image-keyboard-response","180","238416","0.0-5.0-1.88","63f796a016e377d12cff50f1","bdp_cybrbll","Sat Mar 25 2023 19:21:31 GMT-0500 (Central Daylight Time)","488135","3","1","","null","","","","observe","","img/1to3/1.png","null","137","399","0.5","0.1","1","3","",""
"animation","181","239716","0.0-5.0-2.88","63f796a016e377d12cff50f1","bdp_cybrbll","Sat Mar 25 2023 19:21:31 GMT-0500 (Central Daylight Time)","488135","3","1","","","","","","","","","","137","","","","1","3","[{""stimulus"":""img/1to3/1.png"",""time"":105},{""stimulus"":""img/1to3/2.png"",""time"":202},{""stimulus"":""img/1to3/3.png"",""time"":299},{""stimulus"":""img/1to3/4.png"",""time"":404},{""stimulus"":""img/1to3/5.png"",""time"":502},{""stimulus"":""img/1to3/6.png"",""time"":599},{""stimulus"":""img/1to3/7.png"",""time"":697},{""stimulus"":""img/1to3/8.png"",""time"":794},{""stimulus"":""img/1to3/9.png"",""time"":899},{""stimulus"":""img/1to3/10.png"",""time"":996},{""stimulus"":""img/1to3/11.png"",""time"":1095},{""stimulus"":""img/1to3/12.png"",""time"":1192}]","[]"
"image-keyboard-response","182","239970","0.0-5.0-1.89","63f796a016e377d12cff50f1","bdp_cybrbll","Sat Mar 25 2023 19:21:31 GMT-0500 (Central Daylight Time)","488135","3","1","","null","","","","observe","","img/3to2/1.png","null","136","238","0.5","0.1","3","2","",""
"animation","183","241260","0.0-5.0-2.89","63f796a016e377d12cff50f1","bdp_cybrbll","Sat Mar 25 2023 19:21:31 GMT-0500 (Central Daylight Time)","488135","3","1","","","","","","","","","","136","","","","3","2","[{""stimulus"":""img/3to2/1.png"",""time"":106},{""stimulus"":""img/3to2/2.png"",""time"":203},{""stimulus"":""img/3to2/3.png"",""time"":299},{""stimulus"":""img/3to2/4.png"",""time"":397},{""stimulus"":""img/3to2/5.png"",""time"":502},{""stimulus"":""img/3to2/6.png"",""time"":599},{""stimulus"":""img/3to2/7.png"",""time"":697},{""stimulus"":""img/3to2/8.png"",""time"":794},{""stimulus"":""img/3to2/9.png"",""time"":892},{""stimulus"":""img/3to2/10.png"",""time"":998},{""stimulus"":""img/3to2/11.png"",""time"":1096},{""stimulus"":""img/3to2/12.png"",""time"":1194}]","[]"
"image-keyboard-response","184","241852","0.0-5.0-1.90","63f796a016e377d12cff50f1","bdp_cybrbll","Sat Mar 25 2023 19:21:31 GMT-0500 (Central Daylight Time)","488135","3","1","","591","","","","choice","","img/2to1/1.png","1","135","807","0.5","0.1","2","1","",""
"animation","185","243151","0.0-5.0-2.90","63f796a016e377d12cff50f1","bdp_cybrbll","Sat Mar 25 2023 19:21:31 GMT-0500 (Central Daylight Time)","488135","3","1","","","","","","","","","","135","","","","2","1","[{""stimulus"":""img/2to1/1.png"",""time"":107},{""stimulus"":""img/2to1/2.png"",""time"":204},{""stimulus"":""img/2to1/3.png"",""time"":300},{""stimulus"":""img/2to1/4.png"",""time"":398},{""stimulus"":""img/2to1/5.png"",""time"":503},{""stimulus"":""img/2to1/6.png"",""time"":600},{""stimulus"":""img/2to1/7.png"",""time"":698},{""stimulus"":""img/2to1/8.png"",""time"":795},{""stimulus"":""img/2to1/9.png"",""time"":899},{""stimulus"":""img/2to1/10.png"",""time"":998},{""stimulus"":""img/2to1/11.png"",""time"":1104},{""stimulus"":""img/2to1/12.png"",""time"":1194}]","[]"
"image-keyboard-response","186","243627","0.0-5.0-1.91","63f796a016e377d12cff50f1","bdp_cybrbll","Sat Mar 25 2023 19:21:31 GMT-0500 (Central Daylight Time)","488135","3","1","","null","","","","observe","","img/1to3/1.png","null","134","467","0.5","0.1","1","3","",""
"animation","187","244918","0.0-5.0-2.91","63f796a016e377d12cff50f1","bdp_cybrbll","Sat Mar 25 2023 19:21:31 GMT-0500 (Central Daylight Time)","488135","3","1","","","","","","","","","","134","","","","1","3","[{""stimulus"":""img/1to3/1.png"",""time"":113},{""stimulus"":""img/1to3/2.png"",""time"":202},{""stimulus"":""img/1to3/3.png"",""time"":300},{""stimulus"":""img/1to3/4.png"",""time"":398},{""stimulus"":""img/1to3/5.png"",""time"":496},{""stimulus"":""img/1to3/6.png"",""time"":601},{""stimulus"":""img/1to3/7.png"",""time"":699},{""stimulus"":""img/1to3/8.png"",""time"":806},{""stimulus"":""img/1to3/9.png"",""time"":895},{""stimulus"":""img/1to3/10.png"",""time"":992},{""stimulus"":""img/1to3/11.png"",""time"":1096},{""stimulus"":""img/1to3/12.png"",""time"":1203}]","[]"
"image-keyboard-response","188","245482","0.0-5.0-1.92","63f796a016e377d12cff50f1","bdp_cybrbll","Sat Mar 25 2023 19:21:31 GMT-0500 (Central Daylight Time)","488135","3","1","","null","","","","observe","","img/3to2/1.png","null","133","559","0.5","0.1","3","1","",""
"animation","189","246777","0.0-5.0-2.92","63f796a016e377d12cff50f1","bdp_cybrbll","Sat Mar 25 2023 19:21:31 GMT-0500 (Central Daylight Time)","488135","3","1","","","","","","","","","","133","","","","3","1","[{""stimulus"":""img/3to1/1.png"",""time"":108},{""stimulus"":""img/3to1/2.png"",""time"":202},{""stimulus"":""img/3to1/3.png"",""time"":300},{""stimulus"":""img/3to1/4.png"",""time"":398},{""stimulus"":""img/3to1/5.png"",""time"":502},{""stimulus"":""img/3to1/6.png"",""time"":599},{""stimulus"":""img/3to1/7.png"",""time"":706},{""stimulus"":""img/3to1/8.png"",""time"":795},{""stimulus"":""img/3to1/9.png"",""time"":894},{""stimulus"":""img/3to1/10.png"",""time"":999},{""stimulus"":""img/3to1/11.png"",""time"":1095},{""stimulus"":""img/3to1/12.png"",""time"":1192}]","[]"
"image-keyboard-response","190","247265","0.0-5.0-1.93","63f796a016e377d12cff50f1","bdp_cybrbll","Sat Mar 25 2023 19:21:31 GMT-0500 (Central Daylight Time)","488135","3","1","","null","","","","observe","","img/1to3/1.png","null","132","484","0.5","0.1","1","3","",""
