"trial_type","trial_index","time_elapsed","internal_node_id","subject_id","task","startTime","totalTime","fairPartner","unfairPartner","view_history","rt","event","trial","time","trialtype","success","stimulus","key_press","throwsLeft","rtDur","pFair","pUnfair","holder","receiver","animation_sequence","responses"
"pavlovia","0","10","0.0-0.0","55c694e3fdf99b6c4f28595f","bdp_cybrbll","Sat Mar 25 2023 20:23:17 GMT-0500 (Central Daylight Time)","456231","1","3","","","","","","","","","","","","","","","","",""
"instructions","1","8177","0.0-1.0","55c694e3fdf99b6c4f28595f","bdp_cybrbll","Sat Mar 25 2023 20:23:17 GMT-0500 (Central Daylight Time)","456231","1","3","[{""page_index"":0,""viewing_time"":8165}]","8165","","","","","","","","","","","","","","",""
"","","","","55c694e3fdf99b6c4f28595f","bdp_cybrbll","Sat Mar 25 2023 20:23:17 GMT-0500 (Central Daylight Time)","456231","1","3","","","fullscreenenter","2","11607","fullscreenenter","","","","","","","","","","",""
"fullscreen","2","12598","0.0-2.0","55c694e3fdf99b6c4f28595f","bdp_cybrbll","Sat Mar 25 2023 20:23:17 GMT-0500 (Central Daylight Time)","456231","1","3","","","","","","","true","","","","","","","","","",""
"instructions","3","61682","0.0-4.0","55c694e3fdf99b6c4f28595f","bdp_cybrbll","Sat Mar 25 2023 20:23:17 GMT-0500 (Central Daylight Time)","456231","1","3","[{""page_index"":0,""viewing_time"":49083}]","49083","","","","","","","","","","","","","","",""
"image-keyboard-response","4","62689","0.0-5.0-1.0","55c694e3fdf99b6c4f28595f","bdp_cybrbll","Sat Mar 25 2023 20:23:17 GMT-0500 (Central Daylight Time)","456231","1","3","","1003","","","","choice","","img/2to1/1.png","1","225","250","0.5","0.5","2","1","",""
"animation","5","63991","0.0-5.0-2.0","55c694e3fdf99b6c4f28595f","bdp_cybrbll","Sat Mar 25 2023 20:23:17 GMT-0500 (Central Daylight Time)","456231","1","3","","","","","","","","","","225","","","","2","1","[{""stimulus"":""img/2to1/1.png"",""time"":115},{""stimulus"":""img/2to1/2.png"",""time"":210},{""stimulus"":""img/2to1/3.png"",""time"":302},{""stimulus"":""img/2to1/4.png"",""time"":411},{""stimulus"":""img/2to1/5.png"",""time"":496},{""stimulus"":""img/2to1/6.png"",""time"":595},{""stimulus"":""img/2to1/7.png"",""time"":708},{""stimulus"":""img/2to1/8.png"",""time"":800},{""stimulus"":""img/2to1/9.png"",""time"":895},{""stimulus"":""img/2to1/10.png"",""time"":1003},{""stimulus"":""img/2to1/11.png"",""time"":1091},{""stimulus"":""img/2to1/12.png"",""time"":1193}]","[]"
"image-keyboard-response","6","64858","0.0-5.0-1.1","55c694e3fdf99b6c4f28595f","bdp_cybrbll","Sat Mar 25 2023 20:23:17 GMT-0500 (Central Daylight Time)","456231","1","3","","null","","","","observe","","img/1to3/1.png","null","224","853","0.5","0.5","1","2","",""
"animation","7","66146","0.0-5.0-2.1","55c694e3fdf99b6c4f28595f","bdp_cybrbll","Sat Mar 25 2023 20:23:17 GMT-0500 (Central Daylight Time)","456231","1","3","","","","","","","","","","224","","","","1","2","[{""stimulus"":""img/1to2/1.png"",""time"":109},{""stimulus"":""img/1to2/2.png"",""time"":202},{""stimulus"":""img/1to2/3.png"",""time"":299},{""stimulus"":""img/1to2/4.png"",""time"":397},{""stimulus"":""img/1to2/5.png"",""time"":511},{""stimulus"":""img/1to2/6.png"",""time"":595},{""stimulus"":""img/1to2/7.png"",""time"":699},{""stimulus"":""img/1to2/8.png"",""time"":794},{""stimulus"":""img/1to2/9.png"",""time"":903},{""stimulus"":""img/1to2/10.png"",""time"":996},{""stimulus"":""img/1to2/11.png"",""time"":1105},{""stimulus"":""img/1to2/12.png"",""time"":1197}]","[]"
"image-keyboard-response","8","66367","0.0-5.0-1.2","55c694e3fdf99b6c4f28595f","bdp_cybrbll","Sat Mar 25 2023 20:23:17 GMT-0500 (Central Daylight Time)","456231","1","3","","220","","","","choice","","img/2to1/1.png","2","223","556","0.5","0.5","2","3","",""
"animation","9","67667","0.0-5.0-2.2","55c694e3fdf99b6c4f28595f","bdp_cybrbll","Sat Mar 25 2023 20:23:17 GMT-0500 (Central Daylight Time)","456231","1","3","","","","","","","","","","223","","","","2","3","[{""stimulus"":""img/2to3/1.png"",""time"":113},{""stimulus"":""img/2to3/2.png"",""time"":207},{""stimulus"":""img/2to3/3.png"",""time"":302},{""stimulus"":""img/2to3/4.png"",""time"":412},{""stimulus"":""img/2to3/5.png"",""time"":506},{""stimulus"":""img/2to3/6.png"",""time"":600},{""stimulus"":""img/2to3/7.png"",""time"":708},{""stimulus"":""img/2to3/8.png"",""time"":803},{""stimulus"":""img/2to3/9.png"",""time"":897},{""stimulus"":""img/2to3/10.png"",""time"":992},{""stimulus"":""img/2to3/11.png"",""time"":1099},{""stimulus"":""img/2to3/12.png"",""time"":1190}]","[]"
"image-keyboard-response","10","67933","0.0-5.0-1.3","55c694e3fdf99b6c4f28595f","bdp_cybrbll","Sat Mar 25 2023 20:23:17 GMT-0500 (Central Daylight Time)","456231","1","3","","null","","","","observe","","img/3to2/1.png","null","222","263","0.5","0.5","3","1","",""
"animation","11","69221","0.0-5.0-2.3","55c694e3fdf99b6c4f28595f","bdp_cybrbll","Sat Mar 25 2023 20:23:17 GMT-0500 (Central Daylight Time)","456231","1","3","","","","","","","","","","222","","","","3","1","[{""stimulus"":""img/3to1/1.png"",""time"":112},{""stimulus"":""img/3to1/2.png"",""time"":203},{""stimulus"":""img/3to1/3.png"",""time"":297},{""stimulus"":""img/3to1/4.png"",""time"":398},{""stimulus"":""img/3to1/5.png"",""time"":497},{""stimulus"":""img/3to1/6.png"",""time"":609},{""stimulus"":""img/3to1/7.png"",""time"":694},{""stimulus"":""img/3to1/8.png"",""time"":795},{""stimulus"":""img/3to1/9.png"",""time"":904},{""stimulus"":""img/3to1/10.png"",""time"":998},{""stimulus"":""img/3to1/11.png"",""time"":1093},{""stimulus"":""img/3to1/12.png"",""time"":1189}]","[]"
"image-keyboard-response","12","69682","0.0-5.0-1.4","55c694e3fdf99b6c4f28595f","bdp_cybrbll","Sat Mar 25 2023 20:23:17 GMT-0500 (Central Daylight Time)","456231","1","3","","null","","","","observe","","img/1to3/1.png","null","221","450","0.5","0.5","1","3","",""
"animation","13","70977","0.0-5.0-2.4","55c694e3fdf99b6c4f28595f","bdp_cybrbll","Sat Mar 25 2023 20:23:17 GMT-0500 (Central Daylight Time)","456231","1","3","","","","","","","","","","221","","","","1","3","[{""stimulus"":""img/1to3/1.png"",""time"":110},{""stimulus"":""img/1to3/2.png"",""time"":199},{""stimulus"":""img/1to3/3.png"",""time"":311},{""stimulus"":""img/1to3/4.png"",""time"":403},{""stimulus"":""img/1to3/5.png"",""time"":496},{""stimulus"":""img/1to3/6.png"",""time"":594},{""stimulus"":""img/1to3/7.png"",""time"":700},{""stimulus"":""img/1to3/8.png"",""time"":794},{""stimulus"":""img/1to3/9.png"",""time"":906},{""stimulus"":""img/1to3/10.png"",""time"":999},{""stimulus"":""img/1to3/11.png"",""time"":1093},{""stimulus"":""img/1to3/12.png"",""time"":1190}]","[]"
"image-keyboard-response","14","71353","0.0-5.0-1.5","55c694e3fdf99b6c4f28595f","bdp_cybrbll","Sat Mar 25 2023 20:23:17 GMT-0500 (Central Daylight Time)","456231","1","3","","null","","","","observe","","img/3to2/1.png","null","220","366","0.5","0.5","3","2","",""
"animation","15","72642","0.0-5.0-2.5","55c694e3fdf99b6c4f28595f","bdp_cybrbll","Sat Mar 25 2023 20:23:17 GMT-0500 (Central Daylight Time)","456231","1","3","","","","","","","","","","220","","","","3","2","[{""stimulus"":""img/3to2/1.png"",""time"":112},{""stimulus"":""img/3to2/2.png"",""time"":207},{""stimulus"":""img/3to2/3.png"",""time"":298},{""stimulus"":""img/3to2/4.png"",""time"":409},{""stimulus"":""img/3to2/5.png"",""time"":503},{""stimulus"":""img/3to2/6.png"",""time"":596},{""stimulus"":""img/3to2/7.png"",""time"":705},{""stimulus"":""img/3to2/8.png"",""time"":799},{""stimulus"":""img/3to2/9.png"",""time"":892},{""stimulus"":""img/3to2/10.png"",""time"":1004},{""stimulus"":""img/3to2/11.png"",""time"":1099},{""stimulus"":""img/3to2/12.png"",""time"":1195}]","[]"
"image-keyboard-response","16","73083","0.0-5.0-1.6","55c694e3fdf99b6c4f28595f","bdp_cybrbll","Sat Mar 25 2023 20:23:17 GMT-0500 (Central Daylight Time)","456231","1","3","","441","","","","choice","","img/2to1/1.png","1","219","347","0.5","0.5","2","1","",""
"animation","17","74371","0.0-5.0-2.6","55c694e3fdf99b6c4f28595f","bdp_cybrbll","Sat Mar 25 2023 20:23:17 GMT-0500 (Central Daylight Time)","456231","1","3","","","","","","","","","","219","","","","2","1","[{""stimulus"":""img/2to1/1.png"",""time"":109},{""stimulus"":""img/2to1/2.png"",""time"":200},{""stimulus"":""img/2to1/3.png"",""time"":298},{""stimulus"":""img/2to1/4.png"",""time"":402},{""stimulus"":""img/2to1/5.png"",""time"":511},{""stimulus"":""img/2to1/6.png"",""time"":595},{""stimulus"":""img/2to1/7.png"",""time"":699},{""stimulus"":""img/2to1/8.png"",""time"":794},{""stimulus"":""img/2to1/9.png"",""time"":902},{""stimulus"":""img/2to1/10.png"",""time"":996},{""stimulus"":""img/2to1/11.png"",""time"":1105},{""stimulus"":""img/2to1/12.png"",""time"":1199}]","[]"
"image-keyboard-response","18","74718","0.0-5.0-1.7","55c694e3fdf99b6c4f28595f","bdp_cybrbll","Sat Mar 25 2023 20:23:17 GMT-0500 (Central Daylight Time)","456231","1","3","","null","","","","observe","","img/1to3/1.png","null","218","332","0.5","0.5","1","3","",""
"animation","19","76019","0.0-5.0-2.7","55c694e3fdf99b6c4f28595f","bdp_cybrbll","Sat Mar 25 2023 20:23:17 GMT-0500 (Central Daylight Time)","456231","1","3","","","","","","","","","","218","","","","1","3","[{""stimulus"":""img/1to3/1.png"",""time"":109},{""stimulus"":""img/1to3/2.png"",""time"":199},{""stimulus"":""img/1to3/3.png"",""time"":312},{""stimulus"":""img/1to3/4.png"",""time"":405},{""stimulus"":""img/1to3/5.png"",""time"":498},{""stimulus"":""img/1to3/6.png"",""time"":595},{""stimulus"":""img/1to3/7.png"",""time"":703},{""stimulus"":""img/1to3/8.png"",""time"":793},{""stimulus"":""img/1to3/9.png"",""time"":893},{""stimulus"":""img/1to3/10.png"",""time"":991},{""stimulus"":""img/1to3/11.png"",""time"":1097},{""stimulus"":""img/1to3/12.png"",""time"":1190}]","[]"
"image-keyboard-response","20","76237","0.0-5.0-1.8","55c694e3fdf99b6c4f28595f","bdp_cybrbll","Sat Mar 25 2023 20:23:17 GMT-0500 (Central Daylight Time)","456231","1","3","","null","","","","observe","","img/3to2/1.png","null","217","202","0.5","0.5","3","2","",""
"animation","21","77526","0.0-5.0-2.8","55c694e3fdf99b6c4f28595f","bdp_cybrbll","Sat Mar 25 2023 20:23:17 GMT-0500 (Central Daylight Time)","456231","1","3","","","","","","","","","","217","","","","3","2","[{""stimulus"":""img/3to2/1.png"",""time"":109},{""stimulus"":""img/3to2/2.png"",""time"":202},{""stimulus"":""img/3to2/3.png"",""time"":310},{""stimulus"":""img/3to2/4.png"",""time"":397},{""stimulus"":""img/3to2/5.png"",""time"":496},{""stimulus"":""img/3to2/6.png"",""time"":595},{""stimulus"":""img/3to2/7.png"",""time"":694},{""stimulus"":""img/3to2/8.png"",""time"":794},{""stimulus"":""img/3to2/9.png"",""time"":891},{""stimulus"":""img/3to2/10.png"",""time"":991},{""stimulus"":""img/3to2/11.png"",""time"":1090},{""stimulus"":""img/3to2/12.png"",""time"":1190}]","[]"
"image-keyboard-response","22","77848","0.0-5.0-1.9","55c694e3fdf99b6c4f28595f","bdp_cybrbll","Sat Mar 25 2023 20:23:17 GMT-0500 (Central Daylight Time)","456231","1","3","","322","","","","choice","","img/2to1/1.png","2","216","266","0.5","0.5","2","3","",""
"animation","23","79136","0.0-5.0-2.9","55c694e3fdf99b6c4f28595f","bdp_cybrbll","Sat Mar 25 2023 20:23:17 GMT-0500 (Central Daylight Time)","456231","1","3","","","","","","","","","","216","","","","2","3","[{""stimulus"":""img/2to3/1.png"",""time"":103},{""stimulus"":""img/2to3/2.png"",""time"":211},{""stimulus"":""img/2to3/3.png"",""time"":306},{""stimulus"":""img/2to3/4.png"",""time"":398},{""stimulus"":""img/2to3/5.png"",""time"":497},{""stimulus"":""img/2to3/6.png"",""time"":596},{""stimulus"":""img/2to3/7.png"",""time"":694},{""stimulus"":""img/2to3/8.png"",""time"":793},{""stimulus"":""img/2to3/9.png"",""time"":899},{""stimulus"":""img/2to3/10.png"",""time"":994},{""stimulus"":""img/2to3/11.png"",""time"":1091},{""stimulus"":""img/2to3/12.png"",""time"":1197}]","[]"
"image-keyboard-response","24","79402","0.0-5.0-1.10","55c694e3fdf99b6c4f28595f","bdp_cybrbll","Sat Mar 25 2023 20:23:17 GMT-0500 (Central Daylight Time)","456231","1","3","","null","","","","observe","","img/3to2/1.png","null","215","265","0.5","0.5","3","2","",""
"animation","25","80690","0.0-5.0-2.10","55c694e3fdf99b6c4f28595f","bdp_cybrbll","Sat Mar 25 2023 20:23:17 GMT-0500 (Central Daylight Time)","456231","1","3","","","","","","","","","","215","","","","3","2","[{""stimulus"":""img/3to2/1.png"",""time"":111},{""stimulus"":""img/3to2/2.png"",""time"":205},{""stimulus"":""img/3to2/3.png"",""time"":298},{""stimulus"":""img/3to2/4.png"",""time"":407},{""stimulus"":""img/3to2/5.png"",""time"":499},{""stimulus"":""img/3to2/6.png"",""time"":607},{""stimulus"":""img/3to2/7.png"",""time"":701},{""stimulus"":""img/3to2/8.png"",""time"":793},{""stimulus"":""img/3to2/9.png"",""time"":893},{""stimulus"":""img/3to2/10.png"",""time"":991},{""stimulus"":""img/3to2/11.png"",""time"":1091},{""stimulus"":""img/3to2/12.png"",""time"":1202}]","[]"
"image-keyboard-response","26","81039","0.0-5.0-1.11","55c694e3fdf99b6c4f28595f","bdp_cybrbll","Sat Mar 25 2023 20:23:17 GMT-0500 (Central Daylight Time)","456231","1","3","","348","","","","choice","","img/2to1/1.png","2","214","495","0.5","0.5","2","3","",""
"animation","27","82338","0.0-5.0-2.11","55c694e3fdf99b6c4f28595f","bdp_cybrbll","Sat Mar 25 2023 20:23:17 GMT-0500 (Central Daylight Time)","456231","1","3","","","","","","","","","","214","","","","2","3","[{""stimulus"":""img/2to3/1.png"",""time"":114},{""stimulus"":""img/2to3/2.png"",""time"":207},{""stimulus"":""img/2to3/3.png"",""time"":301},{""stimulus"":""img/2to3/4.png"",""time"":397},{""stimulus"":""img/2to3/5.png"",""time"":496},{""stimulus"":""img/2to3/6.png"",""time"":595},{""stimulus"":""img/2to3/7.png"",""time"":707},{""stimulus"":""img/2to3/8.png"",""time"":798},{""stimulus"":""img/2to3/9.png"",""time"":892},{""stimulus"":""img/2to3/10.png"",""time"":1003},{""stimulus"":""img/2to3/11.png"",""time"":1098},{""stimulus"":""img/2to3/12.png"",""time"":1189}]","[]"
"image-keyboard-response","28","82763","0.0-5.0-1.12","55c694e3fdf99b6c4f28595f","bdp_cybrbll","Sat Mar 25 2023 20:23:17 GMT-0500 (Central Daylight Time)","456231","1","3","","null","","","","observe","","img/3to2/1.png","null","213","415","0.5","0.5","3","1","",""
"animation","29","84055","0.0-5.0-2.12","55c694e3fdf99b6c4f28595f","bdp_cybrbll","Sat Mar 25 2023 20:23:17 GMT-0500 (Central Daylight Time)","456231","1","3","","","","","","","","","","213","","","","3","1","[{""stimulus"":""img/3to1/1.png"",""time"":108},{""stimulus"":""img/3to1/2.png"",""time"":200},{""stimulus"":""img/3to1/3.png"",""time"":310},{""stimulus"":""img/3to1/4.png"",""time"":405},{""stimulus"":""img/3to1/5.png"",""time"":496},{""stimulus"":""img/3to1/6.png"",""time"":595},{""stimulus"":""img/3to1/7.png"",""time"":693},{""stimulus"":""img/3to1/8.png"",""time"":795},{""stimulus"":""img/3to1/9.png"",""time"":903},{""stimulus"":""img/3to1/10.png"",""time"":997},{""stimulus"":""img/3to1/11.png"",""time"":1090},{""stimulus"":""img/3to1/12.png"",""time"":1189}]","[]"
"image-keyboard-response","30","84441","0.0-5.0-1.13","55c694e3fdf99b6c4f28595f","bdp_cybrbll","Sat Mar 25 2023 20:23:17 GMT-0500 (Central Daylight Time)","456231","1","3","","null","","","","observe","","img/1to3/1.png","null","212","379","0.5","0.5","1","3","",""
"animation","31","85729","0.0-5.0-2.13","55c694e3fdf99b6c4f28595f","bdp_cybrbll","Sat Mar 25 2023 20:23:17 GMT-0500 (Central Daylight Time)","456231","1","3","","","","","","","","","","212","","","","1","3","[{""stimulus"":""img/1to3/1.png"",""time"":108},{""stimulus"":""img/1to3/2.png"",""time"":199},{""stimulus"":""img/1to3/3.png"",""time"":311},{""stimulus"":""img/1to3/4.png"",""time"":397},{""stimulus"":""img/1to3/5.png"",""time"":496},{""stimulus"":""img/1to3/6.png"",""time"":607},{""stimulus"":""img/1to3/7.png"",""time"":694},{""stimulus"":""img/1to3/8.png"",""time"":793},{""stimulus"":""img/1to3/9.png"",""time"":893},{""stimulus"":""img/1to3/10.png"",""time"":999},{""stimulus"":""img/1to3/11.png"",""time"":1093},{""stimulus"":""img/1to3/12.png"",""time"":1205}]","[]"
"image-keyboard-response","32","86006","0.0-5.0-1.14","55c694e3fdf99b6c4f28595f","bdp_cybrbll","Sat Mar 25 2023 20:23:17 GMT-0500 (Central Daylight Time)","456231","1","3","","null","","","","observe","","img/3to2/1.png","null","211","276","0.5","0.5","3","2","",""
"animation","33","87294","0.0-5.0-2.14","55c694e3fdf99b6c4f28595f","bdp_cybrbll","Sat Mar 25 2023 20:23:17 GMT-0500 (Central Daylight Time)","456231","1","3","","","","","","","","","","211","","","","3","2","[{""stimulus"":""img/3to2/1.png"",""time"":112},{""stimulus"":""img/3to2/2.png"",""time"":199},{""stimulus"":""img/3to2/3.png"",""time"":298},{""stimulus"":""img/3to2/4.png"",""time"":410},{""stimulus"":""img/3to2/5.png"",""time"":504},{""stimulus"":""img/3to2/6.png"",""time"":597},{""stimulus"":""img/3to2/7.png"",""time"":694},{""stimulus"":""img/3to2/8.png"",""time"":801},{""stimulus"":""img/3to2/9.png"",""time"":894},{""stimulus"":""img/3to2/10.png"",""time"":1005},{""stimulus"":""img/3to2/11.png"",""time"":1098},{""stimulus"":""img/3to2/12.png"",""time"":1189}]","[]"
"image-keyboard-response","34","87477","0.0-5.0-1.15","55c694e3fdf99b6c4f28595f","bdp_cybrbll","Sat Mar 25 2023 20:23:17 GMT-0500 (Central Daylight Time)","456231","1","3","","183","","","","choice","","img/2to1/1.png","1","210","621","0.5","0.5","2","1","",""
"animation","35","88775","0.0-5.0-2.15","55c694e3fdf99b6c4f28595f","bdp_cybrbll","Sat Mar 25 2023 20:23:17 GMT-0500 (Central Daylight Time)","456231","1","3","","","","","","","","","","210","","","","2","1","[{""stimulus"":""img/2to1/1.png"",""time"":112},{""stimulus"":""img/2to1/2.png"",""time"":199},{""stimulus"":""img/2to1/3.png"",""time"":313},{""stimulus"":""img/2to1/4.png"",""time"":405},{""stimulus"":""img/2to1/5.png"",""time"":496},{""stimulus"":""img/2to1/6.png"",""time"":609},{""stimulus"":""img/2to1/7.png"",""time"":694},{""stimulus"":""img/2to1/8.png"",""time"":793},{""stimulus"":""img/2to1/9.png"",""time"":892},{""stimulus"":""img/2to1/10.png"",""time"":992},{""stimulus"":""img/2to1/11.png"",""time"":1098},{""stimulus"":""img/2to1/12.png"",""time"":1189}]","[]"
"image-keyboard-response","36","89967","0.0-5.0-1.16","55c694e3fdf99b6c4f28595f","bdp_cybrbll","Sat Mar 25 2023 20:23:17 GMT-0500 (Central Daylight Time)","456231","1","3","","null","","","","observe","","img/1to3/1.png","null","209","1188","0.5","0.5","1","2","",""
"animation","37","91268","0.0-5.0-2.16","55c694e3fdf99b6c4f28595f","bdp_cybrbll","Sat Mar 25 2023 20:23:17 GMT-0500 (Central Daylight Time)","456231","1","3","","","","","","","","","","209","","","","1","2","[{""stimulus"":""img/1to2/1.png"",""time"":111},{""stimulus"":""img/1to2/2.png"",""time"":199},{""stimulus"":""img/1to2/3.png"",""time"":298},{""stimulus"":""img/1to2/4.png"",""time"":407},{""stimulus"":""img/1to2/5.png"",""time"":503},{""stimulus"":""img/1to2/6.png"",""time"":596},{""stimulus"":""img/1to2/7.png"",""time"":695},{""stimulus"":""img/1to2/8.png"",""time"":801},{""stimulus"":""img/1to2/9.png"",""time"":896},{""stimulus"":""img/1to2/10.png"",""time"":992},{""stimulus"":""img/1to2/11.png"",""time"":1099},{""stimulus"":""img/1to2/12.png"",""time"":1189}]","[]"
"image-keyboard-response","38","91700","0.0-5.0-1.17","55c694e3fdf99b6c4f28595f","bdp_cybrbll","Sat Mar 25 2023 20:23:17 GMT-0500 (Central Daylight Time)","456231","1","3","","431","","","","choice","","img/2to1/1.png","2","208","736","0.5","0.5","2","3","",""
"animation","39","93003","0.0-5.0-2.17","55c694e3fdf99b6c4f28595f","bdp_cybrbll","Sat Mar 25 2023 20:23:17 GMT-0500 (Central Daylight Time)","456231","1","3","","","","","","","","","","208","","","","2","3","[{""stimulus"":""img/2to3/1.png"",""time"":112},{""stimulus"":""img/2to3/2.png"",""time"":205},{""stimulus"":""img/2to3/3.png"",""time"":298},{""stimulus"":""img/2to3/4.png"",""time"":410},{""stimulus"":""img/2to3/5.png"",""time"":496},{""stimulus"":""img/2to3/6.png"",""time"":596},{""stimulus"":""img/2to3/7.png"",""time"":695},{""stimulus"":""img/2to3/8.png"",""time"":804},{""stimulus"":""img/2to3/9.png"",""time"":898},{""stimulus"":""img/2to3/10.png"",""time"":992},{""stimulus"":""img/2to3/11.png"",""time"":1100},{""stimulus"":""img/2to3/12.png"",""time"":1194}]","[]"
"image-keyboard-response","40","93517","0.0-5.0-1.18","55c694e3fdf99b6c4f28595f","bdp_cybrbll","Sat Mar 25 2023 20:23:17 GMT-0500 (Central Daylight Time)","456231","1","3","","null","","","","observe","","img/3to2/1.png","null","207","502","0.5","0.5","3","2","",""
"animation","41","94805","0.0-5.0-2.18","55c694e3fdf99b6c4f28595f","bdp_cybrbll","Sat Mar 25 2023 20:23:17 GMT-0500 (Central Daylight Time)","456231","1","3","","","","","","","","","","207","","","","3","2","[{""stimulus"":""img/3to2/1.png"",""time"":112},{""stimulus"":""img/3to2/2.png"",""time"":205},{""stimulus"":""img/3to2/3.png"",""time"":297},{""stimulus"":""img/3to2/4.png"",""time"":398},{""stimulus"":""img/3to2/5.png"",""time"":501},{""stimulus"":""img/3to2/6.png"",""time"":610},{""stimulus"":""img/3to2/7.png"",""time"":694},{""stimulus"":""img/3to2/8.png"",""time"":792},{""stimulus"":""img/3to2/9.png"",""time"":893},{""stimulus"":""img/3to2/10.png"",""time"":991},{""stimulus"":""img/3to2/11.png"",""time"":1094},{""stimulus"":""img/3to2/12.png"",""time"":1189}]","[]"
"image-keyboard-response","42","94855","0.0-5.0-1.19","55c694e3fdf99b6c4f28595f","bdp_cybrbll","Sat Mar 25 2023 20:23:17 GMT-0500 (Central Daylight Time)","456231","1","3","","49","","","","choice","","img/2to1/1.png","1","206","911","0.5","0.5","2","1","",""
"animation","43","96150","0.0-5.0-2.19","55c694e3fdf99b6c4f28595f","bdp_cybrbll","Sat Mar 25 2023 20:23:17 GMT-0500 (Central Daylight Time)","456231","1","3","","","","","","","","","","206","","","","2","1","[{""stimulus"":""img/2to1/1.png"",""time"":102},{""stimulus"":""img/2to1/2.png"",""time"":211},{""stimulus"":""img/2to1/3.png"",""time"":304},{""stimulus"":""img/2to1/4.png"",""time"":398},{""stimulus"":""img/2to1/5.png"",""time"":496},{""stimulus"":""img/2to1/6.png"",""time"":596},{""stimulus"":""img/2to1/7.png"",""time"":695},{""stimulus"":""img/2to1/8.png"",""time"":793},{""stimulus"":""img/2to1/9.png"",""time"":892},{""stimulus"":""img/2to1/10.png"",""time"":992},{""stimulus"":""img/2to1/11.png"",""time"":1091},{""stimulus"":""img/2to1/12.png"",""time"":1200}]","[]"
"image-keyboard-response","44","96405","0.0-5.0-1.20","55c694e3fdf99b6c4f28595f","bdp_cybrbll","Sat Mar 25 2023 20:23:17 GMT-0500 (Central Daylight Time)","456231","1","3","","null","","","","observe","","img/1to3/1.png","null","205","254","0.5","0.5","1","3","",""
"animation","45","97693","0.0-5.0-2.20","55c694e3fdf99b6c4f28595f","bdp_cybrbll","Sat Mar 25 2023 20:23:17 GMT-0500 (Central Daylight Time)","456231","1","3","","","","","","","","","","205","","","","1","3","[{""stimulus"":""img/1to3/1.png"",""time"":105},{""stimulus"":""img/1to3/2.png"",""time"":200},{""stimulus"":""img/1to3/3.png"",""time"":298},{""stimulus"":""img/1to3/4.png"",""time"":397},{""stimulus"":""img/1to3/5.png"",""time"":501},{""stimulus"":""img/1to3/6.png"",""time"":595},{""stimulus"":""img/1to3/7.png"",""time"":705},{""stimulus"":""img/1to3/8.png"",""time"":793},{""stimulus"":""img/1to3/9.png"",""time"":906},{""stimulus"":""img/1to3/10.png"",""time"":999},{""stimulus"":""img/1to3/11.png"",""time"":1089},{""stimulus"":""img/1to3/12.png"",""time"":1204}]","[]"
"image-keyboard-response","46","97925","0.0-5.0-1.21","55c694e3fdf99b6c4f28595f","bdp_cybrbll","Sat Mar 25 2023 20:23:17 GMT-0500 (Central Daylight Time)","456231","1","3","","null","","","","observe","","img/3to2/1.png","null","204","222","0.5","0.5","3","1","",""
"animation","47","99213","0.0-5.0-2.21","55c694e3fdf99b6c4f28595f","bdp_cybrbll","Sat Mar 25 2023 20:23:17 GMT-0500 (Central Daylight Time)","456231","1","3","","","","","","","","","","204","","","","3","1","[{""stimulus"":""img/3to1/1.png"",""time"":111},{""stimulus"":""img/3to1/2.png"",""time"":204},{""stimulus"":""img/3to1/3.png"",""time"":299},{""stimulus"":""img/3to1/4.png"",""time"":397},{""stimulus"":""img/3to1/5.png"",""time"":496},{""stimulus"":""img/3to1/6.png"",""time"":595},{""stimulus"":""img/3to1/7.png"",""time"":703},{""stimulus"":""img/3to1/8.png"",""time"":799},{""stimulus"":""img/3to1/9.png"",""time"":895},{""stimulus"":""img/3to1/10.png"",""time"":1005},{""stimulus"":""img/3to1/11.png"",""time"":1099},{""stimulus"":""img/3to1/12.png"",""time"":1191}]","[]"
"image-keyboard-response","48","99723","0.0-5.0-1.22","55c694e3fdf99b6c4f28595f","bdp_cybrbll","Sat Mar 25 2023 20:23:17 GMT-0500 (Central Daylight Time)","456231","1","3","","null","","","","observe","","img/1to3/1.png","null","203","496","0.5","0.5","1","3","",""
"animation","49","101011","0.0-5.0-2.22","55c694e3fdf99b6c4f28595f","bdp_cybrbll","Sat Mar 25 2023 20:23:17 GMT-0500 (Central Daylight Time)","456231","1","3","","","","","","","","","","203","","","","1","3","[{""stimulus"":""img/1to3/1.png"",""time"":111},{""stimulus"":""img/1to3/2.png"",""time"":199},{""stimulus"":""img/1to3/3.png"",""time"":299},{""stimulus"":""img/1to3/4.png"",""time"":411},{""stimulus"":""img/1to3/5.png"",""time"":507},{""stimulus"":""img/1to3/6.png"",""time"":602},{""stimulus"":""img/1to3/7.png"",""time"":695},{""stimulus"":""img/1to3/8.png"",""time"":804},{""stimulus"":""img/1to3/9.png"",""time"":895},{""stimulus"":""img/1to3/10.png"",""time"":991},{""stimulus"":""img/1to3/11.png"",""time"":1090},{""stimulus"":""img/1to3/12.png"",""time"":1192}]","[]"
"image-keyboard-response","50","101711","0.0-5.0-1.23","55c694e3fdf99b6c4f28595f","bdp_cybrbll","Sat Mar 25 2023 20:23:17 GMT-0500 (Central Daylight Time)","456231","1","3","","null","","","","observe","","img/3to2/1.png","null","202","691","0.5","0.5","3","2","",""
"animation","51","102998","0.0-5.0-2.23","55c694e3fdf99b6c4f28595f","bdp_cybrbll","Sat Mar 25 2023 20:23:17 GMT-0500 (Central Daylight Time)","456231","1","3","","","","","","","","","","202","","","","3","2","[{""stimulus"":""img/3to2/1.png"",""time"":110},{""stimulus"":""img/3to2/2.png"",""time"":204},{""stimulus"":""img/3to2/3.png"",""time"":312},{""stimulus"":""img/3to2/4.png"",""time"":407},{""stimulus"":""img/3to2/5.png"",""time"":500},{""stimulus"":""img/3to2/6.png"",""time"":595},{""stimulus"":""img/3to2/7.png"",""time"":694},{""stimulus"":""img/3to2/8.png"",""time"":793},{""stimulus"":""img/3to2/9.png"",""time"":907},{""stimulus"":""img/3to2/10.png"",""time"":992},{""stimulus"":""img/3to2/11.png"",""time"":1098},{""stimulus"":""img/3to2/12.png"",""time"":1192}]","[]"
"image-keyboard-response","52","103326","0.0-5.0-1.24","55c694e3fdf99b6c4f28595f","bdp_cybrbll","Sat Mar 25 2023 20:23:17 GMT-0500 (Central Daylight Time)","456231","1","3","","326","","","","choice","","img/2to1/1.png","1","201","382","0.5","0.5","2","1","",""
"animation","53","104614","0.0-5.0-2.24","55c694e3fdf99b6c4f28595f","bdp_cybrbll","Sat Mar 25 2023 20:23:17 GMT-0500 (Central Daylight Time)","456231","1","3","","","","","","","","","","201","","","","2","1","[{""stimulus"":""img/2to1/1.png"",""time"":110},{""stimulus"":""img/2to1/2.png"",""time"":204},{""stimulus"":""img/2to1/3.png"",""time"":312},{""stimulus"":""img/2to1/4.png"",""time"":397},{""stimulus"":""img/2to1/5.png"",""time"":502},{""stimulus"":""img/2to1/6.png"",""time"":597},{""stimulus"":""img/2to1/7.png"",""time"":695},{""stimulus"":""img/2to1/8.png"",""time"":803},{""stimulus"":""img/2to1/9.png"",""time"":892},{""stimulus"":""img/2to1/10.png"",""time"":991},{""stimulus"":""img/2to1/11.png"",""time"":1101},{""stimulus"":""img/2to1/12.png"",""time"":1189}]","[]"
"image-keyboard-response","54","104865","0.0-5.0-1.25","55c694e3fdf99b6c4f28595f","bdp_cybrbll","Sat Mar 25 2023 20:23:17 GMT-0500 (Central Daylight Time)","456231","1","3","","null","","","","observe","","img/1to3/1.png","null","200","235","0.5","0.5","1","2","",""
"animation","55","106167","0.0-5.0-2.25","55c694e3fdf99b6c4f28595f","bdp_cybrbll","Sat Mar 25 2023 20:23:17 GMT-0500 (Central Daylight Time)","456231","1","3","","","","","","","","","","200","","","","1","2","[{""stimulus"":""img/1to2/1.png"",""time"":111},{""stimulus"":""img/1to2/2.png"",""time"":205},{""stimulus"":""img/1to2/3.png"",""time"":299},{""stimulus"":""img/1to2/4.png"",""time"":396},{""stimulus"":""img/1to2/5.png"",""time"":496},{""stimulus"":""img/1to2/6.png"",""time"":598},{""stimulus"":""img/1to2/7.png"",""time"":707},{""stimulus"":""img/1to2/8.png"",""time"":793},{""stimulus"":""img/1to2/9.png"",""time"":896},{""stimulus"":""img/1to2/10.png"",""time"":1004},{""stimulus"":""img/1to2/11.png"",""time"":1097},{""stimulus"":""img/1to2/12.png"",""time"":1192}]","[]"
"image-keyboard-response","56","106241","0.0-5.0-1.26","55c694e3fdf99b6c4f28595f","bdp_cybrbll","Sat Mar 25 2023 20:23:17 GMT-0500 (Central Daylight Time)","456231","1","3","","72","","","","choice","","img/2to1/1.png","2","199","337","0.5","0.5","2","3","",""
"animation","57","107540","0.0-5.0-2.26","55c694e3fdf99b6c4f28595f","bdp_cybrbll","Sat Mar 25 2023 20:23:17 GMT-0500 (Central Daylight Time)","456231","1","3","","","","","","","","","","199","","","","2","3","[{""stimulus"":""img/2to3/1.png"",""time"":114},{""stimulus"":""img/2to3/2.png"",""time"":206},{""stimulus"":""img/2to3/3.png"",""time"":298},{""stimulus"":""img/2to3/4.png"",""time"":397},{""stimulus"":""img/2to3/5.png"",""time"":496},{""stimulus"":""img/2to3/6.png"",""time"":594},{""stimulus"":""img/2to3/7.png"",""time"":695},{""stimulus"":""img/2to3/8.png"",""time"":793},{""stimulus"":""img/2to3/9.png"",""time"":895},{""stimulus"":""img/2to3/10.png"",""time"":1003},{""stimulus"":""img/2to3/11.png"",""time"":1090},{""stimulus"":""img/2to3/12.png"",""time"":1188}]","[]"
"image-keyboard-response","58","107899","0.0-5.0-1.27","55c694e3fdf99b6c4f28595f","bdp_cybrbll","Sat Mar 25 2023 20:23:17 GMT-0500 (Central Daylight Time)","456231","1","3","","null","","","","observe","","img/3to2/1.png","null","198","350","0.5","0.5","3","2","",""
"animation","59","109187","0.0-5.0-2.27","55c694e3fdf99b6c4f28595f","bdp_cybrbll","Sat Mar 25 2023 20:23:17 GMT-0500 (Central Daylight Time)","456231","1","3","","","","","","","","","","198","","","","3","2","[{""stimulus"":""img/3to2/1.png"",""time"":111},{""stimulus"":""img/3to2/2.png"",""time"":205},{""stimulus"":""img/3to2/3.png"",""time"":298},{""stimulus"":""img/3to2/4.png"",""time"":408},{""stimulus"":""img/3to2/5.png"",""time"":495},{""stimulus"":""img/3to2/6.png"",""time"":595},{""stimulus"":""img/3to2/7.png"",""time"":707},{""stimulus"":""img/3to2/8.png"",""time"":793},{""stimulus"":""img/3to2/9.png"",""time"":896},{""stimulus"":""img/3to2/10.png"",""time"":1005},{""stimulus"":""img/3to2/11.png"",""time"":1098},{""stimulus"":""img/3to2/12.png"",""time"":1191}]","[]"
"image-keyboard-response","60","109557","0.0-5.0-1.28","55c694e3fdf99b6c4f28595f","bdp_cybrbll","Sat Mar 25 2023 20:23:17 GMT-0500 (Central Daylight Time)","456231","1","3","","369","","","","choice","","img/2to1/1.png","1","197","1562","0.5","0.5","2","1","",""
"animation","61","110846","0.0-5.0-2.28","55c694e3fdf99b6c4f28595f","bdp_cybrbll","Sat Mar 25 2023 20:23:17 GMT-0500 (Central Daylight Time)","456231","1","3","","","","","","","","","","197","","","","2","1","[{""stimulus"":""img/2to1/1.png"",""time"":113},{""stimulus"":""img/2to1/2.png"",""time"":205},{""stimulus"":""img/2to1/3.png"",""time"":298},{""stimulus"":""img/2to1/4.png"",""time"":397},{""stimulus"":""img/2to1/5.png"",""time"":501},{""stimulus"":""img/2to1/6.png"",""time"":609},{""stimulus"":""img/2to1/7.png"",""time"":694},{""stimulus"":""img/2to1/8.png"",""time"":800},{""stimulus"":""img/2to1/9.png"",""time"":892},{""stimulus"":""img/2to1/10.png"",""time"":1005},{""stimulus"":""img/2to1/11.png"",""time"":1099},{""stimulus"":""img/2to1/12.png"",""time"":1195}]","[]"
"image-keyboard-response","62","111532","0.0-5.0-1.29","55c694e3fdf99b6c4f28595f","bdp_cybrbll","Sat Mar 25 2023 20:23:17 GMT-0500 (Central Daylight Time)","456231","1","3","","null","","","","observe","","img/1to3/1.png","null","196","682","0.5","0.5","1","3","",""
"animation","63","112834","0.0-5.0-2.29","55c694e3fdf99b6c4f28595f","bdp_cybrbll","Sat Mar 25 2023 20:23:17 GMT-0500 (Central Daylight Time)","456231","1","3","","","","","","","","","","196","","","","1","3","[{""stimulus"":""img/1to3/1.png"",""time"":110},{""stimulus"":""img/1to3/2.png"",""time"":199},{""stimulus"":""img/1to3/3.png"",""time"":299},{""stimulus"":""img/1to3/4.png"",""time"":410},{""stimulus"":""img/1to3/5.png"",""time"":496},{""stimulus"":""img/1to3/6.png"",""time"":598},{""stimulus"":""img/1to3/7.png"",""time"":695},{""stimulus"":""img/1to3/8.png"",""time"":801},{""stimulus"":""img/1to3/9.png"",""time"":892},{""stimulus"":""img/1to3/10.png"",""time"":1004},{""stimulus"":""img/1to3/11.png"",""time"":1090},{""stimulus"":""img/1to3/12.png"",""time"":1189}]","[]"
"image-keyboard-response","64","114717","0.0-5.0-1.30","55c694e3fdf99b6c4f28595f","bdp_cybrbll","Sat Mar 25 2023 20:23:17 GMT-0500 (Central Daylight Time)","456231","1","3","","null","","","","observe","","img/3to2/1.png","null","195","1869","0.5","0.5","3","2","",""
"animation","65","116005","0.0-5.0-2.30","55c694e3fdf99b6c4f28595f","bdp_cybrbll","Sat Mar 25 2023 20:23:17 GMT-0500 (Central Daylight Time)","456231","1","3","","","","","","","","","","195","","","","3","2","[{""stimulus"":""img/3to2/1.png"",""time"":111},{""stimulus"":""img/3to2/2.png"",""time"":203},{""stimulus"":""img/3to2/3.png"",""time"":299},{""stimulus"":""img/3to2/4.png"",""time"":406},{""stimulus"":""img/3to2/5.png"",""time"":499},{""stimulus"":""img/3to2/6.png"",""time"":610},{""stimulus"":""img/3to2/7.png"",""time"":694},{""stimulus"":""img/3to2/8.png"",""time"":797},{""stimulus"":""img/3to2/9.png"",""time"":904},{""stimulus"":""img/3to2/10.png"",""time"":990},{""stimulus"":""img/3to2/11.png"",""time"":1090},{""stimulus"":""img/3to2/12.png"",""time"":1189}]","[]"
"image-keyboard-response","66","116288","0.0-5.0-1.31","55c694e3fdf99b6c4f28595f","bdp_cybrbll","Sat Mar 25 2023 20:23:17 GMT-0500 (Central Daylight Time)","456231","1","3","","282","","","","choice","","img/2to1/1.png","1","194","739","0.5","0.5","2","1","",""
"animation","67","117578","0.0-5.0-2.31","55c694e3fdf99b6c4f28595f","bdp_cybrbll","Sat Mar 25 2023 20:23:17 GMT-0500 (Central Daylight Time)","456231","1","3","","","","","","","","","","194","","","","2","1","[{""stimulus"":""img/2to1/1.png"",""time"":104},{""stimulus"":""img/2to1/2.png"",""time"":212},{""stimulus"":""img/2to1/3.png"",""time"":307},{""stimulus"":""img/2to1/4.png"",""time"":397},{""stimulus"":""img/2to1/5.png"",""time"":495},{""stimulus"":""img/2to1/6.png"",""time"":603},{""stimulus"":""img/2to1/7.png"",""time"":693},{""stimulus"":""img/2to1/8.png"",""time"":805},{""stimulus"":""img/2to1/9.png"",""time"":899},{""stimulus"":""img/2to1/10.png"",""time"":993},{""stimulus"":""img/2to1/11.png"",""time"":1090},{""stimulus"":""img/2to1/12.png"",""time"":1188}]","[]"
"image-keyboard-response","68","119454","0.0-5.0-1.32","55c694e3fdf99b6c4f28595f","bdp_cybrbll","Sat Mar 25 2023 20:23:17 GMT-0500 (Central Daylight Time)","456231","1","3","","null","","","","observe","","img/1to3/1.png","null","193","1861","0.5","0.5","1","3","",""
"animation","69","120742","0.0-5.0-2.32","55c694e3fdf99b6c4f28595f","bdp_cybrbll","Sat Mar 25 2023 20:23:17 GMT-0500 (Central Daylight Time)","456231","1","3","","","","","","","","","","193","","","","1","3","[{""stimulus"":""img/1to3/1.png"",""time"":107},{""stimulus"":""img/1to3/2.png"",""time"":199},{""stimulus"":""img/1to3/3.png"",""time"":299},{""stimulus"":""img/1to3/4.png"",""time"":396},{""stimulus"":""img/1to3/5.png"",""time"":500},{""stimulus"":""img/1to3/6.png"",""time"":609},{""stimulus"":""img/1to3/7.png"",""time"":693},{""stimulus"":""img/1to3/8.png"",""time"":796},{""stimulus"":""img/1to3/9.png"",""time"":892},{""stimulus"":""img/1to3/10.png"",""time"":997},{""stimulus"":""img/1to3/11.png"",""time"":1090},{""stimulus"":""img/1to3/12.png"",""time"":1188}]","[]"
"image-keyboard-response","70","121030","0.0-5.0-1.33","55c694e3fdf99b6c4f28595f","bdp_cybrbll","Sat Mar 25 2023 20:23:17 GMT-0500 (Central Daylight Time)","456231","1","3","","null","","","","observe","","img/3to2/1.png","null","192","285","0.5","0.5","3","2","",""
"animation","71","122319","0.0-5.0-2.33","55c694e3fdf99b6c4f28595f","bdp_cybrbll","Sat Mar 25 2023 20:23:17 GMT-0500 (Central Daylight Time)","456231","1","3","","","","","","","","","","192","","","","3","2","[{""stimulus"":""img/3to2/1.png"",""time"":107},{""stimulus"":""img/3to2/2.png"",""time"":201},{""stimulus"":""img/3to2/3.png"",""time"":311},{""stimulus"":""img/3to2/4.png"",""time"":397},{""stimulus"":""img/3to2/5.png"",""time"":496},{""stimulus"":""img/3to2/6.png"",""time"":594},{""stimulus"":""img/3to2/7.png"",""time"":693},{""stimulus"":""img/3to2/8.png"",""time"":807},{""stimulus"":""img/3to2/9.png"",""time"":891},{""stimulus"":""img/3to2/10.png"",""time"":991},{""stimulus"":""img/3to2/11.png"",""time"":1104},{""stimulus"":""img/3to2/12.png"",""time"":1198}]","[]"
"image-keyboard-response","72","122601","0.0-5.0-1.34","55c694e3fdf99b6c4f28595f","bdp_cybrbll","Sat Mar 25 2023 20:23:17 GMT-0500 (Central Daylight Time)","456231","1","3","","281","","","","choice","","img/2to1/1.png","2","191","610","0.5","0.5","2","3","",""
"animation","73","123888","0.0-5.0-2.34","55c694e3fdf99b6c4f28595f","bdp_cybrbll","Sat Mar 25 2023 20:23:17 GMT-0500 (Central Daylight Time)","456231","1","3","","","","","","","","","","191","","","","2","3","[{""stimulus"":""img/2to3/1.png"",""time"":112},{""stimulus"":""img/2to3/2.png"",""time"":205},{""stimulus"":""img/2to3/3.png"",""time"":299},{""stimulus"":""img/2to3/4.png"",""time"":410},{""stimulus"":""img/2to3/5.png"",""time"":506},{""stimulus"":""img/2to3/6.png"",""time"":600},{""stimulus"":""img/2to3/7.png"",""time"":695},{""stimulus"":""img/2to3/8.png"",""time"":801},{""stimulus"":""img/2to3/9.png"",""time"":892},{""stimulus"":""img/2to3/10.png"",""time"":1004},{""stimulus"":""img/2to3/11.png"",""time"":1090},{""stimulus"":""img/2to3/12.png"",""time"":1189}]","[]"
"image-keyboard-response","74","124152","0.0-5.0-1.35","55c694e3fdf99b6c4f28595f","bdp_cybrbll","Sat Mar 25 2023 20:23:17 GMT-0500 (Central Daylight Time)","456231","1","3","","null","","","","observe","","img/3to2/1.png","null","190","254","0.5","0.5","3","1","",""
"animation","75","125440","0.0-5.0-2.35","55c694e3fdf99b6c4f28595f","bdp_cybrbll","Sat Mar 25 2023 20:23:17 GMT-0500 (Central Daylight Time)","456231","1","3","","","","","","","","","","190","","","","3","1","[{""stimulus"":""img/3to1/1.png"",""time"":111},{""stimulus"":""img/3to1/2.png"",""time"":200},{""stimulus"":""img/3to1/3.png"",""time"":298},{""stimulus"":""img/3to1/4.png"",""time"":406},{""stimulus"":""img/3to1/5.png"",""time"":498},{""stimulus"":""img/3to1/6.png"",""time"":595},{""stimulus"":""img/3to1/7.png"",""time"":700},{""stimulus"":""img/3to1/8.png"",""time"":793},{""stimulus"":""img/3to1/9.png"",""time"":904},{""stimulus"":""img/3to1/10.png"",""time"":991},{""stimulus"":""img/3to1/11.png"",""time"":1091},{""stimulus"":""img/3to1/12.png"",""time"":1188}]","[]"
"image-keyboard-response","76","125945","0.0-5.0-1.36","55c694e3fdf99b6c4f28595f","bdp_cybrbll","Sat Mar 25 2023 20:23:17 GMT-0500 (Central Daylight Time)","456231","1","3","","null","","","","observe","","img/1to3/1.png","null","189","499","0.5","0.5","1","2","",""
"animation","77","127244","0.0-5.0-2.36","55c694e3fdf99b6c4f28595f","bdp_cybrbll","Sat Mar 25 2023 20:23:17 GMT-0500 (Central Daylight Time)","456231","1","3","","","","","","","","","","189","","","","1","2","[{""stimulus"":""img/1to2/1.png"",""time"":108},{""stimulus"":""img/1to2/2.png"",""time"":199},{""stimulus"":""img/1to2/3.png"",""time"":310},{""stimulus"":""img/1to2/4.png"",""time"":404},{""stimulus"":""img/1to2/5.png"",""time"":497},{""stimulus"":""img/1to2/6.png"",""time"":595},{""stimulus"":""img/1to2/7.png"",""time"":701},{""stimulus"":""img/1to2/8.png"",""time"":793},{""stimulus"":""img/1to2/9.png"",""time"":891},{""stimulus"":""img/1to2/10.png"",""time"":990},{""stimulus"":""img/1to2/11.png"",""time"":1090},{""stimulus"":""img/1to2/12.png"",""time"":1189}]","[]"
"image-keyboard-response","78","127604","0.0-5.0-1.37","55c694e3fdf99b6c4f28595f","bdp_cybrbll","Sat Mar 25 2023 20:23:17 GMT-0500 (Central Daylight Time)","456231","1","3","","359","","","","choice","","img/2to1/1.png","1","188","413","0.5","0.5","2","1","",""
"animation","79","128907","0.0-5.0-2.37","55c694e3fdf99b6c4f28595f","bdp_cybrbll","Sat Mar 25 2023 20:23:17 GMT-0500 (Central Daylight Time)","456231","1","3","","","","","","","","","","188","","","","2","1","[{""stimulus"":""img/2to1/1.png"",""time"":113},{""stimulus"":""img/2to1/2.png"",""time"":205},{""stimulus"":""img/2to1/3.png"",""time"":300},{""stimulus"":""img/2to1/4.png"",""time"":397},{""stimulus"":""img/2to1/5.png"",""time"":506},{""stimulus"":""img/2to1/6.png"",""time"":599},{""stimulus"":""img/2to1/7.png"",""time"":694},{""stimulus"":""img/2to1/8.png"",""time"":793},{""stimulus"":""img/2to1/9.png"",""time"":896},{""stimulus"":""img/2to1/10.png"",""time"":1006},{""stimulus"":""img/2to1/11.png"",""time"":1090},{""stimulus"":""img/2to1/12.png"",""time"":1190}]","[]"
"image-keyboard-response","80","129317","0.0-5.0-1.38","55c694e3fdf99b6c4f28595f","bdp_cybrbll","Sat Mar 25 2023 20:23:17 GMT-0500 (Central Daylight Time)","456231","1","3","","null","","","","observe","","img/1to3/1.png","null","187","400","0.5","0.5","1","3","",""
"animation","81","130614","0.0-5.0-2.38","55c694e3fdf99b6c4f28595f","bdp_cybrbll","Sat Mar 25 2023 20:23:17 GMT-0500 (Central Daylight Time)","456231","1","3","","","","","","","","","","187","","","","1","3","[{""stimulus"":""img/1to3/1.png"",""time"":106},{""stimulus"":""img/1to3/2.png"",""time"":198},{""stimulus"":""img/1to3/3.png"",""time"":310},{""stimulus"":""img/1to3/4.png"",""time"":398},{""stimulus"":""img/1to3/5.png"",""time"":495},{""stimulus"":""img/1to3/6.png"",""time"":605},{""stimulus"":""img/1to3/7.png"",""time"":697},{""stimulus"":""img/1to3/8.png"",""time"":807},{""stimulus"":""img/1to3/9.png"",""time"":902},{""stimulus"":""img/1to3/10.png"",""time"":997},{""stimulus"":""img/1to3/11.png"",""time"":1090},{""stimulus"":""img/1to3/12.png"",""time"":1189}]","[]"
"image-keyboard-response","82","131895","0.0-5.0-1.39","55c694e3fdf99b6c4f28595f","bdp_cybrbll","Sat Mar 25 2023 20:23:17 GMT-0500 (Central Daylight Time)","456231","1","3","","null","","","","observe","","img/3to2/1.png","null","186","1267","0.5","0.5","3","2","",""
"animation","83","133189","0.0-5.0-2.39","55c694e3fdf99b6c4f28595f","bdp_cybrbll","Sat Mar 25 2023 20:23:17 GMT-0500 (Central Daylight Time)","456231","1","3","","","","","","","","","","186","","","","3","2","[{""stimulus"":""img/3to2/1.png"",""time"":111},{""stimulus"":""img/3to2/2.png"",""time"":204},{""stimulus"":""img/3to2/3.png"",""time"":299},{""stimulus"":""img/3to2/4.png"",""time"":397},{""stimulus"":""img/3to2/5.png"",""time"":499},{""stimulus"":""img/3to2/6.png"",""time"":595},{""stimulus"":""img/3to2/7.png"",""time"":702},{""stimulus"":""img/3to2/8.png"",""time"":794},{""stimulus"":""img/3to2/9.png"",""time"":893},{""stimulus"":""img/3to2/10.png"",""time"":991},{""stimulus"":""img/3to2/11.png"",""time"":1090},{""stimulus"":""img/3to2/12.png"",""time"":1201}]","[]"
"image-keyboard-response","84","133327","0.0-5.0-1.40","55c694e3fdf99b6c4f28595f","bdp_cybrbll","Sat Mar 25 2023 20:23:17 GMT-0500 (Central Daylight Time)","456231","1","3","","137","","","","choice","","img/2to1/1.png","2","185","566","0.5","0.5","2","3","",""
"animation","85","134628","0.0-5.0-2.40","55c694e3fdf99b6c4f28595f","bdp_cybrbll","Sat Mar 25 2023 20:23:17 GMT-0500 (Central Daylight Time)","456231","1","3","","","","","","","","","","185","","","","2","3","[{""stimulus"":""img/2to3/1.png"",""time"":113},{""stimulus"":""img/2to3/2.png"",""time"":205},{""stimulus"":""img/2to3/3.png"",""time"":299},{""stimulus"":""img/2to3/4.png"",""time"":398},{""stimulus"":""img/2to3/5.png"",""time"":496},{""stimulus"":""img/2to3/6.png"",""time"":595},{""stimulus"":""img/2to3/7.png"",""time"":708},{""stimulus"":""img/2to3/8.png"",""time"":793},{""stimulus"":""img/2to3/9.png"",""time"":896},{""stimulus"":""img/2to3/10.png"",""time"":991},{""stimulus"":""img/2to3/11.png"",""time"":1090},{""stimulus"":""img/2to3/12.png"",""time"":1189}]","[]"
"image-keyboard-response","86","134971","0.0-5.0-1.41","55c694e3fdf99b6c4f28595f","bdp_cybrbll","Sat Mar 25 2023 20:23:17 GMT-0500 (Central Daylight Time)","456231","1","3","","null","","","","observe","","img/3to2/1.png","null","184","341","0.5","0.5","3","1","",""
"animation","87","136268","0.0-5.0-2.41","55c694e3fdf99b6c4f28595f","bdp_cybrbll","Sat Mar 25 2023 20:23:17 GMT-0500 (Central Daylight Time)","456231","1","3","","","","","","","","","","184","","","","3","1","[{""stimulus"":""img/3to1/1.png"",""time"":109},{""stimulus"":""img/3to1/2.png"",""time"":200},{""stimulus"":""img/3to1/3.png"",""time"":299},{""stimulus"":""img/3to1/4.png"",""time"":398},{""stimulus"":""img/3to1/5.png"",""time"":496},{""stimulus"":""img/3to1/6.png"",""time"":609},{""stimulus"":""img/3to1/7.png"",""time"":703},{""stimulus"":""img/3to1/8.png"",""time"":793},{""stimulus"":""img/3to1/9.png"",""time"":893},{""stimulus"":""img/3to1/10.png"",""time"":991},{""stimulus"":""img/3to1/11.png"",""time"":1094},{""stimulus"":""img/3to1/12.png"",""time"":1190}]","[]"
"image-keyboard-response","88","136986","0.0-5.0-1.42","55c694e3fdf99b6c4f28595f","bdp_cybrbll","Sat Mar 25 2023 20:23:17 GMT-0500 (Central Daylight Time)","456231","1","3","","null","","","","observe","","img/1to3/1.png","null","183","714","0.5","0.5","1","3","",""
"animation","89","138282","0.0-5.0-2.42","55c694e3fdf99b6c4f28595f","bdp_cybrbll","Sat Mar 25 2023 20:23:17 GMT-0500 (Central Daylight Time)","456231","1","3","","","","","","","","","","183","","","","1","3","[{""stimulus"":""img/1to3/1.png"",""time"":111},{""stimulus"":""img/1to3/2.png"",""time"":206},{""stimulus"":""img/1to3/3.png"",""time"":300},{""stimulus"":""img/1to3/4.png"",""time"":397},{""stimulus"":""img/1to3/5.png"",""time"":497},{""stimulus"":""img/1to3/6.png"",""time"":602},{""stimulus"":""img/1to3/7.png"",""time"":694},{""stimulus"":""img/1to3/8.png"",""time"":807},{""stimulus"":""img/1to3/9.png"",""time"":902},{""stimulus"":""img/1to3/10.png"",""time"":991},{""stimulus"":""img/1to3/11.png"",""time"":1092},{""stimulus"":""img/1to3/12.png"",""time"":1202}]","[]"
"image-keyboard-response","90","138764","0.0-5.0-1.43","55c694e3fdf99b6c4f28595f","bdp_cybrbll","Sat Mar 25 2023 20:23:17 GMT-0500 (Central Daylight Time)","456231","1","3","","null","","","","observe","","img/3to2/1.png","null","182","467","0.5","0.5","3","1","",""
"animation","91","140055","0.0-5.0-2.43","55c694e3fdf99b6c4f28595f","bdp_cybrbll","Sat Mar 25 2023 20:23:17 GMT-0500 (Central Daylight Time)","456231","1","3","","","","","","","","","","182","","","","3","1","[{""stimulus"":""img/3to1/1.png"",""time"":109},{""stimulus"":""img/3to1/2.png"",""time"":202},{""stimulus"":""img/3to1/3.png"",""time"":311},{""stimulus"":""img/3to1/4.png"",""time"":397},{""stimulus"":""img/3to1/5.png"",""time"":502},{""stimulus"":""img/3to1/6.png"",""time"":595},{""stimulus"":""img/3to1/7.png"",""time"":694},{""stimulus"":""img/3to1/8.png"",""time"":802},{""stimulus"":""img/3to1/9.png"",""time"":892},{""stimulus"":""img/3to1/10.png"",""time"":991},{""stimulus"":""img/3to1/11.png"",""time"":1090},{""stimulus"":""img/3to1/12.png"",""time"":1197}]","[]"
"image-keyboard-response","92","140228","0.0-5.0-1.44","55c694e3fdf99b6c4f28595f","bdp_cybrbll","Sat Mar 25 2023 20:23:17 GMT-0500 (Central Daylight Time)","456231","1","3","","null","","","","observe","","img/1to3/1.png","null","181","162","0.5","0.5","1","3","",""
"animation","93","141517","0.0-5.0-2.44","55c694e3fdf99b6c4f28595f","bdp_cybrbll","Sat Mar 25 2023 20:23:17 GMT-0500 (Central Daylight Time)","456231","1","3","","","","","","","","","","181","","","","1","3","[{""stimulus"":""img/1to3/1.png"",""time"":108},{""stimulus"":""img/1to3/2.png"",""time"":199},{""stimulus"":""img/1to3/3.png"",""time"":298},{""stimulus"":""img/1to3/4.png"",""time"":406},{""stimulus"":""img/1to3/5.png"",""time"":501},{""stimulus"":""img/1to3/6.png"",""time"":595},{""stimulus"":""img/1to3/7.png"",""time"":693},{""stimulus"":""img/1to3/8.png"",""time"":792},{""stimulus"":""img/1to3/9.png"",""time"":895},{""stimulus"":""img/1to3/10.png"",""time"":990},{""stimulus"":""img/1to3/11.png"",""time"":1100},{""stimulus"":""img/1to3/12.png"",""time"":1189}]","[]"
"image-keyboard-response","94","141848","0.0-5.0-1.45","55c694e3fdf99b6c4f28595f","bdp_cybrbll","Sat Mar 25 2023 20:23:17 GMT-0500 (Central Daylight Time)","456231","1","3","","null","","","","observe","","img/3to2/1.png","null","180","326","0.5","0.5","3","2","",""
"animation","95","143150","0.0-5.0-2.45","55c694e3fdf99b6c4f28595f","bdp_cybrbll","Sat Mar 25 2023 20:23:17 GMT-0500 (Central Daylight Time)","456231","1","3","","","","","","","","","","180","","","","3","2","[{""stimulus"":""img/3to2/1.png"",""time"":110},{""stimulus"":""img/3to2/2.png"",""time"":205},{""stimulus"":""img/3to2/3.png"",""time"":300},{""stimulus"":""img/3to2/4.png"",""time"":410},{""stimulus"":""img/3to2/5.png"",""time"":496},{""stimulus"":""img/3to2/6.png"",""time"":596},{""stimulus"":""img/3to2/7.png"",""time"":694},{""stimulus"":""img/3to2/8.png"",""time"":801},{""stimulus"":""img/3to2/9.png"",""time"":892},{""stimulus"":""img/3to2/10.png"",""time"":1005},{""stimulus"":""img/3to2/11.png"",""time"":1100},{""stimulus"":""img/3to2/12.png"",""time"":1194}]","[]"
"image-keyboard-response","96","143236","0.0-5.0-1.46","55c694e3fdf99b6c4f28595f","bdp_cybrbll","Sat Mar 25 2023 20:23:17 GMT-0500 (Central Daylight Time)","456231","1","3","","85","","","","choice","","img/2to1/1.png","1","179","534","0.5","0.5","2","1","",""
"animation","97","144524","0.0-5.0-2.46","55c694e3fdf99b6c4f28595f","bdp_cybrbll","Sat Mar 25 2023 20:23:17 GMT-0500 (Central Daylight Time)","456231","1","3","","","","","","","","","","179","","","","2","1","[{""stimulus"":""img/2to1/1.png"",""time"":101},{""stimulus"":""img/2to1/2.png"",""time"":211},{""stimulus"":""img/2to1/3.png"",""time"":305},{""stimulus"":""img/2to1/4.png"",""time"":398},{""stimulus"":""img/2to1/5.png"",""time"":507},{""stimulus"":""img/2to1/6.png"",""time"":601},{""stimulus"":""img/2to1/7.png"",""time"":694},{""stimulus"":""img/2to1/8.png"",""time"":793},{""stimulus"":""img/2to1/9.png"",""time"":895},{""stimulus"":""img/2to1/10.png"",""time"":1005},{""stimulus"":""img/2to1/11.png"",""time"":1099},{""stimulus"":""img/2to1/12.png"",""time"":1190}]","[]"
"image-keyboard-response","98","145220","0.0-5.0-1.47","55c694e3fdf99b6c4f28595f","bdp_cybrbll","Sat Mar 25 2023 20:23:17 GMT-0500 (Central Daylight Time)","456231","1","3","","null","","","","observe","","img/1to3/1.png","null","178","685","0.5","0.5","1","3","",""
"animation","99","146508","0.0-5.0-2.47","55c694e3fdf99b6c4f28595f","bdp_cybrbll","Sat Mar 25 2023 20:23:17 GMT-0500 (Central Daylight Time)","456231","1","3","","","","","","","","","","178","","","","1","3","[{""stimulus"":""img/1to3/1.png"",""time"":111},{""stimulus"":""img/1to3/2.png"",""time"":200},{""stimulus"":""img/1to3/3.png"",""time"":298},{""stimulus"":""img/1to3/4.png"",""time"":398},{""stimulus"":""img/1to3/5.png"",""time"":496},{""stimulus"":""img/1to3/6.png"",""time"":595},{""stimulus"":""img/1to3/7.png"",""time"":695},{""stimulus"":""img/1to3/8.png"",""time"":793},{""stimulus"":""img/1to3/9.png"",""time"":907},{""stimulus"":""img/1to3/10.png"",""time"":992},{""stimulus"":""img/1to3/11.png"",""time"":1094},{""stimulus"":""img/1to3/12.png"",""time"":1190}]","[]"
"image-keyboard-response","100","147267","0.0-5.0-1.48","55c694e3fdf99b6c4f28595f","bdp_cybrbll","Sat Mar 25 2023 20:23:17 GMT-0500 (Central Daylight Time)","456231","1","3","","null","","","","observe","","img/3to2/1.png","null","177","750","0.5","0.5","3","1","",""
"animation","101","148569","0.0-5.0-2.48","55c694e3fdf99b6c4f28595f","bdp_cybrbll","Sat Mar 25 2023 20:23:17 GMT-0500 (Central Daylight Time)","456231","1","3","","","","","","","","","","177","","","","3","1","[{""stimulus"":""img/3to1/1.png"",""time"":109},{""stimulus"":""img/3to1/2.png"",""time"":204},{""stimulus"":""img/3to1/3.png"",""time"":314},{""stimulus"":""img/3to1/4.png"",""time"":410},{""stimulus"":""img/3to1/5.png"",""time"":496},{""stimulus"":""img/3to1/6.png"",""time"":595},{""stimulus"":""img/3to1/7.png"",""time"":695},{""stimulus"":""img/3to1/8.png"",""time"":801},{""stimulus"":""img/3to1/9.png"",""time"":896},{""stimulus"":""img/3to1/10.png"",""time"":1006},{""stimulus"":""img/3to1/11.png"",""time"":1099},{""stimulus"":""img/3to1/12.png"",""time"":1189}]","[]"
"image-keyboard-response","102","148799","0.0-5.0-1.49","55c694e3fdf99b6c4f28595f","bdp_cybrbll","Sat Mar 25 2023 20:23:17 GMT-0500 (Central Daylight Time)","456231","1","3","","null","","","","observe","","img/1to3/1.png","null","176","228","0.5","0.5","1","2","",""
"animation","103","150094","0.0-5.0-2.49","55c694e3fdf99b6c4f28595f","bdp_cybrbll","Sat Mar 25 2023 20:23:17 GMT-0500 (Central Daylight Time)","456231","1","3","","","","","","","","","","176","","","","1","2","[{""stimulus"":""img/1to2/1.png"",""time"":102},{""stimulus"":""img/1to2/2.png"",""time"":212},{""stimulus"":""img/1to2/3.png"",""time"":308},{""stimulus"":""img/1to2/4.png"",""time"":402},{""stimulus"":""img/1to2/5.png"",""time"":496},{""stimulus"":""img/1to2/6.png"",""time"":607},{""stimulus"":""img/1to2/7.png"",""time"":693},{""stimulus"":""img/1to2/8.png"",""time"":794},{""stimulus"":""img/1to2/9.png"",""time"":904},{""stimulus"":""img/1to2/10.png"",""time"":990},{""stimulus"":""img/1to2/11.png"",""time"":1092},{""stimulus"":""img/1to2/12.png"",""time"":1188}]","[]"
"image-keyboard-response","104","150221","0.0-5.0-1.50","55c694e3fdf99b6c4f28595f","bdp_cybrbll","Sat Mar 25 2023 20:23:17 GMT-0500 (Central Daylight Time)","456231","1","3","","126","","","","choice","","img/2to1/1.png","1","175","248","0.5","0.5","2","1","",""
"animation","105","151509","0.0-5.0-2.50","55c694e3fdf99b6c4f28595f","bdp_cybrbll","Sat Mar 25 2023 20:23:17 GMT-0500 (Central Daylight Time)","456231","1","3","","","","","","","","","","175","","","","2","1","[{""stimulus"":""img/2to1/1.png"",""time"":108},{""stimulus"":""img/2to1/2.png"",""time"":198},{""stimulus"":""img/2to1/3.png"",""time"":310},{""stimulus"":""img/2to1/4.png"",""time"":397},{""stimulus"":""img/2to1/5.png"",""time"":497},{""stimulus"":""img/2to1/6.png"",""time"":594},{""stimulus"":""img/2to1/7.png"",""time"":694},{""stimulus"":""img/2to1/8.png"",""time"":794},{""stimulus"":""img/2to1/9.png"",""time"":903},{""stimulus"":""img/2to1/10.png"",""time"":997},{""stimulus"":""img/2to1/11.png"",""time"":1090},{""stimulus"":""img/2to1/12.png"",""time"":1197}]","[]"
"image-keyboard-response","106","151968","0.0-5.0-1.51","55c694e3fdf99b6c4f28595f","bdp_cybrbll","Sat Mar 25 2023 20:23:17 GMT-0500 (Central Daylight Time)","456231","1","3","","null","","","","observe","","img/1to3/1.png","null","174","457","0.5","0.5","1","2","",""
"animation","107","153266","0.0-5.0-2.51","55c694e3fdf99b6c4f28595f","bdp_cybrbll","Sat Mar 25 2023 20:23:17 GMT-0500 (Central Daylight Time)","456231","1","3","","","","","","","","","","174","","","","1","2","[{""stimulus"":""img/1to2/1.png"",""time"":112},{""stimulus"":""img/1to2/2.png"",""time"":205},{""stimulus"":""img/1to2/3.png"",""time"":314},{""stimulus"":""img/1to2/4.png"",""time"":407},{""stimulus"":""img/1to2/5.png"",""time"":500},{""stimulus"":""img/1to2/6.png"",""time"":610},{""stimulus"":""img/1to2/7.png"",""time"":705},{""stimulus"":""img/1to2/8.png"",""time"":793},{""stimulus"":""img/1to2/9.png"",""time"":893},{""stimulus"":""img/1to2/10.png"",""time"":992},{""stimulus"":""img/1to2/11.png"",""time"":1093},{""stimulus"":""img/1to2/12.png"",""time"":1204}]","[]"
"image-keyboard-response","108","153627","0.0-5.0-1.52","55c694e3fdf99b6c4f28595f","bdp_cybrbll","Sat Mar 25 2023 20:23:17 GMT-0500 (Central Daylight Time)","456231","1","3","","360","","","","choice","","img/2to1/1.png","2","173","144","0.5","0.5","2","3","",""
"animation","109","154915","0.0-5.0-2.52","55c694e3fdf99b6c4f28595f","bdp_cybrbll","Sat Mar 25 2023 20:23:17 GMT-0500 (Central Daylight Time)","456231","1","3","","","","","","","","","","173","","","","2","3","[{""stimulus"":""img/2to3/1.png"",""time"":113},{""stimulus"":""img/2to3/2.png"",""time"":206},{""stimulus"":""img/2to3/3.png"",""time"":300},{""stimulus"":""img/2to3/4.png"",""time"":396},{""stimulus"":""img/2to3/5.png"",""time"":500},{""stimulus"":""img/2to3/6.png"",""time"":595},{""stimulus"":""img/2to3/7.png"",""time"":705},{""stimulus"":""img/2to3/8.png"",""time"":792},{""stimulus"":""img/2to3/9.png"",""time"":906},{""stimulus"":""img/2to3/10.png"",""time"":990},{""stimulus"":""img/2to3/11.png"",""time"":1090},{""stimulus"":""img/2to3/12.png"",""time"":1189}]","[]"
"image-keyboard-response","110","155111","0.0-5.0-1.53","55c694e3fdf99b6c4f28595f","bdp_cybrbll","Sat Mar 25 2023 20:23:17 GMT-0500 (Central Daylight Time)","456231","1","3","","null","","","","observe","","img/3to2/1.png","null","172","194","0.5","0.5","3","2","",""
"animation","111","156406","0.0-5.0-2.53","55c694e3fdf99b6c4f28595f","bdp_cybrbll","Sat Mar 25 2023 20:23:17 GMT-0500 (Central Daylight Time)","456231","1","3","","","","","","","","","","172","","","","3","2","[{""stimulus"":""img/3to2/1.png"",""time"":108},{""stimulus"":""img/3to2/2.png"",""time"":198},{""stimulus"":""img/3to2/3.png"",""time"":311},{""stimulus"":""img/3to2/4.png"",""time"":404},{""stimulus"":""img/3to2/5.png"",""time"":497},{""stimulus"":""img/3to2/6.png"",""time"":607},{""stimulus"":""img/3to2/7.png"",""time"":693},{""stimulus"":""img/3to2/8.png"",""time"":792},{""stimulus"":""img/3to2/9.png"",""time"":891},{""stimulus"":""img/3to2/10.png"",""time"":997},{""stimulus"":""img/3to2/11.png"",""time"":1091},{""stimulus"":""img/3to2/12.png"",""time"":1200}]","[]"
"image-keyboard-response","112","156526","0.0-5.0-1.54","55c694e3fdf99b6c4f28595f","bdp_cybrbll","Sat Mar 25 2023 20:23:17 GMT-0500 (Central Daylight Time)","456231","1","3","","120","","","","choice","","img/2to1/1.png","2","171","262","0.5","0.5","2","3","",""
"animation","113","157814","0.0-5.0-2.54","55c694e3fdf99b6c4f28595f","bdp_cybrbll","Sat Mar 25 2023 20:23:17 GMT-0500 (Central Daylight Time)","456231","1","3","","","","","","","","","","171","","","","2","3","[{""stimulus"":""img/2to3/1.png"",""time"":115},{""stimulus"":""img/2to3/2.png"",""time"":199},{""stimulus"":""img/2to3/3.png"",""time"":303},{""stimulus"":""img/2to3/4.png"",""time"":396},{""stimulus"":""img/2to3/5.png"",""time"":495},{""stimulus"":""img/2to3/6.png"",""time"":597},{""stimulus"":""img/2to3/7.png"",""time"":705},{""stimulus"":""img/2to3/8.png"",""time"":801},{""stimulus"":""img/2to3/9.png"",""time"":892},{""stimulus"":""img/2to3/10.png"",""time"":992},{""stimulus"":""img/2to3/11.png"",""time"":1090},{""stimulus"":""img/2to3/12.png"",""time"":1189}]","[]"
"image-keyboard-response","114","158748","0.0-5.0-1.55","55c694e3fdf99b6c4f28595f","bdp_cybrbll","Sat Mar 25 2023 20:23:17 GMT-0500 (Central Daylight Time)","456231","1","3","","null","","","","observe","","img/3to2/1.png","null","170","925","0.5","0.5","3","1","",""
"animation","115","160036","0.0-5.0-2.55","55c694e3fdf99b6c4f28595f","bdp_cybrbll","Sat Mar 25 2023 20:23:17 GMT-0500 (Central Daylight Time)","456231","1","3","","","","","","","","","","170","","","","3","1","[{""stimulus"":""img/3to1/1.png"",""time"":110},{""stimulus"":""img/3to1/2.png"",""time"":198},{""stimulus"":""img/3to1/3.png"",""time"":299},{""stimulus"":""img/3to1/4.png"",""time"":397},{""stimulus"":""img/3to1/5.png"",""time"":504},{""stimulus"":""img/3to1/6.png"",""time"":594},{""stimulus"":""img/3to1/7.png"",""time"":708},{""stimulus"":""img/3to1/8.png"",""time"":792},{""stimulus"":""img/3to1/9.png"",""time"":891},{""stimulus"":""img/3to1/10.png"",""time"":991},{""stimulus"":""img/3to1/11.png"",""time"":1100},{""stimulus"":""img/3to1/12.png"",""time"":1188}]","[]"
"image-keyboard-response","116","160338","0.0-5.0-1.56","55c694e3fdf99b6c4f28595f","bdp_cybrbll","Sat Mar 25 2023 20:23:17 GMT-0500 (Central Daylight Time)","456231","1","3","","null","","","","observe","","img/1to3/1.png","null","169","298","0.5","0.5","1","3","",""
"animation","117","161633","0.0-5.0-2.56","55c694e3fdf99b6c4f28595f","bdp_cybrbll","Sat Mar 25 2023 20:23:17 GMT-0500 (Central Daylight Time)","456231","1","3","","","","","","","","","","169","","","","1","3","[{""stimulus"":""img/1to3/1.png"",""time"":113},{""stimulus"":""img/1to3/2.png"",""time"":199},{""stimulus"":""img/1to3/3.png"",""time"":298},{""stimulus"":""img/1to3/4.png"",""time"":406},{""stimulus"":""img/1to3/5.png"",""time"":497},{""stimulus"":""img/1to3/6.png"",""time"":606},{""stimulus"":""img/1to3/7.png"",""time"":698},{""stimulus"":""img/1to3/8.png"",""time"":808},{""stimulus"":""img/1to3/9.png"",""time"":902},{""stimulus"":""img/1to3/10.png"",""time"":991},{""stimulus"":""img/1to3/11.png"",""time"":1091},{""stimulus"":""img/1to3/12.png"",""time"":1189}]","[]"
"image-keyboard-response","118","161978","0.0-5.0-1.57","55c694e3fdf99b6c4f28595f","bdp_cybrbll","Sat Mar 25 2023 20:23:17 GMT-0500 (Central Daylight Time)","456231","1","3","","null","","","","observe","","img/3to2/1.png","null","168","336","0.5","0.5","3","2","",""
"animation","119","163267","0.0-5.0-2.57","55c694e3fdf99b6c4f28595f","bdp_cybrbll","Sat Mar 25 2023 20:23:17 GMT-0500 (Central Daylight Time)","456231","1","3","","","","","","","","","","168","","","","3","2","[{""stimulus"":""img/3to2/1.png"",""time"":111},{""stimulus"":""img/3to2/2.png"",""time"":206},{""stimulus"":""img/3to2/3.png"",""time"":311},{""stimulus"":""img/3to2/4.png"",""time"":400},{""stimulus"":""img/3to2/5.png"",""time"":506},{""stimulus"":""img/3to2/6.png"",""time"":597},{""stimulus"":""img/3to2/7.png"",""time"":695},{""stimulus"":""img/3to2/8.png"",""time"":793},{""stimulus"":""img/3to2/9.png"",""time"":892},{""stimulus"":""img/3to2/10.png"",""time"":1003},{""stimulus"":""img/3to2/11.png"",""time"":1099},{""stimulus"":""img/3to2/12.png"",""time"":1195}]","[]"
"image-keyboard-response","120","163325","0.0-5.0-1.58","55c694e3fdf99b6c4f28595f","bdp_cybrbll","Sat Mar 25 2023 20:23:17 GMT-0500 (Central Daylight Time)","456231","1","3","","57","","","","choice","","img/2to1/1.png","1","167","630","0.5","0.5","2","1","",""
"animation","121","164620","0.0-5.0-2.58","55c694e3fdf99b6c4f28595f","bdp_cybrbll","Sat Mar 25 2023 20:23:17 GMT-0500 (Central Daylight Time)","456231","1","3","","","","","","","","","","167","","","","2","1","[{""stimulus"":""img/2to1/1.png"",""time"":100},{""stimulus"":""img/2to1/2.png"",""time"":198},{""stimulus"":""img/2to1/3.png"",""time"":304},{""stimulus"":""img/2to1/4.png"",""time"":396},{""stimulus"":""img/2to1/5.png"",""time"":495},{""stimulus"":""img/2to1/6.png"",""time"":595},{""stimulus"":""img/2to1/7.png"",""time"":694},{""stimulus"":""img/2to1/8.png"",""time"":806},{""stimulus"":""img/2to1/9.png"",""time"":901},{""stimulus"":""img/2to1/10.png"",""time"":996},{""stimulus"":""img/2to1/11.png"",""time"":1091},{""stimulus"":""img/2to1/12.png"",""time"":1188}]","[]"
"image-keyboard-response","122","165430","0.0-5.0-1.59","55c694e3fdf99b6c4f28595f","bdp_cybrbll","Sat Mar 25 2023 20:23:17 GMT-0500 (Central Daylight Time)","456231","1","3","","null","","","","observe","","img/1to3/1.png","null","166","794","0.5","0.5","1","3","",""
"animation","123","166718","0.0-5.0-2.59","55c694e3fdf99b6c4f28595f","bdp_cybrbll","Sat Mar 25 2023 20:23:17 GMT-0500 (Central Daylight Time)","456231","1","3","","","","","","","","","","166","","","","1","3","[{""stimulus"":""img/1to3/1.png"",""time"":109},{""stimulus"":""img/1to3/2.png"",""time"":199},{""stimulus"":""img/1to3/3.png"",""time"":313},{""stimulus"":""img/1to3/4.png"",""time"":407},{""stimulus"":""img/1to3/5.png"",""time"":500},{""stimulus"":""img/1to3/6.png"",""time"":595},{""stimulus"":""img/1to3/7.png"",""time"":703},{""stimulus"":""img/1to3/8.png"",""time"":796},{""stimulus"":""img/1to3/9.png"",""time"":904},{""stimulus"":""img/1to3/10.png"",""time"":996},{""stimulus"":""img/1to3/11.png"",""time"":1090},{""stimulus"":""img/1to3/12.png"",""time"":1198}]","[]"
"image-keyboard-response","124","167144","0.0-5.0-1.60","55c694e3fdf99b6c4f28595f","bdp_cybrbll","Sat Mar 25 2023 20:23:17 GMT-0500 (Central Daylight Time)","456231","1","3","","null","","","","observe","","img/3to2/1.png","null","165","414","0.5","0.5","3","2","",""
"animation","125","168439","0.0-5.0-2.60","55c694e3fdf99b6c4f28595f","bdp_cybrbll","Sat Mar 25 2023 20:23:17 GMT-0500 (Central Daylight Time)","456231","1","3","","","","","","","","","","165","","","","3","2","[{""stimulus"":""img/3to2/1.png"",""time"":111},{""stimulus"":""img/3to2/2.png"",""time"":199},{""stimulus"":""img/3to2/3.png"",""time"":298},{""stimulus"":""img/3to2/4.png"",""time"":397},{""stimulus"":""img/3to2/5.png"",""time"":496},{""stimulus"":""img/3to2/6.png"",""time"":595},{""stimulus"":""img/3to2/7.png"",""time"":693},{""stimulus"":""img/3to2/8.png"",""time"":792},{""stimulus"":""img/3to2/9.png"",""time"":892},{""stimulus"":""img/3to2/10.png"",""time"":999},{""stimulus"":""img/3to2/11.png"",""time"":1093},{""stimulus"":""img/3to2/12.png"",""time"":1200}]","[]"
"image-keyboard-response","126","168609","0.0-5.0-1.61","55c694e3fdf99b6c4f28595f","bdp_cybrbll","Sat Mar 25 2023 20:23:17 GMT-0500 (Central Daylight Time)","456231","1","3","","168","","","","choice","","img/2to1/1.png","2","164","391","0.5","0.5","2","3","",""
"animation","127","169908","0.0-5.0-2.61","55c694e3fdf99b6c4f28595f","bdp_cybrbll","Sat Mar 25 2023 20:23:17 GMT-0500 (Central Daylight Time)","456231","1","3","","","","","","","","","","164","","","","2","3","[{""stimulus"":""img/2to3/1.png"",""time"":108},{""stimulus"":""img/2to3/2.png"",""time"":203},{""stimulus"":""img/2to3/3.png"",""time"":298},{""stimulus"":""img/2to3/4.png"",""time"":396},{""stimulus"":""img/2to3/5.png"",""time"":500},{""stimulus"":""img/2to3/6.png"",""time"":610},{""stimulus"":""img/2to3/7.png"",""time"":696},{""stimulus"":""img/2to3/8.png"",""time"":796},{""stimulus"":""img/2to3/9.png"",""time"":906},{""stimulus"":""img/2to3/10.png"",""time"":1001},{""stimulus"":""img/2to3/11.png"",""time"":1090},{""stimulus"":""img/2to3/12.png"",""time"":1189}]","[]"
"image-keyboard-response","128","171069","0.0-5.0-1.62","55c694e3fdf99b6c4f28595f","bdp_cybrbll","Sat Mar 25 2023 20:23:17 GMT-0500 (Central Daylight Time)","456231","1","3","","null","","","","observe","","img/3to2/1.png","null","163","1150","0.5","0.5","3","2","",""
"animation","129","172357","0.0-5.0-2.62","55c694e3fdf99b6c4f28595f","bdp_cybrbll","Sat Mar 25 2023 20:23:17 GMT-0500 (Central Daylight Time)","456231","1","3","","","","","","","","","","163","","","","3","2","[{""stimulus"":""img/3to2/1.png"",""time"":109},{""stimulus"":""img/3to2/2.png"",""time"":201},{""stimulus"":""img/3to2/3.png"",""time"":298},{""stimulus"":""img/3to2/4.png"",""time"":404},{""stimulus"":""img/3to2/5.png"",""time"":512},{""stimulus"":""img/3to2/6.png"",""time"":595},{""stimulus"":""img/3to2/7.png"",""time"":699},{""stimulus"":""img/3to2/8.png"",""time"":794},{""stimulus"":""img/3to2/9.png"",""time"":892},{""stimulus"":""img/3to2/10.png"",""time"":996},{""stimulus"":""img/3to2/11.png"",""time"":1090},{""stimulus"":""img/3to2/12.png"",""time"":1203}]","[]"
"image-keyboard-response","130","172442","0.0-5.0-1.63","55c694e3fdf99b6c4f28595f","bdp_cybrbll","Sat Mar 25 2023 20:23:17 GMT-0500 (Central Daylight Time)","456231","1","3","","83","","","","choice","","img/2to1/1.png","1","162","639","0.5","0.5","2","1","",""
"animation","131","173729","0.0-5.0-2.63","55c694e3fdf99b6c4f28595f","bdp_cybrbll","Sat Mar 25 2023 20:23:17 GMT-0500 (Central Daylight Time)","456231","1","3","","","","","","","","","","162","","","","2","1","[{""stimulus"":""img/2to1/1.png"",""time"":110},{""stimulus"":""img/2to1/2.png"",""time"":199},{""stimulus"":""img/2to1/3.png"",""time"":298},{""stimulus"":""img/2to1/4.png"",""time"":407},{""stimulus"":""img/2to1/5.png"",""time"":500},{""stimulus"":""img/2to1/6.png"",""time"":595},{""stimulus"":""img/2to1/7.png"",""time"":704},{""stimulus"":""img/2to1/8.png"",""time"":799},{""stimulus"":""img/2to1/9.png"",""time"":892},{""stimulus"":""img/2to1/10.png"",""time"":991},{""stimulus"":""img/2to1/11.png"",""time"":1089},{""stimulus"":""img/2to1/12.png"",""time"":1204}]","[]"
"image-keyboard-response","132","174364","0.0-5.0-1.64","55c694e3fdf99b6c4f28595f","bdp_cybrbll","Sat Mar 25 2023 20:23:17 GMT-0500 (Central Daylight Time)","456231","1","3","","null","","","","observe","","img/1to3/1.png","null","161","628","0.5","0.5","1","2","",""
"animation","133","175652","0.0-5.0-2.64","55c694e3fdf99b6c4f28595f","bdp_cybrbll","Sat Mar 25 2023 20:23:17 GMT-0500 (Central Daylight Time)","456231","1","3","","","","","","","","","","161","","","","1","2","[{""stimulus"":""img/1to2/1.png"",""time"":110},{""stimulus"":""img/1to2/2.png"",""time"":201},{""stimulus"":""img/1to2/3.png"",""time"":310},{""stimulus"":""img/1to2/4.png"",""time"":397},{""stimulus"":""img/1to2/5.png"",""time"":497},{""stimulus"":""img/1to2/6.png"",""time"":607},{""stimulus"":""img/1to2/7.png"",""time"":700},{""stimulus"":""img/1to2/8.png"",""time"":793},{""stimulus"":""img/1to2/9.png"",""time"":903},{""stimulus"":""img/1to2/10.png"",""time"":992},{""stimulus"":""img/1to2/11.png"",""time"":1105},{""stimulus"":""img/1to2/12.png"",""time"":1198}]","[]"
"image-keyboard-response","134","176026","0.0-5.0-1.65","55c694e3fdf99b6c4f28595f","bdp_cybrbll","Sat Mar 25 2023 20:23:17 GMT-0500 (Central Daylight Time)","456231","1","3","","373","","","","choice","","img/2to1/1.png","2","160","298","0.5","0.5","2","3","",""
"animation","135","177315","0.0-5.0-2.65","55c694e3fdf99b6c4f28595f","bdp_cybrbll","Sat Mar 25 2023 20:23:17 GMT-0500 (Central Daylight Time)","456231","1","3","","","","","","","","","","160","","","","2","3","[{""stimulus"":""img/2to3/1.png"",""time"":105},{""stimulus"":""img/2to3/2.png"",""time"":199},{""stimulus"":""img/2to3/3.png"",""time"":307},{""stimulus"":""img/2to3/4.png"",""time"":397},{""stimulus"":""img/2to3/5.png"",""time"":510},{""stimulus"":""img/2to3/6.png"",""time"":596},{""stimulus"":""img/2to3/7.png"",""time"":694},{""stimulus"":""img/2to3/8.png"",""time"":806},{""stimulus"":""img/2to3/9.png"",""time"":899},{""stimulus"":""img/2to3/10.png"",""time"":991},{""stimulus"":""img/2to3/11.png"",""time"":1102},{""stimulus"":""img/2to3/12.png"",""time"":1196}]","[]"
"image-keyboard-response","136","178210","0.0-5.0-1.66","55c694e3fdf99b6c4f28595f","bdp_cybrbll","Sat Mar 25 2023 20:23:17 GMT-0500 (Central Daylight Time)","456231","1","3","","null","","","","observe","","img/3to2/1.png","null","159","888","0.5","0.5","3","2","",""
"animation","137","179508","0.0-5.0-2.66","55c694e3fdf99b6c4f28595f","bdp_cybrbll","Sat Mar 25 2023 20:23:17 GMT-0500 (Central Daylight Time)","456231","1","3","","","","","","","","","","159","","","","3","2","[{""stimulus"":""img/3to2/1.png"",""time"":110},{""stimulus"":""img/3to2/2.png"",""time"":200},{""stimulus"":""img/3to2/3.png"",""time"":314},{""stimulus"":""img/3to2/4.png"",""time"":407},{""stimulus"":""img/3to2/5.png"",""time"":496},{""stimulus"":""img/3to2/6.png"",""time"":598},{""stimulus"":""img/3to2/7.png"",""time"":695},{""stimulus"":""img/3to2/8.png"",""time"":800},{""stimulus"":""img/3to2/9.png"",""time"":893},{""stimulus"":""img/3to2/10.png"",""time"":992},{""stimulus"":""img/3to2/11.png"",""time"":1095},{""stimulus"":""img/3to2/12.png"",""time"":1189}]","[]"
"image-keyboard-response","138","179732","0.0-5.0-1.67","55c694e3fdf99b6c4f28595f","bdp_cybrbll","Sat Mar 25 2023 20:23:17 GMT-0500 (Central Daylight Time)","456231","1","3","","224","","","","choice","","img/2to1/1.png","1","158","1603","0.5","0.5","2","1","",""
"animation","139","181020","0.0-5.0-2.67","55c694e3fdf99b6c4f28595f","bdp_cybrbll","Sat Mar 25 2023 20:23:17 GMT-0500 (Central Daylight Time)","456231","1","3","","","","","","","","","","158","","","","2","1","[{""stimulus"":""img/2to1/1.png"",""time"":102},{""stimulus"":""img/2to1/2.png"",""time"":211},{""stimulus"":""img/2to1/3.png"",""time"":304},{""stimulus"":""img/2to1/4.png"",""time"":400},{""stimulus"":""img/2to1/5.png"",""time"":497},{""stimulus"":""img/2to1/6.png"",""time"":603},{""stimulus"":""img/2to1/7.png"",""time"":695},{""stimulus"":""img/2to1/8.png"",""time"":804},{""stimulus"":""img/2to1/9.png"",""time"":898},{""stimulus"":""img/2to1/10.png"",""time"":992},{""stimulus"":""img/2to1/11.png"",""time"":1091},{""stimulus"":""img/2to1/12.png"",""time"":1190}]","[]"
"image-keyboard-response","140","181734","0.0-5.0-1.68","55c694e3fdf99b6c4f28595f","bdp_cybrbll","Sat Mar 25 2023 20:23:17 GMT-0500 (Central Daylight Time)","456231","1","3","","null","","","","observe","","img/1to3/1.png","null","157","706","0.5","0.5","1","3","",""
"animation","141","183023","0.0-5.0-2.68","55c694e3fdf99b6c4f28595f","bdp_cybrbll","Sat Mar 25 2023 20:23:17 GMT-0500 (Central Daylight Time)","456231","1","3","","","","","","","","","","157","","","","1","3","[{""stimulus"":""img/1to3/1.png"",""time"":109},{""stimulus"":""img/1to3/2.png"",""time"":199},{""stimulus"":""img/1to3/3.png"",""time"":298},{""stimulus"":""img/1to3/4.png"",""time"":397},{""stimulus"":""img/1to3/5.png"",""time"":496},{""stimulus"":""img/1to3/6.png"",""time"":608},{""stimulus"":""img/1to3/7.png"",""time"":694},{""stimulus"":""img/1to3/8.png"",""time"":797},{""stimulus"":""img/1to3/9.png"",""time"":892},{""stimulus"":""img/1to3/10.png"",""time"":999},{""stimulus"":""img/1to3/11.png"",""time"":1092},{""stimulus"":""img/1to3/12.png"",""time"":1188}]","[]"
"image-keyboard-response","142","183504","0.0-5.0-1.69","55c694e3fdf99b6c4f28595f","bdp_cybrbll","Sat Mar 25 2023 20:23:17 GMT-0500 (Central Daylight Time)","456231","1","3","","null","","","","observe","","img/3to2/1.png","null","156","475","0.5","0.5","3","1","",""
"animation","143","184792","0.0-5.0-2.69","55c694e3fdf99b6c4f28595f","bdp_cybrbll","Sat Mar 25 2023 20:23:17 GMT-0500 (Central Daylight Time)","456231","1","3","","","","","","","","","","156","","","","3","1","[{""stimulus"":""img/3to1/1.png"",""time"":109},{""stimulus"":""img/3to1/2.png"",""time"":202},{""stimulus"":""img/3to1/3.png"",""time"":298},{""stimulus"":""img/3to1/4.png"",""time"":397},{""stimulus"":""img/3to1/5.png"",""time"":497},{""stimulus"":""img/3to1/6.png"",""time"":606},{""stimulus"":""img/3to1/7.png"",""time"":695},{""stimulus"":""img/3to1/8.png"",""time"":793},{""stimulus"":""img/3to1/9.png"",""time"":904},{""stimulus"":""img/3to1/10.png"",""time"":997},{""stimulus"":""img/3to1/11.png"",""time"":1092},{""stimulus"":""img/3to1/12.png"",""time"":1189}]","[]"
"image-keyboard-response","144","185529","0.0-5.0-1.70","55c694e3fdf99b6c4f28595f","bdp_cybrbll","Sat Mar 25 2023 20:23:17 GMT-0500 (Central Daylight Time)","456231","1","3","","null","","","","observe","","img/1to3/1.png","null","155","730","0.5","0.5","1","2","",""
"animation","145","186816","0.0-5.0-2.70","55c694e3fdf99b6c4f28595f","bdp_cybrbll","Sat Mar 25 2023 20:23:17 GMT-0500 (Central Daylight Time)","456231","1","3","","","","","","","","","","155","","","","1","2","[{""stimulus"":""img/1to2/1.png"",""time"":109},{""stimulus"":""img/1to2/2.png"",""time"":200},{""stimulus"":""img/1to2/3.png"",""time"":298},{""stimulus"":""img/1to2/4.png"",""time"":397},{""stimulus"":""img/1to2/5.png"",""time"":495},{""stimulus"":""img/1to2/6.png"",""time"":608},{""stimulus"":""img/1to2/7.png"",""time"":703},{""stimulus"":""img/1to2/8.png"",""time"":795},{""stimulus"":""img/1to2/9.png"",""time"":904},{""stimulus"":""img/1to2/10.png"",""time"":996},{""stimulus"":""img/1to2/11.png"",""time"":1090},{""stimulus"":""img/1to2/12.png"",""time"":1188}]","[]"
"image-keyboard-response","146","187132","0.0-5.0-1.71","55c694e3fdf99b6c4f28595f","bdp_cybrbll","Sat Mar 25 2023 20:23:17 GMT-0500 (Central Daylight Time)","456231","1","3","","316","","","","choice","","img/2to1/1.png","1","154","265","0.5","0.5","2","1","",""
"animation","147","188419","0.0-5.0-2.71","55c694e3fdf99b6c4f28595f","bdp_cybrbll","Sat Mar 25 2023 20:23:17 GMT-0500 (Central Daylight Time)","456231","1","3","","","","","","","","","","154","","","","2","1","[{""stimulus"":""img/2to1/1.png"",""time"":111},{""stimulus"":""img/2to1/2.png"",""time"":205},{""stimulus"":""img/2to1/3.png"",""time"":313},{""stimulus"":""img/2to1/4.png"",""time"":408},{""stimulus"":""img/2to1/5.png"",""time"":502},{""stimulus"":""img/2to1/6.png"",""time"":595},{""stimulus"":""img/2to1/7.png"",""time"":695},{""stimulus"":""img/2to1/8.png"",""time"":793},{""stimulus"":""img/2to1/9.png"",""time"":904},{""stimulus"":""img/2to1/10.png"",""time"":990},{""stimulus"":""img/2to1/11.png"",""time"":1090},{""stimulus"":""img/2to1/12.png"",""time"":1198}]","[]"
"image-keyboard-response","148","188878","0.0-5.0-1.72","55c694e3fdf99b6c4f28595f","bdp_cybrbll","Sat Mar 25 2023 20:23:17 GMT-0500 (Central Daylight Time)","456231","1","3","","null","","","","observe","","img/1to3/1.png","null","153","453","0.5","0.5","1","2","",""
"animation","149","190178","0.0-5.0-2.72","55c694e3fdf99b6c4f28595f","bdp_cybrbll","Sat Mar 25 2023 20:23:17 GMT-0500 (Central Daylight Time)","456231","1","3","","","","","","","","","","153","","","","1","2","[{""stimulus"":""img/1to2/1.png"",""time"":109},{""stimulus"":""img/1to2/2.png"",""time"":202},{""stimulus"":""img/1to2/3.png"",""time"":312},{""stimulus"":""img/1to2/4.png"",""time"":406},{""stimulus"":""img/1to2/5.png"",""time"":499},{""stimulus"":""img/1to2/6.png"",""time"":595},{""stimulus"":""img/1to2/7.png"",""time"":703},{""stimulus"":""img/1to2/8.png"",""time"":792},{""stimulus"":""img/1to2/9.png"",""time"":907},{""stimulus"":""img/1to2/10.png"",""time"":991},{""stimulus"":""img/1to2/11.png"",""time"":1089},{""stimulus"":""img/1to2/12.png"",""time"":1190}]","[]"
"image-keyboard-response","150","190205","0.0-5.0-1.73","55c694e3fdf99b6c4f28595f","bdp_cybrbll","Sat Mar 25 2023 20:23:17 GMT-0500 (Central Daylight Time)","456231","1","3","","26","","","","choice","","img/2to1/1.png","2","152","131","0.5","0.5","2","3","",""
"animation","151","191493","0.0-5.0-2.73","55c694e3fdf99b6c4f28595f","bdp_cybrbll","Sat Mar 25 2023 20:23:17 GMT-0500 (Central Daylight Time)","456231","1","3","","","","","","","","","","152","","","","2","3","[{""stimulus"":""img/2to3/1.png"",""time"":115},{""stimulus"":""img/2to3/2.png"",""time"":209},{""stimulus"":""img/2to3/3.png"",""time"":303},{""stimulus"":""img/2to3/4.png"",""time"":398},{""stimulus"":""img/2to3/5.png"",""time"":497},{""stimulus"":""img/2to3/6.png"",""time"":595},{""stimulus"":""img/2to3/7.png"",""time"":694},{""stimulus"":""img/2to3/8.png"",""time"":802},{""stimulus"":""img/2to3/9.png"",""time"":897},{""stimulus"":""img/2to3/10.png"",""time"":991},{""stimulus"":""img/2to3/11.png"",""time"":1091},{""stimulus"":""img/2to3/12.png"",""time"":1192}]","[]"
"image-keyboard-response","152","192052","0.0-5.0-1.74","55c694e3fdf99b6c4f28595f","bdp_cybrbll","Sat Mar 25 2023 20:23:17 GMT-0500 (Central Daylight Time)","456231","1","3","","null","","","","observe","","img/3to2/1.png","null","151","545","0.5","0.5","3","1","",""
"animation","153","193341","0.0-5.0-2.74","55c694e3fdf99b6c4f28595f","bdp_cybrbll","Sat Mar 25 2023 20:23:17 GMT-0500 (Central Daylight Time)","456231","1","3","","","","","","","","","","151","","","","3","1","[{""stimulus"":""img/3to1/1.png"",""time"":108},{""stimulus"":""img/3to1/2.png"",""time"":199},{""stimulus"":""img/3to1/3.png"",""time"":298},{""stimulus"":""img/3to1/4.png"",""time"":409},{""stimulus"":""img/3to1/5.png"",""time"":504},{""stimulus"":""img/3to1/6.png"",""time"":595},{""stimulus"":""img/3to1/7.png"",""time"":694},{""stimulus"":""img/3to1/8.png"",""time"":793},{""stimulus"":""img/3to1/9.png"",""time"":892},{""stimulus"":""img/3to1/10.png"",""time"":990},{""stimulus"":""img/3to1/11.png"",""time"":1098},{""stimulus"":""img/3to1/12.png"",""time"":1188}]","[]"
"image-keyboard-response","154","193605","0.0-5.0-1.75","55c694e3fdf99b6c4f28595f","bdp_cybrbll","Sat Mar 25 2023 20:23:17 GMT-0500 (Central Daylight Time)","456231","1","3","","null","","","","observe","","img/1to3/1.png","null","150","259","0.5","0.5","1","3","",""
"animation","155","194905","0.0-5.0-2.75","55c694e3fdf99b6c4f28595f","bdp_cybrbll","Sat Mar 25 2023 20:23:17 GMT-0500 (Central Daylight Time)","456231","1","3","","","","","","","","","","150","","","","1","3","[{""stimulus"":""img/1to3/1.png"",""time"":108},{""stimulus"":""img/1to3/2.png"",""time"":201},{""stimulus"":""img/1to3/3.png"",""time"":298},{""stimulus"":""img/1to3/4.png"",""time"":397},{""stimulus"":""img/1to3/5.png"",""time"":497},{""stimulus"":""img/1to3/6.png"",""time"":595},{""stimulus"":""img/1to3/7.png"",""time"":703},{""stimulus"":""img/1to3/8.png"",""time"":798},{""stimulus"":""img/1to3/9.png"",""time"":893},{""stimulus"":""img/1to3/10.png"",""time"":1003},{""stimulus"":""img/1to3/11.png"",""time"":1090},{""stimulus"":""img/1to3/12.png"",""time"":1191}]","[]"
"image-keyboard-response","156","195720","0.0-5.0-1.76","55c694e3fdf99b6c4f28595f","bdp_cybrbll","Sat Mar 25 2023 20:23:17 GMT-0500 (Central Daylight Time)","456231","1","3","","null","","","","observe","","img/3to2/1.png","null","149","804","0.5","0.1","3","1","",""
"animation","157","197008","0.0-5.0-2.76","55c694e3fdf99b6c4f28595f","bdp_cybrbll","Sat Mar 25 2023 20:23:17 GMT-0500 (Central Daylight Time)","456231","1","3","","","","","","","","","","149","","","","3","1","[{""stimulus"":""img/3to1/1.png"",""time"":112},{""stimulus"":""img/3to1/2.png"",""time"":208},{""stimulus"":""img/3to1/3.png"",""time"":297},{""stimulus"":""img/3to1/4.png"",""time"":397},{""stimulus"":""img/3to1/5.png"",""time"":506},{""stimulus"":""img/3to1/6.png"",""time"":600},{""stimulus"":""img/3to1/7.png"",""time"":694},{""stimulus"":""img/3to1/8.png"",""time"":793},{""stimulus"":""img/3to1/9.png"",""time"":897},{""stimulus"":""img/3to1/10.png"",""time"":991},{""stimulus"":""img/3to1/11.png"",""time"":1101},{""stimulus"":""img/3to1/12.png"",""time"":1189}]","[]"
"image-keyboard-response","158","197247","0.0-5.0-1.77","55c694e3fdf99b6c4f28595f","bdp_cybrbll","Sat Mar 25 2023 20:23:17 GMT-0500 (Central Daylight Time)","456231","1","3","","null","","","","observe","","img/1to3/1.png","null","148","224","0.5","0.1","1","2","",""
"animation","159","198536","0.0-5.0-2.77","55c694e3fdf99b6c4f28595f","bdp_cybrbll","Sat Mar 25 2023 20:23:17 GMT-0500 (Central Daylight Time)","456231","1","3","","","","","","","","","","148","","","","1","2","[{""stimulus"":""img/1to2/1.png"",""time"":111},{""stimulus"":""img/1to2/2.png"",""time"":199},{""stimulus"":""img/1to2/3.png"",""time"":313},{""stimulus"":""img/1to2/4.png"",""time"":406},{""stimulus"":""img/1to2/5.png"",""time"":496},{""stimulus"":""img/1to2/6.png"",""time"":596},{""stimulus"":""img/1to2/7.png"",""time"":693},{""stimulus"":""img/1to2/8.png"",""time"":798},{""stimulus"":""img/1to2/9.png"",""time"":892},{""stimulus"":""img/1to2/10.png"",""time"":991},{""stimulus"":""img/1to2/11.png"",""time"":1096},{""stimulus"":""img/1to2/12.png"",""time"":1203}]","[]"
"image-keyboard-response","160","198727","0.0-5.0-1.78","55c694e3fdf99b6c4f28595f","bdp_cybrbll","Sat Mar 25 2023 20:23:17 GMT-0500 (Central Daylight Time)","456231","1","3","","190","","","","choice","","img/2to1/1.png","2","147","663","0.5","0.1","2","3","",""
"animation","161","200014","0.0-5.0-2.78","55c694e3fdf99b6c4f28595f","bdp_cybrbll","Sat Mar 25 2023 20:23:17 GMT-0500 (Central Daylight Time)","456231","1","3","","","","","","","","","","147","","","","2","3","[{""stimulus"":""img/2to3/1.png"",""time"":114},{""stimulus"":""img/2to3/2.png"",""time"":208},{""stimulus"":""img/2to3/3.png"",""time"":302},{""stimulus"":""img/2to3/4.png"",""time"":410},{""stimulus"":""img/2to3/5.png"",""time"":496},{""stimulus"":""img/2to3/6.png"",""time"":596},{""stimulus"":""img/2to3/7.png"",""time"":708},{""stimulus"":""img/2to3/8.png"",""time"":801},{""stimulus"":""img/2to3/9.png"",""time"":896},{""stimulus"":""img/2to3/10.png"",""time"":992},{""stimulus"":""img/2to3/11.png"",""time"":1101},{""stimulus"":""img/2to3/12.png"",""time"":1197}]","[]"
"image-keyboard-response","162","200440","0.0-5.0-1.79","55c694e3fdf99b6c4f28595f","bdp_cybrbll","Sat Mar 25 2023 20:23:17 GMT-0500 (Central Daylight Time)","456231","1","3","","null","","","","observe","","img/3to2/1.png","null","146","414","0.5","0.1","3","1","",""
"animation","163","201727","0.0-5.0-2.79","55c694e3fdf99b6c4f28595f","bdp_cybrbll","Sat Mar 25 2023 20:23:17 GMT-0500 (Central Daylight Time)","456231","1","3","","","","","","","","","","146","","","","3","1","[{""stimulus"":""img/3to1/1.png"",""time"":109},{""stimulus"":""img/3to1/2.png"",""time"":200},{""stimulus"":""img/3to1/3.png"",""time"":310},{""stimulus"":""img/3to1/4.png"",""time"":396},{""stimulus"":""img/3to1/5.png"",""time"":496},{""stimulus"":""img/3to1/6.png"",""time"":607},{""stimulus"":""img/3to1/7.png"",""time"":694},{""stimulus"":""img/3to1/8.png"",""time"":794},{""stimulus"":""img/3to1/9.png"",""time"":902},{""stimulus"":""img/3to1/10.png"",""time"":997},{""stimulus"":""img/3to1/11.png"",""time"":1090},{""stimulus"":""img/3to1/12.png"",""time"":1204}]","[]"
"image-keyboard-response","164","203307","0.0-5.0-1.80","55c694e3fdf99b6c4f28595f","bdp_cybrbll","Sat Mar 25 2023 20:23:17 GMT-0500 (Central Daylight Time)","456231","1","3","","null","","","","observe","","img/1to3/1.png","null","145","1567","0.5","0.1","1","2","",""
"animation","165","204596","0.0-5.0-2.80","55c694e3fdf99b6c4f28595f","bdp_cybrbll","Sat Mar 25 2023 20:23:17 GMT-0500 (Central Daylight Time)","456231","1","3","","","","","","","","","","145","","","","1","2","[{""stimulus"":""img/1to2/1.png"",""time"":111},{""stimulus"":""img/1to2/2.png"",""time"":199},{""stimulus"":""img/1to2/3.png"",""time"":300},{""stimulus"":""img/1to2/4.png"",""time"":397},{""stimulus"":""img/1to2/5.png"",""time"":496},{""stimulus"":""img/1to2/6.png"",""time"":595},{""stimulus"":""img/1to2/7.png"",""time"":694},{""stimulus"":""img/1to2/8.png"",""time"":800},{""stimulus"":""img/1to2/9.png"",""time"":892},{""stimulus"":""img/1to2/10.png"",""time"":990},{""stimulus"":""img/1to2/11.png"",""time"":1099},{""stimulus"":""img/1to2/12.png"",""time"":1188}]","[]"
"image-keyboard-response","166","205168","0.0-5.0-1.81","55c694e3fdf99b6c4f28595f","bdp_cybrbll","Sat Mar 25 2023 20:23:17 GMT-0500 (Central Daylight Time)","456231","1","3","","571","","","","choice","","img/2to1/1.png","1","144","309","0.5","0.1","2","1","",""
"animation","167","206469","0.0-5.0-2.81","55c694e3fdf99b6c4f28595f","bdp_cybrbll","Sat Mar 25 2023 20:23:17 GMT-0500 (Central Daylight Time)","456231","1","3","","","","","","","","","","144","","","","2","1","[{""stimulus"":""img/2to1/1.png"",""time"":101},{""stimulus"":""img/2to1/2.png"",""time"":211},{""stimulus"":""img/2to1/3.png"",""time"":305},{""stimulus"":""img/2to1/4.png"",""time"":399},{""stimulus"":""img/2to1/5.png"",""time"":508},{""stimulus"":""img/2to1/6.png"",""time"":596},{""stimulus"":""img/2to1/7.png"",""time"":694},{""stimulus"":""img/2to1/8.png"",""time"":793},{""stimulus"":""img/2to1/9.png"",""time"":895},{""stimulus"":""img/2to1/10.png"",""time"":991},{""stimulus"":""img/2to1/11.png"",""time"":1089},{""stimulus"":""img/2to1/12.png"",""time"":1192}]","[]"
"image-keyboard-response","168","206859","0.0-5.0-1.82","55c694e3fdf99b6c4f28595f","bdp_cybrbll","Sat Mar 25 2023 20:23:17 GMT-0500 (Central Daylight Time)","456231","1","3","","null","","","","observe","","img/1to3/1.png","null","143","388","0.5","0.1","1","2","",""
"animation","169","208147","0.0-5.0-2.82","55c694e3fdf99b6c4f28595f","bdp_cybrbll","Sat Mar 25 2023 20:23:17 GMT-0500 (Central Daylight Time)","456231","1","3","","","","","","","","","","143","","","","1","2","[{""stimulus"":""img/1to2/1.png"",""time"":111},{""stimulus"":""img/1to2/2.png"",""time"":203},{""stimulus"":""img/1to2/3.png"",""time"":298},{""stimulus"":""img/1to2/4.png"",""time"":398},{""stimulus"":""img/1to2/5.png"",""time"":499},{""stimulus"":""img/1to2/6.png"",""time"":608},{""stimulus"":""img/1to2/7.png"",""time"":702},{""stimulus"":""img/1to2/8.png"",""time"":796},{""stimulus"":""img/1to2/9.png"",""time"":892},{""stimulus"":""img/1to2/10.png"",""time"":991},{""stimulus"":""img/1to2/11.png"",""time"":1090},{""stimulus"":""img/1to2/12.png"",""time"":1190}]","[]"
"image-keyboard-response","170","208364","0.0-5.0-1.83","55c694e3fdf99b6c4f28595f","bdp_cybrbll","Sat Mar 25 2023 20:23:17 GMT-0500 (Central Daylight Time)","456231","1","3","","217","","","","choice","","img/2to1/1.png","2","142","510","0.5","0.1","2","3","",""
"animation","171","209654","0.0-5.0-2.83","55c694e3fdf99b6c4f28595f","bdp_cybrbll","Sat Mar 25 2023 20:23:17 GMT-0500 (Central Daylight Time)","456231","1","3","","","","","","","","","","142","","","","2","3","[{""stimulus"":""img/2to3/1.png"",""time"":111},{""stimulus"":""img/2to3/2.png"",""time"":203},{""stimulus"":""img/2to3/3.png"",""time"":300},{""stimulus"":""img/2to3/4.png"",""time"":397},{""stimulus"":""img/2to3/5.png"",""time"":497},{""stimulus"":""img/2to3/6.png"",""time"":595},{""stimulus"":""img/2to3/7.png"",""time"":695},{""stimulus"":""img/2to3/8.png"",""time"":793},{""stimulus"":""img/2to3/9.png"",""time"":900},{""stimulus"":""img/2to3/10.png"",""time"":994},{""stimulus"":""img/2to3/11.png"",""time"":1103},{""stimulus"":""img/2to3/12.png"",""time"":1197}]","[]"
"image-keyboard-response","172","209969","0.0-5.0-1.84","55c694e3fdf99b6c4f28595f","bdp_cybrbll","Sat Mar 25 2023 20:23:17 GMT-0500 (Central Daylight Time)","456231","1","3","","null","","","","observe","","img/3to2/1.png","null","141","309","0.5","0.1","3","1","",""
"animation","173","211257","0.0-5.0-2.84","55c694e3fdf99b6c4f28595f","bdp_cybrbll","Sat Mar 25 2023 20:23:17 GMT-0500 (Central Daylight Time)","456231","1","3","","","","","","","","","","141","","","","3","1","[{""stimulus"":""img/3to1/1.png"",""time"":109},{""stimulus"":""img/3to1/2.png"",""time"":199},{""stimulus"":""img/3to1/3.png"",""time"":298},{""stimulus"":""img/3to1/4.png"",""time"":409},{""stimulus"":""img/3to1/5.png"",""time"":503},{""stimulus"":""img/3to1/6.png"",""time"":598},{""stimulus"":""img/3to1/7.png"",""time"":694},{""stimulus"":""img/3to1/8.png"",""time"":793},{""stimulus"":""img/3to1/9.png"",""time"":892},{""stimulus"":""img/3to1/10.png"",""time"":990},{""stimulus"":""img/3to1/11.png"",""time"":1100},{""stimulus"":""img/3to1/12.png"",""time"":1189}]","[]"
"image-keyboard-response","174","211449","0.0-5.0-1.85","55c694e3fdf99b6c4f28595f","bdp_cybrbll","Sat Mar 25 2023 20:23:17 GMT-0500 (Central Daylight Time)","456231","1","3","","null","","","","observe","","img/1to3/1.png","null","140","191","0.5","0.1","1","3","",""
"animation","175","212740","0.0-5.0-2.85","55c694e3fdf99b6c4f28595f","bdp_cybrbll","Sat Mar 25 2023 20:23:17 GMT-0500 (Central Daylight Time)","456231","1","3","","","","","","","","","","140","","","","1","3","[{""stimulus"":""img/1to3/1.png"",""time"":102},{""stimulus"":""img/1to3/2.png"",""time"":199},{""stimulus"":""img/1to3/3.png"",""time"":298},{""stimulus"":""img/1to3/4.png"",""time"":397},{""stimulus"":""img/1to3/5.png"",""time"":496},{""stimulus"":""img/1to3/6.png"",""time"":602},{""stimulus"":""img/1to3/7.png"",""time"":693},{""stimulus"":""img/1to3/8.png"",""time"":793},{""stimulus"":""img/1to3/9.png"",""time"":898},{""stimulus"":""img/1to3/10.png"",""time"":990},{""stimulus"":""img/1to3/11.png"",""time"":1099},{""stimulus"":""img/1to3/12.png"",""time"":1188}]","[]"
"image-keyboard-response","176","213678","0.0-5.0-1.86","55c694e3fdf99b6c4f28595f","bdp_cybrbll","Sat Mar 25 2023 20:23:17 GMT-0500 (Central Daylight Time)","456231","1","3","","null","","","","observe","","img/3to2/1.png","null","139","923","0.5","0.1","3","1","",""
"animation","177","214966","0.0-5.0-2.86","55c694e3fdf99b6c4f28595f","bdp_cybrbll","Sat Mar 25 2023 20:23:17 GMT-0500 (Central Daylight Time)","456231","1","3","","","","","","","","","","139","","","","3","1","[{""stimulus"":""img/3to1/1.png"",""time"":109},{""stimulus"":""img/3to1/2.png"",""time"":198},{""stimulus"":""img/3to1/3.png"",""time"":297},{""stimulus"":""img/3to1/4.png"",""time"":405},{""stimulus"":""img/3to1/5.png"",""time"":500},{""stimulus"":""img/3to1/6.png"",""time"":596},{""stimulus"":""img/3to1/7.png"",""time"":706},{""stimulus"":""img/3to1/8.png"",""time"":792},{""stimulus"":""img/3to1/9.png"",""time"":896},{""stimulus"":""img/3to1/10.png"",""time"":992},{""stimulus"":""img/3to1/11.png"",""time"":1089},{""stimulus"":""img/3to1/12.png"",""time"":1189}]","[]"
"image-keyboard-response","178","215360","0.0-5.0-1.87","55c694e3fdf99b6c4f28595f","bdp_cybrbll","Sat Mar 25 2023 20:23:17 GMT-0500 (Central Daylight Time)","456231","1","3","","null","","","","observe","","img/1to3/1.png","null","138","382","0.5","0.1","1","3","",""
"animation","179","216647","0.0-5.0-2.87","55c694e3fdf99b6c4f28595f","bdp_cybrbll","Sat Mar 25 2023 20:23:17 GMT-0500 (Central Daylight Time)","456231","1","3","","","","","","","","","","138","","","","1","3","[{""stimulus"":""img/1to3/1.png"",""time"":110},{""stimulus"":""img/1to3/2.png"",""time"":204},{""stimulus"":""img/1to3/3.png"",""time"":299},{""stimulus"":""img/1to3/4.png"",""time"":398},{""stimulus"":""img/1to3/5.png"",""time"":508},{""stimulus"":""img/1to3/6.png"",""time"":596},{""stimulus"":""img/1to3/7.png"",""time"":696},{""stimulus"":""img/1to3/8.png"",""time"":793},{""stimulus"":""img/1to3/9.png"",""time"":892},{""stimulus"":""img/1to3/10.png"",""time"":991},{""stimulus"":""img/1to3/11.png"",""time"":1103},{""stimulus"":""img/1to3/12.png"",""time"":1195}]","[]"
"image-keyboard-response","180","217102","0.0-5.0-1.88","55c694e3fdf99b6c4f28595f","bdp_cybrbll","Sat Mar 25 2023 20:23:17 GMT-0500 (Central Daylight Time)","456231","1","3","","null","","","","observe","","img/3to2/1.png","null","137","442","0.5","0.1","3","1","",""
"animation","181","218398","0.0-5.0-2.88","55c694e3fdf99b6c4f28595f","bdp_cybrbll","Sat Mar 25 2023 20:23:17 GMT-0500 (Central Daylight Time)","456231","1","3","","","","","","","","","","137","","","","3","1","[{""stimulus"":""img/3to1/1.png"",""time"":109},{""stimulus"":""img/3to1/2.png"",""time"":199},{""stimulus"":""img/3to1/3.png"",""time"":299},{""stimulus"":""img/3to1/4.png"",""time"":401},{""stimulus"":""img/3to1/5.png"",""time"":510},{""stimulus"":""img/3to1/6.png"",""time"":605},{""stimulus"":""img/3to1/7.png"",""time"":693},{""stimulus"":""img/3to1/8.png"",""time"":794},{""stimulus"":""img/3to1/9.png"",""time"":893},{""stimulus"":""img/3to1/10.png"",""time"":998},{""stimulus"":""img/3to1/11.png"",""time"":1089},{""stimulus"":""img/3to1/12.png"",""time"":1189}]","[]"
"image-keyboard-response","182","218740","0.0-5.0-1.89","55c694e3fdf99b6c4f28595f","bdp_cybrbll","Sat Mar 25 2023 20:23:17 GMT-0500 (Central Daylight Time)","456231","1","3","","null","","","","observe","","img/1to3/1.png","null","136","331","0.5","0.1","1","3","",""
"animation","183","220029","0.0-5.0-2.89","55c694e3fdf99b6c4f28595f","bdp_cybrbll","Sat Mar 25 2023 20:23:17 GMT-0500 (Central Daylight Time)","456231","1","3","","","","","","","","","","136","","","","1","3","[{""stimulus"":""img/1to3/1.png"",""time"":111},{""stimulus"":""img/1to3/2.png"",""time"":198},{""stimulus"":""img/1to3/3.png"",""time"":297},{""stimulus"":""img/1to3/4.png"",""time"":397},{""stimulus"":""img/1to3/5.png"",""time"":502},{""stimulus"":""img/1to3/6.png"",""time"":597},{""stimulus"":""img/1to3/7.png"",""time"":704},{""stimulus"":""img/1to3/8.png"",""time"":797},{""stimulus"":""img/1to3/9.png"",""time"":892},{""stimulus"":""img/1to3/10.png"",""time"":1004},{""stimulus"":""img/1to3/11.png"",""time"":1090},{""stimulus"":""img/1to3/12.png"",""time"":1188}]","[]"
"image-keyboard-response","184","221285","0.0-5.0-1.90","55c694e3fdf99b6c4f28595f","bdp_cybrbll","Sat Mar 25 2023 20:23:17 GMT-0500 (Central Daylight Time)","456231","1","3","","null","","","","observe","","img/3to2/1.png","null","135","1249","0.5","0.1","3","1","",""
"animation","185","222579","0.0-5.0-2.90","55c694e3fdf99b6c4f28595f","bdp_cybrbll","Sat Mar 25 2023 20:23:17 GMT-0500 (Central Daylight Time)","456231","1","3","","","","","","","","","","135","","","","3","1","[{""stimulus"":""img/3to1/1.png"",""time"":109},{""stimulus"":""img/3to1/2.png"",""time"":202},{""stimulus"":""img/3to1/3.png"",""time"":311},{""stimulus"":""img/3to1/4.png"",""time"":397},{""stimulus"":""img/3to1/5.png"",""time"":496},{""stimulus"":""img/3to1/6.png"",""time"":594},{""stimulus"":""img/3to1/7.png"",""time"":693},{""stimulus"":""img/3to1/8.png"",""time"":796},{""stimulus"":""img/3to1/9.png"",""time"":907},{""stimulus"":""img/3to1/10.png"",""time"":999},{""stimulus"":""img/3to1/11.png"",""time"":1089},{""stimulus"":""img/3to1/12.png"",""time"":1189}]","[]"
"image-keyboard-response","186","223018","0.0-5.0-1.91","55c694e3fdf99b6c4f28595f","bdp_cybrbll","Sat Mar 25 2023 20:23:17 GMT-0500 (Central Daylight Time)","456231","1","3","","null","","","","observe","","img/1to3/1.png","null","134","425","0.5","0.1","1","2","",""
"animation","187","224306","0.0-5.0-2.91","55c694e3fdf99b6c4f28595f","bdp_cybrbll","Sat Mar 25 2023 20:23:17 GMT-0500 (Central Daylight Time)","456231","1","3","","","","","","","","","","134","","","","1","2","[{""stimulus"":""img/1to2/1.png"",""time"":110},{""stimulus"":""img/1to2/2.png"",""time"":199},{""stimulus"":""img/1to2/3.png"",""time"":298},{""stimulus"":""img/1to2/4.png"",""time"":396},{""stimulus"":""img/1to2/5.png"",""time"":501},{""stimulus"":""img/1to2/6.png"",""time"":610},{""stimulus"":""img/1to2/7.png"",""time"":702},{""stimulus"":""img/1to2/8.png"",""time"":792},{""stimulus"":""img/1to2/9.png"",""time"":891},{""stimulus"":""img/1to2/10.png"",""time"":999},{""stimulus"":""img/1to2/11.png"",""time"":1093},{""stimulus"":""img/1to2/12.png"",""time"":1188}]","[]"
"image-keyboard-response","188","224501","0.0-5.0-1.92","55c694e3fdf99b6c4f28595f","bdp_cybrbll","Sat Mar 25 2023 20:23:17 GMT-0500 (Central Daylight Time)","456231","1","3","","194","","","","choice","","img/2to1/1.png","2","133","446","0.5","0.1","2","3","",""
"animation","189","225797","0.0-5.0-2.92","55c694e3fdf99b6c4f28595f","bdp_cybrbll","Sat Mar 25 2023 20:23:17 GMT-0500 (Central Daylight Time)","456231","1","3","","","","","","","","","","133","","","","2","3","[{""stimulus"":""img/2to3/1.png"",""time"":114},{""stimulus"":""img/2to3/2.png"",""time"":207},{""stimulus"":""img/2to3/3.png"",""time"":300},{""stimulus"":""img/2to3/4.png"",""time"":408},{""stimulus"":""img/2to3/5.png"",""time"":502},{""stimulus"":""img/2to3/6.png"",""time"":609},{""stimulus"":""img/2to3/7.png"",""time"":694},{""stimulus"":""img/2to3/8.png"",""time"":798},{""stimulus"":""img/2to3/9.png"",""time"":892},{""stimulus"":""img/2to3/10.png"",""time"":991},{""stimulus"":""img/2to3/11.png"",""time"":1095},{""stimulus"":""img/2to3/12.png"",""time"":1189}]","[]"
"image-keyboard-response","190","226201","0.0-5.0-1.93","55c694e3fdf99b6c4f28595f","bdp_cybrbll","Sat Mar 25 2023 20:23:17 GMT-0500 (Central Daylight Time)","456231","1","3","","null","","","","observe","","img/3to2/1.png","null","132","388","0.5","0.1","3","1","",""
