"trial_type","trial_index","time_elapsed","internal_node_id","subject_id","task","startTime","totalTime","fairPartner","unfairPartner","event","trial","time","trialtype","view_history","rt","success","stimulus","key_press","throwsLeft","rtDur","pFair","pUnfair","holder","receiver","animation_sequence","responses"
"pavlovia","0","11","0.0-0.0","63f791692fa22034babcdda1","bdp_cybrbll","Sat Mar 25 2023 19:46:22 GMT-0400 (Eastern Daylight Time)","505695","1","3","","","","","","","","","","","","","","","","",""
"","","","","63f791692fa22034babcdda1","bdp_cybrbll","Sat Mar 25 2023 19:46:22 GMT-0400 (Eastern Daylight Time)","505695","1","3","focus","1","10334","focusevent","","","","","","","","","","","","",""
"instructions","1","18440","0.0-1.0","63f791692fa22034babcdda1","bdp_cybrbll","Sat Mar 25 2023 19:46:22 GMT-0400 (Eastern Daylight Time)","505695","1","3","","","","","[{""page_index"":0,""viewing_time"":18426}]","18426","","","","","","","","","","",""
"","","","","63f791692fa22034babcdda1","bdp_cybrbll","Sat Mar 25 2023 19:46:22 GMT-0400 (Eastern Daylight Time)","505695","1","3","fullscreenenter","2","23147","fullscreenenter","","","","","","","","","","","","",""
"fullscreen","2","24139","0.0-2.0","63f791692fa22034babcdda1","bdp_cybrbll","Sat Mar 25 2023 19:46:22 GMT-0400 (Eastern Daylight Time)","505695","1","3","","","","","","","true","","","","","","","","","",""
"instructions","3","107531","0.0-4.0","63f791692fa22034babcdda1","bdp_cybrbll","Sat Mar 25 2023 19:46:22 GMT-0400 (Eastern Daylight Time)","505695","1","3","","","","","[{""page_index"":0,""viewing_time"":83391}]","83391","","","","","","","","","","",""
"image-keyboard-response","4","110065","0.0-5.0-1.0","63f791692fa22034babcdda1","bdp_cybrbll","Sat Mar 25 2023 19:46:22 GMT-0400 (Eastern Daylight Time)","505695","1","3","","","","choice","","2532","","img/2to1/1.png","1","225","384","0.5","0.5","2","1","",""
"animation","5","111355","0.0-5.0-2.0","63f791692fa22034babcdda1","bdp_cybrbll","Sat Mar 25 2023 19:46:22 GMT-0400 (Eastern Daylight Time)","505695","1","3","","","","","","","","","","225","","","","2","1","[{""stimulus"":""img/2to1/1.png"",""time"":113},{""stimulus"":""img/2to1/2.png"",""time"":213},{""stimulus"":""img/2to1/3.png"",""time"":300},{""stimulus"":""img/2to1/4.png"",""time"":399},{""stimulus"":""img/2to1/5.png"",""time"":499},{""stimulus"":""img/2to1/6.png"",""time"":599},{""stimulus"":""img/2to1/7.png"",""time"":700},{""stimulus"":""img/2to1/8.png"",""time"":798},{""stimulus"":""img/2to1/9.png"",""time"":898},{""stimulus"":""img/2to1/10.png"",""time"":998},{""stimulus"":""img/2to1/11.png"",""time"":1099},{""stimulus"":""img/2to1/12.png"",""time"":1201}]","[]"
"image-keyboard-response","6","111716","0.0-5.0-1.1","63f791692fa22034babcdda1","bdp_cybrbll","Sat Mar 25 2023 19:46:22 GMT-0400 (Eastern Daylight Time)","505695","1","3","","","","observe","","null","","img/1to3/1.png","null","224","349","0.5","0.5","1","2","",""
"animation","7","113020","0.0-5.0-2.1","63f791692fa22034babcdda1","bdp_cybrbll","Sat Mar 25 2023 19:46:22 GMT-0400 (Eastern Daylight Time)","505695","1","3","","","","","","","","","","224","","","","1","2","[{""stimulus"":""img/1to2/1.png"",""time"":110},{""stimulus"":""img/1to2/2.png"",""time"":200},{""stimulus"":""img/1to2/3.png"",""time"":301},{""stimulus"":""img/1to2/4.png"",""time"":402},{""stimulus"":""img/1to2/5.png"",""time"":499},{""stimulus"":""img/1to2/6.png"",""time"":600},{""stimulus"":""img/1to2/7.png"",""time"":702},{""stimulus"":""img/1to2/8.png"",""time"":800},{""stimulus"":""img/1to2/9.png"",""time"":901},{""stimulus"":""img/1to2/10.png"",""time"":1001},{""stimulus"":""img/1to2/11.png"",""time"":1103},{""stimulus"":""img/1to2/12.png"",""time"":1202}]","[]"
"image-keyboard-response","8","113177","0.0-5.0-1.2","63f791692fa22034babcdda1","bdp_cybrbll","Sat Mar 25 2023 19:46:22 GMT-0400 (Eastern Daylight Time)","505695","1","3","","","","choice","","156","","img/2to1/1.png","2","223","468","0.5","0.5","2","3","",""
"animation","9","114470","0.0-5.0-2.2","63f791692fa22034babcdda1","bdp_cybrbll","Sat Mar 25 2023 19:46:22 GMT-0400 (Eastern Daylight Time)","505695","1","3","","","","","","","","","","223","","","","2","3","[{""stimulus"":""img/2to3/1.png"",""time"":103},{""stimulus"":""img/2to3/2.png"",""time"":200},{""stimulus"":""img/2to3/3.png"",""time"":304},{""stimulus"":""img/2to3/4.png"",""time"":407},{""stimulus"":""img/2to3/5.png"",""time"":508},{""stimulus"":""img/2to3/6.png"",""time"":607},{""stimulus"":""img/2to3/7.png"",""time"":707},{""stimulus"":""img/2to3/8.png"",""time"":807},{""stimulus"":""img/2to3/9.png"",""time"":892},{""stimulus"":""img/2to3/10.png"",""time"":1006},{""stimulus"":""img/2to3/11.png"",""time"":1091},{""stimulus"":""img/2to3/12.png"",""time"":1193}]","[]"
"image-keyboard-response","10","115378","0.0-5.0-1.3","63f791692fa22034babcdda1","bdp_cybrbll","Sat Mar 25 2023 19:46:22 GMT-0400 (Eastern Daylight Time)","505695","1","3","","","","observe","","null","","img/3to2/1.png","null","222","895","0.5","0.5","3","1","",""
"animation","11","116670","0.0-5.0-2.3","63f791692fa22034babcdda1","bdp_cybrbll","Sat Mar 25 2023 19:46:22 GMT-0400 (Eastern Daylight Time)","505695","1","3","","","","","","","","","","222","","","","3","1","[{""stimulus"":""img/3to1/1.png"",""time"":105},{""stimulus"":""img/3to1/2.png"",""time"":207},{""stimulus"":""img/3to1/3.png"",""time"":307},{""stimulus"":""img/3to1/4.png"",""time"":407},{""stimulus"":""img/3to1/5.png"",""time"":507},{""stimulus"":""img/3to1/6.png"",""time"":608},{""stimulus"":""img/3to1/7.png"",""time"":708},{""stimulus"":""img/3to1/8.png"",""time"":794},{""stimulus"":""img/3to1/9.png"",""time"":907},{""stimulus"":""img/3to1/10.png"",""time"":994},{""stimulus"":""img/3to1/11.png"",""time"":1091},{""stimulus"":""img/3to1/12.png"",""time"":1191}]","[]"
"image-keyboard-response","12","116959","0.0-5.0-1.4","63f791692fa22034babcdda1","bdp_cybrbll","Sat Mar 25 2023 19:46:22 GMT-0400 (Eastern Daylight Time)","505695","1","3","","","","observe","","null","","img/1to3/1.png","null","221","283","0.5","0.5","1","2","",""
"animation","13","118255","0.0-5.0-2.4","63f791692fa22034babcdda1","bdp_cybrbll","Sat Mar 25 2023 19:46:22 GMT-0400 (Eastern Daylight Time)","505695","1","3","","","","","","","","","","221","","","","1","2","[{""stimulus"":""img/1to2/1.png"",""time"":110},{""stimulus"":""img/1to2/2.png"",""time"":212},{""stimulus"":""img/1to2/3.png"",""time"":308},{""stimulus"":""img/1to2/4.png"",""time"":397},{""stimulus"":""img/1to2/5.png"",""time"":511},{""stimulus"":""img/1to2/6.png"",""time"":596},{""stimulus"":""img/1to2/7.png"",""time"":695},{""stimulus"":""img/1to2/8.png"",""time"":794},{""stimulus"":""img/1to2/9.png"",""time"":895},{""stimulus"":""img/1to2/10.png"",""time"":994},{""stimulus"":""img/1to2/11.png"",""time"":1096},{""stimulus"":""img/1to2/12.png"",""time"":1197}]","[]"
"image-keyboard-response","14","118770","0.0-5.0-1.5","63f791692fa22034babcdda1","bdp_cybrbll","Sat Mar 25 2023 19:46:22 GMT-0400 (Eastern Daylight Time)","505695","1","3","","","","choice","","512","","img/2to1/1.png","1","220","363","0.5","0.5","2","1","",""
"animation","15","120058","0.0-5.0-2.5","63f791692fa22034babcdda1","bdp_cybrbll","Sat Mar 25 2023 19:46:22 GMT-0400 (Eastern Daylight Time)","505695","1","3","","","","","","","","","","220","","","","2","1","[{""stimulus"":""img/2to1/1.png"",""time"":100},{""stimulus"":""img/2to1/2.png"",""time"":203},{""stimulus"":""img/2to1/3.png"",""time"":303},{""stimulus"":""img/2to1/4.png"",""time"":400},{""stimulus"":""img/2to1/5.png"",""time"":502},{""stimulus"":""img/2to1/6.png"",""time"":594},{""stimulus"":""img/2to1/7.png"",""time"":696},{""stimulus"":""img/2to1/8.png"",""time"":803},{""stimulus"":""img/2to1/9.png"",""time"":901},{""stimulus"":""img/2to1/10.png"",""time"":1006},{""stimulus"":""img/2to1/11.png"",""time"":1104},{""stimulus"":""img/2to1/12.png"",""time"":1204}]","[]"
"image-keyboard-response","16","121234","0.0-5.0-1.6","63f791692fa22034babcdda1","bdp_cybrbll","Sat Mar 25 2023 19:46:22 GMT-0400 (Eastern Daylight Time)","505695","1","3","","","","observe","","null","","img/1to3/1.png","null","219","1161","0.5","0.5","1","3","",""
"animation","17","122527","0.0-5.0-2.6","63f791692fa22034babcdda1","bdp_cybrbll","Sat Mar 25 2023 19:46:22 GMT-0400 (Eastern Daylight Time)","505695","1","3","","","","","","","","","","219","","","","1","3","[{""stimulus"":""img/1to3/1.png"",""time"":110},{""stimulus"":""img/1to3/2.png"",""time"":209},{""stimulus"":""img/1to3/3.png"",""time"":309},{""stimulus"":""img/1to3/4.png"",""time"":410},{""stimulus"":""img/1to3/5.png"",""time"":508},{""stimulus"":""img/1to3/6.png"",""time"":609},{""stimulus"":""img/1to3/7.png"",""time"":709},{""stimulus"":""img/1to3/8.png"",""time"":803},{""stimulus"":""img/1to3/9.png"",""time"":893},{""stimulus"":""img/1to3/10.png"",""time"":993},{""stimulus"":""img/1to3/11.png"",""time"":1093},{""stimulus"":""img/1to3/12.png"",""time"":1194}]","[]"
"image-keyboard-response","18","123122","0.0-5.0-1.7","63f791692fa22034babcdda1","bdp_cybrbll","Sat Mar 25 2023 19:46:22 GMT-0400 (Eastern Daylight Time)","505695","1","3","","","","observe","","null","","img/3to2/1.png","null","218","584","0.5","0.5","3","1","",""
"animation","19","124414","0.0-5.0-2.7","63f791692fa22034babcdda1","bdp_cybrbll","Sat Mar 25 2023 19:46:22 GMT-0400 (Eastern Daylight Time)","505695","1","3","","","","","","","","","","218","","","","3","1","[{""stimulus"":""img/3to1/1.png"",""time"":115},{""stimulus"":""img/3to1/2.png"",""time"":205},{""stimulus"":""img/3to1/3.png"",""time"":307},{""stimulus"":""img/3to1/4.png"",""time"":405},{""stimulus"":""img/3to1/5.png"",""time"":505},{""stimulus"":""img/3to1/6.png"",""time"":605},{""stimulus"":""img/3to1/7.png"",""time"":706},{""stimulus"":""img/3to1/8.png"",""time"":802},{""stimulus"":""img/3to1/9.png"",""time"":904},{""stimulus"":""img/3to1/10.png"",""time"":997},{""stimulus"":""img/3to1/11.png"",""time"":1104},{""stimulus"":""img/3to1/12.png"",""time"":1203}]","[]"
"image-keyboard-response","20","126295","0.0-5.0-1.8","63f791692fa22034babcdda1","bdp_cybrbll","Sat Mar 25 2023 19:46:22 GMT-0400 (Eastern Daylight Time)","505695","1","3","","","","observe","","null","","img/1to3/1.png","null","217","1869","0.5","0.5","1","3","",""
"animation","21","127596","0.0-5.0-2.8","63f791692fa22034babcdda1","bdp_cybrbll","Sat Mar 25 2023 19:46:22 GMT-0400 (Eastern Daylight Time)","505695","1","3","","","","","","","","","","217","","","","1","3","[{""stimulus"":""img/1to3/1.png"",""time"":120},{""stimulus"":""img/1to3/2.png"",""time"":203},{""stimulus"":""img/1to3/3.png"",""time"":301},{""stimulus"":""img/1to3/4.png"",""time"":400},{""stimulus"":""img/1to3/5.png"",""time"":500},{""stimulus"":""img/1to3/6.png"",""time"":600},{""stimulus"":""img/1to3/7.png"",""time"":701},{""stimulus"":""img/1to3/8.png"",""time"":801},{""stimulus"":""img/1to3/9.png"",""time"":900},{""stimulus"":""img/1to3/10.png"",""time"":1001},{""stimulus"":""img/1to3/11.png"",""time"":1090},{""stimulus"":""img/1to3/12.png"",""time"":1202}]","[]"
"image-keyboard-response","22","128001","0.0-5.0-1.9","63f791692fa22034babcdda1","bdp_cybrbll","Sat Mar 25 2023 19:46:22 GMT-0400 (Eastern Daylight Time)","505695","1","3","","","","observe","","null","","img/3to2/1.png","null","216","402","0.5","0.5","3","1","",""
"animation","23","129300","0.0-5.0-2.9","63f791692fa22034babcdda1","bdp_cybrbll","Sat Mar 25 2023 19:46:22 GMT-0400 (Eastern Daylight Time)","505695","1","3","","","","","","","","","","216","","","","3","1","[{""stimulus"":""img/3to1/1.png"",""time"":109},{""stimulus"":""img/3to1/2.png"",""time"":199},{""stimulus"":""img/3to1/3.png"",""time"":297},{""stimulus"":""img/3to1/4.png"",""time"":403},{""stimulus"":""img/3to1/5.png"",""time"":497},{""stimulus"":""img/3to1/6.png"",""time"":597},{""stimulus"":""img/3to1/7.png"",""time"":697},{""stimulus"":""img/3to1/8.png"",""time"":798},{""stimulus"":""img/3to1/9.png"",""time"":899},{""stimulus"":""img/3to1/10.png"",""time"":999},{""stimulus"":""img/3to1/11.png"",""time"":1100},{""stimulus"":""img/3to1/12.png"",""time"":1200}]","[]"
"image-keyboard-response","24","129534","0.0-5.0-1.10","63f791692fa22034babcdda1","bdp_cybrbll","Sat Mar 25 2023 19:46:22 GMT-0400 (Eastern Daylight Time)","505695","1","3","","","","observe","","null","","img/1to3/1.png","null","215","220","0.5","0.5","1","3","",""
"animation","25","130835","0.0-5.0-2.10","63f791692fa22034babcdda1","bdp_cybrbll","Sat Mar 25 2023 19:46:22 GMT-0400 (Eastern Daylight Time)","505695","1","3","","","","","","","","","","215","","","","1","3","[{""stimulus"":""img/1to3/1.png"",""time"":109},{""stimulus"":""img/1to3/2.png"",""time"":201},{""stimulus"":""img/1to3/3.png"",""time"":302},{""stimulus"":""img/1to3/4.png"",""time"":400},{""stimulus"":""img/1to3/5.png"",""time"":501},{""stimulus"":""img/1to3/6.png"",""time"":603},{""stimulus"":""img/1to3/7.png"",""time"":701},{""stimulus"":""img/1to3/8.png"",""time"":800},{""stimulus"":""img/1to3/9.png"",""time"":902},{""stimulus"":""img/1to3/10.png"",""time"":1003},{""stimulus"":""img/1to3/11.png"",""time"":1102},{""stimulus"":""img/1to3/12.png"",""time"":1202}]","[]"
"image-keyboard-response","26","131107","0.0-5.0-1.11","63f791692fa22034babcdda1","bdp_cybrbll","Sat Mar 25 2023 19:46:22 GMT-0400 (Eastern Daylight Time)","505695","1","3","","","","observe","","null","","img/3to2/1.png","null","214","259","0.5","0.5","3","2","",""
"animation","27","132407","0.0-5.0-2.11","63f791692fa22034babcdda1","bdp_cybrbll","Sat Mar 25 2023 19:46:22 GMT-0400 (Eastern Daylight Time)","505695","1","3","","","","","","","","","","214","","","","3","2","[{""stimulus"":""img/3to2/1.png"",""time"":105},{""stimulus"":""img/3to2/2.png"",""time"":211},{""stimulus"":""img/3to2/3.png"",""time"":313},{""stimulus"":""img/3to2/4.png"",""time"":411},{""stimulus"":""img/3to2/5.png"",""time"":511},{""stimulus"":""img/3to2/6.png"",""time"":596},{""stimulus"":""img/3to2/7.png"",""time"":696},{""stimulus"":""img/3to2/8.png"",""time"":796},{""stimulus"":""img/3to2/9.png"",""time"":895},{""stimulus"":""img/3to2/10.png"",""time"":994},{""stimulus"":""img/3to2/11.png"",""time"":1094},{""stimulus"":""img/3to2/12.png"",""time"":1194}]","[]"
"image-keyboard-response","28","132629","0.0-5.0-1.12","63f791692fa22034babcdda1","bdp_cybrbll","Sat Mar 25 2023 19:46:22 GMT-0400 (Eastern Daylight Time)","505695","1","3","","","","choice","","221","","img/2to1/1.png","2","213","511","0.5","0.5","2","3","",""
"animation","29","133921","0.0-5.0-2.12","63f791692fa22034babcdda1","bdp_cybrbll","Sat Mar 25 2023 19:46:22 GMT-0400 (Eastern Daylight Time)","505695","1","3","","","","","","","","","","213","","","","2","3","[{""stimulus"":""img/2to3/1.png"",""time"":104},{""stimulus"":""img/2to3/2.png"",""time"":207},{""stimulus"":""img/2to3/3.png"",""time"":308},{""stimulus"":""img/2to3/4.png"",""time"":410},{""stimulus"":""img/2to3/5.png"",""time"":497},{""stimulus"":""img/2to3/6.png"",""time"":606},{""stimulus"":""img/2to3/7.png"",""time"":705},{""stimulus"":""img/2to3/8.png"",""time"":808},{""stimulus"":""img/2to3/9.png"",""time"":892},{""stimulus"":""img/2to3/10.png"",""time"":992},{""stimulus"":""img/2to3/11.png"",""time"":1093},{""stimulus"":""img/2to3/12.png"",""time"":1192}]","[]"
"image-keyboard-response","30","134769","0.0-5.0-1.13","63f791692fa22034babcdda1","bdp_cybrbll","Sat Mar 25 2023 19:46:22 GMT-0400 (Eastern Daylight Time)","505695","1","3","","","","observe","","null","","img/3to2/1.png","null","212","843","0.5","0.5","3","2","",""
"animation","31","136071","0.0-5.0-2.13","63f791692fa22034babcdda1","bdp_cybrbll","Sat Mar 25 2023 19:46:22 GMT-0400 (Eastern Daylight Time)","505695","1","3","","","","","","","","","","212","","","","3","2","[{""stimulus"":""img/3to2/1.png"",""time"":109},{""stimulus"":""img/3to2/2.png"",""time"":204},{""stimulus"":""img/3to2/3.png"",""time"":306},{""stimulus"":""img/3to2/4.png"",""time"":404},{""stimulus"":""img/3to2/5.png"",""time"":503},{""stimulus"":""img/3to2/6.png"",""time"":602},{""stimulus"":""img/3to2/7.png"",""time"":702},{""stimulus"":""img/3to2/8.png"",""time"":803},{""stimulus"":""img/3to2/9.png"",""time"":903},{""stimulus"":""img/3to2/10.png"",""time"":1002},{""stimulus"":""img/3to2/11.png"",""time"":1103},{""stimulus"":""img/3to2/12.png"",""time"":1203}]","[]"
"image-keyboard-response","32","136128","0.0-5.0-1.14","63f791692fa22034babcdda1","bdp_cybrbll","Sat Mar 25 2023 19:46:22 GMT-0400 (Eastern Daylight Time)","505695","1","3","","","","choice","","56","","img/2to1/1.png","2","211","274","0.5","0.5","2","3","",""
"animation","33","137425","0.0-5.0-2.14","63f791692fa22034babcdda1","bdp_cybrbll","Sat Mar 25 2023 19:46:22 GMT-0400 (Eastern Daylight Time)","505695","1","3","","","","","","","","","","211","","","","2","3","[{""stimulus"":""img/2to3/1.png"",""time"":110},{""stimulus"":""img/2to3/2.png"",""time"":202},{""stimulus"":""img/2to3/3.png"",""time"":312},{""stimulus"":""img/2to3/4.png"",""time"":413},{""stimulus"":""img/2to3/5.png"",""time"":498},{""stimulus"":""img/2to3/6.png"",""time"":596},{""stimulus"":""img/2to3/7.png"",""time"":697},{""stimulus"":""img/2to3/8.png"",""time"":796},{""stimulus"":""img/2to3/9.png"",""time"":896},{""stimulus"":""img/2to3/10.png"",""time"":995},{""stimulus"":""img/2to3/11.png"",""time"":1095},{""stimulus"":""img/2to3/12.png"",""time"":1194}]","[]"
"image-keyboard-response","34","138027","0.0-5.0-1.15","63f791692fa22034babcdda1","bdp_cybrbll","Sat Mar 25 2023 19:46:22 GMT-0400 (Eastern Daylight Time)","505695","1","3","","","","observe","","null","","img/3to2/1.png","null","210","599","0.5","0.5","3","2","",""
"animation","35","139326","0.0-5.0-2.15","63f791692fa22034babcdda1","bdp_cybrbll","Sat Mar 25 2023 19:46:22 GMT-0400 (Eastern Daylight Time)","505695","1","3","","","","","","","","","","210","","","","3","2","[{""stimulus"":""img/3to2/1.png"",""time"":109},{""stimulus"":""img/3to2/2.png"",""time"":200},{""stimulus"":""img/3to2/3.png"",""time"":314},{""stimulus"":""img/3to2/4.png"",""time"":401},{""stimulus"":""img/3to2/5.png"",""time"":499},{""stimulus"":""img/3to2/6.png"",""time"":597},{""stimulus"":""img/3to2/7.png"",""time"":698},{""stimulus"":""img/3to2/8.png"",""time"":798},{""stimulus"":""img/3to2/9.png"",""time"":897},{""stimulus"":""img/3to2/10.png"",""time"":999},{""stimulus"":""img/3to2/11.png"",""time"":1105},{""stimulus"":""img/3to2/12.png"",""time"":1199}]","[]"
"image-keyboard-response","36","139592","0.0-5.0-1.16","63f791692fa22034babcdda1","bdp_cybrbll","Sat Mar 25 2023 19:46:22 GMT-0400 (Eastern Daylight Time)","505695","1","3","","","","choice","","264","","img/2to1/1.png","1","209","547","0.5","0.5","2","1","",""
"animation","37","140895","0.0-5.0-2.16","63f791692fa22034babcdda1","bdp_cybrbll","Sat Mar 25 2023 19:46:22 GMT-0400 (Eastern Daylight Time)","505695","1","3","","","","","","","","","","209","","","","2","1","[{""stimulus"":""img/2to1/1.png"",""time"":114},{""stimulus"":""img/2to1/2.png"",""time"":202},{""stimulus"":""img/2to1/3.png"",""time"":301},{""stimulus"":""img/2to1/4.png"",""time"":400},{""stimulus"":""img/2to1/5.png"",""time"":500},{""stimulus"":""img/2to1/6.png"",""time"":600},{""stimulus"":""img/2to1/7.png"",""time"":700},{""stimulus"":""img/2to1/8.png"",""time"":804},{""stimulus"":""img/2to1/9.png"",""time"":902},{""stimulus"":""img/2to1/10.png"",""time"":1002},{""stimulus"":""img/2to1/11.png"",""time"":1103},{""stimulus"":""img/2to1/12.png"",""time"":1205}]","[]"
"image-keyboard-response","38","141345","0.0-5.0-1.17","63f791692fa22034babcdda1","bdp_cybrbll","Sat Mar 25 2023 19:46:22 GMT-0400 (Eastern Daylight Time)","505695","1","3","","","","observe","","null","","img/1to3/1.png","null","208","448","0.5","0.5","1","2","",""
"animation","39","142644","0.0-5.0-2.17","63f791692fa22034babcdda1","bdp_cybrbll","Sat Mar 25 2023 19:46:22 GMT-0400 (Eastern Daylight Time)","505695","1","3","","","","","","","","","","208","","","","1","2","[{""stimulus"":""img/1to2/1.png"",""time"":116},{""stimulus"":""img/1to2/2.png"",""time"":201},{""stimulus"":""img/1to2/3.png"",""time"":301},{""stimulus"":""img/1to2/4.png"",""time"":403},{""stimulus"":""img/1to2/5.png"",""time"":501},{""stimulus"":""img/1to2/6.png"",""time"":602},{""stimulus"":""img/1to2/7.png"",""time"":702},{""stimulus"":""img/1to2/8.png"",""time"":803},{""stimulus"":""img/1to2/9.png"",""time"":902},{""stimulus"":""img/1to2/10.png"",""time"":1006},{""stimulus"":""img/1to2/11.png"",""time"":1101},{""stimulus"":""img/1to2/12.png"",""time"":1202}]","[]"
"image-keyboard-response","40","143019","0.0-5.0-1.18","63f791692fa22034babcdda1","bdp_cybrbll","Sat Mar 25 2023 19:46:22 GMT-0400 (Eastern Daylight Time)","505695","1","3","","","","choice","","373","","img/2to1/1.png","2","207","605","0.5","0.5","2","3","",""
"animation","41","144313","0.0-5.0-2.18","63f791692fa22034babcdda1","bdp_cybrbll","Sat Mar 25 2023 19:46:22 GMT-0400 (Eastern Daylight Time)","505695","1","3","","","","","","","","","","207","","","","2","3","[{""stimulus"":""img/2to3/1.png"",""time"":110},{""stimulus"":""img/2to3/2.png"",""time"":212},{""stimulus"":""img/2to3/3.png"",""time"":312},{""stimulus"":""img/2to3/4.png"",""time"":397},{""stimulus"":""img/2to3/5.png"",""time"":496},{""stimulus"":""img/2to3/6.png"",""time"":597},{""stimulus"":""img/2to3/7.png"",""time"":696},{""stimulus"":""img/2to3/8.png"",""time"":796},{""stimulus"":""img/2to3/9.png"",""time"":898},{""stimulus"":""img/2to3/10.png"",""time"":996},{""stimulus"":""img/2to3/11.png"",""time"":1096},{""stimulus"":""img/2to3/12.png"",""time"":1194}]","[]"
"image-keyboard-response","42","145239","0.0-5.0-1.19","63f791692fa22034babcdda1","bdp_cybrbll","Sat Mar 25 2023 19:46:22 GMT-0400 (Eastern Daylight Time)","505695","1","3","","","","observe","","null","","img/3to2/1.png","null","206","911","0.5","0.5","3","1","",""
"animation","43","146535","0.0-5.0-2.19","63f791692fa22034babcdda1","bdp_cybrbll","Sat Mar 25 2023 19:46:22 GMT-0400 (Eastern Daylight Time)","505695","1","3","","","","","","","","","","206","","","","3","1","[{""stimulus"":""img/3to1/1.png"",""time"":110},{""stimulus"":""img/3to1/2.png"",""time"":210},{""stimulus"":""img/3to1/3.png"",""time"":309},{""stimulus"":""img/3to1/4.png"",""time"":397},{""stimulus"":""img/3to1/5.png"",""time"":510},{""stimulus"":""img/3to1/6.png"",""time"":608},{""stimulus"":""img/3to1/7.png"",""time"":695},{""stimulus"":""img/3to1/8.png"",""time"":797},{""stimulus"":""img/3to1/9.png"",""time"":895},{""stimulus"":""img/3to1/10.png"",""time"":996},{""stimulus"":""img/3to1/11.png"",""time"":1091},{""stimulus"":""img/3to1/12.png"",""time"":1196}]","[]"
"image-keyboard-response","44","146900","0.0-5.0-1.20","63f791692fa22034babcdda1","bdp_cybrbll","Sat Mar 25 2023 19:46:22 GMT-0400 (Eastern Daylight Time)","505695","1","3","","","","observe","","null","","img/1to3/1.png","null","205","359","0.5","0.5","1","3","",""
"animation","45","148200","0.0-5.0-2.20","63f791692fa22034babcdda1","bdp_cybrbll","Sat Mar 25 2023 19:46:22 GMT-0400 (Eastern Daylight Time)","505695","1","3","","","","","","","","","","205","","","","1","3","[{""stimulus"":""img/1to3/1.png"",""time"":110},{""stimulus"":""img/1to3/2.png"",""time"":202},{""stimulus"":""img/1to3/3.png"",""time"":302},{""stimulus"":""img/1to3/4.png"",""time"":404},{""stimulus"":""img/1to3/5.png"",""time"":520},{""stimulus"":""img/1to3/6.png"",""time"":603},{""stimulus"":""img/1to3/7.png"",""time"":701},{""stimulus"":""img/1to3/8.png"",""time"":803},{""stimulus"":""img/1to3/9.png"",""time"":904},{""stimulus"":""img/1to3/10.png"",""time"":1004},{""stimulus"":""img/1to3/11.png"",""time"":1103},{""stimulus"":""img/1to3/12.png"",""time"":1202}]","[]"
"image-keyboard-response","46","148420","0.0-5.0-1.21","63f791692fa22034babcdda1","bdp_cybrbll","Sat Mar 25 2023 19:46:22 GMT-0400 (Eastern Daylight Time)","505695","1","3","","","","observe","","null","","img/3to2/1.png","null","204","214","0.5","0.5","3","1","",""
"animation","47","149722","0.0-5.0-2.21","63f791692fa22034babcdda1","bdp_cybrbll","Sat Mar 25 2023 19:46:22 GMT-0400 (Eastern Daylight Time)","505695","1","3","","","","","","","","","","204","","","","3","1","[{""stimulus"":""img/3to1/1.png"",""time"":115},{""stimulus"":""img/3to1/2.png"",""time"":200},{""stimulus"":""img/3to1/3.png"",""time"":299},{""stimulus"":""img/3to1/4.png"",""time"":401},{""stimulus"":""img/3to1/5.png"",""time"":498},{""stimulus"":""img/3to1/6.png"",""time"":597},{""stimulus"":""img/3to1/7.png"",""time"":698},{""stimulus"":""img/3to1/8.png"",""time"":797},{""stimulus"":""img/3to1/9.png"",""time"":897},{""stimulus"":""img/3to1/10.png"",""time"":1001},{""stimulus"":""img/3to1/11.png"",""time"":1101},{""stimulus"":""img/3to1/12.png"",""time"":1200}]","[]"
"image-keyboard-response","48","150547","0.0-5.0-1.22","63f791692fa22034babcdda1","bdp_cybrbll","Sat Mar 25 2023 19:46:22 GMT-0400 (Eastern Daylight Time)","505695","1","3","","","","observe","","null","","img/1to3/1.png","null","203","819","0.5","0.5","1","2","",""
"animation","49","151839","0.0-5.0-2.22","63f791692fa22034babcdda1","bdp_cybrbll","Sat Mar 25 2023 19:46:22 GMT-0400 (Eastern Daylight Time)","505695","1","3","","","","","","","","","","203","","","","1","2","[{""stimulus"":""img/1to2/1.png"",""time"":109},{""stimulus"":""img/1to2/2.png"",""time"":207},{""stimulus"":""img/1to2/3.png"",""time"":308},{""stimulus"":""img/1to2/4.png"",""time"":408},{""stimulus"":""img/1to2/5.png"",""time"":507},{""stimulus"":""img/1to2/6.png"",""time"":606},{""stimulus"":""img/1to2/7.png"",""time"":708},{""stimulus"":""img/1to2/8.png"",""time"":809},{""stimulus"":""img/1to2/9.png"",""time"":892},{""stimulus"":""img/1to2/10.png"",""time"":993},{""stimulus"":""img/1to2/11.png"",""time"":1092},{""stimulus"":""img/1to2/12.png"",""time"":1193}]","[]"
"image-keyboard-response","50","151952","0.0-5.0-1.23","63f791692fa22034babcdda1","bdp_cybrbll","Sat Mar 25 2023 19:46:22 GMT-0400 (Eastern Daylight Time)","505695","1","3","","","","choice","","111","","img/2to1/1.png","1","202","215","0.5","0.5","2","1","",""
"animation","51","153255","0.0-5.0-2.23","63f791692fa22034babcdda1","bdp_cybrbll","Sat Mar 25 2023 19:46:22 GMT-0400 (Eastern Daylight Time)","505695","1","3","","","","","","","","","","202","","","","2","1","[{""stimulus"":""img/2to1/1.png"",""time"":101},{""stimulus"":""img/2to1/2.png"",""time"":203},{""stimulus"":""img/2to1/3.png"",""time"":308},{""stimulus"":""img/2to1/4.png"",""time"":404},{""stimulus"":""img/2to1/5.png"",""time"":504},{""stimulus"":""img/2to1/6.png"",""time"":606},{""stimulus"":""img/2to1/7.png"",""time"":703},{""stimulus"":""img/2to1/8.png"",""time"":802},{""stimulus"":""img/2to1/9.png"",""time"":903},{""stimulus"":""img/2to1/10.png"",""time"":1002},{""stimulus"":""img/2to1/11.png"",""time"":1103},{""stimulus"":""img/2to1/12.png"",""time"":1203}]","[]"
"image-keyboard-response","52","153504","0.0-5.0-1.24","63f791692fa22034babcdda1","bdp_cybrbll","Sat Mar 25 2023 19:46:22 GMT-0400 (Eastern Daylight Time)","505695","1","3","","","","observe","","null","","img/1to3/1.png","null","201","245","0.5","0.5","1","3","",""
"animation","53","154807","0.0-5.0-2.24","63f791692fa22034babcdda1","bdp_cybrbll","Sat Mar 25 2023 19:46:22 GMT-0400 (Eastern Daylight Time)","505695","1","3","","","","","","","","","","201","","","","1","3","[{""stimulus"":""img/1to3/1.png"",""time"":109},{""stimulus"":""img/1to3/2.png"",""time"":204},{""stimulus"":""img/1to3/3.png"",""time"":306},{""stimulus"":""img/1to3/4.png"",""time"":402},{""stimulus"":""img/1to3/5.png"",""time"":502},{""stimulus"":""img/1to3/6.png"",""time"":602},{""stimulus"":""img/1to3/7.png"",""time"":702},{""stimulus"":""img/1to3/8.png"",""time"":801},{""stimulus"":""img/1to3/9.png"",""time"":896},{""stimulus"":""img/1to3/10.png"",""time"":1003},{""stimulus"":""img/1to3/11.png"",""time"":1103},{""stimulus"":""img/1to3/12.png"",""time"":1202}]","[]"
"image-keyboard-response","54","155184","0.0-5.0-1.25","63f791692fa22034babcdda1","bdp_cybrbll","Sat Mar 25 2023 19:46:22 GMT-0400 (Eastern Daylight Time)","505695","1","3","","","","observe","","null","","img/3to2/1.png","null","200","365","0.5","0.5","3","2","",""
"animation","55","156477","0.0-5.0-2.25","63f791692fa22034babcdda1","bdp_cybrbll","Sat Mar 25 2023 19:46:22 GMT-0400 (Eastern Daylight Time)","505695","1","3","","","","","","","","","","200","","","","3","2","[{""stimulus"":""img/3to2/1.png"",""time"":110},{""stimulus"":""img/3to2/2.png"",""time"":200},{""stimulus"":""img/3to2/3.png"",""time"":308},{""stimulus"":""img/3to2/4.png"",""time"":409},{""stimulus"":""img/3to2/5.png"",""time"":507},{""stimulus"":""img/3to2/6.png"",""time"":608},{""stimulus"":""img/3to2/7.png"",""time"":707},{""stimulus"":""img/3to2/8.png"",""time"":808},{""stimulus"":""img/3to2/9.png"",""time"":892},{""stimulus"":""img/3to2/10.png"",""time"":992},{""stimulus"":""img/3to2/11.png"",""time"":1091},{""stimulus"":""img/3to2/12.png"",""time"":1197}]","[]"
"image-keyboard-response","56","156533","0.0-5.0-1.26","63f791692fa22034babcdda1","bdp_cybrbll","Sat Mar 25 2023 19:46:22 GMT-0400 (Eastern Daylight Time)","505695","1","3","","","","choice","","54","","img/2to1/1.png","2","199","261","0.5","0.5","2","3","",""
"animation","57","157830","0.0-5.0-2.26","63f791692fa22034babcdda1","bdp_cybrbll","Sat Mar 25 2023 19:46:22 GMT-0400 (Eastern Daylight Time)","505695","1","3","","","","","","","","","","199","","","","2","3","[{""stimulus"":""img/2to3/1.png"",""time"":109},{""stimulus"":""img/2to3/2.png"",""time"":211},{""stimulus"":""img/2to3/3.png"",""time"":311},{""stimulus"":""img/2to3/4.png"",""time"":411},{""stimulus"":""img/2to3/5.png"",""time"":512},{""stimulus"":""img/2to3/6.png"",""time"":596},{""stimulus"":""img/2to3/7.png"",""time"":696},{""stimulus"":""img/2to3/8.png"",""time"":796},{""stimulus"":""img/2to3/9.png"",""time"":897},{""stimulus"":""img/2to3/10.png"",""time"":995},{""stimulus"":""img/2to3/11.png"",""time"":1096},{""stimulus"":""img/2to3/12.png"",""time"":1197}]","[]"
"image-keyboard-response","58","158619","0.0-5.0-1.27","63f791692fa22034babcdda1","bdp_cybrbll","Sat Mar 25 2023 19:46:22 GMT-0400 (Eastern Daylight Time)","505695","1","3","","","","observe","","null","","img/3to2/1.png","null","198","776","0.5","0.5","3","2","",""
"animation","59","159908","0.0-5.0-2.27","63f791692fa22034babcdda1","bdp_cybrbll","Sat Mar 25 2023 19:46:22 GMT-0400 (Eastern Daylight Time)","505695","1","3","","","","","","","","","","198","","","","3","2","[{""stimulus"":""img/3to2/1.png"",""time"":110},{""stimulus"":""img/3to2/2.png"",""time"":210},{""stimulus"":""img/3to2/3.png"",""time"":310},{""stimulus"":""img/3to2/4.png"",""time"":409},{""stimulus"":""img/3to2/5.png"",""time"":509},{""stimulus"":""img/3to2/6.png"",""time"":610},{""stimulus"":""img/3to2/7.png"",""time"":693},{""stimulus"":""img/3to2/8.png"",""time"":795},{""stimulus"":""img/3to2/9.png"",""time"":895},{""stimulus"":""img/3to2/10.png"",""time"":997},{""stimulus"":""img/3to2/11.png"",""time"":1094},{""stimulus"":""img/3to2/12.png"",""time"":1193}]","[]"
"image-keyboard-response","60","159960","0.0-5.0-1.28","63f791692fa22034babcdda1","bdp_cybrbll","Sat Mar 25 2023 19:46:22 GMT-0400 (Eastern Daylight Time)","505695","1","3","","","","choice","","51","","img/2to1/1.png","2","197","878","0.5","0.5","2","3","",""
"animation","61","161251","0.0-5.0-2.28","63f791692fa22034babcdda1","bdp_cybrbll","Sat Mar 25 2023 19:46:22 GMT-0400 (Eastern Daylight Time)","505695","1","3","","","","","","","","","","197","","","","2","3","[{""stimulus"":""img/2to3/1.png"",""time"":121},{""stimulus"":""img/2to3/2.png"",""time"":206},{""stimulus"":""img/2to3/3.png"",""time"":304},{""stimulus"":""img/2to3/4.png"",""time"":403},{""stimulus"":""img/2to3/5.png"",""time"":503},{""stimulus"":""img/2to3/6.png"",""time"":602},{""stimulus"":""img/2to3/7.png"",""time"":699},{""stimulus"":""img/2to3/8.png"",""time"":804},{""stimulus"":""img/2to3/9.png"",""time"":906},{""stimulus"":""img/2to3/10.png"",""time"":1006},{""stimulus"":""img/2to3/11.png"",""time"":1108},{""stimulus"":""img/2to3/12.png"",""time"":1189}]","[]"
"image-keyboard-response","62","161482","0.0-5.0-1.29","63f791692fa22034babcdda1","bdp_cybrbll","Sat Mar 25 2023 19:46:22 GMT-0400 (Eastern Daylight Time)","505695","1","3","","","","observe","","null","","img/3to2/1.png","null","196","224","0.5","0.5","3","1","",""
"animation","63","162783","0.0-5.0-2.29","63f791692fa22034babcdda1","bdp_cybrbll","Sat Mar 25 2023 19:46:22 GMT-0400 (Eastern Daylight Time)","505695","1","3","","","","","","","","","","196","","","","3","1","[{""stimulus"":""img/3to1/1.png"",""time"":100},{""stimulus"":""img/3to1/2.png"",""time"":200},{""stimulus"":""img/3to1/3.png"",""time"":301},{""stimulus"":""img/3to1/4.png"",""time"":401},{""stimulus"":""img/3to1/5.png"",""time"":499},{""stimulus"":""img/3to1/6.png"",""time"":599},{""stimulus"":""img/3to1/7.png"",""time"":699},{""stimulus"":""img/3to1/8.png"",""time"":800},{""stimulus"":""img/3to1/9.png"",""time"":905},{""stimulus"":""img/3to1/10.png"",""time"":1002},{""stimulus"":""img/3to1/11.png"",""time"":1103},{""stimulus"":""img/3to1/12.png"",""time"":1204}]","[]"
"image-keyboard-response","64","163244","0.0-5.0-1.30","63f791692fa22034babcdda1","bdp_cybrbll","Sat Mar 25 2023 19:46:22 GMT-0400 (Eastern Daylight Time)","505695","1","3","","","","observe","","null","","img/1to3/1.png","null","195","449","0.5","0.5","1","3","",""
"animation","65","164537","0.0-5.0-2.30","63f791692fa22034babcdda1","bdp_cybrbll","Sat Mar 25 2023 19:46:22 GMT-0400 (Eastern Daylight Time)","505695","1","3","","","","","","","","","","195","","","","1","3","[{""stimulus"":""img/1to3/1.png"",""time"":110},{""stimulus"":""img/1to3/2.png"",""time"":207},{""stimulus"":""img/1to3/3.png"",""time"":308},{""stimulus"":""img/1to3/4.png"",""time"":406},{""stimulus"":""img/1to3/5.png"",""time"":505},{""stimulus"":""img/1to3/6.png"",""time"":604},{""stimulus"":""img/1to3/7.png"",""time"":705},{""stimulus"":""img/1to3/8.png"",""time"":806},{""stimulus"":""img/1to3/9.png"",""time"":905},{""stimulus"":""img/1to3/10.png"",""time"":1005},{""stimulus"":""img/1to3/11.png"",""time"":1090},{""stimulus"":""img/1to3/12.png"",""time"":1191}]","[]"
"image-keyboard-response","66","165100","0.0-5.0-1.31","63f791692fa22034babcdda1","bdp_cybrbll","Sat Mar 25 2023 19:46:22 GMT-0400 (Eastern Daylight Time)","505695","1","3","","","","observe","","null","","img/3to2/1.png","null","194","549","0.5","0.5","3","2","",""
"animation","67","166400","0.0-5.0-2.31","63f791692fa22034babcdda1","bdp_cybrbll","Sat Mar 25 2023 19:46:22 GMT-0400 (Eastern Daylight Time)","505695","1","3","","","","","","","","","","194","","","","3","2","[{""stimulus"":""img/3to2/1.png"",""time"":112},{""stimulus"":""img/3to2/2.png"",""time"":202},{""stimulus"":""img/3to2/3.png"",""time"":298},{""stimulus"":""img/3to2/4.png"",""time"":402},{""stimulus"":""img/3to2/5.png"",""time"":503},{""stimulus"":""img/3to2/6.png"",""time"":605},{""stimulus"":""img/3to2/7.png"",""time"":703},{""stimulus"":""img/3to2/8.png"",""time"":802},{""stimulus"":""img/3to2/9.png"",""time"":901},{""stimulus"":""img/3to2/10.png"",""time"":1002},{""stimulus"":""img/3to2/11.png"",""time"":1103},{""stimulus"":""img/3to2/12.png"",""time"":1203}]","[]"
"image-keyboard-response","68","167130","0.0-5.0-1.32","63f791692fa22034babcdda1","bdp_cybrbll","Sat Mar 25 2023 19:46:22 GMT-0400 (Eastern Daylight Time)","505695","1","3","","","","choice","","729","","img/2to1/1.png","1","193","409","0.5","0.5","2","1","",""
"animation","69","168423","0.0-5.0-2.32","63f791692fa22034babcdda1","bdp_cybrbll","Sat Mar 25 2023 19:46:22 GMT-0400 (Eastern Daylight Time)","505695","1","3","","","","","","","","","","193","","","","2","1","[{""stimulus"":""img/2to1/1.png"",""time"":105},{""stimulus"":""img/2to1/2.png"",""time"":207},{""stimulus"":""img/2to1/3.png"",""time"":308},{""stimulus"":""img/2to1/4.png"",""time"":409},{""stimulus"":""img/2to1/5.png"",""time"":508},{""stimulus"":""img/2to1/6.png"",""time"":608},{""stimulus"":""img/2to1/7.png"",""time"":710},{""stimulus"":""img/2to1/8.png"",""time"":795},{""stimulus"":""img/2to1/9.png"",""time"":892},{""stimulus"":""img/2to1/10.png"",""time"":992},{""stimulus"":""img/2to1/11.png"",""time"":1093},{""stimulus"":""img/2to1/12.png"",""time"":1192}]","[]"
"image-keyboard-response","70","168666","0.0-5.0-1.33","63f791692fa22034babcdda1","bdp_cybrbll","Sat Mar 25 2023 19:46:22 GMT-0400 (Eastern Daylight Time)","505695","1","3","","","","observe","","null","","img/1to3/1.png","null","192","236","0.5","0.5","1","2","",""
"animation","71","169960","0.0-5.0-2.33","63f791692fa22034babcdda1","bdp_cybrbll","Sat Mar 25 2023 19:46:22 GMT-0400 (Eastern Daylight Time)","505695","1","3","","","","","","","","","","192","","","","1","2","[{""stimulus"":""img/1to2/1.png"",""time"":109},{""stimulus"":""img/1to2/2.png"",""time"":207},{""stimulus"":""img/1to2/3.png"",""time"":308},{""stimulus"":""img/1to2/4.png"",""time"":406},{""stimulus"":""img/1to2/5.png"",""time"":506},{""stimulus"":""img/1to2/6.png"",""time"":606},{""stimulus"":""img/1to2/7.png"",""time"":705},{""stimulus"":""img/1to2/8.png"",""time"":806},{""stimulus"":""img/1to2/9.png"",""time"":906},{""stimulus"":""img/1to2/10.png"",""time"":1005},{""stimulus"":""img/1to2/11.png"",""time"":1090},{""stimulus"":""img/1to2/12.png"",""time"":1190}]","[]"
"image-keyboard-response","72","170224","0.0-5.0-1.34","63f791692fa22034babcdda1","bdp_cybrbll","Sat Mar 25 2023 19:46:22 GMT-0400 (Eastern Daylight Time)","505695","1","3","","","","choice","","263","","img/2to1/1.png","1","191","526","0.5","0.5","2","1","",""
"animation","73","171526","0.0-5.0-2.34","63f791692fa22034babcdda1","bdp_cybrbll","Sat Mar 25 2023 19:46:22 GMT-0400 (Eastern Daylight Time)","505695","1","3","","","","","","","","","","191","","","","2","1","[{""stimulus"":""img/2to1/1.png"",""time"":112},{""stimulus"":""img/2to1/2.png"",""time"":200},{""stimulus"":""img/2to1/3.png"",""time"":302},{""stimulus"":""img/2to1/4.png"",""time"":400},{""stimulus"":""img/2to1/5.png"",""time"":498},{""stimulus"":""img/2to1/6.png"",""time"":599},{""stimulus"":""img/2to1/7.png"",""time"":699},{""stimulus"":""img/2to1/8.png"",""time"":801},{""stimulus"":""img/2to1/9.png"",""time"":902},{""stimulus"":""img/2to1/10.png"",""time"":1001},{""stimulus"":""img/2to1/11.png"",""time"":1100},{""stimulus"":""img/2to1/12.png"",""time"":1203}]","[]"
"image-keyboard-response","74","172016","0.0-5.0-1.35","63f791692fa22034babcdda1","bdp_cybrbll","Sat Mar 25 2023 19:46:22 GMT-0400 (Eastern Daylight Time)","505695","1","3","","","","observe","","null","","img/1to3/1.png","null","190","484","0.5","0.5","1","3","",""
"animation","75","173310","0.0-5.0-2.35","63f791692fa22034babcdda1","bdp_cybrbll","Sat Mar 25 2023 19:46:22 GMT-0400 (Eastern Daylight Time)","505695","1","3","","","","","","","","","","190","","","","1","3","[{""stimulus"":""img/1to3/1.png"",""time"":110},{""stimulus"":""img/1to3/2.png"",""time"":211},{""stimulus"":""img/1to3/3.png"",""time"":311},{""stimulus"":""img/1to3/4.png"",""time"":412},{""stimulus"":""img/1to3/5.png"",""time"":511},{""stimulus"":""img/1to3/6.png"",""time"":596},{""stimulus"":""img/1to3/7.png"",""time"":695},{""stimulus"":""img/1to3/8.png"",""time"":794},{""stimulus"":""img/1to3/9.png"",""time"":894},{""stimulus"":""img/1to3/10.png"",""time"":994},{""stimulus"":""img/1to3/11.png"",""time"":1093},{""stimulus"":""img/1to3/12.png"",""time"":1193}]","[]"
"image-keyboard-response","76","174001","0.0-5.0-1.36","63f791692fa22034babcdda1","bdp_cybrbll","Sat Mar 25 2023 19:46:22 GMT-0400 (Eastern Daylight Time)","505695","1","3","","","","observe","","null","","img/3to2/1.png","null","189","682","0.5","0.5","3","1","",""
"animation","77","175294","0.0-5.0-2.36","63f791692fa22034babcdda1","bdp_cybrbll","Sat Mar 25 2023 19:46:22 GMT-0400 (Eastern Daylight Time)","505695","1","3","","","","","","","","","","189","","","","3","1","[{""stimulus"":""img/3to1/1.png"",""time"":109},{""stimulus"":""img/3to1/2.png"",""time"":211},{""stimulus"":""img/3to1/3.png"",""time"":311},{""stimulus"":""img/3to1/4.png"",""time"":405},{""stimulus"":""img/3to1/5.png"",""time"":508},{""stimulus"":""img/3to1/6.png"",""time"":608},{""stimulus"":""img/3to1/7.png"",""time"":709},{""stimulus"":""img/3to1/8.png"",""time"":794},{""stimulus"":""img/3to1/9.png"",""time"":906},{""stimulus"":""img/3to1/10.png"",""time"":990},{""stimulus"":""img/3to1/11.png"",""time"":1092},{""stimulus"":""img/3to1/12.png"",""time"":1193}]","[]"
"image-keyboard-response","78","175779","0.0-5.0-1.37","63f791692fa22034babcdda1","bdp_cybrbll","Sat Mar 25 2023 19:46:22 GMT-0400 (Eastern Daylight Time)","505695","1","3","","","","observe","","null","","img/1to3/1.png","null","188","480","0.5","0.5","1","2","",""
"animation","79","177081","0.0-5.0-2.37","63f791692fa22034babcdda1","bdp_cybrbll","Sat Mar 25 2023 19:46:22 GMT-0400 (Eastern Daylight Time)","505695","1","3","","","","","","","","","","188","","","","1","2","[{""stimulus"":""img/1to2/1.png"",""time"":103},{""stimulus"":""img/1to2/2.png"",""time"":201},{""stimulus"":""img/1to2/3.png"",""time"":301},{""stimulus"":""img/1to2/4.png"",""time"":400},{""stimulus"":""img/1to2/5.png"",""time"":501},{""stimulus"":""img/1to2/6.png"",""time"":604},{""stimulus"":""img/1to2/7.png"",""time"":701},{""stimulus"":""img/1to2/8.png"",""time"":800},{""stimulus"":""img/1to2/9.png"",""time"":900},{""stimulus"":""img/1to2/10.png"",""time"":1000},{""stimulus"":""img/1to2/11.png"",""time"":1100},{""stimulus"":""img/1to2/12.png"",""time"":1200}]","[]"
"image-keyboard-response","80","177097","0.0-5.0-1.38","63f791692fa22034babcdda1","bdp_cybrbll","Sat Mar 25 2023 19:46:22 GMT-0400 (Eastern Daylight Time)","505695","1","3","","","","choice","","15","","img/2to1/1.png","1","187","463","0.5","0.5","2","1","",""
"animation","81","178386","0.0-5.0-2.38","63f791692fa22034babcdda1","bdp_cybrbll","Sat Mar 25 2023 19:46:22 GMT-0400 (Eastern Daylight Time)","505695","1","3","","","","","","","","","","187","","","","2","1","[{""stimulus"":""img/2to1/1.png"",""time"":115},{""stimulus"":""img/2to1/2.png"",""time"":200},{""stimulus"":""img/2to1/3.png"",""time"":307},{""stimulus"":""img/2to1/4.png"",""time"":400},{""stimulus"":""img/2to1/5.png"",""time"":498},{""stimulus"":""img/2to1/6.png"",""time"":600},{""stimulus"":""img/2to1/7.png"",""time"":701},{""stimulus"":""img/2to1/8.png"",""time"":799},{""stimulus"":""img/2to1/9.png"",""time"":895},{""stimulus"":""img/2to1/10.png"",""time"":1000},{""stimulus"":""img/2to1/11.png"",""time"":1099},{""stimulus"":""img/2to1/12.png"",""time"":1201}]","[]"
"image-keyboard-response","82","178717","0.0-5.0-1.39","63f791692fa22034babcdda1","bdp_cybrbll","Sat Mar 25 2023 19:46:22 GMT-0400 (Eastern Daylight Time)","505695","1","3","","","","observe","","null","","img/1to3/1.png","null","186","313","0.5","0.5","1","2","",""
"animation","83","180015","0.0-5.0-2.39","63f791692fa22034babcdda1","bdp_cybrbll","Sat Mar 25 2023 19:46:22 GMT-0400 (Eastern Daylight Time)","505695","1","3","","","","","","","","","","186","","","","1","2","[{""stimulus"":""img/1to2/1.png"",""time"":109},{""stimulus"":""img/1to2/2.png"",""time"":200},{""stimulus"":""img/1to2/3.png"",""time"":299},{""stimulus"":""img/1to2/4.png"",""time"":398},{""stimulus"":""img/1to2/5.png"",""time"":498},{""stimulus"":""img/1to2/6.png"",""time"":608},{""stimulus"":""img/1to2/7.png"",""time"":701},{""stimulus"":""img/1to2/8.png"",""time"":800},{""stimulus"":""img/1to2/9.png"",""time"":901},{""stimulus"":""img/1to2/10.png"",""time"":1003},{""stimulus"":""img/1to2/11.png"",""time"":1101},{""stimulus"":""img/1to2/12.png"",""time"":1200}]","[]"
"image-keyboard-response","84","180029","0.0-5.0-1.40","63f791692fa22034babcdda1","bdp_cybrbll","Sat Mar 25 2023 19:46:22 GMT-0400 (Eastern Daylight Time)","505695","1","3","","","","choice","","12","","img/2to1/1.png","1","185","534","0.5","0.5","2","1","",""
"animation","85","181332","0.0-5.0-2.40","63f791692fa22034babcdda1","bdp_cybrbll","Sat Mar 25 2023 19:46:22 GMT-0400 (Eastern Daylight Time)","505695","1","3","","","","","","","","","","185","","","","2","1","[{""stimulus"":""img/2to1/1.png"",""time"":104},{""stimulus"":""img/2to1/2.png"",""time"":207},{""stimulus"":""img/2to1/3.png"",""time"":298},{""stimulus"":""img/2to1/4.png"",""time"":406},{""stimulus"":""img/2to1/5.png"",""time"":507},{""stimulus"":""img/2to1/6.png"",""time"":606},{""stimulus"":""img/2to1/7.png"",""time"":706},{""stimulus"":""img/2to1/8.png"",""time"":808},{""stimulus"":""img/2to1/9.png"",""time"":906},{""stimulus"":""img/2to1/10.png"",""time"":1002},{""stimulus"":""img/2to1/11.png"",""time"":1106},{""stimulus"":""img/2to1/12.png"",""time"":1189}]","[]"
"image-keyboard-response","86","182012","0.0-5.0-1.41","63f791692fa22034babcdda1","bdp_cybrbll","Sat Mar 25 2023 19:46:22 GMT-0400 (Eastern Daylight Time)","505695","1","3","","","","observe","","null","","img/1to3/1.png","null","184","666","0.5","0.5","1","3","",""
"animation","87","183304","0.0-5.0-2.41","63f791692fa22034babcdda1","bdp_cybrbll","Sat Mar 25 2023 19:46:22 GMT-0400 (Eastern Daylight Time)","505695","1","3","","","","","","","","","","184","","","","1","3","[{""stimulus"":""img/1to3/1.png"",""time"":110},{""stimulus"":""img/1to3/2.png"",""time"":209},{""stimulus"":""img/1to3/3.png"",""time"":306},{""stimulus"":""img/1to3/4.png"",""time"":408},{""stimulus"":""img/1to3/5.png"",""time"":510},{""stimulus"":""img/1to3/6.png"",""time"":609},{""stimulus"":""img/1to3/7.png"",""time"":708},{""stimulus"":""img/1to3/8.png"",""time"":793},{""stimulus"":""img/1to3/9.png"",""time"":892},{""stimulus"":""img/1to3/10.png"",""time"":994},{""stimulus"":""img/1to3/11.png"",""time"":1091},{""stimulus"":""img/1to3/12.png"",""time"":1191}]","[]"
"image-keyboard-response","88","183931","0.0-5.0-1.42","63f791692fa22034babcdda1","bdp_cybrbll","Sat Mar 25 2023 19:46:22 GMT-0400 (Eastern Daylight Time)","505695","1","3","","","","observe","","null","","img/3to2/1.png","null","183","618","0.5","0.5","3","1","",""
"animation","89","185222","0.0-5.0-2.42","63f791692fa22034babcdda1","bdp_cybrbll","Sat Mar 25 2023 19:46:22 GMT-0400 (Eastern Daylight Time)","505695","1","3","","","","","","","","","","183","","","","3","1","[{""stimulus"":""img/3to1/1.png"",""time"":110},{""stimulus"":""img/3to1/2.png"",""time"":207},{""stimulus"":""img/3to1/3.png"",""time"":310},{""stimulus"":""img/3to1/4.png"",""time"":407},{""stimulus"":""img/3to1/5.png"",""time"":508},{""stimulus"":""img/3to1/6.png"",""time"":610},{""stimulus"":""img/3to1/7.png"",""time"":707},{""stimulus"":""img/3to1/8.png"",""time"":807},{""stimulus"":""img/3to1/9.png"",""time"":892},{""stimulus"":""img/3to1/10.png"",""time"":992},{""stimulus"":""img/3to1/11.png"",""time"":1091},{""stimulus"":""img/3to1/12.png"",""time"":1191}]","[]"
"image-keyboard-response","90","186918","0.0-5.0-1.43","63f791692fa22034babcdda1","bdp_cybrbll","Sat Mar 25 2023 19:46:22 GMT-0400 (Eastern Daylight Time)","505695","1","3","","","","observe","","null","","img/1to3/1.png","null","182","1685","0.5","0.5","1","2","",""
"animation","91","188209","0.0-5.0-2.43","63f791692fa22034babcdda1","bdp_cybrbll","Sat Mar 25 2023 19:46:22 GMT-0400 (Eastern Daylight Time)","505695","1","3","","","","","","","","","","182","","","","1","2","[{""stimulus"":""img/1to2/1.png"",""time"":110},{""stimulus"":""img/1to2/2.png"",""time"":207},{""stimulus"":""img/1to2/3.png"",""time"":308},{""stimulus"":""img/1to2/4.png"",""time"":406},{""stimulus"":""img/1to2/5.png"",""time"":508},{""stimulus"":""img/1to2/6.png"",""time"":607},{""stimulus"":""img/1to2/7.png"",""time"":706},{""stimulus"":""img/1to2/8.png"",""time"":806},{""stimulus"":""img/1to2/9.png"",""time"":905},{""stimulus"":""img/1to2/10.png"",""time"":994},{""stimulus"":""img/1to2/11.png"",""time"":1093},{""stimulus"":""img/1to2/12.png"",""time"":1196}]","[]"
"image-keyboard-response","92","188648","0.0-5.0-1.44","63f791692fa22034babcdda1","bdp_cybrbll","Sat Mar 25 2023 19:46:22 GMT-0400 (Eastern Daylight Time)","505695","1","3","","","","choice","","437","","img/2to1/1.png","1","181","266","0.5","0.5","2","1","",""
"animation","93","189943","0.0-5.0-2.44","63f791692fa22034babcdda1","bdp_cybrbll","Sat Mar 25 2023 19:46:22 GMT-0400 (Eastern Daylight Time)","505695","1","3","","","","","","","","","","181","","","","2","1","[{""stimulus"":""img/2to1/1.png"",""time"":110},{""stimulus"":""img/2to1/2.png"",""time"":211},{""stimulus"":""img/2to1/3.png"",""time"":311},{""stimulus"":""img/2to1/4.png"",""time"":410},{""stimulus"":""img/2to1/5.png"",""time"":511},{""stimulus"":""img/2to1/6.png"",""time"":606},{""stimulus"":""img/2to1/7.png"",""time"":695},{""stimulus"":""img/2to1/8.png"",""time"":796},{""stimulus"":""img/2to1/9.png"",""time"":896},{""stimulus"":""img/2to1/10.png"",""time"":995},{""stimulus"":""img/2to1/11.png"",""time"":1096},{""stimulus"":""img/2to1/12.png"",""time"":1195}]","[]"
"image-keyboard-response","94","190294","0.0-5.0-1.45","63f791692fa22034babcdda1","bdp_cybrbll","Sat Mar 25 2023 19:46:22 GMT-0400 (Eastern Daylight Time)","505695","1","3","","","","observe","","null","","img/1to3/1.png","null","180","339","0.5","0.5","1","3","",""
"animation","95","191595","0.0-5.0-2.45","63f791692fa22034babcdda1","bdp_cybrbll","Sat Mar 25 2023 19:46:22 GMT-0400 (Eastern Daylight Time)","505695","1","3","","","","","","","","","","180","","","","1","3","[{""stimulus"":""img/1to3/1.png"",""time"":119},{""stimulus"":""img/1to3/2.png"",""time"":202},{""stimulus"":""img/1to3/3.png"",""time"":300},{""stimulus"":""img/1to3/4.png"",""time"":399},{""stimulus"":""img/1to3/5.png"",""time"":499},{""stimulus"":""img/1to3/6.png"",""time"":599},{""stimulus"":""img/1to3/7.png"",""time"":699},{""stimulus"":""img/1to3/8.png"",""time"":800},{""stimulus"":""img/1to3/9.png"",""time"":901},{""stimulus"":""img/1to3/10.png"",""time"":1001},{""stimulus"":""img/1to3/11.png"",""time"":1091},{""stimulus"":""img/1to3/12.png"",""time"":1200}]","[]"
"image-keyboard-response","96","192344","0.0-5.0-1.46","63f791692fa22034babcdda1","bdp_cybrbll","Sat Mar 25 2023 19:46:22 GMT-0400 (Eastern Daylight Time)","505695","1","3","","","","observe","","null","","img/3to2/1.png","null","179","736","0.5","0.5","3","2","",""
"animation","97","193645","0.0-5.0-2.46","63f791692fa22034babcdda1","bdp_cybrbll","Sat Mar 25 2023 19:46:22 GMT-0400 (Eastern Daylight Time)","505695","1","3","","","","","","","","","","179","","","","3","2","[{""stimulus"":""img/3to2/1.png"",""time"":101},{""stimulus"":""img/3to2/2.png"",""time"":202},{""stimulus"":""img/3to2/3.png"",""time"":304},{""stimulus"":""img/3to2/4.png"",""time"":402},{""stimulus"":""img/3to2/5.png"",""time"":502},{""stimulus"":""img/3to2/6.png"",""time"":598},{""stimulus"":""img/3to2/7.png"",""time"":702},{""stimulus"":""img/3to2/8.png"",""time"":802},{""stimulus"":""img/3to2/9.png"",""time"":903},{""stimulus"":""img/3to2/10.png"",""time"":1003},{""stimulus"":""img/3to2/11.png"",""time"":1104},{""stimulus"":""img/3to2/12.png"",""time"":1202}]","[]"
"image-keyboard-response","98","194205","0.0-5.0-1.47","63f791692fa22034babcdda1","bdp_cybrbll","Sat Mar 25 2023 19:46:22 GMT-0400 (Eastern Daylight Time)","505695","1","3","","","","choice","","560","","img/2to1/1.png","2","178","368","0.5","0.5","2","3","",""
"animation","99","195499","0.0-5.0-2.47","63f791692fa22034babcdda1","bdp_cybrbll","Sat Mar 25 2023 19:46:22 GMT-0400 (Eastern Daylight Time)","505695","1","3","","","","","","","","","","178","","","","2","3","[{""stimulus"":""img/2to3/1.png"",""time"":107},{""stimulus"":""img/2to3/2.png"",""time"":210},{""stimulus"":""img/2to3/3.png"",""time"":305},{""stimulus"":""img/2to3/4.png"",""time"":407},{""stimulus"":""img/2to3/5.png"",""time"":508},{""stimulus"":""img/2to3/6.png"",""time"":609},{""stimulus"":""img/2to3/7.png"",""time"":698},{""stimulus"":""img/2to3/8.png"",""time"":793},{""stimulus"":""img/2to3/9.png"",""time"":894},{""stimulus"":""img/2to3/10.png"",""time"":996},{""stimulus"":""img/2to3/11.png"",""time"":1092},{""stimulus"":""img/2to3/12.png"",""time"":1199}]","[]"
"image-keyboard-response","100","195874","0.0-5.0-1.48","63f791692fa22034babcdda1","bdp_cybrbll","Sat Mar 25 2023 19:46:22 GMT-0400 (Eastern Daylight Time)","505695","1","3","","","","observe","","null","","img/3to2/1.png","null","177","363","0.5","0.5","3","1","",""
"animation","101","197166","0.0-5.0-2.48","63f791692fa22034babcdda1","bdp_cybrbll","Sat Mar 25 2023 19:46:22 GMT-0400 (Eastern Daylight Time)","505695","1","3","","","","","","","","","","177","","","","3","1","[{""stimulus"":""img/3to1/1.png"",""time"":109},{""stimulus"":""img/3to1/2.png"",""time"":210},{""stimulus"":""img/3to1/3.png"",""time"":309},{""stimulus"":""img/3to1/4.png"",""time"":409},{""stimulus"":""img/3to1/5.png"",""time"":499},{""stimulus"":""img/3to1/6.png"",""time"":607},{""stimulus"":""img/3to1/7.png"",""time"":708},{""stimulus"":""img/3to1/8.png"",""time"":808},{""stimulus"":""img/3to1/9.png"",""time"":892},{""stimulus"":""img/3to1/10.png"",""time"":992},{""stimulus"":""img/3to1/11.png"",""time"":1091},{""stimulus"":""img/3to1/12.png"",""time"":1191}]","[]"
"image-keyboard-response","102","198037","0.0-5.0-1.49","63f791692fa22034babcdda1","bdp_cybrbll","Sat Mar 25 2023 19:46:22 GMT-0400 (Eastern Daylight Time)","505695","1","3","","","","observe","","null","","img/1to3/1.png","null","176","862","0.5","0.5","1","3","",""
"animation","103","199338","0.0-5.0-2.49","63f791692fa22034babcdda1","bdp_cybrbll","Sat Mar 25 2023 19:46:22 GMT-0400 (Eastern Daylight Time)","505695","1","3","","","","","","","","","","176","","","","1","3","[{""stimulus"":""img/1to3/1.png"",""time"":110},{""stimulus"":""img/1to3/2.png"",""time"":200},{""stimulus"":""img/1to3/3.png"",""time"":301},{""stimulus"":""img/1to3/4.png"",""time"":399},{""stimulus"":""img/1to3/5.png"",""time"":501},{""stimulus"":""img/1to3/6.png"",""time"":598},{""stimulus"":""img/1to3/7.png"",""time"":697},{""stimulus"":""img/1to3/8.png"",""time"":799},{""stimulus"":""img/1to3/9.png"",""time"":897},{""stimulus"":""img/1to3/10.png"",""time"":999},{""stimulus"":""img/1to3/11.png"",""time"":1099},{""stimulus"":""img/1to3/12.png"",""time"":1200}]","[]"
"image-keyboard-response","104","199563","0.0-5.0-1.50","63f791692fa22034babcdda1","bdp_cybrbll","Sat Mar 25 2023 19:46:22 GMT-0400 (Eastern Daylight Time)","505695","1","3","","","","observe","","null","","img/3to2/1.png","null","175","215","0.5","0.5","3","2","",""
"animation","105","200854","0.0-5.0-2.50","63f791692fa22034babcdda1","bdp_cybrbll","Sat Mar 25 2023 19:46:22 GMT-0400 (Eastern Daylight Time)","505695","1","3","","","","","","","","","","175","","","","3","2","[{""stimulus"":""img/3to2/1.png"",""time"":109},{""stimulus"":""img/3to2/2.png"",""time"":207},{""stimulus"":""img/3to2/3.png"",""time"":308},{""stimulus"":""img/3to2/4.png"",""time"":408},{""stimulus"":""img/3to2/5.png"",""time"":508},{""stimulus"":""img/3to2/6.png"",""time"":607},{""stimulus"":""img/3to2/7.png"",""time"":707},{""stimulus"":""img/3to2/8.png"",""time"":810},{""stimulus"":""img/3to2/9.png"",""time"":906},{""stimulus"":""img/3to2/10.png"",""time"":991},{""stimulus"":""img/3to2/11.png"",""time"":1091},{""stimulus"":""img/3to2/12.png"",""time"":1196}]","[]"
"image-keyboard-response","106","201225","0.0-5.0-1.51","63f791692fa22034babcdda1","bdp_cybrbll","Sat Mar 25 2023 19:46:22 GMT-0400 (Eastern Daylight Time)","505695","1","3","","","","choice","","370","","img/2to1/1.png","1","174","436","0.5","0.5","2","1","",""
"animation","107","202523","0.0-5.0-2.51","63f791692fa22034babcdda1","bdp_cybrbll","Sat Mar 25 2023 19:46:22 GMT-0400 (Eastern Daylight Time)","505695","1","3","","","","","","","","","","174","","","","2","1","[{""stimulus"":""img/2to1/1.png"",""time"":102},{""stimulus"":""img/2to1/2.png"",""time"":213},{""stimulus"":""img/2to1/3.png"",""time"":298},{""stimulus"":""img/2to1/4.png"",""time"":411},{""stimulus"":""img/2to1/5.png"",""time"":507},{""stimulus"":""img/2to1/6.png"",""time"":596},{""stimulus"":""img/2to1/7.png"",""time"":696},{""stimulus"":""img/2to1/8.png"",""time"":797},{""stimulus"":""img/2to1/9.png"",""time"":897},{""stimulus"":""img/2to1/10.png"",""time"":997},{""stimulus"":""img/2to1/11.png"",""time"":1099},{""stimulus"":""img/2to1/12.png"",""time"":1199}]","[]"
"image-keyboard-response","108","203104","0.0-5.0-1.52","63f791692fa22034babcdda1","bdp_cybrbll","Sat Mar 25 2023 19:46:22 GMT-0400 (Eastern Daylight Time)","505695","1","3","","","","observe","","null","","img/1to3/1.png","null","173","568","0.5","0.5","1","3","",""
"animation","109","204394","0.0-5.0-2.52","63f791692fa22034babcdda1","bdp_cybrbll","Sat Mar 25 2023 19:46:22 GMT-0400 (Eastern Daylight Time)","505695","1","3","","","","","","","","","","173","","","","1","3","[{""stimulus"":""img/1to3/1.png"",""time"":110},{""stimulus"":""img/1to3/2.png"",""time"":204},{""stimulus"":""img/1to3/3.png"",""time"":298},{""stimulus"":""img/1to3/4.png"",""time"":404},{""stimulus"":""img/1to3/5.png"",""time"":506},{""stimulus"":""img/1to3/6.png"",""time"":603},{""stimulus"":""img/1to3/7.png"",""time"":704},{""stimulus"":""img/1to3/8.png"",""time"":803},{""stimulus"":""img/1to3/9.png"",""time"":904},{""stimulus"":""img/1to3/10.png"",""time"":1003},{""stimulus"":""img/1to3/11.png"",""time"":1104},{""stimulus"":""img/1to3/12.png"",""time"":1204}]","[]"
"image-keyboard-response","110","204585","0.0-5.0-1.53","63f791692fa22034babcdda1","bdp_cybrbll","Sat Mar 25 2023 19:46:22 GMT-0400 (Eastern Daylight Time)","505695","1","3","","","","observe","","null","","img/3to2/1.png","null","172","180","0.5","0.5","3","2","",""
"animation","111","205876","0.0-5.0-2.53","63f791692fa22034babcdda1","bdp_cybrbll","Sat Mar 25 2023 19:46:22 GMT-0400 (Eastern Daylight Time)","505695","1","3","","","","","","","","","","172","","","","3","2","[{""stimulus"":""img/3to2/1.png"",""time"":109},{""stimulus"":""img/3to2/2.png"",""time"":207},{""stimulus"":""img/3to2/3.png"",""time"":307},{""stimulus"":""img/3to2/4.png"",""time"":406},{""stimulus"":""img/3to2/5.png"",""time"":505},{""stimulus"":""img/3to2/6.png"",""time"":604},{""stimulus"":""img/3to2/7.png"",""time"":706},{""stimulus"":""img/3to2/8.png"",""time"":794},{""stimulus"":""img/3to2/9.png"",""time"":906},{""stimulus"":""img/3to2/10.png"",""time"":1006},{""stimulus"":""img/3to2/11.png"",""time"":1090},{""stimulus"":""img/3to2/12.png"",""time"":1191}]","[]"
"image-keyboard-response","112","206328","0.0-5.0-1.54","63f791692fa22034babcdda1","bdp_cybrbll","Sat Mar 25 2023 19:46:22 GMT-0400 (Eastern Daylight Time)","505695","1","3","","","","choice","","451","","img/2to1/1.png","2","171","620","0.5","0.5","2","3","",""
"animation","113","207631","0.0-5.0-2.54","63f791692fa22034babcdda1","bdp_cybrbll","Sat Mar 25 2023 19:46:22 GMT-0400 (Eastern Daylight Time)","505695","1","3","","","","","","","","","","171","","","","2","3","[{""stimulus"":""img/2to3/1.png"",""time"":116},{""stimulus"":""img/2to3/2.png"",""time"":199},{""stimulus"":""img/2to3/3.png"",""time"":299},{""stimulus"":""img/2to3/4.png"",""time"":413},{""stimulus"":""img/2to3/5.png"",""time"":500},{""stimulus"":""img/2to3/6.png"",""time"":600},{""stimulus"":""img/2to3/7.png"",""time"":702},{""stimulus"":""img/2to3/8.png"",""time"":800},{""stimulus"":""img/2to3/9.png"",""time"":901},{""stimulus"":""img/2to3/10.png"",""time"":1002},{""stimulus"":""img/2to3/11.png"",""time"":1102},{""stimulus"":""img/2to3/12.png"",""time"":1200}]","[]"
"image-keyboard-response","114","207946","0.0-5.0-1.55","63f791692fa22034babcdda1","bdp_cybrbll","Sat Mar 25 2023 19:46:22 GMT-0400 (Eastern Daylight Time)","505695","1","3","","","","observe","","null","","img/3to2/1.png","null","170","305","0.5","0.5","3","1","",""
"animation","115","209245","0.0-5.0-2.55","63f791692fa22034babcdda1","bdp_cybrbll","Sat Mar 25 2023 19:46:22 GMT-0400 (Eastern Daylight Time)","505695","1","3","","","","","","","","","","170","","","","3","1","[{""stimulus"":""img/3to1/1.png"",""time"":113},{""stimulus"":""img/3to1/2.png"",""time"":202},{""stimulus"":""img/3to1/3.png"",""time"":298},{""stimulus"":""img/3to1/4.png"",""time"":399},{""stimulus"":""img/3to1/5.png"",""time"":501},{""stimulus"":""img/3to1/6.png"",""time"":599},{""stimulus"":""img/3to1/7.png"",""time"":700},{""stimulus"":""img/3to1/8.png"",""time"":800},{""stimulus"":""img/3to1/9.png"",""time"":900},{""stimulus"":""img/3to1/10.png"",""time"":1002},{""stimulus"":""img/3to1/11.png"",""time"":1100},{""stimulus"":""img/3to1/12.png"",""time"":1202}]","[]"
"image-keyboard-response","116","209650","0.0-5.0-1.56","63f791692fa22034babcdda1","bdp_cybrbll","Sat Mar 25 2023 19:46:22 GMT-0400 (Eastern Daylight Time)","505695","1","3","","","","observe","","null","","img/1to3/1.png","null","169","402","0.5","0.5","1","3","",""
"animation","117","210947","0.0-5.0-2.56","63f791692fa22034babcdda1","bdp_cybrbll","Sat Mar 25 2023 19:46:22 GMT-0400 (Eastern Daylight Time)","505695","1","3","","","","","","","","","","169","","","","1","3","[{""stimulus"":""img/1to3/1.png"",""time"":110},{""stimulus"":""img/1to3/2.png"",""time"":213},{""stimulus"":""img/1to3/3.png"",""time"":298},{""stimulus"":""img/1to3/4.png"",""time"":397},{""stimulus"":""img/1to3/5.png"",""time"":498},{""stimulus"":""img/1to3/6.png"",""time"":596},{""stimulus"":""img/1to3/7.png"",""time"":695},{""stimulus"":""img/1to3/8.png"",""time"":798},{""stimulus"":""img/1to3/9.png"",""time"":899},{""stimulus"":""img/1to3/10.png"",""time"":996},{""stimulus"":""img/1to3/11.png"",""time"":1096},{""stimulus"":""img/1to3/12.png"",""time"":1196}]","[]"
"image-keyboard-response","118","211345","0.0-5.0-1.57","63f791692fa22034babcdda1","bdp_cybrbll","Sat Mar 25 2023 19:46:22 GMT-0400 (Eastern Daylight Time)","505695","1","3","","","","observe","","null","","img/3to2/1.png","null","168","390","0.5","0.5","3","1","",""
"animation","119","212648","0.0-5.0-2.57","63f791692fa22034babcdda1","bdp_cybrbll","Sat Mar 25 2023 19:46:22 GMT-0400 (Eastern Daylight Time)","505695","1","3","","","","","","","","","","168","","","","3","1","[{""stimulus"":""img/3to1/1.png"",""time"":102},{""stimulus"":""img/3to1/2.png"",""time"":203},{""stimulus"":""img/3to1/3.png"",""time"":305},{""stimulus"":""img/3to1/4.png"",""time"":402},{""stimulus"":""img/3to1/5.png"",""time"":502},{""stimulus"":""img/3to1/6.png"",""time"":600},{""stimulus"":""img/3to1/7.png"",""time"":702},{""stimulus"":""img/3to1/8.png"",""time"":802},{""stimulus"":""img/3to1/9.png"",""time"":902},{""stimulus"":""img/3to1/10.png"",""time"":1005},{""stimulus"":""img/3to1/11.png"",""time"":1105},{""stimulus"":""img/3to1/12.png"",""time"":1189}]","[]"
"image-keyboard-response","120","212953","0.0-5.0-1.58","63f791692fa22034babcdda1","bdp_cybrbll","Sat Mar 25 2023 19:46:22 GMT-0400 (Eastern Daylight Time)","505695","1","3","","","","observe","","null","","img/1to3/1.png","null","167","302","0.5","0.5","1","2","",""
"animation","121","214251","0.0-5.0-2.58","63f791692fa22034babcdda1","bdp_cybrbll","Sat Mar 25 2023 19:46:22 GMT-0400 (Eastern Daylight Time)","505695","1","3","","","","","","","","","","167","","","","1","2","[{""stimulus"":""img/1to2/1.png"",""time"":112},{""stimulus"":""img/1to2/2.png"",""time"":212},{""stimulus"":""img/1to2/3.png"",""time"":311},{""stimulus"":""img/1to2/4.png"",""time"":407},{""stimulus"":""img/1to2/5.png"",""time"":496},{""stimulus"":""img/1to2/6.png"",""time"":595},{""stimulus"":""img/1to2/7.png"",""time"":695},{""stimulus"":""img/1to2/8.png"",""time"":795},{""stimulus"":""img/1to2/9.png"",""time"":898},{""stimulus"":""img/1to2/10.png"",""time"":1000},{""stimulus"":""img/1to2/11.png"",""time"":1098},{""stimulus"":""img/1to2/12.png"",""time"":1199}]","[]"
"image-keyboard-response","122","216485","0.0-5.0-1.59","63f791692fa22034babcdda1","bdp_cybrbll","Sat Mar 25 2023 19:46:22 GMT-0400 (Eastern Daylight Time)","505695","1","3","","","","choice","","2232","","img/2to1/1.png","2","166","231","0.5","0.5","2","3","",""
"animation","123","217773","0.0-5.0-2.59","63f791692fa22034babcdda1","bdp_cybrbll","Sat Mar 25 2023 19:46:22 GMT-0400 (Eastern Daylight Time)","505695","1","3","","","","","","","","","","166","","","","2","3","[{""stimulus"":""img/2to3/1.png"",""time"":100},{""stimulus"":""img/2to3/2.png"",""time"":202},{""stimulus"":""img/2to3/3.png"",""time"":303},{""stimulus"":""img/2to3/4.png"",""time"":404},{""stimulus"":""img/2to3/5.png"",""time"":503},{""stimulus"":""img/2to3/6.png"",""time"":601},{""stimulus"":""img/2to3/7.png"",""time"":701},{""stimulus"":""img/2to3/8.png"",""time"":801},{""stimulus"":""img/2to3/9.png"",""time"":906},{""stimulus"":""img/2to3/10.png"",""time"":995},{""stimulus"":""img/2to3/11.png"",""time"":1102},{""stimulus"":""img/2to3/12.png"",""time"":1204}]","[]"
"image-keyboard-response","124","218916","0.0-5.0-1.60","63f791692fa22034babcdda1","bdp_cybrbll","Sat Mar 25 2023 19:46:22 GMT-0400 (Eastern Daylight Time)","505695","1","3","","","","observe","","null","","img/3to2/1.png","null","165","1130","0.5","0.5","3","1","",""
"animation","125","220207","0.0-5.0-2.60","63f791692fa22034babcdda1","bdp_cybrbll","Sat Mar 25 2023 19:46:22 GMT-0400 (Eastern Daylight Time)","505695","1","3","","","","","","","","","","165","","","","3","1","[{""stimulus"":""img/3to1/1.png"",""time"":111},{""stimulus"":""img/3to1/2.png"",""time"":207},{""stimulus"":""img/3to1/3.png"",""time"":308},{""stimulus"":""img/3to1/4.png"",""time"":409},{""stimulus"":""img/3to1/5.png"",""time"":510},{""stimulus"":""img/3to1/6.png"",""time"":607},{""stimulus"":""img/3to1/7.png"",""time"":708},{""stimulus"":""img/3to1/8.png"",""time"":808},{""stimulus"":""img/3to1/9.png"",""time"":893},{""stimulus"":""img/3to1/10.png"",""time"":992},{""stimulus"":""img/3to1/11.png"",""time"":1092},{""stimulus"":""img/3to1/12.png"",""time"":1192}]","[]"
"image-keyboard-response","126","220973","0.0-5.0-1.61","63f791692fa22034babcdda1","bdp_cybrbll","Sat Mar 25 2023 19:46:22 GMT-0400 (Eastern Daylight Time)","505695","1","3","","","","observe","","null","","img/1to3/1.png","null","164","751","0.5","0.5","1","2","",""
"animation","127","222262","0.0-5.0-2.61","63f791692fa22034babcdda1","bdp_cybrbll","Sat Mar 25 2023 19:46:22 GMT-0400 (Eastern Daylight Time)","505695","1","3","","","","","","","","","","164","","","","1","2","[{""stimulus"":""img/1to2/1.png"",""time"":109},{""stimulus"":""img/1to2/2.png"",""time"":202},{""stimulus"":""img/1to2/3.png"",""time"":302},{""stimulus"":""img/1to2/4.png"",""time"":403},{""stimulus"":""img/1to2/5.png"",""time"":501},{""stimulus"":""img/1to2/6.png"",""time"":600},{""stimulus"":""img/1to2/7.png"",""time"":707},{""stimulus"":""img/1to2/8.png"",""time"":801},{""stimulus"":""img/1to2/9.png"",""time"":901},{""stimulus"":""img/1to2/10.png"",""time"":1006},{""stimulus"":""img/1to2/11.png"",""time"":1102},{""stimulus"":""img/1to2/12.png"",""time"":1203}]","[]"
"image-keyboard-response","128","222481","0.0-5.0-1.62","63f791692fa22034babcdda1","bdp_cybrbll","Sat Mar 25 2023 19:46:22 GMT-0400 (Eastern Daylight Time)","505695","1","3","","","","choice","","217","","img/2to1/1.png","1","163","638","0.5","0.5","2","1","",""
"animation","129","223777","0.0-5.0-2.62","63f791692fa22034babcdda1","bdp_cybrbll","Sat Mar 25 2023 19:46:22 GMT-0400 (Eastern Daylight Time)","505695","1","3","","","","","","","","","","163","","","","2","1","[{""stimulus"":""img/2to1/1.png"",""time"":109},{""stimulus"":""img/2to1/2.png"",""time"":210},{""stimulus"":""img/2to1/3.png"",""time"":310},{""stimulus"":""img/2to1/4.png"",""time"":411},{""stimulus"":""img/2to1/5.png"",""time"":498},{""stimulus"":""img/2to1/6.png"",""time"":595},{""stimulus"":""img/2to1/7.png"",""time"":696},{""stimulus"":""img/2to1/8.png"",""time"":797},{""stimulus"":""img/2to1/9.png"",""time"":898},{""stimulus"":""img/2to1/10.png"",""time"":995},{""stimulus"":""img/2to1/11.png"",""time"":1096},{""stimulus"":""img/2to1/12.png"",""time"":1197}]","[]"
"image-keyboard-response","130","224506","0.0-5.0-1.63","63f791692fa22034babcdda1","bdp_cybrbll","Sat Mar 25 2023 19:46:22 GMT-0400 (Eastern Daylight Time)","505695","1","3","","","","observe","","null","","img/1to3/1.png","null","162","714","0.5","0.5","1","2","",""
"animation","131","225797","0.0-5.0-2.63","63f791692fa22034babcdda1","bdp_cybrbll","Sat Mar 25 2023 19:46:22 GMT-0400 (Eastern Daylight Time)","505695","1","3","","","","","","","","","","162","","","","1","2","[{""stimulus"":""img/1to2/1.png"",""time"":109},{""stimulus"":""img/1to2/2.png"",""time"":206},{""stimulus"":""img/1to2/3.png"",""time"":307},{""stimulus"":""img/1to2/4.png"",""time"":405},{""stimulus"":""img/1to2/5.png"",""time"":506},{""stimulus"":""img/1to2/6.png"",""time"":605},{""stimulus"":""img/1to2/7.png"",""time"":705},{""stimulus"":""img/1to2/8.png"",""time"":802},{""stimulus"":""img/1to2/9.png"",""time"":905},{""stimulus"":""img/1to2/10.png"",""time"":1005},{""stimulus"":""img/1to2/11.png"",""time"":1104},{""stimulus"":""img/1to2/12.png"",""time"":1189}]","[]"
"image-keyboard-response","132","226073","0.0-5.0-1.64","63f791692fa22034babcdda1","bdp_cybrbll","Sat Mar 25 2023 19:46:22 GMT-0400 (Eastern Daylight Time)","505695","1","3","","","","choice","","275","","img/2to1/1.png","2","161","312","0.5","0.5","2","3","",""
"animation","133","227367","0.0-5.0-2.64","63f791692fa22034babcdda1","bdp_cybrbll","Sat Mar 25 2023 19:46:22 GMT-0400 (Eastern Daylight Time)","505695","1","3","","","","","","","","","","161","","","","2","3","[{""stimulus"":""img/2to3/1.png"",""time"":104},{""stimulus"":""img/2to3/2.png"",""time"":206},{""stimulus"":""img/2to3/3.png"",""time"":312},{""stimulus"":""img/2to3/4.png"",""time"":406},{""stimulus"":""img/2to3/5.png"",""time"":506},{""stimulus"":""img/2to3/6.png"",""time"":607},{""stimulus"":""img/2to3/7.png"",""time"":706},{""stimulus"":""img/2to3/8.png"",""time"":806},{""stimulus"":""img/2to3/9.png"",""time"":896},{""stimulus"":""img/2to3/10.png"",""time"":991},{""stimulus"":""img/2to3/11.png"",""time"":1091},{""stimulus"":""img/2to3/12.png"",""time"":1192}]","[]"
"image-keyboard-response","134","227591","0.0-5.0-1.65","63f791692fa22034babcdda1","bdp_cybrbll","Sat Mar 25 2023 19:46:22 GMT-0400 (Eastern Daylight Time)","505695","1","3","","","","observe","","null","","img/3to2/1.png","null","160","212","0.5","0.5","3","2","",""
"animation","135","228880","0.0-5.0-2.65","63f791692fa22034babcdda1","bdp_cybrbll","Sat Mar 25 2023 19:46:22 GMT-0400 (Eastern Daylight Time)","505695","1","3","","","","","","","","","","160","","","","3","2","[{""stimulus"":""img/3to2/1.png"",""time"":110},{""stimulus"":""img/3to2/2.png"",""time"":208},{""stimulus"":""img/3to2/3.png"",""time"":310},{""stimulus"":""img/3to2/4.png"",""time"":397},{""stimulus"":""img/3to2/5.png"",""time"":507},{""stimulus"":""img/3to2/6.png"",""time"":606},{""stimulus"":""img/3to2/7.png"",""time"":706},{""stimulus"":""img/3to2/8.png"",""time"":794},{""stimulus"":""img/3to2/9.png"",""time"":908},{""stimulus"":""img/3to2/10.png"",""time"":993},{""stimulus"":""img/3to2/11.png"",""time"":1092},{""stimulus"":""img/3to2/12.png"",""time"":1192}]","[]"
"image-keyboard-response","136","229256","0.0-5.0-1.66","63f791692fa22034babcdda1","bdp_cybrbll","Sat Mar 25 2023 19:46:22 GMT-0400 (Eastern Daylight Time)","505695","1","3","","","","choice","","375","","img/2to1/1.png","2","159","853","0.5","0.5","2","3","",""
"animation","137","230549","0.0-5.0-2.66","63f791692fa22034babcdda1","bdp_cybrbll","Sat Mar 25 2023 19:46:22 GMT-0400 (Eastern Daylight Time)","505695","1","3","","","","","","","","","","159","","","","2","3","[{""stimulus"":""img/2to3/1.png"",""time"":107},{""stimulus"":""img/2to3/2.png"",""time"":201},{""stimulus"":""img/2to3/3.png"",""time"":309},{""stimulus"":""img/2to3/4.png"",""time"":410},{""stimulus"":""img/2to3/5.png"",""time"":512},{""stimulus"":""img/2to3/6.png"",""time"":595},{""stimulus"":""img/2to3/7.png"",""time"":694},{""stimulus"":""img/2to3/8.png"",""time"":796},{""stimulus"":""img/2to3/9.png"",""time"":894},{""stimulus"":""img/2to3/10.png"",""time"":994},{""stimulus"":""img/2to3/11.png"",""time"":1094},{""stimulus"":""img/2to3/12.png"",""time"":1193}]","[]"
"image-keyboard-response","138","231016","0.0-5.0-1.67","63f791692fa22034babcdda1","bdp_cybrbll","Sat Mar 25 2023 19:46:22 GMT-0400 (Eastern Daylight Time)","505695","1","3","","","","observe","","null","","img/3to2/1.png","null","158","449","0.5","0.5","3","1","",""
"animation","139","232306","0.0-5.0-2.67","63f791692fa22034babcdda1","bdp_cybrbll","Sat Mar 25 2023 19:46:22 GMT-0400 (Eastern Daylight Time)","505695","1","3","","","","","","","","","","158","","","","3","1","[{""stimulus"":""img/3to1/1.png"",""time"":104},{""stimulus"":""img/3to1/2.png"",""time"":203},{""stimulus"":""img/3to1/3.png"",""time"":305},{""stimulus"":""img/3to1/4.png"",""time"":405},{""stimulus"":""img/3to1/5.png"",""time"":503},{""stimulus"":""img/3to1/6.png"",""time"":604},{""stimulus"":""img/3to1/7.png"",""time"":704},{""stimulus"":""img/3to1/8.png"",""time"":805},{""stimulus"":""img/3to1/9.png"",""time"":903},{""stimulus"":""img/3to1/10.png"",""time"":1001},{""stimulus"":""img/3to1/11.png"",""time"":1103},{""stimulus"":""img/3to1/12.png"",""time"":1202}]","[]"
"image-keyboard-response","140","232515","0.0-5.0-1.68","63f791692fa22034babcdda1","bdp_cybrbll","Sat Mar 25 2023 19:46:22 GMT-0400 (Eastern Daylight Time)","505695","1","3","","","","observe","","null","","img/1to3/1.png","null","157","194","0.5","0.5","1","3","",""
"animation","141","233804","0.0-5.0-2.68","63f791692fa22034babcdda1","bdp_cybrbll","Sat Mar 25 2023 19:46:22 GMT-0400 (Eastern Daylight Time)","505695","1","3","","","","","","","","","","157","","","","1","3","[{""stimulus"":""img/1to3/1.png"",""time"":110},{""stimulus"":""img/1to3/2.png"",""time"":206},{""stimulus"":""img/1to3/3.png"",""time"":307},{""stimulus"":""img/1to3/4.png"",""time"":405},{""stimulus"":""img/1to3/5.png"",""time"":508},{""stimulus"":""img/1to3/6.png"",""time"":606},{""stimulus"":""img/1to3/7.png"",""time"":708},{""stimulus"":""img/1to3/8.png"",""time"":806},{""stimulus"":""img/1to3/9.png"",""time"":907},{""stimulus"":""img/1to3/10.png"",""time"":1005},{""stimulus"":""img/1to3/11.png"",""time"":1104},{""stimulus"":""img/1to3/12.png"",""time"":1189}]","[]"
"image-keyboard-response","142","234045","0.0-5.0-1.69","63f791692fa22034babcdda1","bdp_cybrbll","Sat Mar 25 2023 19:46:22 GMT-0400 (Eastern Daylight Time)","505695","1","3","","","","observe","","null","","img/3to2/1.png","null","156","236","0.5","0.5","3","2","",""
"animation","143","235345","0.0-5.0-2.69","63f791692fa22034babcdda1","bdp_cybrbll","Sat Mar 25 2023 19:46:22 GMT-0400 (Eastern Daylight Time)","505695","1","3","","","","","","","","","","156","","","","3","2","[{""stimulus"":""img/3to2/1.png"",""time"":109},{""stimulus"":""img/3to2/2.png"",""time"":209},{""stimulus"":""img/3to2/3.png"",""time"":311},{""stimulus"":""img/3to2/4.png"",""time"":409},{""stimulus"":""img/3to2/5.png"",""time"":510},{""stimulus"":""img/3to2/6.png"",""time"":609},{""stimulus"":""img/3to2/7.png"",""time"":695},{""stimulus"":""img/3to2/8.png"",""time"":808},{""stimulus"":""img/3to2/9.png"",""time"":893},{""stimulus"":""img/3to2/10.png"",""time"":993},{""stimulus"":""img/3to2/11.png"",""time"":1093},{""stimulus"":""img/3to2/12.png"",""time"":1193}]","[]"
"image-keyboard-response","144","236000","0.0-5.0-1.70","63f791692fa22034babcdda1","bdp_cybrbll","Sat Mar 25 2023 19:46:22 GMT-0400 (Eastern Daylight Time)","505695","1","3","","","","choice","","654","","img/2to1/1.png","2","155","363","0.5","0.5","2","3","",""
"animation","145","237292","0.0-5.0-2.70","63f791692fa22034babcdda1","bdp_cybrbll","Sat Mar 25 2023 19:46:22 GMT-0400 (Eastern Daylight Time)","505695","1","3","","","","","","","","","","155","","","","2","3","[{""stimulus"":""img/2to3/1.png"",""time"":103},{""stimulus"":""img/2to3/2.png"",""time"":205},{""stimulus"":""img/2to3/3.png"",""time"":306},{""stimulus"":""img/2to3/4.png"",""time"":407},{""stimulus"":""img/2to3/5.png"",""time"":506},{""stimulus"":""img/2to3/6.png"",""time"":607},{""stimulus"":""img/2to3/7.png"",""time"":706},{""stimulus"":""img/2to3/8.png"",""time"":806},{""stimulus"":""img/2to3/9.png"",""time"":891},{""stimulus"":""img/2to3/10.png"",""time"":1005},{""stimulus"":""img/2to3/11.png"",""time"":1090},{""stimulus"":""img/2to3/12.png"",""time"":1192}]","[]"
"image-keyboard-response","146","237755","0.0-5.0-1.71","63f791692fa22034babcdda1","bdp_cybrbll","Sat Mar 25 2023 19:46:22 GMT-0400 (Eastern Daylight Time)","505695","1","3","","","","observe","","null","","img/3to2/1.png","null","154","459","0.5","0.5","3","1","",""
"animation","147","239058","0.0-5.0-2.71","63f791692fa22034babcdda1","bdp_cybrbll","Sat Mar 25 2023 19:46:22 GMT-0400 (Eastern Daylight Time)","505695","1","3","","","","","","","","","","154","","","","3","1","[{""stimulus"":""img/3to1/1.png"",""time"":110},{""stimulus"":""img/3to1/2.png"",""time"":200},{""stimulus"":""img/3to1/3.png"",""time"":303},{""stimulus"":""img/3to1/4.png"",""time"":402},{""stimulus"":""img/3to1/5.png"",""time"":503},{""stimulus"":""img/3to1/6.png"",""time"":603},{""stimulus"":""img/3to1/7.png"",""time"":705},{""stimulus"":""img/3to1/8.png"",""time"":806},{""stimulus"":""img/3to1/9.png"",""time"":905},{""stimulus"":""img/3to1/10.png"",""time"":1006},{""stimulus"":""img/3to1/11.png"",""time"":1104},{""stimulus"":""img/3to1/12.png"",""time"":1199}]","[]"
"image-keyboard-response","148","239797","0.0-5.0-1.72","63f791692fa22034babcdda1","bdp_cybrbll","Sat Mar 25 2023 19:46:22 GMT-0400 (Eastern Daylight Time)","505695","1","3","","","","observe","","null","","img/1to3/1.png","null","153","727","0.5","0.5","1","3","",""
"animation","149","241097","0.0-5.0-2.72","63f791692fa22034babcdda1","bdp_cybrbll","Sat Mar 25 2023 19:46:22 GMT-0400 (Eastern Daylight Time)","505695","1","3","","","","","","","","","","153","","","","1","3","[{""stimulus"":""img/1to3/1.png"",""time"":110},{""stimulus"":""img/1to3/2.png"",""time"":214},{""stimulus"":""img/1to3/3.png"",""time"":298},{""stimulus"":""img/1to3/4.png"",""time"":398},{""stimulus"":""img/1to3/5.png"",""time"":496},{""stimulus"":""img/1to3/6.png"",""time"":595},{""stimulus"":""img/1to3/7.png"",""time"":696},{""stimulus"":""img/1to3/8.png"",""time"":796},{""stimulus"":""img/1to3/9.png"",""time"":897},{""stimulus"":""img/1to3/10.png"",""time"":996},{""stimulus"":""img/1to3/11.png"",""time"":1092},{""stimulus"":""img/1to3/12.png"",""time"":1190}]","[]"
"image-keyboard-response","150","241828","0.0-5.0-1.73","63f791692fa22034babcdda1","bdp_cybrbll","Sat Mar 25 2023 19:46:22 GMT-0400 (Eastern Daylight Time)","505695","1","3","","","","observe","","null","","img/3to2/1.png","null","152","724","0.5","0.5","3","1","",""
"animation","151","243130","0.0-5.0-2.73","63f791692fa22034babcdda1","bdp_cybrbll","Sat Mar 25 2023 19:46:22 GMT-0400 (Eastern Daylight Time)","505695","1","3","","","","","","","","","","152","","","","3","1","[{""stimulus"":""img/3to1/1.png"",""time"":110},{""stimulus"":""img/3to1/2.png"",""time"":199},{""stimulus"":""img/3to1/3.png"",""time"":299},{""stimulus"":""img/3to1/4.png"",""time"":404},{""stimulus"":""img/3to1/5.png"",""time"":503},{""stimulus"":""img/3to1/6.png"",""time"":595},{""stimulus"":""img/3to1/7.png"",""time"":701},{""stimulus"":""img/3to1/8.png"",""time"":802},{""stimulus"":""img/3to1/9.png"",""time"":900},{""stimulus"":""img/3to1/10.png"",""time"":1002},{""stimulus"":""img/3to1/11.png"",""time"":1101},{""stimulus"":""img/3to1/12.png"",""time"":1203}]","[]"
"image-keyboard-response","152","243576","0.0-5.0-1.74","63f791692fa22034babcdda1","bdp_cybrbll","Sat Mar 25 2023 19:46:22 GMT-0400 (Eastern Daylight Time)","505695","1","3","","","","observe","","null","","img/1to3/1.png","null","151","440","0.5","0.5","1","2","",""
"animation","153","244865","0.0-5.0-2.74","63f791692fa22034babcdda1","bdp_cybrbll","Sat Mar 25 2023 19:46:22 GMT-0400 (Eastern Daylight Time)","505695","1","3","","","","","","","","","","151","","","","1","2","[{""stimulus"":""img/1to2/1.png"",""time"":109},{""stimulus"":""img/1to2/2.png"",""time"":205},{""stimulus"":""img/1to2/3.png"",""time"":307},{""stimulus"":""img/1to2/4.png"",""time"":404},{""stimulus"":""img/1to2/5.png"",""time"":505},{""stimulus"":""img/1to2/6.png"",""time"":604},{""stimulus"":""img/1to2/7.png"",""time"":701},{""stimulus"":""img/1to2/8.png"",""time"":793},{""stimulus"":""img/1to2/9.png"",""time"":904},{""stimulus"":""img/1to2/10.png"",""time"":1004},{""stimulus"":""img/1to2/11.png"",""time"":1104},{""stimulus"":""img/1to2/12.png"",""time"":1204}]","[]"
"image-keyboard-response","154","245086","0.0-5.0-1.75","63f791692fa22034babcdda1","bdp_cybrbll","Sat Mar 25 2023 19:46:22 GMT-0400 (Eastern Daylight Time)","505695","1","3","","","","choice","","220","","img/2to1/1.png","1","150","191","0.5","0.5","2","1","",""
"animation","155","246387","0.0-5.0-2.75","63f791692fa22034babcdda1","bdp_cybrbll","Sat Mar 25 2023 19:46:22 GMT-0400 (Eastern Daylight Time)","505695","1","3","","","","","","","","","","150","","","","2","1","[{""stimulus"":""img/2to1/1.png"",""time"":111},{""stimulus"":""img/2to1/2.png"",""time"":212},{""stimulus"":""img/2to1/3.png"",""time"":300},{""stimulus"":""img/2to1/4.png"",""time"":412},{""stimulus"":""img/2to1/5.png"",""time"":497},{""stimulus"":""img/2to1/6.png"",""time"":597},{""stimulus"":""img/2to1/7.png"",""time"":695},{""stimulus"":""img/2to1/8.png"",""time"":796},{""stimulus"":""img/2to1/9.png"",""time"":896},{""stimulus"":""img/2to1/10.png"",""time"":998},{""stimulus"":""img/2to1/11.png"",""time"":1097},{""stimulus"":""img/2to1/12.png"",""time"":1197}]","[]"
"image-keyboard-response","156","246704","0.0-5.0-1.76","63f791692fa22034babcdda1","bdp_cybrbll","Sat Mar 25 2023 19:46:22 GMT-0400 (Eastern Daylight Time)","505695","1","3","","","","observe","","null","","img/1to3/1.png","null","149","314","0.5","0.1","1","2","",""
"animation","157","248004","0.0-5.0-2.76","63f791692fa22034babcdda1","bdp_cybrbll","Sat Mar 25 2023 19:46:22 GMT-0400 (Eastern Daylight Time)","505695","1","3","","","","","","","","","","149","","","","1","2","[{""stimulus"":""img/1to2/1.png"",""time"":109},{""stimulus"":""img/1to2/2.png"",""time"":213},{""stimulus"":""img/1to2/3.png"",""time"":312},{""stimulus"":""img/1to2/4.png"",""time"":412},{""stimulus"":""img/1to2/5.png"",""time"":497},{""stimulus"":""img/1to2/6.png"",""time"":598},{""stimulus"":""img/1to2/7.png"",""time"":695},{""stimulus"":""img/1to2/8.png"",""time"":796},{""stimulus"":""img/1to2/9.png"",""time"":896},{""stimulus"":""img/1to2/10.png"",""time"":996},{""stimulus"":""img/1to2/11.png"",""time"":1096},{""stimulus"":""img/1to2/12.png"",""time"":1196}]","[]"
"image-keyboard-response","158","248201","0.0-5.0-1.77","63f791692fa22034babcdda1","bdp_cybrbll","Sat Mar 25 2023 19:46:22 GMT-0400 (Eastern Daylight Time)","505695","1","3","","","","choice","","195","","img/2to1/1.png","1","148","474","0.5","0.1","2","1","",""
"animation","159","249503","0.0-5.0-2.77","63f791692fa22034babcdda1","bdp_cybrbll","Sat Mar 25 2023 19:46:22 GMT-0400 (Eastern Daylight Time)","505695","1","3","","","","","","","","","","148","","","","2","1","[{""stimulus"":""img/2to1/1.png"",""time"":115},{""stimulus"":""img/2to1/2.png"",""time"":203},{""stimulus"":""img/2to1/3.png"",""time"":301},{""stimulus"":""img/2to1/4.png"",""time"":403},{""stimulus"":""img/2to1/5.png"",""time"":504},{""stimulus"":""img/2to1/6.png"",""time"":602},{""stimulus"":""img/2to1/7.png"",""time"":702},{""stimulus"":""img/2to1/8.png"",""time"":803},{""stimulus"":""img/2to1/9.png"",""time"":903},{""stimulus"":""img/2to1/10.png"",""time"":1005},{""stimulus"":""img/2to1/11.png"",""time"":1103},{""stimulus"":""img/2to1/12.png"",""time"":1203}]","[]"
"image-keyboard-response","160","249838","0.0-5.0-1.78","63f791692fa22034babcdda1","bdp_cybrbll","Sat Mar 25 2023 19:46:22 GMT-0400 (Eastern Daylight Time)","505695","1","3","","","","observe","","null","","img/1to3/1.png","null","147","334","0.5","0.1","1","2","",""
"animation","161","251138","0.0-5.0-2.78","63f791692fa22034babcdda1","bdp_cybrbll","Sat Mar 25 2023 19:46:22 GMT-0400 (Eastern Daylight Time)","505695","1","3","","","","","","","","","","147","","","","1","2","[{""stimulus"":""img/1to2/1.png"",""time"":110},{""stimulus"":""img/1to2/2.png"",""time"":201},{""stimulus"":""img/1to2/3.png"",""time"":302},{""stimulus"":""img/1to2/4.png"",""time"":399},{""stimulus"":""img/1to2/5.png"",""time"":499},{""stimulus"":""img/1to2/6.png"",""time"":601},{""stimulus"":""img/1to2/7.png"",""time"":703},{""stimulus"":""img/1to2/8.png"",""time"":800},{""stimulus"":""img/1to2/9.png"",""time"":899},{""stimulus"":""img/1to2/10.png"",""time"":1000},{""stimulus"":""img/1to2/11.png"",""time"":1099},{""stimulus"":""img/1to2/12.png"",""time"":1200}]","[]"
"image-keyboard-response","162","251729","0.0-5.0-1.79","63f791692fa22034babcdda1","bdp_cybrbll","Sat Mar 25 2023 19:46:22 GMT-0400 (Eastern Daylight Time)","505695","1","3","","","","choice","","589","","img/2to1/1.png","1","146","258","0.5","0.1","2","1","",""
"animation","163","253025","0.0-5.0-2.79","63f791692fa22034babcdda1","bdp_cybrbll","Sat Mar 25 2023 19:46:22 GMT-0400 (Eastern Daylight Time)","505695","1","3","","","","","","","","","","146","","","","2","1","[{""stimulus"":""img/2to1/1.png"",""time"":107},{""stimulus"":""img/2to1/2.png"",""time"":204},{""stimulus"":""img/2to1/3.png"",""time"":309},{""stimulus"":""img/2to1/4.png"",""time"":409},{""stimulus"":""img/2to1/5.png"",""time"":508},{""stimulus"":""img/2to1/6.png"",""time"":609},{""stimulus"":""img/2to1/7.png"",""time"":696},{""stimulus"":""img/2to1/8.png"",""time"":794},{""stimulus"":""img/2to1/9.png"",""time"":894},{""stimulus"":""img/2to1/10.png"",""time"":996},{""stimulus"":""img/2to1/11.png"",""time"":1094},{""stimulus"":""img/2to1/12.png"",""time"":1194}]","[]"
"image-keyboard-response","164","253816","0.0-5.0-1.80","63f791692fa22034babcdda1","bdp_cybrbll","Sat Mar 25 2023 19:46:22 GMT-0400 (Eastern Daylight Time)","505695","1","3","","","","observe","","null","","img/1to3/1.png","null","145","783","0.5","0.1","1","2","",""
"animation","165","255107","0.0-5.0-2.80","63f791692fa22034babcdda1","bdp_cybrbll","Sat Mar 25 2023 19:46:22 GMT-0400 (Eastern Daylight Time)","505695","1","3","","","","","","","","","","145","","","","1","2","[{""stimulus"":""img/1to2/1.png"",""time"":110},{""stimulus"":""img/1to2/2.png"",""time"":210},{""stimulus"":""img/1to2/3.png"",""time"":312},{""stimulus"":""img/1to2/4.png"",""time"":409},{""stimulus"":""img/1to2/5.png"",""time"":508},{""stimulus"":""img/1to2/6.png"",""time"":595},{""stimulus"":""img/1to2/7.png"",""time"":709},{""stimulus"":""img/1to2/8.png"",""time"":815},{""stimulus"":""img/1to2/9.png"",""time"":893},{""stimulus"":""img/1to2/10.png"",""time"":991},{""stimulus"":""img/1to2/11.png"",""time"":1091},{""stimulus"":""img/1to2/12.png"",""time"":1192}]","[]"
"image-keyboard-response","166","255713","0.0-5.0-1.81","63f791692fa22034babcdda1","bdp_cybrbll","Sat Mar 25 2023 19:46:22 GMT-0400 (Eastern Daylight Time)","505695","1","3","","","","choice","","605","","img/2to1/1.png","2","144","439","0.5","0.1","2","3","",""
"animation","167","257009","0.0-5.0-2.81","63f791692fa22034babcdda1","bdp_cybrbll","Sat Mar 25 2023 19:46:22 GMT-0400 (Eastern Daylight Time)","505695","1","3","","","","","","","","","","144","","","","2","3","[{""stimulus"":""img/2to3/1.png"",""time"":110},{""stimulus"":""img/2to3/2.png"",""time"":198},{""stimulus"":""img/2to3/3.png"",""time"":312},{""stimulus"":""img/2to3/4.png"",""time"":403},{""stimulus"":""img/2to3/5.png"",""time"":497},{""stimulus"":""img/2to3/6.png"",""time"":607},{""stimulus"":""img/2to3/7.png"",""time"":699},{""stimulus"":""img/2to3/8.png"",""time"":797},{""stimulus"":""img/2to3/9.png"",""time"":897},{""stimulus"":""img/2to3/10.png"",""time"":995},{""stimulus"":""img/2to3/11.png"",""time"":1096},{""stimulus"":""img/2to3/12.png"",""time"":1196}]","[]"
"image-keyboard-response","168","257477","0.0-5.0-1.82","63f791692fa22034babcdda1","bdp_cybrbll","Sat Mar 25 2023 19:46:22 GMT-0400 (Eastern Daylight Time)","505695","1","3","","","","observe","","null","","img/3to2/1.png","null","143","453","0.5","0.1","3","1","",""
"animation","169","258779","0.0-5.0-2.82","63f791692fa22034babcdda1","bdp_cybrbll","Sat Mar 25 2023 19:46:22 GMT-0400 (Eastern Daylight Time)","505695","1","3","","","","","","","","","","143","","","","3","1","[{""stimulus"":""img/3to1/1.png"",""time"":110},{""stimulus"":""img/3to1/2.png"",""time"":202},{""stimulus"":""img/3to1/3.png"",""time"":304},{""stimulus"":""img/3to1/4.png"",""time"":403},{""stimulus"":""img/3to1/5.png"",""time"":498},{""stimulus"":""img/3to1/6.png"",""time"":601},{""stimulus"":""img/3to1/7.png"",""time"":702},{""stimulus"":""img/3to1/8.png"",""time"":800},{""stimulus"":""img/3to1/9.png"",""time"":908},{""stimulus"":""img/3to1/10.png"",""time"":1002},{""stimulus"":""img/3to1/11.png"",""time"":1102},{""stimulus"":""img/3to1/12.png"",""time"":1201}]","[]"
"image-keyboard-response","170","259020","0.0-5.0-1.83","63f791692fa22034babcdda1","bdp_cybrbll","Sat Mar 25 2023 19:46:22 GMT-0400 (Eastern Daylight Time)","505695","1","3","","","","observe","","null","","img/1to3/1.png","null","142","225","0.5","0.1","1","3","",""
"animation","171","260309","0.0-5.0-2.83","63f791692fa22034babcdda1","bdp_cybrbll","Sat Mar 25 2023 19:46:22 GMT-0400 (Eastern Daylight Time)","505695","1","3","","","","","","","","","","142","","","","1","3","[{""stimulus"":""img/1to3/1.png"",""time"":105},{""stimulus"":""img/1to3/2.png"",""time"":209},{""stimulus"":""img/1to3/3.png"",""time"":310},{""stimulus"":""img/1to3/4.png"",""time"":411},{""stimulus"":""img/1to3/5.png"",""time"":496},{""stimulus"":""img/1to3/6.png"",""time"":608},{""stimulus"":""img/1to3/7.png"",""time"":709},{""stimulus"":""img/1to3/8.png"",""time"":794},{""stimulus"":""img/1to3/9.png"",""time"":893},{""stimulus"":""img/1to3/10.png"",""time"":991},{""stimulus"":""img/1to3/11.png"",""time"":1092},{""stimulus"":""img/1to3/12.png"",""time"":1192}]","[]"
"image-keyboard-response","172","260603","0.0-5.0-1.84","63f791692fa22034babcdda1","bdp_cybrbll","Sat Mar 25 2023 19:46:22 GMT-0400 (Eastern Daylight Time)","505695","1","3","","","","observe","","null","","img/3to2/1.png","null","141","282","0.5","0.1","3","1","",""
"animation","173","261899","0.0-5.0-2.84","63f791692fa22034babcdda1","bdp_cybrbll","Sat Mar 25 2023 19:46:22 GMT-0400 (Eastern Daylight Time)","505695","1","3","","","","","","","","","","141","","","","3","1","[{""stimulus"":""img/3to1/1.png"",""time"":109},{""stimulus"":""img/3to1/2.png"",""time"":211},{""stimulus"":""img/3to1/3.png"",""time"":309},{""stimulus"":""img/3to1/4.png"",""time"":411},{""stimulus"":""img/3to1/5.png"",""time"":496},{""stimulus"":""img/3to1/6.png"",""time"":596},{""stimulus"":""img/3to1/7.png"",""time"":696},{""stimulus"":""img/3to1/8.png"",""time"":800},{""stimulus"":""img/3to1/9.png"",""time"":895},{""stimulus"":""img/3to1/10.png"",""time"":993},{""stimulus"":""img/3to1/11.png"",""time"":1095},{""stimulus"":""img/3to1/12.png"",""time"":1196}]","[]"
"image-keyboard-response","174","262125","0.0-5.0-1.85","63f791692fa22034babcdda1","bdp_cybrbll","Sat Mar 25 2023 19:46:22 GMT-0400 (Eastern Daylight Time)","505695","1","3","","","","observe","","null","","img/1to3/1.png","null","140","216","0.5","0.1","1","3","",""
"animation","175","263419","0.0-5.0-2.85","63f791692fa22034babcdda1","bdp_cybrbll","Sat Mar 25 2023 19:46:22 GMT-0400 (Eastern Daylight Time)","505695","1","3","","","","","","","","","","140","","","","1","3","[{""stimulus"":""img/1to3/1.png"",""time"":110},{""stimulus"":""img/1to3/2.png"",""time"":209},{""stimulus"":""img/1to3/3.png"",""time"":310},{""stimulus"":""img/1to3/4.png"",""time"":397},{""stimulus"":""img/1to3/5.png"",""time"":508},{""stimulus"":""img/1to3/6.png"",""time"":607},{""stimulus"":""img/1to3/7.png"",""time"":708},{""stimulus"":""img/1to3/8.png"",""time"":807},{""stimulus"":""img/1to3/9.png"",""time"":895},{""stimulus"":""img/1to3/10.png"",""time"":993},{""stimulus"":""img/1to3/11.png"",""time"":1095},{""stimulus"":""img/1to3/12.png"",""time"":1190}]","[]"
"image-keyboard-response","176","263618","0.0-5.0-1.86","63f791692fa22034babcdda1","bdp_cybrbll","Sat Mar 25 2023 19:46:22 GMT-0400 (Eastern Daylight Time)","505695","1","3","","","","observe","","null","","img/3to2/1.png","null","139","188","0.5","0.1","3","1","",""
"animation","177","264917","0.0-5.0-2.86","63f791692fa22034babcdda1","bdp_cybrbll","Sat Mar 25 2023 19:46:22 GMT-0400 (Eastern Daylight Time)","505695","1","3","","","","","","","","","","139","","","","3","1","[{""stimulus"":""img/3to1/1.png"",""time"":115},{""stimulus"":""img/3to1/2.png"",""time"":201},{""stimulus"":""img/3to1/3.png"",""time"":302},{""stimulus"":""img/3to1/4.png"",""time"":400},{""stimulus"":""img/3to1/5.png"",""time"":500},{""stimulus"":""img/3to1/6.png"",""time"":599},{""stimulus"":""img/3to1/7.png"",""time"":699},{""stimulus"":""img/3to1/8.png"",""time"":803},{""stimulus"":""img/3to1/9.png"",""time"":900},{""stimulus"":""img/3to1/10.png"",""time"":999},{""stimulus"":""img/3to1/11.png"",""time"":1099},{""stimulus"":""img/3to1/12.png"",""time"":1200}]","[]"
"image-keyboard-response","178","265206","0.0-5.0-1.87","63f791692fa22034babcdda1","bdp_cybrbll","Sat Mar 25 2023 19:46:22 GMT-0400 (Eastern Daylight Time)","505695","1","3","","","","observe","","null","","img/1to3/1.png","null","138","284","0.5","0.1","1","3","",""
"animation","179","266503","0.0-5.0-2.87","63f791692fa22034babcdda1","bdp_cybrbll","Sat Mar 25 2023 19:46:22 GMT-0400 (Eastern Daylight Time)","505695","1","3","","","","","","","","","","138","","","","1","3","[{""stimulus"":""img/1to3/1.png"",""time"":111},{""stimulus"":""img/1to3/2.png"",""time"":215},{""stimulus"":""img/1to3/3.png"",""time"":298},{""stimulus"":""img/1to3/4.png"",""time"":398},{""stimulus"":""img/1to3/5.png"",""time"":499},{""stimulus"":""img/1to3/6.png"",""time"":598},{""stimulus"":""img/1to3/7.png"",""time"":698},{""stimulus"":""img/1to3/8.png"",""time"":800},{""stimulus"":""img/1to3/9.png"",""time"":897},{""stimulus"":""img/1to3/10.png"",""time"":997},{""stimulus"":""img/1to3/11.png"",""time"":1097},{""stimulus"":""img/1to3/12.png"",""time"":1202}]","[]"
"image-keyboard-response","180","266948","0.0-5.0-1.88","63f791692fa22034babcdda1","bdp_cybrbll","Sat Mar 25 2023 19:46:22 GMT-0400 (Eastern Daylight Time)","505695","1","3","","","","observe","","null","","img/3to2/1.png","null","137","440","0.5","0.1","3","1","",""
"animation","181","268247","0.0-5.0-2.88","63f791692fa22034babcdda1","bdp_cybrbll","Sat Mar 25 2023 19:46:22 GMT-0400 (Eastern Daylight Time)","505695","1","3","","","","","","","","","","137","","","","3","1","[{""stimulus"":""img/3to1/1.png"",""time"":110},{""stimulus"":""img/3to1/2.png"",""time"":207},{""stimulus"":""img/3to1/3.png"",""time"":308},{""stimulus"":""img/3to1/4.png"",""time"":410},{""stimulus"":""img/3to1/5.png"",""time"":506},{""stimulus"":""img/3to1/6.png"",""time"":606},{""stimulus"":""img/3to1/7.png"",""time"":706},{""stimulus"":""img/3to1/8.png"",""time"":806},{""stimulus"":""img/3to1/9.png"",""time"":906},{""stimulus"":""img/3to1/10.png"",""time"":1003},{""stimulus"":""img/3to1/11.png"",""time"":1091},{""stimulus"":""img/3to1/12.png"",""time"":1191}]","[]"
"image-keyboard-response","182","269503","0.0-5.0-1.89","63f791692fa22034babcdda1","bdp_cybrbll","Sat Mar 25 2023 19:46:22 GMT-0400 (Eastern Daylight Time)","505695","1","3","","","","observe","","null","","img/1to3/1.png","null","136","1249","0.5","0.1","1","2","",""
"animation","183","270791","0.0-5.0-2.89","63f791692fa22034babcdda1","bdp_cybrbll","Sat Mar 25 2023 19:46:22 GMT-0400 (Eastern Daylight Time)","505695","1","3","","","","","","","","","","136","","","","1","2","[{""stimulus"":""img/1to2/1.png"",""time"":110},{""stimulus"":""img/1to2/2.png"",""time"":205},{""stimulus"":""img/1to2/3.png"",""time"":306},{""stimulus"":""img/1to2/4.png"",""time"":406},{""stimulus"":""img/1to2/5.png"",""time"":507},{""stimulus"":""img/1to2/6.png"",""time"":604},{""stimulus"":""img/1to2/7.png"",""time"":705},{""stimulus"":""img/1to2/8.png"",""time"":805},{""stimulus"":""img/1to2/9.png"",""time"":902},{""stimulus"":""img/1to2/10.png"",""time"":1004},{""stimulus"":""img/1to2/11.png"",""time"":1103},{""stimulus"":""img/1to2/12.png"",""time"":1204}]","[]"
"image-keyboard-response","184","270990","0.0-5.0-1.90","63f791692fa22034babcdda1","bdp_cybrbll","Sat Mar 25 2023 19:46:22 GMT-0400 (Eastern Daylight Time)","505695","1","3","","","","choice","","199","","img/2to1/1.png","2","135","249","0.5","0.1","2","3","",""
"animation","185","272290","0.0-5.0-2.90","63f791692fa22034babcdda1","bdp_cybrbll","Sat Mar 25 2023 19:46:22 GMT-0400 (Eastern Daylight Time)","505695","1","3","","","","","","","","","","135","","","","2","3","[{""stimulus"":""img/2to3/1.png"",""time"":114},{""stimulus"":""img/2to3/2.png"",""time"":202},{""stimulus"":""img/2to3/3.png"",""time"":303},{""stimulus"":""img/2to3/4.png"",""time"":397},{""stimulus"":""img/2to3/5.png"",""time"":501},{""stimulus"":""img/2to3/6.png"",""time"":601},{""stimulus"":""img/2to3/7.png"",""time"":700},{""stimulus"":""img/2to3/8.png"",""time"":800},{""stimulus"":""img/2to3/9.png"",""time"":900},{""stimulus"":""img/2to3/10.png"",""time"":1001},{""stimulus"":""img/2to3/11.png"",""time"":1093},{""stimulus"":""img/2to3/12.png"",""time"":1201}]","[]"
"image-keyboard-response","186","272648","0.0-5.0-1.91","63f791692fa22034babcdda1","bdp_cybrbll","Sat Mar 25 2023 19:46:22 GMT-0400 (Eastern Daylight Time)","505695","1","3","","","","observe","","null","","img/3to2/1.png","null","134","341","0.5","0.1","3","1","",""
"animation","187","273944","0.0-5.0-2.91","63f791692fa22034babcdda1","bdp_cybrbll","Sat Mar 25 2023 19:46:22 GMT-0400 (Eastern Daylight Time)","505695","1","3","","","","","","","","","","134","","","","3","1","[{""stimulus"":""img/3to1/1.png"",""time"":110},{""stimulus"":""img/3to1/2.png"",""time"":213},{""stimulus"":""img/3to1/3.png"",""time"":298},{""stimulus"":""img/3to1/4.png"",""time"":397},{""stimulus"":""img/3to1/5.png"",""time"":497},{""stimulus"":""img/3to1/6.png"",""time"":596},{""stimulus"":""img/3to1/7.png"",""time"":695},{""stimulus"":""img/3to1/8.png"",""time"":796},{""stimulus"":""img/3to1/9.png"",""time"":895},{""stimulus"":""img/3to1/10.png"",""time"":995},{""stimulus"":""img/3to1/11.png"",""time"":1095},{""stimulus"":""img/3to1/12.png"",""time"":1200}]","[]"
"image-keyboard-response","188","274202","0.0-5.0-1.92","63f791692fa22034babcdda1","bdp_cybrbll","Sat Mar 25 2023 19:46:22 GMT-0400 (Eastern Daylight Time)","505695","1","3","","","","observe","","null","","img/1to3/1.png","null","133","242","0.5","0.1","1","3","",""
"animation","189","275494","0.0-5.0-2.92","63f791692fa22034babcdda1","bdp_cybrbll","Sat Mar 25 2023 19:46:22 GMT-0400 (Eastern Daylight Time)","505695","1","3","","","","","","","","","","133","","","","1","3","[{""stimulus"":""img/1to3/1.png"",""time"":110},{""stimulus"":""img/1to3/2.png"",""time"":209},{""stimulus"":""img/1to3/3.png"",""time"":307},{""stimulus"":""img/1to3/4.png"",""time"":411},{""stimulus"":""img/1to3/5.png"",""time"":509},{""stimulus"":""img/1to3/6.png"",""time"":596},{""stimulus"":""img/1to3/7.png"",""time"":709},{""stimulus"":""img/1to3/8.png"",""time"":794},{""stimulus"":""img/1to3/9.png"",""time"":895},{""stimulus"":""img/1to3/10.png"",""time"":995},{""stimulus"":""img/1to3/11.png"",""time"":1096},{""stimulus"":""img/1to3/12.png"",""time"":1189}]","[]"
"image-keyboard-response","190","275769","0.0-5.0-1.93","63f791692fa22034babcdda1","bdp_cybrbll","Sat Mar 25 2023 19:46:22 GMT-0400 (Eastern Daylight Time)","505695","1","3","","","","observe","","null","","img/3to2/1.png","null","132","266","0.5","0.1","3","2","",""
