"event","trial","time","trialtype","subject_id","task","startTime","totalTime","fairPartner","unfairPartner","trial_type","trial_index","time_elapsed","internal_node_id","view_history","rt","success","stimulus","key_press","throwsLeft","rtDur","pFair","pUnfair","holder","receiver","animation_sequence","responses"
"focus","0","0","focusevent","6320e37620d067c7d322246a","bdp_cybrbll","Mon Apr 10 2023 21:08:19 GMT-0400 (Eastern Daylight Time)","480831","1","3","","","","","","","","","","","","","","","","",""
"","","","","6320e37620d067c7d322246a","bdp_cybrbll","Mon Apr 10 2023 21:08:19 GMT-0400 (Eastern Daylight Time)","480831","1","3","pavlovia","0","6","0.0-0.0","","","","","","","","","","","","",""
"","","","","6320e37620d067c7d322246a","bdp_cybrbll","Mon Apr 10 2023 21:08:19 GMT-0400 (Eastern Daylight Time)","480831","1","3","instructions","1","2350","0.0-1.0","[{""page_index"":0,""viewing_time"":2344}]","2344","","","","","","","","","","",""
"fullscreenexit","2","4176","fullscreenexit","6320e37620d067c7d322246a","bdp_cybrbll","Mon Apr 10 2023 21:08:19 GMT-0400 (Eastern Daylight Time)","480831","1","3","","","","","","","","","","","","","","","","",""
"","","","","6320e37620d067c7d322246a","bdp_cybrbll","Mon Apr 10 2023 21:08:19 GMT-0400 (Eastern Daylight Time)","480831","1","3","fullscreen","2","5169","0.0-2.0","","","true","","","","","","","","","",""
"","","","fullscreenfail","6320e37620d067c7d322246a","bdp_cybrbll","Mon Apr 10 2023 21:08:19 GMT-0400 (Eastern Daylight Time)","480831","1","3","image-keyboard-response","3","8538","0.0-3.0-0.0","","3368","","","32","","","","","","","",""
"","","","","6320e37620d067c7d322246a","bdp_cybrbll","Mon Apr 10 2023 21:08:19 GMT-0400 (Eastern Daylight Time)","480831","1","3","instructions","4","77170","0.0-4.0","[{""page_index"":0,""viewing_time"":68380}]","68380","","","","","","","","","","",""
"","","","choice","6320e37620d067c7d322246a","bdp_cybrbll","Mon Apr 10 2023 21:08:19 GMT-0400 (Eastern Daylight Time)","480831","1","3","image-keyboard-response","5","80558","0.0-5.0-1.0","","3387","","img/2to1/1.png","1","225","300","0.5","0.5","2","1","",""
"","","","","6320e37620d067c7d322246a","bdp_cybrbll","Mon Apr 10 2023 21:08:19 GMT-0400 (Eastern Daylight Time)","480831","1","3","animation","6","81847","0.0-5.0-2.0","","","","","","225","","","","2","1","[{""stimulus"":""img/2to1/1.png"",""time"":100},{""stimulus"":""img/2to1/2.png"",""time"":199},{""stimulus"":""img/2to1/3.png"",""time"":298},{""stimulus"":""img/2to1/4.png"",""time"":397},{""stimulus"":""img/2to1/5.png"",""time"":496},{""stimulus"":""img/2to1/6.png"",""time"":595},{""stimulus"":""img/2to1/7.png"",""time"":694},{""stimulus"":""img/2to1/8.png"",""time"":793},{""stimulus"":""img/2to1/9.png"",""time"":892},{""stimulus"":""img/2to1/10.png"",""time"":991},{""stimulus"":""img/2to1/11.png"",""time"":1091},{""stimulus"":""img/2to1/12.png"",""time"":1190}]","[]"
"","","","observe","6320e37620d067c7d322246a","bdp_cybrbll","Mon Apr 10 2023 21:08:19 GMT-0400 (Eastern Daylight Time)","480831","1","3","image-keyboard-response","7","82178","0.0-5.0-1.1","","null","","img/1to3/1.png","null","224","329","0.5","0.5","1","3","",""
"","","","","6320e37620d067c7d322246a","bdp_cybrbll","Mon Apr 10 2023 21:08:19 GMT-0400 (Eastern Daylight Time)","480831","1","3","animation","8","83466","0.0-5.0-2.1","","","","","","224","","","","1","3","[{""stimulus"":""img/1to3/1.png"",""time"":98},{""stimulus"":""img/1to3/2.png"",""time"":198},{""stimulus"":""img/1to3/3.png"",""time"":297},{""stimulus"":""img/1to3/4.png"",""time"":396},{""stimulus"":""img/1to3/5.png"",""time"":495},{""stimulus"":""img/1to3/6.png"",""time"":594},{""stimulus"":""img/1to3/7.png"",""time"":693},{""stimulus"":""img/1to3/8.png"",""time"":793},{""stimulus"":""img/1to3/9.png"",""time"":892},{""stimulus"":""img/1to3/10.png"",""time"":992},{""stimulus"":""img/1to3/11.png"",""time"":1091},{""stimulus"":""img/1to3/12.png"",""time"":1190}]","[]"
"","","","observe","6320e37620d067c7d322246a","bdp_cybrbll","Mon Apr 10 2023 21:08:19 GMT-0400 (Eastern Daylight Time)","480831","1","3","image-keyboard-response","9","83673","0.0-5.0-1.2","","null","","img/3to2/1.png","null","223","206","0.5","0.5","3","2","",""
"","","","","6320e37620d067c7d322246a","bdp_cybrbll","Mon Apr 10 2023 21:08:19 GMT-0400 (Eastern Daylight Time)","480831","1","3","animation","10","84962","0.0-5.0-2.2","","","","","","223","","","","3","2","[{""stimulus"":""img/3to2/1.png"",""time"":99},{""stimulus"":""img/3to2/2.png"",""time"":199},{""stimulus"":""img/3to2/3.png"",""time"":298},{""stimulus"":""img/3to2/4.png"",""time"":397},{""stimulus"":""img/3to2/5.png"",""time"":496},{""stimulus"":""img/3to2/6.png"",""time"":595},{""stimulus"":""img/3to2/7.png"",""time"":694},{""stimulus"":""img/3to2/8.png"",""time"":793},{""stimulus"":""img/3to2/9.png"",""time"":892},{""stimulus"":""img/3to2/10.png"",""time"":991},{""stimulus"":""img/3to2/11.png"",""time"":1090},{""stimulus"":""img/3to2/12.png"",""time"":1189}]","[]"
"","","","choice","6320e37620d067c7d322246a","bdp_cybrbll","Mon Apr 10 2023 21:08:19 GMT-0400 (Eastern Daylight Time)","480831","1","3","image-keyboard-response","11","85551","0.0-5.0-1.3","","588","","img/2to1/1.png","1","222","423","0.5","0.5","2","1","",""
"","","","","6320e37620d067c7d322246a","bdp_cybrbll","Mon Apr 10 2023 21:08:19 GMT-0400 (Eastern Daylight Time)","480831","1","3","animation","12","86842","0.0-5.0-2.3","","","","","","222","","","","2","1","[{""stimulus"":""img/2to1/1.png"",""time"":99},{""stimulus"":""img/2to1/2.png"",""time"":198},{""stimulus"":""img/2to1/3.png"",""time"":298},{""stimulus"":""img/2to1/4.png"",""time"":398},{""stimulus"":""img/2to1/5.png"",""time"":498},{""stimulus"":""img/2to1/6.png"",""time"":597},{""stimulus"":""img/2to1/7.png"",""time"":696},{""stimulus"":""img/2to1/8.png"",""time"":796},{""stimulus"":""img/2to1/9.png"",""time"":895},{""stimulus"":""img/2to1/10.png"",""time"":994},{""stimulus"":""img/2to1/11.png"",""time"":1093},{""stimulus"":""img/2to1/12.png"",""time"":1192}]","[]"
"","","","observe","6320e37620d067c7d322246a","bdp_cybrbll","Mon Apr 10 2023 21:08:19 GMT-0400 (Eastern Daylight Time)","480831","1","3","image-keyboard-response","13","87162","0.0-5.0-1.4","","null","","img/1to3/1.png","null","221","319","0.5","0.5","1","3","",""
"","","","","6320e37620d067c7d322246a","bdp_cybrbll","Mon Apr 10 2023 21:08:19 GMT-0400 (Eastern Daylight Time)","480831","1","3","animation","14","88451","0.0-5.0-2.4","","","","","","221","","","","1","3","[{""stimulus"":""img/1to3/1.png"",""time"":99},{""stimulus"":""img/1to3/2.png"",""time"":198},{""stimulus"":""img/1to3/3.png"",""time"":297},{""stimulus"":""img/1to3/4.png"",""time"":396},{""stimulus"":""img/1to3/5.png"",""time"":496},{""stimulus"":""img/1to3/6.png"",""time"":595},{""stimulus"":""img/1to3/7.png"",""time"":695},{""stimulus"":""img/1to3/8.png"",""time"":794},{""stimulus"":""img/1to3/9.png"",""time"":893},{""stimulus"":""img/1to3/10.png"",""time"":992},{""stimulus"":""img/1to3/11.png"",""time"":1091},{""stimulus"":""img/1to3/12.png"",""time"":1190}]","[]"
"","","","observe","6320e37620d067c7d322246a","bdp_cybrbll","Mon Apr 10 2023 21:08:19 GMT-0400 (Eastern Daylight Time)","480831","1","3","image-keyboard-response","15","89048","0.0-5.0-1.5","","null","","img/3to2/1.png","null","220","596","0.5","0.5","3","2","",""
"","","","","6320e37620d067c7d322246a","bdp_cybrbll","Mon Apr 10 2023 21:08:19 GMT-0400 (Eastern Daylight Time)","480831","1","3","animation","16","90339","0.0-5.0-2.5","","","","","","220","","","","3","2","[{""stimulus"":""img/3to2/1.png"",""time"":99},{""stimulus"":""img/3to2/2.png"",""time"":198},{""stimulus"":""img/3to2/3.png"",""time"":297},{""stimulus"":""img/3to2/4.png"",""time"":396},{""stimulus"":""img/3to2/5.png"",""time"":496},{""stimulus"":""img/3to2/6.png"",""time"":595},{""stimulus"":""img/3to2/7.png"",""time"":693},{""stimulus"":""img/3to2/8.png"",""time"":792},{""stimulus"":""img/3to2/9.png"",""time"":892},{""stimulus"":""img/3to2/10.png"",""time"":991},{""stimulus"":""img/3to2/11.png"",""time"":1091},{""stimulus"":""img/3to2/12.png"",""time"":1191}]","[]"
"","","","choice","6320e37620d067c7d322246a","bdp_cybrbll","Mon Apr 10 2023 21:08:19 GMT-0400 (Eastern Daylight Time)","480831","1","3","image-keyboard-response","17","91131","0.0-5.0-1.6","","791","","img/2to1/1.png","1","219","395","0.5","0.5","2","1","",""
"","","","","6320e37620d067c7d322246a","bdp_cybrbll","Mon Apr 10 2023 21:08:19 GMT-0400 (Eastern Daylight Time)","480831","1","3","animation","18","92424","0.0-5.0-2.6","","","","","","219","","","","2","1","[{""stimulus"":""img/2to1/1.png"",""time"":99},{""stimulus"":""img/2to1/2.png"",""time"":199},{""stimulus"":""img/2to1/3.png"",""time"":298},{""stimulus"":""img/2to1/4.png"",""time"":398},{""stimulus"":""img/2to1/5.png"",""time"":497},{""stimulus"":""img/2to1/6.png"",""time"":597},{""stimulus"":""img/2to1/7.png"",""time"":696},{""stimulus"":""img/2to1/8.png"",""time"":795},{""stimulus"":""img/2to1/9.png"",""time"":894},{""stimulus"":""img/2to1/10.png"",""time"":994},{""stimulus"":""img/2to1/11.png"",""time"":1094},{""stimulus"":""img/2to1/12.png"",""time"":1193}]","[]"
"","","","observe","6320e37620d067c7d322246a","bdp_cybrbll","Mon Apr 10 2023 21:08:19 GMT-0400 (Eastern Daylight Time)","480831","1","3","image-keyboard-response","19","92707","0.0-5.0-1.7","","null","","img/1to3/1.png","null","218","282","0.5","0.5","1","3","",""
"","","","","6320e37620d067c7d322246a","bdp_cybrbll","Mon Apr 10 2023 21:08:19 GMT-0400 (Eastern Daylight Time)","480831","1","3","animation","20","93997","0.0-5.0-2.7","","","","","","218","","","","1","3","[{""stimulus"":""img/1to3/1.png"",""time"":100},{""stimulus"":""img/1to3/2.png"",""time"":198},{""stimulus"":""img/1to3/3.png"",""time"":297},{""stimulus"":""img/1to3/4.png"",""time"":396},{""stimulus"":""img/1to3/5.png"",""time"":496},{""stimulus"":""img/1to3/6.png"",""time"":595},{""stimulus"":""img/1to3/7.png"",""time"":695},{""stimulus"":""img/1to3/8.png"",""time"":794},{""stimulus"":""img/1to3/9.png"",""time"":893},{""stimulus"":""img/1to3/10.png"",""time"":991},{""stimulus"":""img/1to3/11.png"",""time"":1091},{""stimulus"":""img/1to3/12.png"",""time"":1190}]","[]"
"","","","observe","6320e37620d067c7d322246a","bdp_cybrbll","Mon Apr 10 2023 21:08:19 GMT-0400 (Eastern Daylight Time)","480831","1","3","image-keyboard-response","21","94309","0.0-5.0-1.8","","null","","img/3to2/1.png","null","217","312","0.5","0.5","3","1","",""
"","","","","6320e37620d067c7d322246a","bdp_cybrbll","Mon Apr 10 2023 21:08:19 GMT-0400 (Eastern Daylight Time)","480831","1","3","animation","22","95599","0.0-5.0-2.8","","","","","","217","","","","3","1","[{""stimulus"":""img/3to1/1.png"",""time"":100},{""stimulus"":""img/3to1/2.png"",""time"":199},{""stimulus"":""img/3to1/3.png"",""time"":299},{""stimulus"":""img/3to1/4.png"",""time"":398},{""stimulus"":""img/3to1/5.png"",""time"":497},{""stimulus"":""img/3to1/6.png"",""time"":595},{""stimulus"":""img/3to1/7.png"",""time"":695},{""stimulus"":""img/3to1/8.png"",""time"":794},{""stimulus"":""img/3to1/9.png"",""time"":893},{""stimulus"":""img/3to1/10.png"",""time"":992},{""stimulus"":""img/3to1/11.png"",""time"":1091},{""stimulus"":""img/3to1/12.png"",""time"":1191}]","[]"
"","","","observe","6320e37620d067c7d322246a","bdp_cybrbll","Mon Apr 10 2023 21:08:19 GMT-0400 (Eastern Daylight Time)","480831","1","3","image-keyboard-response","23","96306","0.0-5.0-1.9","","null","","img/1to3/1.png","null","216","707","0.5","0.5","1","3","",""
"","","","","6320e37620d067c7d322246a","bdp_cybrbll","Mon Apr 10 2023 21:08:19 GMT-0400 (Eastern Daylight Time)","480831","1","3","animation","24","97597","0.0-5.0-2.9","","","","","","216","","","","1","3","[{""stimulus"":""img/1to3/1.png"",""time"":100},{""stimulus"":""img/1to3/2.png"",""time"":199},{""stimulus"":""img/1to3/3.png"",""time"":299},{""stimulus"":""img/1to3/4.png"",""time"":397},{""stimulus"":""img/1to3/5.png"",""time"":497},{""stimulus"":""img/1to3/6.png"",""time"":596},{""stimulus"":""img/1to3/7.png"",""time"":695},{""stimulus"":""img/1to3/8.png"",""time"":794},{""stimulus"":""img/1to3/9.png"",""time"":893},{""stimulus"":""img/1to3/10.png"",""time"":994},{""stimulus"":""img/1to3/11.png"",""time"":1092},{""stimulus"":""img/1to3/12.png"",""time"":1192}]","[]"
"","","","observe","6320e37620d067c7d322246a","bdp_cybrbll","Mon Apr 10 2023 21:08:19 GMT-0400 (Eastern Daylight Time)","480831","1","3","image-keyboard-response","25","99041","0.0-5.0-1.10","","null","","img/3to2/1.png","null","215","1444","0.5","0.5","3","2","",""
"","","","","6320e37620d067c7d322246a","bdp_cybrbll","Mon Apr 10 2023 21:08:19 GMT-0400 (Eastern Daylight Time)","480831","1","3","animation","26","100331","0.0-5.0-2.10","","","","","","215","","","","3","2","[{""stimulus"":""img/3to2/1.png"",""time"":99},{""stimulus"":""img/3to2/2.png"",""time"":198},{""stimulus"":""img/3to2/3.png"",""time"":297},{""stimulus"":""img/3to2/4.png"",""time"":396},{""stimulus"":""img/3to2/5.png"",""time"":496},{""stimulus"":""img/3to2/6.png"",""time"":594},{""stimulus"":""img/3to2/7.png"",""time"":693},{""stimulus"":""img/3to2/8.png"",""time"":793},{""stimulus"":""img/3to2/9.png"",""time"":892},{""stimulus"":""img/3to2/10.png"",""time"":991},{""stimulus"":""img/3to2/11.png"",""time"":1091},{""stimulus"":""img/3to2/12.png"",""time"":1191}]","[]"
"","","","choice","6320e37620d067c7d322246a","bdp_cybrbll","Mon Apr 10 2023 21:08:19 GMT-0400 (Eastern Daylight Time)","480831","1","3","image-keyboard-response","27","101328","0.0-5.0-1.11","","996","","img/2to1/1.png","2","214","265","0.5","0.5","2","3","",""
"","","","","6320e37620d067c7d322246a","bdp_cybrbll","Mon Apr 10 2023 21:08:19 GMT-0400 (Eastern Daylight Time)","480831","1","3","animation","28","102617","0.0-5.0-2.11","","","","","","214","","","","2","3","[{""stimulus"":""img/2to3/1.png"",""time"":99},{""stimulus"":""img/2to3/2.png"",""time"":198},{""stimulus"":""img/2to3/3.png"",""time"":297},{""stimulus"":""img/2to3/4.png"",""time"":396},{""stimulus"":""img/2to3/5.png"",""time"":495},{""stimulus"":""img/2to3/6.png"",""time"":594},{""stimulus"":""img/2to3/7.png"",""time"":693},{""stimulus"":""img/2to3/8.png"",""time"":793},{""stimulus"":""img/2to3/9.png"",""time"":892},{""stimulus"":""img/2to3/10.png"",""time"":991},{""stimulus"":""img/2to3/11.png"",""time"":1090},{""stimulus"":""img/2to3/12.png"",""time"":1189}]","[]"
"","","","observe","6320e37620d067c7d322246a","bdp_cybrbll","Mon Apr 10 2023 21:08:19 GMT-0400 (Eastern Daylight Time)","480831","1","3","image-keyboard-response","29","102884","0.0-5.0-1.12","","null","","img/3to2/1.png","null","213","266","0.5","0.5","3","1","",""
"","","","","6320e37620d067c7d322246a","bdp_cybrbll","Mon Apr 10 2023 21:08:19 GMT-0400 (Eastern Daylight Time)","480831","1","3","animation","30","104177","0.0-5.0-2.12","","","","","","213","","","","3","1","[{""stimulus"":""img/3to1/1.png"",""time"":99},{""stimulus"":""img/3to1/2.png"",""time"":198},{""stimulus"":""img/3to1/3.png"",""time"":298},{""stimulus"":""img/3to1/4.png"",""time"":397},{""stimulus"":""img/3to1/5.png"",""time"":496},{""stimulus"":""img/3to1/6.png"",""time"":596},{""stimulus"":""img/3to1/7.png"",""time"":696},{""stimulus"":""img/3to1/8.png"",""time"":794},{""stimulus"":""img/3to1/9.png"",""time"":894},{""stimulus"":""img/3to1/10.png"",""time"":994},{""stimulus"":""img/3to1/11.png"",""time"":1093},{""stimulus"":""img/3to1/12.png"",""time"":1193}]","[]"
"","","","observe","6320e37620d067c7d322246a","bdp_cybrbll","Mon Apr 10 2023 21:08:19 GMT-0400 (Eastern Daylight Time)","480831","1","3","image-keyboard-response","31","104863","0.0-5.0-1.13","","null","","img/1to3/1.png","null","212","685","0.5","0.5","1","3","",""
"","","","","6320e37620d067c7d322246a","bdp_cybrbll","Mon Apr 10 2023 21:08:19 GMT-0400 (Eastern Daylight Time)","480831","1","3","animation","32","106155","0.0-5.0-2.13","","","","","","212","","","","1","3","[{""stimulus"":""img/1to3/1.png"",""time"":100},{""stimulus"":""img/1to3/2.png"",""time"":199},{""stimulus"":""img/1to3/3.png"",""time"":299},{""stimulus"":""img/1to3/4.png"",""time"":398},{""stimulus"":""img/1to3/5.png"",""time"":498},{""stimulus"":""img/1to3/6.png"",""time"":597},{""stimulus"":""img/1to3/7.png"",""time"":695},{""stimulus"":""img/1to3/8.png"",""time"":796},{""stimulus"":""img/1to3/9.png"",""time"":895},{""stimulus"":""img/1to3/10.png"",""time"":994},{""stimulus"":""img/1to3/11.png"",""time"":1093},{""stimulus"":""img/1to3/12.png"",""time"":1193}]","[]"
"","","","observe","6320e37620d067c7d322246a","bdp_cybrbll","Mon Apr 10 2023 21:08:19 GMT-0400 (Eastern Daylight Time)","480831","1","3","image-keyboard-response","33","106932","0.0-5.0-1.14","","null","","img/3to2/1.png","null","211","776","0.5","0.5","3","1","",""
"","","","","6320e37620d067c7d322246a","bdp_cybrbll","Mon Apr 10 2023 21:08:19 GMT-0400 (Eastern Daylight Time)","480831","1","3","animation","34","108224","0.0-5.0-2.14","","","","","","211","","","","3","1","[{""stimulus"":""img/3to1/1.png"",""time"":100},{""stimulus"":""img/3to1/2.png"",""time"":200},{""stimulus"":""img/3to1/3.png"",""time"":299},{""stimulus"":""img/3to1/4.png"",""time"":399},{""stimulus"":""img/3to1/5.png"",""time"":497},{""stimulus"":""img/3to1/6.png"",""time"":597},{""stimulus"":""img/3to1/7.png"",""time"":696},{""stimulus"":""img/3to1/8.png"",""time"":796},{""stimulus"":""img/3to1/9.png"",""time"":895},{""stimulus"":""img/3to1/10.png"",""time"":995},{""stimulus"":""img/3to1/11.png"",""time"":1094},{""stimulus"":""img/3to1/12.png"",""time"":1193}]","[]"
"","","","observe","6320e37620d067c7d322246a","bdp_cybrbll","Mon Apr 10 2023 21:08:19 GMT-0400 (Eastern Daylight Time)","480831","1","3","image-keyboard-response","35","108887","0.0-5.0-1.15","","null","","img/1to3/1.png","null","210","662","0.5","0.5","1","2","",""
"","","","","6320e37620d067c7d322246a","bdp_cybrbll","Mon Apr 10 2023 21:08:19 GMT-0400 (Eastern Daylight Time)","480831","1","3","animation","36","110176","0.0-5.0-2.15","","","","","","210","","","","1","2","[{""stimulus"":""img/1to2/1.png"",""time"":100},{""stimulus"":""img/1to2/2.png"",""time"":199},{""stimulus"":""img/1to2/3.png"",""time"":298},{""stimulus"":""img/1to2/4.png"",""time"":397},{""stimulus"":""img/1to2/5.png"",""time"":496},{""stimulus"":""img/1to2/6.png"",""time"":596},{""stimulus"":""img/1to2/7.png"",""time"":695},{""stimulus"":""img/1to2/8.png"",""time"":794},{""stimulus"":""img/1to2/9.png"",""time"":893},{""stimulus"":""img/1to2/10.png"",""time"":992},{""stimulus"":""img/1to2/11.png"",""time"":1091},{""stimulus"":""img/1to2/12.png"",""time"":1190}]","[]"
"","","","choice","6320e37620d067c7d322246a","bdp_cybrbll","Mon Apr 10 2023 21:08:19 GMT-0400 (Eastern Daylight Time)","480831","1","3","image-keyboard-response","37","110492","0.0-5.0-1.16","","316","","img/2to1/1.png","1","209","267","0.5","0.5","2","1","",""
"","","","","6320e37620d067c7d322246a","bdp_cybrbll","Mon Apr 10 2023 21:08:19 GMT-0400 (Eastern Daylight Time)","480831","1","3","animation","38","111783","0.0-5.0-2.16","","","","","","209","","","","2","1","[{""stimulus"":""img/2to1/1.png"",""time"":100},{""stimulus"":""img/2to1/2.png"",""time"":199},{""stimulus"":""img/2to1/3.png"",""time"":298},{""stimulus"":""img/2to1/4.png"",""time"":397},{""stimulus"":""img/2to1/5.png"",""time"":496},{""stimulus"":""img/2to1/6.png"",""time"":596},{""stimulus"":""img/2to1/7.png"",""time"":695},{""stimulus"":""img/2to1/8.png"",""time"":794},{""stimulus"":""img/2to1/9.png"",""time"":894},{""stimulus"":""img/2to1/10.png"",""time"":993},{""stimulus"":""img/2to1/11.png"",""time"":1093},{""stimulus"":""img/2to1/12.png"",""time"":1191}]","[]"
"","","","observe","6320e37620d067c7d322246a","bdp_cybrbll","Mon Apr 10 2023 21:08:19 GMT-0400 (Eastern Daylight Time)","480831","1","3","image-keyboard-response","39","112373","0.0-5.0-1.17","","null","","img/1to3/1.png","null","208","589","0.5","0.5","1","3","",""
"","","","","6320e37620d067c7d322246a","bdp_cybrbll","Mon Apr 10 2023 21:08:19 GMT-0400 (Eastern Daylight Time)","480831","1","3","animation","40","113664","0.0-5.0-2.17","","","","","","208","","","","1","3","[{""stimulus"":""img/1to3/1.png"",""time"":100},{""stimulus"":""img/1to3/2.png"",""time"":199},{""stimulus"":""img/1to3/3.png"",""time"":298},{""stimulus"":""img/1to3/4.png"",""time"":397},{""stimulus"":""img/1to3/5.png"",""time"":496},{""stimulus"":""img/1to3/6.png"",""time"":596},{""stimulus"":""img/1to3/7.png"",""time"":694},{""stimulus"":""img/1to3/8.png"",""time"":794},{""stimulus"":""img/1to3/9.png"",""time"":893},{""stimulus"":""img/1to3/10.png"",""time"":993},{""stimulus"":""img/1to3/11.png"",""time"":1092},{""stimulus"":""img/1to3/12.png"",""time"":1192}]","[]"
"","","","observe","6320e37620d067c7d322246a","bdp_cybrbll","Mon Apr 10 2023 21:08:19 GMT-0400 (Eastern Daylight Time)","480831","1","3","image-keyboard-response","41","114463","0.0-5.0-1.18","","null","","img/3to2/1.png","null","207","799","0.5","0.5","3","1","",""
"","","","","6320e37620d067c7d322246a","bdp_cybrbll","Mon Apr 10 2023 21:08:19 GMT-0400 (Eastern Daylight Time)","480831","1","3","animation","42","115755","0.0-5.0-2.18","","","","","","207","","","","3","1","[{""stimulus"":""img/3to1/1.png"",""time"":100},{""stimulus"":""img/3to1/2.png"",""time"":199},{""stimulus"":""img/3to1/3.png"",""time"":299},{""stimulus"":""img/3to1/4.png"",""time"":398},{""stimulus"":""img/3to1/5.png"",""time"":498},{""stimulus"":""img/3to1/6.png"",""time"":597},{""stimulus"":""img/3to1/7.png"",""time"":696},{""stimulus"":""img/3to1/8.png"",""time"":795},{""stimulus"":""img/3to1/9.png"",""time"":895},{""stimulus"":""img/3to1/10.png"",""time"":994},{""stimulus"":""img/3to1/11.png"",""time"":1093},{""stimulus"":""img/3to1/12.png"",""time"":1192}]","[]"
"","","","observe","6320e37620d067c7d322246a","bdp_cybrbll","Mon Apr 10 2023 21:08:19 GMT-0400 (Eastern Daylight Time)","480831","1","3","image-keyboard-response","43","116001","0.0-5.0-1.19","","null","","img/1to3/1.png","null","206","245","0.5","0.5","1","2","",""
"","","","","6320e37620d067c7d322246a","bdp_cybrbll","Mon Apr 10 2023 21:08:19 GMT-0400 (Eastern Daylight Time)","480831","1","3","animation","44","117293","0.0-5.0-2.19","","","","","","206","","","","1","2","[{""stimulus"":""img/1to2/1.png"",""time"":99},{""stimulus"":""img/1to2/2.png"",""time"":199},{""stimulus"":""img/1to2/3.png"",""time"":298},{""stimulus"":""img/1to2/4.png"",""time"":398},{""stimulus"":""img/1to2/5.png"",""time"":496},{""stimulus"":""img/1to2/6.png"",""time"":597},{""stimulus"":""img/1to2/7.png"",""time"":696},{""stimulus"":""img/1to2/8.png"",""time"":795},{""stimulus"":""img/1to2/9.png"",""time"":894},{""stimulus"":""img/1to2/10.png"",""time"":994},{""stimulus"":""img/1to2/11.png"",""time"":1093},{""stimulus"":""img/1to2/12.png"",""time"":1192}]","[]"
"","","","choice","6320e37620d067c7d322246a","bdp_cybrbll","Mon Apr 10 2023 21:08:19 GMT-0400 (Eastern Daylight Time)","480831","1","3","image-keyboard-response","45","117587","0.0-5.0-1.20","","294","","img/2to1/1.png","2","205","500","0.5","0.5","2","3","",""
"","","","","6320e37620d067c7d322246a","bdp_cybrbll","Mon Apr 10 2023 21:08:19 GMT-0400 (Eastern Daylight Time)","480831","1","3","animation","46","118879","0.0-5.0-2.20","","","","","","205","","","","2","3","[{""stimulus"":""img/2to3/1.png"",""time"":99},{""stimulus"":""img/2to3/2.png"",""time"":199},{""stimulus"":""img/2to3/3.png"",""time"":298},{""stimulus"":""img/2to3/4.png"",""time"":398},{""stimulus"":""img/2to3/5.png"",""time"":497},{""stimulus"":""img/2to3/6.png"",""time"":596},{""stimulus"":""img/2to3/7.png"",""time"":695},{""stimulus"":""img/2to3/8.png"",""time"":795},{""stimulus"":""img/2to3/9.png"",""time"":895},{""stimulus"":""img/2to3/10.png"",""time"":994},{""stimulus"":""img/2to3/11.png"",""time"":1094},{""stimulus"":""img/2to3/12.png"",""time"":1193}]","[]"
"","","","observe","6320e37620d067c7d322246a","bdp_cybrbll","Mon Apr 10 2023 21:08:19 GMT-0400 (Eastern Daylight Time)","480831","1","3","image-keyboard-response","47","119266","0.0-5.0-1.21","","null","","img/3to2/1.png","null","204","385","0.5","0.5","3","2","",""
"","","","","6320e37620d067c7d322246a","bdp_cybrbll","Mon Apr 10 2023 21:08:19 GMT-0400 (Eastern Daylight Time)","480831","1","3","animation","48","120558","0.0-5.0-2.21","","","","","","204","","","","3","2","[{""stimulus"":""img/3to2/1.png"",""time"":99},{""stimulus"":""img/3to2/2.png"",""time"":198},{""stimulus"":""img/3to2/3.png"",""time"":298},{""stimulus"":""img/3to2/4.png"",""time"":397},{""stimulus"":""img/3to2/5.png"",""time"":496},{""stimulus"":""img/3to2/6.png"",""time"":596},{""stimulus"":""img/3to2/7.png"",""time"":696},{""stimulus"":""img/3to2/8.png"",""time"":795},{""stimulus"":""img/3to2/9.png"",""time"":895},{""stimulus"":""img/3to2/10.png"",""time"":994},{""stimulus"":""img/3to2/11.png"",""time"":1093},{""stimulus"":""img/3to2/12.png"",""time"":1193}]","[]"
"","","","choice","6320e37620d067c7d322246a","bdp_cybrbll","Mon Apr 10 2023 21:08:19 GMT-0400 (Eastern Daylight Time)","480831","1","3","image-keyboard-response","49","120834","0.0-5.0-1.22","","276","","img/2to1/1.png","1","203","546","0.5","0.5","2","1","",""
"","","","","6320e37620d067c7d322246a","bdp_cybrbll","Mon Apr 10 2023 21:08:19 GMT-0400 (Eastern Daylight Time)","480831","1","3","animation","50","122128","0.0-5.0-2.22","","","","","","203","","","","2","1","[{""stimulus"":""img/2to1/1.png"",""time"":99},{""stimulus"":""img/2to1/2.png"",""time"":199},{""stimulus"":""img/2to1/3.png"",""time"":299},{""stimulus"":""img/2to1/4.png"",""time"":397},{""stimulus"":""img/2to1/5.png"",""time"":497},{""stimulus"":""img/2to1/6.png"",""time"":596},{""stimulus"":""img/2to1/7.png"",""time"":696},{""stimulus"":""img/2to1/8.png"",""time"":795},{""stimulus"":""img/2to1/9.png"",""time"":895},{""stimulus"":""img/2to1/10.png"",""time"":995},{""stimulus"":""img/2to1/11.png"",""time"":1094},{""stimulus"":""img/2to1/12.png"",""time"":1194}]","[]"
"","","","observe","6320e37620d067c7d322246a","bdp_cybrbll","Mon Apr 10 2023 21:08:19 GMT-0400 (Eastern Daylight Time)","480831","1","3","image-keyboard-response","51","122517","0.0-5.0-1.23","","null","","img/1to3/1.png","null","202","388","0.5","0.5","1","3","",""
"","","","","6320e37620d067c7d322246a","bdp_cybrbll","Mon Apr 10 2023 21:08:19 GMT-0400 (Eastern Daylight Time)","480831","1","3","animation","52","123810","0.0-5.0-2.23","","","","","","202","","","","1","3","[{""stimulus"":""img/1to3/1.png"",""time"":100},{""stimulus"":""img/1to3/2.png"",""time"":199},{""stimulus"":""img/1to3/3.png"",""time"":298},{""stimulus"":""img/1to3/4.png"",""time"":397},{""stimulus"":""img/1to3/5.png"",""time"":497},{""stimulus"":""img/1to3/6.png"",""time"":597},{""stimulus"":""img/1to3/7.png"",""time"":696},{""stimulus"":""img/1to3/8.png"",""time"":795},{""stimulus"":""img/1to3/9.png"",""time"":895},{""stimulus"":""img/1to3/10.png"",""time"":995},{""stimulus"":""img/1to3/11.png"",""time"":1093},{""stimulus"":""img/1to3/12.png"",""time"":1193}]","[]"
"","","","observe","6320e37620d067c7d322246a","bdp_cybrbll","Mon Apr 10 2023 21:08:19 GMT-0400 (Eastern Daylight Time)","480831","1","3","image-keyboard-response","53","124572","0.0-5.0-1.24","","null","","img/3to2/1.png","null","201","761","0.5","0.5","3","1","",""
"","","","","6320e37620d067c7d322246a","bdp_cybrbll","Mon Apr 10 2023 21:08:19 GMT-0400 (Eastern Daylight Time)","480831","1","3","animation","54","125861","0.0-5.0-2.24","","","","","","201","","","","3","1","[{""stimulus"":""img/3to1/1.png"",""time"":99},{""stimulus"":""img/3to1/2.png"",""time"":198},{""stimulus"":""img/3to1/3.png"",""time"":297},{""stimulus"":""img/3to1/4.png"",""time"":397},{""stimulus"":""img/3to1/5.png"",""time"":495},{""stimulus"":""img/3to1/6.png"",""time"":595},{""stimulus"":""img/3to1/7.png"",""time"":694},{""stimulus"":""img/3to1/8.png"",""time"":794},{""stimulus"":""img/3to1/9.png"",""time"":893},{""stimulus"":""img/3to1/10.png"",""time"":992},{""stimulus"":""img/3to1/11.png"",""time"":1092},{""stimulus"":""img/3to1/12.png"",""time"":1190}]","[]"
"","","","observe","6320e37620d067c7d322246a","bdp_cybrbll","Mon Apr 10 2023 21:08:19 GMT-0400 (Eastern Daylight Time)","480831","1","3","image-keyboard-response","55","126720","0.0-5.0-1.25","","null","","img/1to3/1.png","null","200","858","0.5","0.5","1","3","",""
"","","","","6320e37620d067c7d322246a","bdp_cybrbll","Mon Apr 10 2023 21:08:19 GMT-0400 (Eastern Daylight Time)","480831","1","3","animation","56","128013","0.0-5.0-2.25","","","","","","200","","","","1","3","[{""stimulus"":""img/1to3/1.png"",""time"":100},{""stimulus"":""img/1to3/2.png"",""time"":199},{""stimulus"":""img/1to3/3.png"",""time"":298},{""stimulus"":""img/1to3/4.png"",""time"":398},{""stimulus"":""img/1to3/5.png"",""time"":497},{""stimulus"":""img/1to3/6.png"",""time"":597},{""stimulus"":""img/1to3/7.png"",""time"":697},{""stimulus"":""img/1to3/8.png"",""time"":795},{""stimulus"":""img/1to3/9.png"",""time"":895},{""stimulus"":""img/1to3/10.png"",""time"":995},{""stimulus"":""img/1to3/11.png"",""time"":1093},{""stimulus"":""img/1to3/12.png"",""time"":1193}]","[]"
"","","","observe","6320e37620d067c7d322246a","bdp_cybrbll","Mon Apr 10 2023 21:08:19 GMT-0400 (Eastern Daylight Time)","480831","1","3","image-keyboard-response","57","128181","0.0-5.0-1.26","","null","","img/3to2/1.png","null","199","168","0.5","0.5","3","1","",""
"","","","","6320e37620d067c7d322246a","bdp_cybrbll","Mon Apr 10 2023 21:08:19 GMT-0400 (Eastern Daylight Time)","480831","1","3","animation","58","129473","0.0-5.0-2.26","","","","","","199","","","","3","1","[{""stimulus"":""img/3to1/1.png"",""time"":100},{""stimulus"":""img/3to1/2.png"",""time"":199},{""stimulus"":""img/3to1/3.png"",""time"":298},{""stimulus"":""img/3to1/4.png"",""time"":397},{""stimulus"":""img/3to1/5.png"",""time"":497},{""stimulus"":""img/3to1/6.png"",""time"":596},{""stimulus"":""img/3to1/7.png"",""time"":696},{""stimulus"":""img/3to1/8.png"",""time"":795},{""stimulus"":""img/3to1/9.png"",""time"":895},{""stimulus"":""img/3to1/10.png"",""time"":994},{""stimulus"":""img/3to1/11.png"",""time"":1093},{""stimulus"":""img/3to1/12.png"",""time"":1193}]","[]"
"","","","observe","6320e37620d067c7d322246a","bdp_cybrbll","Mon Apr 10 2023 21:08:19 GMT-0400 (Eastern Daylight Time)","480831","1","3","image-keyboard-response","59","129794","0.0-5.0-1.27","","null","","img/1to3/1.png","null","198","319","0.5","0.5","1","3","",""
"","","","","6320e37620d067c7d322246a","bdp_cybrbll","Mon Apr 10 2023 21:08:19 GMT-0400 (Eastern Daylight Time)","480831","1","3","animation","60","131086","0.0-5.0-2.27","","","","","","198","","","","1","3","[{""stimulus"":""img/1to3/1.png"",""time"":100},{""stimulus"":""img/1to3/2.png"",""time"":198},{""stimulus"":""img/1to3/3.png"",""time"":298},{""stimulus"":""img/1to3/4.png"",""time"":397},{""stimulus"":""img/1to3/5.png"",""time"":497},{""stimulus"":""img/1to3/6.png"",""time"":596},{""stimulus"":""img/1to3/7.png"",""time"":696},{""stimulus"":""img/1to3/8.png"",""time"":796},{""stimulus"":""img/1to3/9.png"",""time"":894},{""stimulus"":""img/1to3/10.png"",""time"":994},{""stimulus"":""img/1to3/11.png"",""time"":1094},{""stimulus"":""img/1to3/12.png"",""time"":1193}]","[]"
"","","","observe","6320e37620d067c7d322246a","bdp_cybrbll","Mon Apr 10 2023 21:08:19 GMT-0400 (Eastern Daylight Time)","480831","1","3","image-keyboard-response","61","131940","0.0-5.0-1.28","","null","","img/3to2/1.png","null","197","853","0.5","0.5","3","2","",""
"","","","","6320e37620d067c7d322246a","bdp_cybrbll","Mon Apr 10 2023 21:08:19 GMT-0400 (Eastern Daylight Time)","480831","1","3","animation","62","133233","0.0-5.0-2.28","","","","","","197","","","","3","2","[{""stimulus"":""img/3to2/1.png"",""time"":100},{""stimulus"":""img/3to2/2.png"",""time"":199},{""stimulus"":""img/3to2/3.png"",""time"":298},{""stimulus"":""img/3to2/4.png"",""time"":398},{""stimulus"":""img/3to2/5.png"",""time"":497},{""stimulus"":""img/3to2/6.png"",""time"":597},{""stimulus"":""img/3to2/7.png"",""time"":697},{""stimulus"":""img/3to2/8.png"",""time"":795},{""stimulus"":""img/3to2/9.png"",""time"":896},{""stimulus"":""img/3to2/10.png"",""time"":995},{""stimulus"":""img/3to2/11.png"",""time"":1094},{""stimulus"":""img/3to2/12.png"",""time"":1194}]","[]"
"","","","choice","6320e37620d067c7d322246a","bdp_cybrbll","Mon Apr 10 2023 21:08:19 GMT-0400 (Eastern Daylight Time)","480831","1","3","image-keyboard-response","63","133363","0.0-5.0-1.29","","130","","img/2to1/1.png","1","196","331","0.5","0.5","2","1","",""
"","","","","6320e37620d067c7d322246a","bdp_cybrbll","Mon Apr 10 2023 21:08:19 GMT-0400 (Eastern Daylight Time)","480831","1","3","animation","64","134653","0.0-5.0-2.29","","","","","","196","","","","2","1","[{""stimulus"":""img/2to1/1.png"",""time"":99},{""stimulus"":""img/2to1/2.png"",""time"":199},{""stimulus"":""img/2to1/3.png"",""time"":298},{""stimulus"":""img/2to1/4.png"",""time"":398},{""stimulus"":""img/2to1/5.png"",""time"":497},{""stimulus"":""img/2to1/6.png"",""time"":596},{""stimulus"":""img/2to1/7.png"",""time"":695},{""stimulus"":""img/2to1/8.png"",""time"":795},{""stimulus"":""img/2to1/9.png"",""time"":894},{""stimulus"":""img/2to1/10.png"",""time"":993},{""stimulus"":""img/2to1/11.png"",""time"":1092},{""stimulus"":""img/2to1/12.png"",""time"":1190}]","[]"
"","","","observe","6320e37620d067c7d322246a","bdp_cybrbll","Mon Apr 10 2023 21:08:19 GMT-0400 (Eastern Daylight Time)","480831","1","3","image-keyboard-response","65","135593","0.0-5.0-1.30","","null","","img/1to3/1.png","null","195","940","0.5","0.5","1","2","",""
"","","","","6320e37620d067c7d322246a","bdp_cybrbll","Mon Apr 10 2023 21:08:19 GMT-0400 (Eastern Daylight Time)","480831","1","3","animation","66","136886","0.0-5.0-2.30","","","","","","195","","","","1","2","[{""stimulus"":""img/1to2/1.png"",""time"":99},{""stimulus"":""img/1to2/2.png"",""time"":198},{""stimulus"":""img/1to2/3.png"",""time"":298},{""stimulus"":""img/1to2/4.png"",""time"":397},{""stimulus"":""img/1to2/5.png"",""time"":497},{""stimulus"":""img/1to2/6.png"",""time"":596},{""stimulus"":""img/1to2/7.png"",""time"":695},{""stimulus"":""img/1to2/8.png"",""time"":795},{""stimulus"":""img/1to2/9.png"",""time"":894},{""stimulus"":""img/1to2/10.png"",""time"":994},{""stimulus"":""img/1to2/11.png"",""time"":1093},{""stimulus"":""img/1to2/12.png"",""time"":1193}]","[]"
"","","","choice","6320e37620d067c7d322246a","bdp_cybrbll","Mon Apr 10 2023 21:08:19 GMT-0400 (Eastern Daylight Time)","480831","1","3","image-keyboard-response","67","137068","0.0-5.0-1.31","","181","","img/2to1/1.png","2","194","293","0.5","0.5","2","3","",""
"","","","","6320e37620d067c7d322246a","bdp_cybrbll","Mon Apr 10 2023 21:08:19 GMT-0400 (Eastern Daylight Time)","480831","1","3","animation","68","138360","0.0-5.0-2.31","","","","","","194","","","","2","3","[{""stimulus"":""img/2to3/1.png"",""time"":100},{""stimulus"":""img/2to3/2.png"",""time"":199},{""stimulus"":""img/2to3/3.png"",""time"":299},{""stimulus"":""img/2to3/4.png"",""time"":397},{""stimulus"":""img/2to3/5.png"",""time"":497},{""stimulus"":""img/2to3/6.png"",""time"":596},{""stimulus"":""img/2to3/7.png"",""time"":696},{""stimulus"":""img/2to3/8.png"",""time"":796},{""stimulus"":""img/2to3/9.png"",""time"":894},{""stimulus"":""img/2to3/10.png"",""time"":994},{""stimulus"":""img/2to3/11.png"",""time"":1094},{""stimulus"":""img/2to3/12.png"",""time"":1192}]","[]"
"","","","observe","6320e37620d067c7d322246a","bdp_cybrbll","Mon Apr 10 2023 21:08:19 GMT-0400 (Eastern Daylight Time)","480831","1","3","image-keyboard-response","69","138661","0.0-5.0-1.32","","null","","img/3to2/1.png","null","193","301","0.5","0.5","3","1","",""
"","","","","6320e37620d067c7d322246a","bdp_cybrbll","Mon Apr 10 2023 21:08:19 GMT-0400 (Eastern Daylight Time)","480831","1","3","animation","70","139951","0.0-5.0-2.32","","","","","","193","","","","3","1","[{""stimulus"":""img/3to1/1.png"",""time"":100},{""stimulus"":""img/3to1/2.png"",""time"":199},{""stimulus"":""img/3to1/3.png"",""time"":297},{""stimulus"":""img/3to1/4.png"",""time"":397},{""stimulus"":""img/3to1/5.png"",""time"":495},{""stimulus"":""img/3to1/6.png"",""time"":595},{""stimulus"":""img/3to1/7.png"",""time"":694},{""stimulus"":""img/3to1/8.png"",""time"":793},{""stimulus"":""img/3to1/9.png"",""time"":893},{""stimulus"":""img/3to1/10.png"",""time"":992},{""stimulus"":""img/3to1/11.png"",""time"":1091},{""stimulus"":""img/3to1/12.png"",""time"":1191}]","[]"
"","","","observe","6320e37620d067c7d322246a","bdp_cybrbll","Mon Apr 10 2023 21:08:19 GMT-0400 (Eastern Daylight Time)","480831","1","3","image-keyboard-response","71","140336","0.0-5.0-1.33","","null","","img/1to3/1.png","null","192","384","0.5","0.5","1","2","",""
"","","","","6320e37620d067c7d322246a","bdp_cybrbll","Mon Apr 10 2023 21:08:19 GMT-0400 (Eastern Daylight Time)","480831","1","3","animation","72","141628","0.0-5.0-2.33","","","","","","192","","","","1","2","[{""stimulus"":""img/1to2/1.png"",""time"":99},{""stimulus"":""img/1to2/2.png"",""time"":198},{""stimulus"":""img/1to2/3.png"",""time"":297},{""stimulus"":""img/1to2/4.png"",""time"":396},{""stimulus"":""img/1to2/5.png"",""time"":495},{""stimulus"":""img/1to2/6.png"",""time"":595},{""stimulus"":""img/1to2/7.png"",""time"":695},{""stimulus"":""img/1to2/8.png"",""time"":795},{""stimulus"":""img/1to2/9.png"",""time"":894},{""stimulus"":""img/1to2/10.png"",""time"":993},{""stimulus"":""img/1to2/11.png"",""time"":1093},{""stimulus"":""img/1to2/12.png"",""time"":1192}]","[]"
"","","","choice","6320e37620d067c7d322246a","bdp_cybrbll","Mon Apr 10 2023 21:08:19 GMT-0400 (Eastern Daylight Time)","480831","1","3","image-keyboard-response","73","141719","0.0-5.0-1.34","","90","","img/2to1/1.png","2","191","840","0.5","0.5","2","3","",""
"","","","","6320e37620d067c7d322246a","bdp_cybrbll","Mon Apr 10 2023 21:08:19 GMT-0400 (Eastern Daylight Time)","480831","1","3","animation","74","143009","0.0-5.0-2.34","","","","","","191","","","","2","3","[{""stimulus"":""img/2to3/1.png"",""time"":101},{""stimulus"":""img/2to3/2.png"",""time"":200},{""stimulus"":""img/2to3/3.png"",""time"":300},{""stimulus"":""img/2to3/4.png"",""time"":399},{""stimulus"":""img/2to3/5.png"",""time"":498},{""stimulus"":""img/2to3/6.png"",""time"":597},{""stimulus"":""img/2to3/7.png"",""time"":695},{""stimulus"":""img/2to3/8.png"",""time"":795},{""stimulus"":""img/2to3/9.png"",""time"":894},{""stimulus"":""img/2to3/10.png"",""time"":993},{""stimulus"":""img/2to3/11.png"",""time"":1092},{""stimulus"":""img/2to3/12.png"",""time"":1191}]","[]"
"","","","observe","6320e37620d067c7d322246a","bdp_cybrbll","Mon Apr 10 2023 21:08:19 GMT-0400 (Eastern Daylight Time)","480831","1","3","image-keyboard-response","75","143701","0.0-5.0-1.35","","null","","img/3to2/1.png","null","190","691","0.5","0.5","3","2","",""
"","","","","6320e37620d067c7d322246a","bdp_cybrbll","Mon Apr 10 2023 21:08:19 GMT-0400 (Eastern Daylight Time)","480831","1","3","animation","76","144991","0.0-5.0-2.35","","","","","","190","","","","3","2","[{""stimulus"":""img/3to2/1.png"",""time"":100},{""stimulus"":""img/3to2/2.png"",""time"":199},{""stimulus"":""img/3to2/3.png"",""time"":298},{""stimulus"":""img/3to2/4.png"",""time"":398},{""stimulus"":""img/3to2/5.png"",""time"":497},{""stimulus"":""img/3to2/6.png"",""time"":596},{""stimulus"":""img/3to2/7.png"",""time"":695},{""stimulus"":""img/3to2/8.png"",""time"":794},{""stimulus"":""img/3to2/9.png"",""time"":893},{""stimulus"":""img/3to2/10.png"",""time"":992},{""stimulus"":""img/3to2/11.png"",""time"":1091},{""stimulus"":""img/3to2/12.png"",""time"":1191}]","[]"
"","","","choice","6320e37620d067c7d322246a","bdp_cybrbll","Mon Apr 10 2023 21:08:19 GMT-0400 (Eastern Daylight Time)","480831","1","3","image-keyboard-response","77","145240","0.0-5.0-1.36","","249","","img/2to1/1.png","1","189","530","0.5","0.5","2","1","",""
"","","","","6320e37620d067c7d322246a","bdp_cybrbll","Mon Apr 10 2023 21:08:19 GMT-0400 (Eastern Daylight Time)","480831","1","3","animation","78","146530","0.0-5.0-2.36","","","","","","189","","","","2","1","[{""stimulus"":""img/2to1/1.png"",""time"":99},{""stimulus"":""img/2to1/2.png"",""time"":200},{""stimulus"":""img/2to1/3.png"",""time"":298},{""stimulus"":""img/2to1/4.png"",""time"":397},{""stimulus"":""img/2to1/5.png"",""time"":496},{""stimulus"":""img/2to1/6.png"",""time"":595},{""stimulus"":""img/2to1/7.png"",""time"":695},{""stimulus"":""img/2to1/8.png"",""time"":794},{""stimulus"":""img/2to1/9.png"",""time"":893},{""stimulus"":""img/2to1/10.png"",""time"":993},{""stimulus"":""img/2to1/11.png"",""time"":1092},{""stimulus"":""img/2to1/12.png"",""time"":1191}]","[]"
"","","","observe","6320e37620d067c7d322246a","bdp_cybrbll","Mon Apr 10 2023 21:08:19 GMT-0400 (Eastern Daylight Time)","480831","1","3","image-keyboard-response","79","147150","0.0-5.0-1.37","","null","","img/1to3/1.png","null","188","618","0.5","0.5","1","2","",""
"","","","","6320e37620d067c7d322246a","bdp_cybrbll","Mon Apr 10 2023 21:08:19 GMT-0400 (Eastern Daylight Time)","480831","1","3","animation","80","148440","0.0-5.0-2.37","","","","","","188","","","","1","2","[{""stimulus"":""img/1to2/1.png"",""time"":99},{""stimulus"":""img/1to2/2.png"",""time"":198},{""stimulus"":""img/1to2/3.png"",""time"":297},{""stimulus"":""img/1to2/4.png"",""time"":396},{""stimulus"":""img/1to2/5.png"",""time"":496},{""stimulus"":""img/1to2/6.png"",""time"":596},{""stimulus"":""img/1to2/7.png"",""time"":695},{""stimulus"":""img/1to2/8.png"",""time"":794},{""stimulus"":""img/1to2/9.png"",""time"":894},{""stimulus"":""img/1to2/10.png"",""time"":993},{""stimulus"":""img/1to2/11.png"",""time"":1092},{""stimulus"":""img/1to2/12.png"",""time"":1192}]","[]"
"","","","choice","6320e37620d067c7d322246a","bdp_cybrbll","Mon Apr 10 2023 21:08:19 GMT-0400 (Eastern Daylight Time)","480831","1","3","image-keyboard-response","81","148709","0.0-5.0-1.38","","268","","img/2to1/1.png","2","187","197","0.5","0.5","2","3","",""
"","","","","6320e37620d067c7d322246a","bdp_cybrbll","Mon Apr 10 2023 21:08:19 GMT-0400 (Eastern Daylight Time)","480831","1","3","animation","82","150002","0.0-5.0-2.38","","","","","","187","","","","2","3","[{""stimulus"":""img/2to3/1.png"",""time"":100},{""stimulus"":""img/2to3/2.png"",""time"":200},{""stimulus"":""img/2to3/3.png"",""time"":299},{""stimulus"":""img/2to3/4.png"",""time"":399},{""stimulus"":""img/2to3/5.png"",""time"":498},{""stimulus"":""img/2to3/6.png"",""time"":598},{""stimulus"":""img/2to3/7.png"",""time"":696},{""stimulus"":""img/2to3/8.png"",""time"":796},{""stimulus"":""img/2to3/9.png"",""time"":895},{""stimulus"":""img/2to3/10.png"",""time"":995},{""stimulus"":""img/2to3/11.png"",""time"":1094},{""stimulus"":""img/2to3/12.png"",""time"":1194}]","[]"
"","","","observe","6320e37620d067c7d322246a","bdp_cybrbll","Mon Apr 10 2023 21:08:19 GMT-0400 (Eastern Daylight Time)","480831","1","3","image-keyboard-response","83","150348","0.0-5.0-1.39","","null","","img/3to2/1.png","null","186","345","0.5","0.5","3","2","",""
"","","","","6320e37620d067c7d322246a","bdp_cybrbll","Mon Apr 10 2023 21:08:19 GMT-0400 (Eastern Daylight Time)","480831","1","3","animation","84","151640","0.0-5.0-2.39","","","","","","186","","","","3","2","[{""stimulus"":""img/3to2/1.png"",""time"":100},{""stimulus"":""img/3to2/2.png"",""time"":200},{""stimulus"":""img/3to2/3.png"",""time"":299},{""stimulus"":""img/3to2/4.png"",""time"":398},{""stimulus"":""img/3to2/5.png"",""time"":498},{""stimulus"":""img/3to2/6.png"",""time"":597},{""stimulus"":""img/3to2/7.png"",""time"":697},{""stimulus"":""img/3to2/8.png"",""time"":796},{""stimulus"":""img/3to2/9.png"",""time"":895},{""stimulus"":""img/3to2/10.png"",""time"":995},{""stimulus"":""img/3to2/11.png"",""time"":1095},{""stimulus"":""img/3to2/12.png"",""time"":1194}]","[]"
"","","","choice","6320e37620d067c7d322246a","bdp_cybrbll","Mon Apr 10 2023 21:08:19 GMT-0400 (Eastern Daylight Time)","480831","1","3","image-keyboard-response","85","151922","0.0-5.0-1.40","","281","","img/2to1/1.png","1","185","300","0.5","0.5","2","1","",""
"","","","","6320e37620d067c7d322246a","bdp_cybrbll","Mon Apr 10 2023 21:08:19 GMT-0400 (Eastern Daylight Time)","480831","1","3","animation","86","153214","0.0-5.0-2.40","","","","","","185","","","","2","1","[{""stimulus"":""img/2to1/1.png"",""time"":100},{""stimulus"":""img/2to1/2.png"",""time"":200},{""stimulus"":""img/2to1/3.png"",""time"":299},{""stimulus"":""img/2to1/4.png"",""time"":399},{""stimulus"":""img/2to1/5.png"",""time"":497},{""stimulus"":""img/2to1/6.png"",""time"":597},{""stimulus"":""img/2to1/7.png"",""time"":696},{""stimulus"":""img/2to1/8.png"",""time"":796},{""stimulus"":""img/2to1/9.png"",""time"":895},{""stimulus"":""img/2to1/10.png"",""time"":995},{""stimulus"":""img/2to1/11.png"",""time"":1094},{""stimulus"":""img/2to1/12.png"",""time"":1193}]","[]"
"","","","observe","6320e37620d067c7d322246a","bdp_cybrbll","Mon Apr 10 2023 21:08:19 GMT-0400 (Eastern Daylight Time)","480831","1","3","image-keyboard-response","87","153990","0.0-5.0-1.41","","null","","img/1to3/1.png","null","184","776","0.5","0.5","1","3","",""
"","","","","6320e37620d067c7d322246a","bdp_cybrbll","Mon Apr 10 2023 21:08:19 GMT-0400 (Eastern Daylight Time)","480831","1","3","animation","88","155280","0.0-5.0-2.41","","","","","","184","","","","1","3","[{""stimulus"":""img/1to3/1.png"",""time"":100},{""stimulus"":""img/1to3/2.png"",""time"":199},{""stimulus"":""img/1to3/3.png"",""time"":298},{""stimulus"":""img/1to3/4.png"",""time"":398},{""stimulus"":""img/1to3/5.png"",""time"":496},{""stimulus"":""img/1to3/6.png"",""time"":595},{""stimulus"":""img/1to3/7.png"",""time"":694},{""stimulus"":""img/1to3/8.png"",""time"":794},{""stimulus"":""img/1to3/9.png"",""time"":893},{""stimulus"":""img/1to3/10.png"",""time"":992},{""stimulus"":""img/1to3/11.png"",""time"":1091},{""stimulus"":""img/1to3/12.png"",""time"":1191}]","[]"
"","","","observe","6320e37620d067c7d322246a","bdp_cybrbll","Mon Apr 10 2023 21:08:19 GMT-0400 (Eastern Daylight Time)","480831","1","3","image-keyboard-response","89","155495","0.0-5.0-1.42","","null","","img/3to2/1.png","null","183","215","0.5","0.5","3","2","",""
"","","","","6320e37620d067c7d322246a","bdp_cybrbll","Mon Apr 10 2023 21:08:19 GMT-0400 (Eastern Daylight Time)","480831","1","3","animation","90","156784","0.0-5.0-2.42","","","","","","183","","","","3","2","[{""stimulus"":""img/3to2/1.png"",""time"":99},{""stimulus"":""img/3to2/2.png"",""time"":199},{""stimulus"":""img/3to2/3.png"",""time"":298},{""stimulus"":""img/3to2/4.png"",""time"":397},{""stimulus"":""img/3to2/5.png"",""time"":496},{""stimulus"":""img/3to2/6.png"",""time"":595},{""stimulus"":""img/3to2/7.png"",""time"":694},{""stimulus"":""img/3to2/8.png"",""time"":794},{""stimulus"":""img/3to2/9.png"",""time"":893},{""stimulus"":""img/3to2/10.png"",""time"":992},{""stimulus"":""img/3to2/11.png"",""time"":1091},{""stimulus"":""img/3to2/12.png"",""time"":1190}]","[]"
"","","","choice","6320e37620d067c7d322246a","bdp_cybrbll","Mon Apr 10 2023 21:08:19 GMT-0400 (Eastern Daylight Time)","480831","1","3","image-keyboard-response","91","157537","0.0-5.0-1.43","","753","","img/2to1/1.png","1","182","498","0.5","0.5","2","1","",""
"","","","","6320e37620d067c7d322246a","bdp_cybrbll","Mon Apr 10 2023 21:08:19 GMT-0400 (Eastern Daylight Time)","480831","1","3","animation","92","158828","0.0-5.0-2.43","","","","","","182","","","","2","1","[{""stimulus"":""img/2to1/1.png"",""time"":100},{""stimulus"":""img/2to1/2.png"",""time"":199},{""stimulus"":""img/2to1/3.png"",""time"":298},{""stimulus"":""img/2to1/4.png"",""time"":397},{""stimulus"":""img/2to1/5.png"",""time"":496},{""stimulus"":""img/2to1/6.png"",""time"":595},{""stimulus"":""img/2to1/7.png"",""time"":694},{""stimulus"":""img/2to1/8.png"",""time"":794},{""stimulus"":""img/2to1/9.png"",""time"":894},{""stimulus"":""img/2to1/10.png"",""time"":993},{""stimulus"":""img/2to1/11.png"",""time"":1092},{""stimulus"":""img/2to1/12.png"",""time"":1192}]","[]"
"","","","observe","6320e37620d067c7d322246a","bdp_cybrbll","Mon Apr 10 2023 21:08:19 GMT-0400 (Eastern Daylight Time)","480831","1","3","image-keyboard-response","93","159091","0.0-5.0-1.44","","null","","img/1to3/1.png","null","181","262","0.5","0.5","1","2","",""
"","","","","6320e37620d067c7d322246a","bdp_cybrbll","Mon Apr 10 2023 21:08:19 GMT-0400 (Eastern Daylight Time)","480831","1","3","animation","94","160383","0.0-5.0-2.44","","","","","","181","","","","1","2","[{""stimulus"":""img/1to2/1.png"",""time"":100},{""stimulus"":""img/1to2/2.png"",""time"":199},{""stimulus"":""img/1to2/3.png"",""time"":299},{""stimulus"":""img/1to2/4.png"",""time"":398},{""stimulus"":""img/1to2/5.png"",""time"":497},{""stimulus"":""img/1to2/6.png"",""time"":597},{""stimulus"":""img/1to2/7.png"",""time"":696},{""stimulus"":""img/1to2/8.png"",""time"":796},{""stimulus"":""img/1to2/9.png"",""time"":894},{""stimulus"":""img/1to2/10.png"",""time"":994},{""stimulus"":""img/1to2/11.png"",""time"":1093},{""stimulus"":""img/1to2/12.png"",""time"":1192}]","[]"
"","","","choice","6320e37620d067c7d322246a","bdp_cybrbll","Mon Apr 10 2023 21:08:19 GMT-0400 (Eastern Daylight Time)","480831","1","3","image-keyboard-response","95","160450","0.0-5.0-1.45","","67","","img/2to1/1.png","2","180","350","0.5","0.5","2","3","",""
"","","","","6320e37620d067c7d322246a","bdp_cybrbll","Mon Apr 10 2023 21:08:19 GMT-0400 (Eastern Daylight Time)","480831","1","3","animation","96","161741","0.0-5.0-2.45","","","","","","180","","","","2","3","[{""stimulus"":""img/2to3/1.png"",""time"":99},{""stimulus"":""img/2to3/2.png"",""time"":199},{""stimulus"":""img/2to3/3.png"",""time"":298},{""stimulus"":""img/2to3/4.png"",""time"":398},{""stimulus"":""img/2to3/5.png"",""time"":497},{""stimulus"":""img/2to3/6.png"",""time"":596},{""stimulus"":""img/2to3/7.png"",""time"":696},{""stimulus"":""img/2to3/8.png"",""time"":795},{""stimulus"":""img/2to3/9.png"",""time"":895},{""stimulus"":""img/2to3/10.png"",""time"":994},{""stimulus"":""img/2to3/11.png"",""time"":1092},{""stimulus"":""img/2to3/12.png"",""time"":1192}]","[]"
"","","","observe","6320e37620d067c7d322246a","bdp_cybrbll","Mon Apr 10 2023 21:08:19 GMT-0400 (Eastern Daylight Time)","480831","1","3","image-keyboard-response","97","162190","0.0-5.0-1.46","","null","","img/3to2/1.png","null","179","448","0.5","0.5","3","1","",""
"","","","","6320e37620d067c7d322246a","bdp_cybrbll","Mon Apr 10 2023 21:08:19 GMT-0400 (Eastern Daylight Time)","480831","1","3","animation","98","163481","0.0-5.0-2.46","","","","","","179","","","","3","1","[{""stimulus"":""img/3to1/1.png"",""time"":100},{""stimulus"":""img/3to1/2.png"",""time"":199},{""stimulus"":""img/3to1/3.png"",""time"":298},{""stimulus"":""img/3to1/4.png"",""time"":397},{""stimulus"":""img/3to1/5.png"",""time"":496},{""stimulus"":""img/3to1/6.png"",""time"":595},{""stimulus"":""img/3to1/7.png"",""time"":694},{""stimulus"":""img/3to1/8.png"",""time"":794},{""stimulus"":""img/3to1/9.png"",""time"":893},{""stimulus"":""img/3to1/10.png"",""time"":992},{""stimulus"":""img/3to1/11.png"",""time"":1092},{""stimulus"":""img/3to1/12.png"",""time"":1192}]","[]"
"","","","observe","6320e37620d067c7d322246a","bdp_cybrbll","Mon Apr 10 2023 21:08:19 GMT-0400 (Eastern Daylight Time)","480831","1","3","image-keyboard-response","99","164320","0.0-5.0-1.47","","null","","img/1to3/1.png","null","178","839","0.5","0.5","1","2","",""
"","","","","6320e37620d067c7d322246a","bdp_cybrbll","Mon Apr 10 2023 21:08:19 GMT-0400 (Eastern Daylight Time)","480831","1","3","animation","100","165609","0.0-5.0-2.47","","","","","","178","","","","1","2","[{""stimulus"":""img/1to2/1.png"",""time"":100},{""stimulus"":""img/1to2/2.png"",""time"":199},{""stimulus"":""img/1to2/3.png"",""time"":298},{""stimulus"":""img/1to2/4.png"",""time"":397},{""stimulus"":""img/1to2/5.png"",""time"":496},{""stimulus"":""img/1to2/6.png"",""time"":595},{""stimulus"":""img/1to2/7.png"",""time"":695},{""stimulus"":""img/1to2/8.png"",""time"":794},{""stimulus"":""img/1to2/9.png"",""time"":893},{""stimulus"":""img/1to2/10.png"",""time"":992},{""stimulus"":""img/1to2/11.png"",""time"":1092},{""stimulus"":""img/1to2/12.png"",""time"":1191}]","[]"
"","","","choice","6320e37620d067c7d322246a","bdp_cybrbll","Mon Apr 10 2023 21:08:19 GMT-0400 (Eastern Daylight Time)","480831","1","3","image-keyboard-response","101","165784","0.0-5.0-1.48","","175","","img/2to1/1.png","2","177","260","0.5","0.5","2","3","",""
"","","","","6320e37620d067c7d322246a","bdp_cybrbll","Mon Apr 10 2023 21:08:19 GMT-0400 (Eastern Daylight Time)","480831","1","3","animation","102","167074","0.0-5.0-2.48","","","","","","177","","","","2","3","[{""stimulus"":""img/2to3/1.png"",""time"":99},{""stimulus"":""img/2to3/2.png"",""time"":198},{""stimulus"":""img/2to3/3.png"",""time"":297},{""stimulus"":""img/2to3/4.png"",""time"":396},{""stimulus"":""img/2to3/5.png"",""time"":495},{""stimulus"":""img/2to3/6.png"",""time"":595},{""stimulus"":""img/2to3/7.png"",""time"":693},{""stimulus"":""img/2to3/8.png"",""time"":793},{""stimulus"":""img/2to3/9.png"",""time"":893},{""stimulus"":""img/2to3/10.png"",""time"":992},{""stimulus"":""img/2to3/11.png"",""time"":1091},{""stimulus"":""img/2to3/12.png"",""time"":1190}]","[]"
"","","","observe","6320e37620d067c7d322246a","bdp_cybrbll","Mon Apr 10 2023 21:08:19 GMT-0400 (Eastern Daylight Time)","480831","1","3","image-keyboard-response","103","168880","0.0-5.0-1.49","","null","","img/3to2/1.png","null","176","1805","0.5","0.5","3","1","",""
"","","","","6320e37620d067c7d322246a","bdp_cybrbll","Mon Apr 10 2023 21:08:19 GMT-0400 (Eastern Daylight Time)","480831","1","3","animation","104","170172","0.0-5.0-2.49","","","","","","176","","","","3","1","[{""stimulus"":""img/3to1/1.png"",""time"":100},{""stimulus"":""img/3to1/2.png"",""time"":199},{""stimulus"":""img/3to1/3.png"",""time"":298},{""stimulus"":""img/3to1/4.png"",""time"":398},{""stimulus"":""img/3to1/5.png"",""time"":497},{""stimulus"":""img/3to1/6.png"",""time"":596},{""stimulus"":""img/3to1/7.png"",""time"":695},{""stimulus"":""img/3to1/8.png"",""time"":794},{""stimulus"":""img/3to1/9.png"",""time"":894},{""stimulus"":""img/3to1/10.png"",""time"":994},{""stimulus"":""img/3to1/11.png"",""time"":1093},{""stimulus"":""img/3to1/12.png"",""time"":1193}]","[]"
"","","","observe","6320e37620d067c7d322246a","bdp_cybrbll","Mon Apr 10 2023 21:08:19 GMT-0400 (Eastern Daylight Time)","480831","1","3","image-keyboard-response","105","171006","0.0-5.0-1.50","","null","","img/1to3/1.png","null","175","833","0.5","0.5","1","2","",""
"","","","","6320e37620d067c7d322246a","bdp_cybrbll","Mon Apr 10 2023 21:08:19 GMT-0400 (Eastern Daylight Time)","480831","1","3","animation","106","172297","0.0-5.0-2.50","","","","","","175","","","","1","2","[{""stimulus"":""img/1to2/1.png"",""time"":99},{""stimulus"":""img/1to2/2.png"",""time"":199},{""stimulus"":""img/1to2/3.png"",""time"":298},{""stimulus"":""img/1to2/4.png"",""time"":396},{""stimulus"":""img/1to2/5.png"",""time"":495},{""stimulus"":""img/1to2/6.png"",""time"":595},{""stimulus"":""img/1to2/7.png"",""time"":695},{""stimulus"":""img/1to2/8.png"",""time"":794},{""stimulus"":""img/1to2/9.png"",""time"":894},{""stimulus"":""img/1to2/10.png"",""time"":993},{""stimulus"":""img/1to2/11.png"",""time"":1093},{""stimulus"":""img/1to2/12.png"",""time"":1192}]","[]"
"","","","choice","6320e37620d067c7d322246a","bdp_cybrbll","Mon Apr 10 2023 21:08:19 GMT-0400 (Eastern Daylight Time)","480831","1","3","image-keyboard-response","107","172561","0.0-5.0-1.51","","264","","img/2to1/1.png","2","174","474","0.5","0.5","2","3","",""
"","","","","6320e37620d067c7d322246a","bdp_cybrbll","Mon Apr 10 2023 21:08:19 GMT-0400 (Eastern Daylight Time)","480831","1","3","animation","108","173854","0.0-5.0-2.51","","","","","","174","","","","2","3","[{""stimulus"":""img/2to3/1.png"",""time"":99},{""stimulus"":""img/2to3/2.png"",""time"":199},{""stimulus"":""img/2to3/3.png"",""time"":298},{""stimulus"":""img/2to3/4.png"",""time"":398},{""stimulus"":""img/2to3/5.png"",""time"":497},{""stimulus"":""img/2to3/6.png"",""time"":597},{""stimulus"":""img/2to3/7.png"",""time"":696},{""stimulus"":""img/2to3/8.png"",""time"":795},{""stimulus"":""img/2to3/9.png"",""time"":895},{""stimulus"":""img/2to3/10.png"",""time"":994},{""stimulus"":""img/2to3/11.png"",""time"":1094},{""stimulus"":""img/2to3/12.png"",""time"":1193}]","[]"
"","","","observe","6320e37620d067c7d322246a","bdp_cybrbll","Mon Apr 10 2023 21:08:19 GMT-0400 (Eastern Daylight Time)","480831","1","3","image-keyboard-response","109","174616","0.0-5.0-1.52","","null","","img/3to2/1.png","null","173","761","0.5","0.5","3","1","",""
"","","","","6320e37620d067c7d322246a","bdp_cybrbll","Mon Apr 10 2023 21:08:19 GMT-0400 (Eastern Daylight Time)","480831","1","3","animation","110","175908","0.0-5.0-2.52","","","","","","173","","","","3","1","[{""stimulus"":""img/3to1/1.png"",""time"":100},{""stimulus"":""img/3to1/2.png"",""time"":199},{""stimulus"":""img/3to1/3.png"",""time"":299},{""stimulus"":""img/3to1/4.png"",""time"":398},{""stimulus"":""img/3to1/5.png"",""time"":498},{""stimulus"":""img/3to1/6.png"",""time"":597},{""stimulus"":""img/3to1/7.png"",""time"":697},{""stimulus"":""img/3to1/8.png"",""time"":796},{""stimulus"":""img/3to1/9.png"",""time"":894},{""stimulus"":""img/3to1/10.png"",""time"":994},{""stimulus"":""img/3to1/11.png"",""time"":1094},{""stimulus"":""img/3to1/12.png"",""time"":1193}]","[]"
"","","","observe","6320e37620d067c7d322246a","bdp_cybrbll","Mon Apr 10 2023 21:08:19 GMT-0400 (Eastern Daylight Time)","480831","1","3","image-keyboard-response","111","176160","0.0-5.0-1.53","","null","","img/1to3/1.png","null","172","251","0.5","0.5","1","2","",""
"","","","","6320e37620d067c7d322246a","bdp_cybrbll","Mon Apr 10 2023 21:08:19 GMT-0400 (Eastern Daylight Time)","480831","1","3","animation","112","177452","0.0-5.0-2.53","","","","","","172","","","","1","2","[{""stimulus"":""img/1to2/1.png"",""time"":100},{""stimulus"":""img/1to2/2.png"",""time"":199},{""stimulus"":""img/1to2/3.png"",""time"":298},{""stimulus"":""img/1to2/4.png"",""time"":397},{""stimulus"":""img/1to2/5.png"",""time"":496},{""stimulus"":""img/1to2/6.png"",""time"":596},{""stimulus"":""img/1to2/7.png"",""time"":695},{""stimulus"":""img/1to2/8.png"",""time"":795},{""stimulus"":""img/1to2/9.png"",""time"":894},{""stimulus"":""img/1to2/10.png"",""time"":994},{""stimulus"":""img/1to2/11.png"",""time"":1093},{""stimulus"":""img/1to2/12.png"",""time"":1192}]","[]"
"","","","choice","6320e37620d067c7d322246a","bdp_cybrbll","Mon Apr 10 2023 21:08:19 GMT-0400 (Eastern Daylight Time)","480831","1","3","image-keyboard-response","113","177761","0.0-5.0-1.54","","309","","img/2to1/1.png","2","171","248","0.5","0.5","2","3","",""
"","","","","6320e37620d067c7d322246a","bdp_cybrbll","Mon Apr 10 2023 21:08:19 GMT-0400 (Eastern Daylight Time)","480831","1","3","animation","114","179049","0.0-5.0-2.54","","","","","","171","","","","2","3","[{""stimulus"":""img/2to3/1.png"",""time"":99},{""stimulus"":""img/2to3/2.png"",""time"":198},{""stimulus"":""img/2to3/3.png"",""time"":298},{""stimulus"":""img/2to3/4.png"",""time"":397},{""stimulus"":""img/2to3/5.png"",""time"":496},{""stimulus"":""img/2to3/6.png"",""time"":594},{""stimulus"":""img/2to3/7.png"",""time"":694},{""stimulus"":""img/2to3/8.png"",""time"":793},{""stimulus"":""img/2to3/9.png"",""time"":893},{""stimulus"":""img/2to3/10.png"",""time"":991},{""stimulus"":""img/2to3/11.png"",""time"":1090},{""stimulus"":""img/2to3/12.png"",""time"":1189}]","[]"
"","","","observe","6320e37620d067c7d322246a","bdp_cybrbll","Mon Apr 10 2023 21:08:19 GMT-0400 (Eastern Daylight Time)","480831","1","3","image-keyboard-response","115","179279","0.0-5.0-1.55","","null","","img/3to2/1.png","null","170","229","0.5","0.5","3","2","",""
"","","","","6320e37620d067c7d322246a","bdp_cybrbll","Mon Apr 10 2023 21:08:19 GMT-0400 (Eastern Daylight Time)","480831","1","3","animation","116","180570","0.0-5.0-2.55","","","","","","170","","","","3","2","[{""stimulus"":""img/3to2/1.png"",""time"":100},{""stimulus"":""img/3to2/2.png"",""time"":199},{""stimulus"":""img/3to2/3.png"",""time"":298},{""stimulus"":""img/3to2/4.png"",""time"":397},{""stimulus"":""img/3to2/5.png"",""time"":497},{""stimulus"":""img/3to2/6.png"",""time"":596},{""stimulus"":""img/3to2/7.png"",""time"":695},{""stimulus"":""img/3to2/8.png"",""time"":794},{""stimulus"":""img/3to2/9.png"",""time"":894},{""stimulus"":""img/3to2/10.png"",""time"":993},{""stimulus"":""img/3to2/11.png"",""time"":1092},{""stimulus"":""img/3to2/12.png"",""time"":1191}]","[]"
"","","","choice","6320e37620d067c7d322246a","bdp_cybrbll","Mon Apr 10 2023 21:08:19 GMT-0400 (Eastern Daylight Time)","480831","1","3","image-keyboard-response","117","180649","0.0-5.0-1.56","","79","","img/2to1/1.png","1","169","492","0.5","0.5","2","1","",""
"","","","","6320e37620d067c7d322246a","bdp_cybrbll","Mon Apr 10 2023 21:08:19 GMT-0400 (Eastern Daylight Time)","480831","1","3","animation","118","181940","0.0-5.0-2.56","","","","","","169","","","","2","1","[{""stimulus"":""img/2to1/1.png"",""time"":99},{""stimulus"":""img/2to1/2.png"",""time"":198},{""stimulus"":""img/2to1/3.png"",""time"":297},{""stimulus"":""img/2to1/4.png"",""time"":397},{""stimulus"":""img/2to1/5.png"",""time"":496},{""stimulus"":""img/2to1/6.png"",""time"":596},{""stimulus"":""img/2to1/7.png"",""time"":695},{""stimulus"":""img/2to1/8.png"",""time"":794},{""stimulus"":""img/2to1/9.png"",""time"":894},{""stimulus"":""img/2to1/10.png"",""time"":993},{""stimulus"":""img/2to1/11.png"",""time"":1092},{""stimulus"":""img/2to1/12.png"",""time"":1192}]","[]"
"","","","observe","6320e37620d067c7d322246a","bdp_cybrbll","Mon Apr 10 2023 21:08:19 GMT-0400 (Eastern Daylight Time)","480831","1","3","image-keyboard-response","119","182304","0.0-5.0-1.57","","null","","img/1to3/1.png","null","168","363","0.5","0.5","1","3","",""
"","","","","6320e37620d067c7d322246a","bdp_cybrbll","Mon Apr 10 2023 21:08:19 GMT-0400 (Eastern Daylight Time)","480831","1","3","animation","120","183597","0.0-5.0-2.57","","","","","","168","","","","1","3","[{""stimulus"":""img/1to3/1.png"",""time"":99},{""stimulus"":""img/1to3/2.png"",""time"":198},{""stimulus"":""img/1to3/3.png"",""time"":298},{""stimulus"":""img/1to3/4.png"",""time"":397},{""stimulus"":""img/1to3/5.png"",""time"":497},{""stimulus"":""img/1to3/6.png"",""time"":596},{""stimulus"":""img/1to3/7.png"",""time"":696},{""stimulus"":""img/1to3/8.png"",""time"":795},{""stimulus"":""img/1to3/9.png"",""time"":895},{""stimulus"":""img/1to3/10.png"",""time"":994},{""stimulus"":""img/1to3/11.png"",""time"":1094},{""stimulus"":""img/1to3/12.png"",""time"":1193}]","[]"
"","","","observe","6320e37620d067c7d322246a","bdp_cybrbll","Mon Apr 10 2023 21:08:19 GMT-0400 (Eastern Daylight Time)","480831","1","3","image-keyboard-response","121","184237","0.0-5.0-1.58","","null","","img/3to2/1.png","null","167","639","0.5","0.5","3","1","",""
"","","","","6320e37620d067c7d322246a","bdp_cybrbll","Mon Apr 10 2023 21:08:19 GMT-0400 (Eastern Daylight Time)","480831","1","3","animation","122","185531","0.0-5.0-2.58","","","","","","167","","","","3","1","[{""stimulus"":""img/3to1/1.png"",""time"":100},{""stimulus"":""img/3to1/2.png"",""time"":199},{""stimulus"":""img/3to1/3.png"",""time"":299},{""stimulus"":""img/3to1/4.png"",""time"":398},{""stimulus"":""img/3to1/5.png"",""time"":498},{""stimulus"":""img/3to1/6.png"",""time"":597},{""stimulus"":""img/3to1/7.png"",""time"":697},{""stimulus"":""img/3to1/8.png"",""time"":796},{""stimulus"":""img/3to1/9.png"",""time"":896},{""stimulus"":""img/3to1/10.png"",""time"":995},{""stimulus"":""img/3to1/11.png"",""time"":1094},{""stimulus"":""img/3to1/12.png"",""time"":1194}]","[]"
"","","","observe","6320e37620d067c7d322246a","bdp_cybrbll","Mon Apr 10 2023 21:08:19 GMT-0400 (Eastern Daylight Time)","480831","1","3","image-keyboard-response","123","185833","0.0-5.0-1.59","","null","","img/1to3/1.png","null","166","302","0.5","0.5","1","2","",""
"","","","","6320e37620d067c7d322246a","bdp_cybrbll","Mon Apr 10 2023 21:08:19 GMT-0400 (Eastern Daylight Time)","480831","1","3","animation","124","187127","0.0-5.0-2.59","","","","","","166","","","","1","2","[{""stimulus"":""img/1to2/1.png"",""time"":100},{""stimulus"":""img/1to2/2.png"",""time"":200},{""stimulus"":""img/1to2/3.png"",""time"":299},{""stimulus"":""img/1to2/4.png"",""time"":398},{""stimulus"":""img/1to2/5.png"",""time"":498},{""stimulus"":""img/1to2/6.png"",""time"":597},{""stimulus"":""img/1to2/7.png"",""time"":697},{""stimulus"":""img/1to2/8.png"",""time"":796},{""stimulus"":""img/1to2/9.png"",""time"":896},{""stimulus"":""img/1to2/10.png"",""time"":995},{""stimulus"":""img/1to2/11.png"",""time"":1094},{""stimulus"":""img/1to2/12.png"",""time"":1194}]","[]"
"","","","choice","6320e37620d067c7d322246a","bdp_cybrbll","Mon Apr 10 2023 21:08:19 GMT-0400 (Eastern Daylight Time)","480831","1","3","image-keyboard-response","125","187145","0.0-5.0-1.60","","18","","img/2to1/1.png","2","165","542","0.5","0.5","2","3","",""
"","","","","6320e37620d067c7d322246a","bdp_cybrbll","Mon Apr 10 2023 21:08:19 GMT-0400 (Eastern Daylight Time)","480831","1","3","animation","126","188438","0.0-5.0-2.60","","","","","","165","","","","2","3","[{""stimulus"":""img/2to3/1.png"",""time"":100},{""stimulus"":""img/2to3/2.png"",""time"":200},{""stimulus"":""img/2to3/3.png"",""time"":299},{""stimulus"":""img/2to3/4.png"",""time"":398},{""stimulus"":""img/2to3/5.png"",""time"":498},{""stimulus"":""img/2to3/6.png"",""time"":598},{""stimulus"":""img/2to3/7.png"",""time"":698},{""stimulus"":""img/2to3/8.png"",""time"":797},{""stimulus"":""img/2to3/9.png"",""time"":896},{""stimulus"":""img/2to3/10.png"",""time"":995},{""stimulus"":""img/2to3/11.png"",""time"":1094},{""stimulus"":""img/2to3/12.png"",""time"":1194}]","[]"
"","","","observe","6320e37620d067c7d322246a","bdp_cybrbll","Mon Apr 10 2023 21:08:19 GMT-0400 (Eastern Daylight Time)","480831","1","3","image-keyboard-response","127","188721","0.0-5.0-1.61","","null","","img/3to2/1.png","null","164","283","0.5","0.5","3","1","",""
"","","","","6320e37620d067c7d322246a","bdp_cybrbll","Mon Apr 10 2023 21:08:19 GMT-0400 (Eastern Daylight Time)","480831","1","3","animation","128","190015","0.0-5.0-2.61","","","","","","164","","","","3","1","[{""stimulus"":""img/3to1/1.png"",""time"":100},{""stimulus"":""img/3to1/2.png"",""time"":199},{""stimulus"":""img/3to1/3.png"",""time"":298},{""stimulus"":""img/3to1/4.png"",""time"":398},{""stimulus"":""img/3to1/5.png"",""time"":497},{""stimulus"":""img/3to1/6.png"",""time"":596},{""stimulus"":""img/3to1/7.png"",""time"":696},{""stimulus"":""img/3to1/8.png"",""time"":795},{""stimulus"":""img/3to1/9.png"",""time"":895},{""stimulus"":""img/3to1/10.png"",""time"":994},{""stimulus"":""img/3to1/11.png"",""time"":1093},{""stimulus"":""img/3to1/12.png"",""time"":1193}]","[]"
"","","","observe","6320e37620d067c7d322246a","bdp_cybrbll","Mon Apr 10 2023 21:08:19 GMT-0400 (Eastern Daylight Time)","480831","1","3","image-keyboard-response","129","190257","0.0-5.0-1.62","","null","","img/1to3/1.png","null","163","242","0.5","0.5","1","2","",""
"","","","","6320e37620d067c7d322246a","bdp_cybrbll","Mon Apr 10 2023 21:08:19 GMT-0400 (Eastern Daylight Time)","480831","1","3","animation","130","191550","0.0-5.0-2.62","","","","","","163","","","","1","2","[{""stimulus"":""img/1to2/1.png"",""time"":99},{""stimulus"":""img/1to2/2.png"",""time"":198},{""stimulus"":""img/1to2/3.png"",""time"":298},{""stimulus"":""img/1to2/4.png"",""time"":398},{""stimulus"":""img/1to2/5.png"",""time"":497},{""stimulus"":""img/1to2/6.png"",""time"":596},{""stimulus"":""img/1to2/7.png"",""time"":696},{""stimulus"":""img/1to2/8.png"",""time"":795},{""stimulus"":""img/1to2/9.png"",""time"":894},{""stimulus"":""img/1to2/10.png"",""time"":994},{""stimulus"":""img/1to2/11.png"",""time"":1094},{""stimulus"":""img/1to2/12.png"",""time"":1194}]","[]"
"","","","choice","6320e37620d067c7d322246a","bdp_cybrbll","Mon Apr 10 2023 21:08:19 GMT-0400 (Eastern Daylight Time)","480831","1","3","image-keyboard-response","131","192273","0.0-5.0-1.63","","723","","img/2to1/1.png","2","162","389","0.5","0.5","2","3","",""
"","","","","6320e37620d067c7d322246a","bdp_cybrbll","Mon Apr 10 2023 21:08:19 GMT-0400 (Eastern Daylight Time)","480831","1","3","animation","132","193562","0.0-5.0-2.63","","","","","","162","","","","2","3","[{""stimulus"":""img/2to3/1.png"",""time"":100},{""stimulus"":""img/2to3/2.png"",""time"":199},{""stimulus"":""img/2to3/3.png"",""time"":299},{""stimulus"":""img/2to3/4.png"",""time"":397},{""stimulus"":""img/2to3/5.png"",""time"":497},{""stimulus"":""img/2to3/6.png"",""time"":596},{""stimulus"":""img/2to3/7.png"",""time"":695},{""stimulus"":""img/2to3/8.png"",""time"":795},{""stimulus"":""img/2to3/9.png"",""time"":893},{""stimulus"":""img/2to3/10.png"",""time"":993},{""stimulus"":""img/2to3/11.png"",""time"":1092},{""stimulus"":""img/2to3/12.png"",""time"":1190}]","[]"
"","","","observe","6320e37620d067c7d322246a","bdp_cybrbll","Mon Apr 10 2023 21:08:19 GMT-0400 (Eastern Daylight Time)","480831","1","3","image-keyboard-response","133","194063","0.0-5.0-1.64","","null","","img/3to2/1.png","null","161","499","0.5","0.5","3","1","",""
"","","","","6320e37620d067c7d322246a","bdp_cybrbll","Mon Apr 10 2023 21:08:19 GMT-0400 (Eastern Daylight Time)","480831","1","3","animation","134","195351","0.0-5.0-2.64","","","","","","161","","","","3","1","[{""stimulus"":""img/3to1/1.png"",""time"":100},{""stimulus"":""img/3to1/2.png"",""time"":198},{""stimulus"":""img/3to1/3.png"",""time"":297},{""stimulus"":""img/3to1/4.png"",""time"":396},{""stimulus"":""img/3to1/5.png"",""time"":496},{""stimulus"":""img/3to1/6.png"",""time"":595},{""stimulus"":""img/3to1/7.png"",""time"":694},{""stimulus"":""img/3to1/8.png"",""time"":793},{""stimulus"":""img/3to1/9.png"",""time"":892},{""stimulus"":""img/3to1/10.png"",""time"":992},{""stimulus"":""img/3to1/11.png"",""time"":1090},{""stimulus"":""img/3to1/12.png"",""time"":1189}]","[]"
"","","","observe","6320e37620d067c7d322246a","bdp_cybrbll","Mon Apr 10 2023 21:08:19 GMT-0400 (Eastern Daylight Time)","480831","1","3","image-keyboard-response","135","196414","0.0-5.0-1.65","","null","","img/1to3/1.png","null","160","1062","0.5","0.5","1","3","",""
"","","","","6320e37620d067c7d322246a","bdp_cybrbll","Mon Apr 10 2023 21:08:19 GMT-0400 (Eastern Daylight Time)","480831","1","3","animation","136","197703","0.0-5.0-2.65","","","","","","160","","","","1","3","[{""stimulus"":""img/1to3/1.png"",""time"":100},{""stimulus"":""img/1to3/2.png"",""time"":199},{""stimulus"":""img/1to3/3.png"",""time"":298},{""stimulus"":""img/1to3/4.png"",""time"":398},{""stimulus"":""img/1to3/5.png"",""time"":497},{""stimulus"":""img/1to3/6.png"",""time"":595},{""stimulus"":""img/1to3/7.png"",""time"":694},{""stimulus"":""img/1to3/8.png"",""time"":794},{""stimulus"":""img/1to3/9.png"",""time"":893},{""stimulus"":""img/1to3/10.png"",""time"":992},{""stimulus"":""img/1to3/11.png"",""time"":1092},{""stimulus"":""img/1to3/12.png"",""time"":1190}]","[]"
"","","","observe","6320e37620d067c7d322246a","bdp_cybrbll","Mon Apr 10 2023 21:08:19 GMT-0400 (Eastern Daylight Time)","480831","1","3","image-keyboard-response","137","198009","0.0-5.0-1.66","","null","","img/3to2/1.png","null","159","305","0.5","0.5","3","1","",""
"","","","","6320e37620d067c7d322246a","bdp_cybrbll","Mon Apr 10 2023 21:08:19 GMT-0400 (Eastern Daylight Time)","480831","1","3","animation","138","199298","0.0-5.0-2.66","","","","","","159","","","","3","1","[{""stimulus"":""img/3to1/1.png"",""time"":100},{""stimulus"":""img/3to1/2.png"",""time"":199},{""stimulus"":""img/3to1/3.png"",""time"":298},{""stimulus"":""img/3to1/4.png"",""time"":397},{""stimulus"":""img/3to1/5.png"",""time"":496},{""stimulus"":""img/3to1/6.png"",""time"":595},{""stimulus"":""img/3to1/7.png"",""time"":695},{""stimulus"":""img/3to1/8.png"",""time"":794},{""stimulus"":""img/3to1/9.png"",""time"":893},{""stimulus"":""img/3to1/10.png"",""time"":992},{""stimulus"":""img/3to1/11.png"",""time"":1092},{""stimulus"":""img/3to1/12.png"",""time"":1191}]","[]"
"","","","observe","6320e37620d067c7d322246a","bdp_cybrbll","Mon Apr 10 2023 21:08:19 GMT-0400 (Eastern Daylight Time)","480831","1","3","image-keyboard-response","139","199625","0.0-5.0-1.67","","null","","img/1to3/1.png","null","158","325","0.5","0.5","1","2","",""
"","","","","6320e37620d067c7d322246a","bdp_cybrbll","Mon Apr 10 2023 21:08:19 GMT-0400 (Eastern Daylight Time)","480831","1","3","animation","140","200914","0.0-5.0-2.67","","","","","","158","","","","1","2","[{""stimulus"":""img/1to2/1.png"",""time"":99},{""stimulus"":""img/1to2/2.png"",""time"":198},{""stimulus"":""img/1to2/3.png"",""time"":298},{""stimulus"":""img/1to2/4.png"",""time"":397},{""stimulus"":""img/1to2/5.png"",""time"":496},{""stimulus"":""img/1to2/6.png"",""time"":595},{""stimulus"":""img/1to2/7.png"",""time"":695},{""stimulus"":""img/1to2/8.png"",""time"":794},{""stimulus"":""img/1to2/9.png"",""time"":893},{""stimulus"":""img/1to2/10.png"",""time"":992},{""stimulus"":""img/1to2/11.png"",""time"":1091},{""stimulus"":""img/1to2/12.png"",""time"":1190}]","[]"
"","","","choice","6320e37620d067c7d322246a","bdp_cybrbll","Mon Apr 10 2023 21:08:19 GMT-0400 (Eastern Daylight Time)","480831","1","3","image-keyboard-response","141","201223","0.0-5.0-1.68","","309","","img/2to1/1.png","2","157","736","0.5","0.5","2","3","",""
"","","","","6320e37620d067c7d322246a","bdp_cybrbll","Mon Apr 10 2023 21:08:19 GMT-0400 (Eastern Daylight Time)","480831","1","3","animation","142","202513","0.0-5.0-2.68","","","","","","157","","","","2","3","[{""stimulus"":""img/2to3/1.png"",""time"":100},{""stimulus"":""img/2to3/2.png"",""time"":198},{""stimulus"":""img/2to3/3.png"",""time"":298},{""stimulus"":""img/2to3/4.png"",""time"":397},{""stimulus"":""img/2to3/5.png"",""time"":496},{""stimulus"":""img/2to3/6.png"",""time"":595},{""stimulus"":""img/2to3/7.png"",""time"":695},{""stimulus"":""img/2to3/8.png"",""time"":794},{""stimulus"":""img/2to3/9.png"",""time"":893},{""stimulus"":""img/2to3/10.png"",""time"":993},{""stimulus"":""img/2to3/11.png"",""time"":1092},{""stimulus"":""img/2to3/12.png"",""time"":1192}]","[]"
"","","","observe","6320e37620d067c7d322246a","bdp_cybrbll","Mon Apr 10 2023 21:08:19 GMT-0400 (Eastern Daylight Time)","480831","1","3","image-keyboard-response","143","202890","0.0-5.0-1.69","","null","","img/3to2/1.png","null","156","376","0.5","0.5","3","2","",""
"","","","","6320e37620d067c7d322246a","bdp_cybrbll","Mon Apr 10 2023 21:08:19 GMT-0400 (Eastern Daylight Time)","480831","1","3","animation","144","204180","0.0-5.0-2.69","","","","","","156","","","","3","2","[{""stimulus"":""img/3to2/1.png"",""time"":100},{""stimulus"":""img/3to2/2.png"",""time"":198},{""stimulus"":""img/3to2/3.png"",""time"":297},{""stimulus"":""img/3to2/4.png"",""time"":397},{""stimulus"":""img/3to2/5.png"",""time"":496},{""stimulus"":""img/3to2/6.png"",""time"":595},{""stimulus"":""img/3to2/7.png"",""time"":694},{""stimulus"":""img/3to2/8.png"",""time"":793},{""stimulus"":""img/3to2/9.png"",""time"":893},{""stimulus"":""img/3to2/10.png"",""time"":992},{""stimulus"":""img/3to2/11.png"",""time"":1091},{""stimulus"":""img/3to2/12.png"",""time"":1190}]","[]"
"","","","choice","6320e37620d067c7d322246a","bdp_cybrbll","Mon Apr 10 2023 21:08:19 GMT-0400 (Eastern Daylight Time)","480831","1","3","image-keyboard-response","145","204538","0.0-5.0-1.70","","358","","img/2to1/1.png","1","155","335","0.5","0.5","2","1","",""
"","","","","6320e37620d067c7d322246a","bdp_cybrbll","Mon Apr 10 2023 21:08:19 GMT-0400 (Eastern Daylight Time)","480831","1","3","animation","146","205827","0.0-5.0-2.70","","","","","","155","","","","2","1","[{""stimulus"":""img/2to1/1.png"",""time"":100},{""stimulus"":""img/2to1/2.png"",""time"":199},{""stimulus"":""img/2to1/3.png"",""time"":298},{""stimulus"":""img/2to1/4.png"",""time"":397},{""stimulus"":""img/2to1/5.png"",""time"":496},{""stimulus"":""img/2to1/6.png"",""time"":595},{""stimulus"":""img/2to1/7.png"",""time"":694},{""stimulus"":""img/2to1/8.png"",""time"":794},{""stimulus"":""img/2to1/9.png"",""time"":893},{""stimulus"":""img/2to1/10.png"",""time"":992},{""stimulus"":""img/2to1/11.png"",""time"":1091},{""stimulus"":""img/2to1/12.png"",""time"":1190}]","[]"
"","","","observe","6320e37620d067c7d322246a","bdp_cybrbll","Mon Apr 10 2023 21:08:19 GMT-0400 (Eastern Daylight Time)","480831","1","3","image-keyboard-response","147","206219","0.0-5.0-1.71","","null","","img/1to3/1.png","null","154","391","0.5","0.5","1","2","",""
"","","","","6320e37620d067c7d322246a","bdp_cybrbll","Mon Apr 10 2023 21:08:19 GMT-0400 (Eastern Daylight Time)","480831","1","3","animation","148","207509","0.0-5.0-2.71","","","","","","154","","","","1","2","[{""stimulus"":""img/1to2/1.png"",""time"":100},{""stimulus"":""img/1to2/2.png"",""time"":199},{""stimulus"":""img/1to2/3.png"",""time"":299},{""stimulus"":""img/1to2/4.png"",""time"":398},{""stimulus"":""img/1to2/5.png"",""time"":498},{""stimulus"":""img/1to2/6.png"",""time"":597},{""stimulus"":""img/1to2/7.png"",""time"":696},{""stimulus"":""img/1to2/8.png"",""time"":794},{""stimulus"":""img/1to2/9.png"",""time"":893},{""stimulus"":""img/1to2/10.png"",""time"":993},{""stimulus"":""img/1to2/11.png"",""time"":1092},{""stimulus"":""img/1to2/12.png"",""time"":1191}]","[]"
"","","","choice","6320e37620d067c7d322246a","bdp_cybrbll","Mon Apr 10 2023 21:08:19 GMT-0400 (Eastern Daylight Time)","480831","1","3","image-keyboard-response","149","207656","0.0-5.0-1.72","","146","","img/2to1/1.png","2","153","365","0.5","0.5","2","3","",""
"","","","","6320e37620d067c7d322246a","bdp_cybrbll","Mon Apr 10 2023 21:08:19 GMT-0400 (Eastern Daylight Time)","480831","1","3","animation","150","208945","0.0-5.0-2.72","","","","","","153","","","","2","3","[{""stimulus"":""img/2to3/1.png"",""time"":100},{""stimulus"":""img/2to3/2.png"",""time"":199},{""stimulus"":""img/2to3/3.png"",""time"":298},{""stimulus"":""img/2to3/4.png"",""time"":397},{""stimulus"":""img/2to3/5.png"",""time"":496},{""stimulus"":""img/2to3/6.png"",""time"":595},{""stimulus"":""img/2to3/7.png"",""time"":695},{""stimulus"":""img/2to3/8.png"",""time"":793},{""stimulus"":""img/2to3/9.png"",""time"":892},{""stimulus"":""img/2to3/10.png"",""time"":992},{""stimulus"":""img/2to3/11.png"",""time"":1091},{""stimulus"":""img/2to3/12.png"",""time"":1190}]","[]"
"","","","observe","6320e37620d067c7d322246a","bdp_cybrbll","Mon Apr 10 2023 21:08:19 GMT-0400 (Eastern Daylight Time)","480831","1","3","image-keyboard-response","151","209215","0.0-5.0-1.73","","null","","img/3to2/1.png","null","152","269","0.5","0.5","3","2","",""
"","","","","6320e37620d067c7d322246a","bdp_cybrbll","Mon Apr 10 2023 21:08:19 GMT-0400 (Eastern Daylight Time)","480831","1","3","animation","152","210508","0.0-5.0-2.73","","","","","","152","","","","3","2","[{""stimulus"":""img/3to2/1.png"",""time"":100},{""stimulus"":""img/3to2/2.png"",""time"":200},{""stimulus"":""img/3to2/3.png"",""time"":299},{""stimulus"":""img/3to2/4.png"",""time"":398},{""stimulus"":""img/3to2/5.png"",""time"":498},{""stimulus"":""img/3to2/6.png"",""time"":598},{""stimulus"":""img/3to2/7.png"",""time"":697},{""stimulus"":""img/3to2/8.png"",""time"":796},{""stimulus"":""img/3to2/9.png"",""time"":896},{""stimulus"":""img/3to2/10.png"",""time"":995},{""stimulus"":""img/3to2/11.png"",""time"":1094},{""stimulus"":""img/3to2/12.png"",""time"":1194}]","[]"
"","","","choice","6320e37620d067c7d322246a","bdp_cybrbll","Mon Apr 10 2023 21:08:19 GMT-0400 (Eastern Daylight Time)","480831","1","3","image-keyboard-response","153","210712","0.0-5.0-1.74","","204","","img/2to1/1.png","1","151","581","0.5","0.5","2","1","",""
"","","","","6320e37620d067c7d322246a","bdp_cybrbll","Mon Apr 10 2023 21:08:19 GMT-0400 (Eastern Daylight Time)","480831","1","3","animation","154","212006","0.0-5.0-2.74","","","","","","151","","","","2","1","[{""stimulus"":""img/2to1/1.png"",""time"":99},{""stimulus"":""img/2to1/2.png"",""time"":199},{""stimulus"":""img/2to1/3.png"",""time"":298},{""stimulus"":""img/2to1/4.png"",""time"":398},{""stimulus"":""img/2to1/5.png"",""time"":498},{""stimulus"":""img/2to1/6.png"",""time"":597},{""stimulus"":""img/2to1/7.png"",""time"":696},{""stimulus"":""img/2to1/8.png"",""time"":796},{""stimulus"":""img/2to1/9.png"",""time"":895},{""stimulus"":""img/2to1/10.png"",""time"":994},{""stimulus"":""img/2to1/11.png"",""time"":1094},{""stimulus"":""img/2to1/12.png"",""time"":1194}]","[]"
"","","","observe","6320e37620d067c7d322246a","bdp_cybrbll","Mon Apr 10 2023 21:08:19 GMT-0400 (Eastern Daylight Time)","480831","1","3","image-keyboard-response","155","213100","0.0-5.0-1.75","","null","","img/1to3/1.png","null","150","1094","0.5","0.5","1","3","",""
"","","","","6320e37620d067c7d322246a","bdp_cybrbll","Mon Apr 10 2023 21:08:19 GMT-0400 (Eastern Daylight Time)","480831","1","3","animation","156","214394","0.0-5.0-2.75","","","","","","150","","","","1","3","[{""stimulus"":""img/1to3/1.png"",""time"":99},{""stimulus"":""img/1to3/2.png"",""time"":199},{""stimulus"":""img/1to3/3.png"",""time"":299},{""stimulus"":""img/1to3/4.png"",""time"":398},{""stimulus"":""img/1to3/5.png"",""time"":497},{""stimulus"":""img/1to3/6.png"",""time"":597},{""stimulus"":""img/1to3/7.png"",""time"":697},{""stimulus"":""img/1to3/8.png"",""time"":796},{""stimulus"":""img/1to3/9.png"",""time"":895},{""stimulus"":""img/1to3/10.png"",""time"":995},{""stimulus"":""img/1to3/11.png"",""time"":1095},{""stimulus"":""img/1to3/12.png"",""time"":1193}]","[]"
"","","","observe","6320e37620d067c7d322246a","bdp_cybrbll","Mon Apr 10 2023 21:08:19 GMT-0400 (Eastern Daylight Time)","480831","1","3","image-keyboard-response","157","214611","0.0-5.0-1.76","","null","","img/3to2/1.png","null","149","216","0.5","0.1","3","1","",""
"","","","","6320e37620d067c7d322246a","bdp_cybrbll","Mon Apr 10 2023 21:08:19 GMT-0400 (Eastern Daylight Time)","480831","1","3","animation","158","215904","0.0-5.0-2.76","","","","","","149","","","","3","1","[{""stimulus"":""img/3to1/1.png"",""time"":100},{""stimulus"":""img/3to1/2.png"",""time"":200},{""stimulus"":""img/3to1/3.png"",""time"":298},{""stimulus"":""img/3to1/4.png"",""time"":398},{""stimulus"":""img/3to1/5.png"",""time"":497},{""stimulus"":""img/3to1/6.png"",""time"":597},{""stimulus"":""img/3to1/7.png"",""time"":697},{""stimulus"":""img/3to1/8.png"",""time"":796},{""stimulus"":""img/3to1/9.png"",""time"":896},{""stimulus"":""img/3to1/10.png"",""time"":995},{""stimulus"":""img/3to1/11.png"",""time"":1094},{""stimulus"":""img/3to1/12.png"",""time"":1194}]","[]"
"","","","observe","6320e37620d067c7d322246a","bdp_cybrbll","Mon Apr 10 2023 21:08:19 GMT-0400 (Eastern Daylight Time)","480831","1","3","image-keyboard-response","159","216800","0.0-5.0-1.77","","null","","img/1to3/1.png","null","148","896","0.5","0.1","1","3","",""
"","","","","6320e37620d067c7d322246a","bdp_cybrbll","Mon Apr 10 2023 21:08:19 GMT-0400 (Eastern Daylight Time)","480831","1","3","animation","160","218094","0.0-5.0-2.77","","","","","","148","","","","1","3","[{""stimulus"":""img/1to3/1.png"",""time"":100},{""stimulus"":""img/1to3/2.png"",""time"":199},{""stimulus"":""img/1to3/3.png"",""time"":299},{""stimulus"":""img/1to3/4.png"",""time"":398},{""stimulus"":""img/1to3/5.png"",""time"":498},{""stimulus"":""img/1to3/6.png"",""time"":597},{""stimulus"":""img/1to3/7.png"",""time"":697},{""stimulus"":""img/1to3/8.png"",""time"":795},{""stimulus"":""img/1to3/9.png"",""time"":895},{""stimulus"":""img/1to3/10.png"",""time"":995},{""stimulus"":""img/1to3/11.png"",""time"":1094},{""stimulus"":""img/1to3/12.png"",""time"":1194}]","[]"
"","","","observe","6320e37620d067c7d322246a","bdp_cybrbll","Mon Apr 10 2023 21:08:19 GMT-0400 (Eastern Daylight Time)","480831","1","3","image-keyboard-response","161","218601","0.0-5.0-1.78","","null","","img/3to2/1.png","null","147","506","0.5","0.1","3","1","",""
"","","","","6320e37620d067c7d322246a","bdp_cybrbll","Mon Apr 10 2023 21:08:19 GMT-0400 (Eastern Daylight Time)","480831","1","3","animation","162","219894","0.0-5.0-2.78","","","","","","147","","","","3","1","[{""stimulus"":""img/3to1/1.png"",""time"":99},{""stimulus"":""img/3to1/2.png"",""time"":198},{""stimulus"":""img/3to1/3.png"",""time"":298},{""stimulus"":""img/3to1/4.png"",""time"":398},{""stimulus"":""img/3to1/5.png"",""time"":496},{""stimulus"":""img/3to1/6.png"",""time"":596},{""stimulus"":""img/3to1/7.png"",""time"":696},{""stimulus"":""img/3to1/8.png"",""time"":795},{""stimulus"":""img/3to1/9.png"",""time"":895},{""stimulus"":""img/3to1/10.png"",""time"":994},{""stimulus"":""img/3to1/11.png"",""time"":1094},{""stimulus"":""img/3to1/12.png"",""time"":1193}]","[]"
"","","","observe","6320e37620d067c7d322246a","bdp_cybrbll","Mon Apr 10 2023 21:08:19 GMT-0400 (Eastern Daylight Time)","480831","1","3","image-keyboard-response","163","220173","0.0-5.0-1.79","","null","","img/1to3/1.png","null","146","278","0.5","0.1","1","3","",""
"","","","","6320e37620d067c7d322246a","bdp_cybrbll","Mon Apr 10 2023 21:08:19 GMT-0400 (Eastern Daylight Time)","480831","1","3","animation","164","221467","0.0-5.0-2.79","","","","","","146","","","","1","3","[{""stimulus"":""img/1to3/1.png"",""time"":100},{""stimulus"":""img/1to3/2.png"",""time"":200},{""stimulus"":""img/1to3/3.png"",""time"":299},{""stimulus"":""img/1to3/4.png"",""time"":399},{""stimulus"":""img/1to3/5.png"",""time"":498},{""stimulus"":""img/1to3/6.png"",""time"":597},{""stimulus"":""img/1to3/7.png"",""time"":697},{""stimulus"":""img/1to3/8.png"",""time"":796},{""stimulus"":""img/1to3/9.png"",""time"":896},{""stimulus"":""img/1to3/10.png"",""time"":995},{""stimulus"":""img/1to3/11.png"",""time"":1095},{""stimulus"":""img/1to3/12.png"",""time"":1195}]","[]"
"","","","observe","6320e37620d067c7d322246a","bdp_cybrbll","Mon Apr 10 2023 21:08:19 GMT-0400 (Eastern Daylight Time)","480831","1","3","image-keyboard-response","165","222331","0.0-5.0-1.80","","null","","img/3to2/1.png","null","145","864","0.5","0.1","3","1","",""
"","","","","6320e37620d067c7d322246a","bdp_cybrbll","Mon Apr 10 2023 21:08:19 GMT-0400 (Eastern Daylight Time)","480831","1","3","animation","166","223625","0.0-5.0-2.80","","","","","","145","","","","3","1","[{""stimulus"":""img/3to1/1.png"",""time"":100},{""stimulus"":""img/3to1/2.png"",""time"":200},{""stimulus"":""img/3to1/3.png"",""time"":299},{""stimulus"":""img/3to1/4.png"",""time"":399},{""stimulus"":""img/3to1/5.png"",""time"":499},{""stimulus"":""img/3to1/6.png"",""time"":598},{""stimulus"":""img/3to1/7.png"",""time"":697},{""stimulus"":""img/3to1/8.png"",""time"":797},{""stimulus"":""img/3to1/9.png"",""time"":896},{""stimulus"":""img/3to1/10.png"",""time"":995},{""stimulus"":""img/3to1/11.png"",""time"":1095},{""stimulus"":""img/3to1/12.png"",""time"":1195}]","[]"
"","","","observe","6320e37620d067c7d322246a","bdp_cybrbll","Mon Apr 10 2023 21:08:19 GMT-0400 (Eastern Daylight Time)","480831","1","3","image-keyboard-response","167","224641","0.0-5.0-1.81","","null","","img/1to3/1.png","null","144","1016","0.5","0.1","1","3","",""
"","","","","6320e37620d067c7d322246a","bdp_cybrbll","Mon Apr 10 2023 21:08:19 GMT-0400 (Eastern Daylight Time)","480831","1","3","animation","168","225934","0.0-5.0-2.81","","","","","","144","","","","1","3","[{""stimulus"":""img/1to3/1.png"",""time"":100},{""stimulus"":""img/1to3/2.png"",""time"":199},{""stimulus"":""img/1to3/3.png"",""time"":299},{""stimulus"":""img/1to3/4.png"",""time"":399},{""stimulus"":""img/1to3/5.png"",""time"":498},{""stimulus"":""img/1to3/6.png"",""time"":597},{""stimulus"":""img/1to3/7.png"",""time"":697},{""stimulus"":""img/1to3/8.png"",""time"":796},{""stimulus"":""img/1to3/9.png"",""time"":895},{""stimulus"":""img/1to3/10.png"",""time"":995},{""stimulus"":""img/1to3/11.png"",""time"":1094},{""stimulus"":""img/1to3/12.png"",""time"":1194}]","[]"
"","","","observe","6320e37620d067c7d322246a","bdp_cybrbll","Mon Apr 10 2023 21:08:19 GMT-0400 (Eastern Daylight Time)","480831","1","3","image-keyboard-response","169","226380","0.0-5.0-1.82","","null","","img/3to2/1.png","null","143","445","0.5","0.1","3","1","",""
"","","","","6320e37620d067c7d322246a","bdp_cybrbll","Mon Apr 10 2023 21:08:19 GMT-0400 (Eastern Daylight Time)","480831","1","3","animation","170","227673","0.0-5.0-2.82","","","","","","143","","","","3","1","[{""stimulus"":""img/3to1/1.png"",""time"":100},{""stimulus"":""img/3to1/2.png"",""time"":199},{""stimulus"":""img/3to1/3.png"",""time"":298},{""stimulus"":""img/3to1/4.png"",""time"":398},{""stimulus"":""img/3to1/5.png"",""time"":497},{""stimulus"":""img/3to1/6.png"",""time"":597},{""stimulus"":""img/3to1/7.png"",""time"":697},{""stimulus"":""img/3to1/8.png"",""time"":796},{""stimulus"":""img/3to1/9.png"",""time"":896},{""stimulus"":""img/3to1/10.png"",""time"":995},{""stimulus"":""img/3to1/11.png"",""time"":1094},{""stimulus"":""img/3to1/12.png"",""time"":1193}]","[]"
"","","","observe","6320e37620d067c7d322246a","bdp_cybrbll","Mon Apr 10 2023 21:08:19 GMT-0400 (Eastern Daylight Time)","480831","1","3","image-keyboard-response","171","227870","0.0-5.0-1.83","","null","","img/1to3/1.png","null","142","196","0.5","0.1","1","3","",""
"","","","","6320e37620d067c7d322246a","bdp_cybrbll","Mon Apr 10 2023 21:08:19 GMT-0400 (Eastern Daylight Time)","480831","1","3","animation","172","229160","0.0-5.0-2.83","","","","","","142","","","","1","3","[{""stimulus"":""img/1to3/1.png"",""time"":100},{""stimulus"":""img/1to3/2.png"",""time"":199},{""stimulus"":""img/1to3/3.png"",""time"":298},{""stimulus"":""img/1to3/4.png"",""time"":397},{""stimulus"":""img/1to3/5.png"",""time"":496},{""stimulus"":""img/1to3/6.png"",""time"":595},{""stimulus"":""img/1to3/7.png"",""time"":694},{""stimulus"":""img/1to3/8.png"",""time"":793},{""stimulus"":""img/1to3/9.png"",""time"":893},{""stimulus"":""img/1to3/10.png"",""time"":992},{""stimulus"":""img/1to3/11.png"",""time"":1092},{""stimulus"":""img/1to3/12.png"",""time"":1191}]","[]"
"","","","observe","6320e37620d067c7d322246a","bdp_cybrbll","Mon Apr 10 2023 21:08:19 GMT-0400 (Eastern Daylight Time)","480831","1","3","image-keyboard-response","173","229790","0.0-5.0-1.84","","null","","img/3to2/1.png","null","141","629","0.5","0.1","3","1","",""
"","","","","6320e37620d067c7d322246a","bdp_cybrbll","Mon Apr 10 2023 21:08:19 GMT-0400 (Eastern Daylight Time)","480831","1","3","animation","174","231079","0.0-5.0-2.84","","","","","","141","","","","3","1","[{""stimulus"":""img/3to1/1.png"",""time"":100},{""stimulus"":""img/3to1/2.png"",""time"":198},{""stimulus"":""img/3to1/3.png"",""time"":298},{""stimulus"":""img/3to1/4.png"",""time"":397},{""stimulus"":""img/3to1/5.png"",""time"":496},{""stimulus"":""img/3to1/6.png"",""time"":595},{""stimulus"":""img/3to1/7.png"",""time"":694},{""stimulus"":""img/3to1/8.png"",""time"":793},{""stimulus"":""img/3to1/9.png"",""time"":892},{""stimulus"":""img/3to1/10.png"",""time"":992},{""stimulus"":""img/3to1/11.png"",""time"":1091},{""stimulus"":""img/3to1/12.png"",""time"":1190}]","[]"
"","","","observe","6320e37620d067c7d322246a","bdp_cybrbll","Mon Apr 10 2023 21:08:19 GMT-0400 (Eastern Daylight Time)","480831","1","3","image-keyboard-response","175","231448","0.0-5.0-1.85","","null","","img/1to3/1.png","null","140","369","0.5","0.1","1","2","",""
"","","","","6320e37620d067c7d322246a","bdp_cybrbll","Mon Apr 10 2023 21:08:19 GMT-0400 (Eastern Daylight Time)","480831","1","3","animation","176","232737","0.0-5.0-2.85","","","","","","140","","","","1","2","[{""stimulus"":""img/1to2/1.png"",""time"":100},{""stimulus"":""img/1to2/2.png"",""time"":199},{""stimulus"":""img/1to2/3.png"",""time"":298},{""stimulus"":""img/1to2/4.png"",""time"":398},{""stimulus"":""img/1to2/5.png"",""time"":496},{""stimulus"":""img/1to2/6.png"",""time"":595},{""stimulus"":""img/1to2/7.png"",""time"":694},{""stimulus"":""img/1to2/8.png"",""time"":794},{""stimulus"":""img/1to2/9.png"",""time"":893},{""stimulus"":""img/1to2/10.png"",""time"":992},{""stimulus"":""img/1to2/11.png"",""time"":1091},{""stimulus"":""img/1to2/12.png"",""time"":1190}]","[]"
"","","","choice","6320e37620d067c7d322246a","bdp_cybrbll","Mon Apr 10 2023 21:08:19 GMT-0400 (Eastern Daylight Time)","480831","1","3","image-keyboard-response","177","233118","0.0-5.0-1.86","","380","","img/2to1/1.png","2","139","714","0.5","0.1","2","3","",""
"","","","","6320e37620d067c7d322246a","bdp_cybrbll","Mon Apr 10 2023 21:08:19 GMT-0400 (Eastern Daylight Time)","480831","1","3","animation","178","234412","0.0-5.0-2.86","","","","","","139","","","","2","3","[{""stimulus"":""img/2to3/1.png"",""time"":100},{""stimulus"":""img/2to3/2.png"",""time"":200},{""stimulus"":""img/2to3/3.png"",""time"":300},{""stimulus"":""img/2to3/4.png"",""time"":399},{""stimulus"":""img/2to3/5.png"",""time"":499},{""stimulus"":""img/2to3/6.png"",""time"":598},{""stimulus"":""img/2to3/7.png"",""time"":697},{""stimulus"":""img/2to3/8.png"",""time"":797},{""stimulus"":""img/2to3/9.png"",""time"":896},{""stimulus"":""img/2to3/10.png"",""time"":996},{""stimulus"":""img/2to3/11.png"",""time"":1095},{""stimulus"":""img/2to3/12.png"",""time"":1195}]","[]"
"","","","observe","6320e37620d067c7d322246a","bdp_cybrbll","Mon Apr 10 2023 21:08:19 GMT-0400 (Eastern Daylight Time)","480831","1","3","image-keyboard-response","179","234605","0.0-5.0-1.87","","null","","img/3to2/1.png","null","138","192","0.5","0.1","3","1","",""
"","","","","6320e37620d067c7d322246a","bdp_cybrbll","Mon Apr 10 2023 21:08:19 GMT-0400 (Eastern Daylight Time)","480831","1","3","animation","180","235899","0.0-5.0-2.87","","","","","","138","","","","3","1","[{""stimulus"":""img/3to1/1.png"",""time"":100},{""stimulus"":""img/3to1/2.png"",""time"":200},{""stimulus"":""img/3to1/3.png"",""time"":299},{""stimulus"":""img/3to1/4.png"",""time"":399},{""stimulus"":""img/3to1/5.png"",""time"":499},{""stimulus"":""img/3to1/6.png"",""time"":598},{""stimulus"":""img/3to1/7.png"",""time"":698},{""stimulus"":""img/3to1/8.png"",""time"":797},{""stimulus"":""img/3to1/9.png"",""time"":896},{""stimulus"":""img/3to1/10.png"",""time"":995},{""stimulus"":""img/3to1/11.png"",""time"":1095},{""stimulus"":""img/3to1/12.png"",""time"":1194}]","[]"
"","","","observe","6320e37620d067c7d322246a","bdp_cybrbll","Mon Apr 10 2023 21:08:19 GMT-0400 (Eastern Daylight Time)","480831","1","3","image-keyboard-response","181","236433","0.0-5.0-1.88","","null","","img/1to3/1.png","null","137","533","0.5","0.1","1","3","",""
"","","","","6320e37620d067c7d322246a","bdp_cybrbll","Mon Apr 10 2023 21:08:19 GMT-0400 (Eastern Daylight Time)","480831","1","3","animation","182","237726","0.0-5.0-2.88","","","","","","137","","","","1","3","[{""stimulus"":""img/1to3/1.png"",""time"":99},{""stimulus"":""img/1to3/2.png"",""time"":198},{""stimulus"":""img/1to3/3.png"",""time"":299},{""stimulus"":""img/1to3/4.png"",""time"":397},{""stimulus"":""img/1to3/5.png"",""time"":497},{""stimulus"":""img/1to3/6.png"",""time"":596},{""stimulus"":""img/1to3/7.png"",""time"":696},{""stimulus"":""img/1to3/8.png"",""time"":795},{""stimulus"":""img/1to3/9.png"",""time"":895},{""stimulus"":""img/1to3/10.png"",""time"":994},{""stimulus"":""img/1to3/11.png"",""time"":1094},{""stimulus"":""img/1to3/12.png"",""time"":1193}]","[]"
"","","","observe","6320e37620d067c7d322246a","bdp_cybrbll","Mon Apr 10 2023 21:08:19 GMT-0400 (Eastern Daylight Time)","480831","1","3","image-keyboard-response","183","237941","0.0-5.0-1.89","","null","","img/3to2/1.png","null","136","215","0.5","0.1","3","1","",""
"","","","","6320e37620d067c7d322246a","bdp_cybrbll","Mon Apr 10 2023 21:08:19 GMT-0400 (Eastern Daylight Time)","480831","1","3","animation","184","239234","0.0-5.0-2.89","","","","","","136","","","","3","1","[{""stimulus"":""img/3to1/1.png"",""time"":100},{""stimulus"":""img/3to1/2.png"",""time"":200},{""stimulus"":""img/3to1/3.png"",""time"":299},{""stimulus"":""img/3to1/4.png"",""time"":399},{""stimulus"":""img/3to1/5.png"",""time"":498},{""stimulus"":""img/3to1/6.png"",""time"":597},{""stimulus"":""img/3to1/7.png"",""time"":697},{""stimulus"":""img/3to1/8.png"",""time"":796},{""stimulus"":""img/3to1/9.png"",""time"":895},{""stimulus"":""img/3to1/10.png"",""time"":995},{""stimulus"":""img/3to1/11.png"",""time"":1095},{""stimulus"":""img/3to1/12.png"",""time"":1193}]","[]"
"","","","observe","6320e37620d067c7d322246a","bdp_cybrbll","Mon Apr 10 2023 21:08:19 GMT-0400 (Eastern Daylight Time)","480831","1","3","image-keyboard-response","185","239394","0.0-5.0-1.90","","null","","img/1to3/1.png","null","135","159","0.5","0.1","1","2","",""
"","","","","6320e37620d067c7d322246a","bdp_cybrbll","Mon Apr 10 2023 21:08:19 GMT-0400 (Eastern Daylight Time)","480831","1","3","animation","186","240685","0.0-5.0-2.90","","","","","","135","","","","1","2","[{""stimulus"":""img/1to2/1.png"",""time"":100},{""stimulus"":""img/1to2/2.png"",""time"":198},{""stimulus"":""img/1to2/3.png"",""time"":298},{""stimulus"":""img/1to2/4.png"",""time"":398},{""stimulus"":""img/1to2/5.png"",""time"":497},{""stimulus"":""img/1to2/6.png"",""time"":596},{""stimulus"":""img/1to2/7.png"",""time"":696},{""stimulus"":""img/1to2/8.png"",""time"":795},{""stimulus"":""img/1to2/9.png"",""time"":894},{""stimulus"":""img/1to2/10.png"",""time"":994},{""stimulus"":""img/1to2/11.png"",""time"":1093},{""stimulus"":""img/1to2/12.png"",""time"":1192}]","[]"
"","","","choice","6320e37620d067c7d322246a","bdp_cybrbll","Mon Apr 10 2023 21:08:19 GMT-0400 (Eastern Daylight Time)","480831","1","3","image-keyboard-response","187","240884","0.0-5.0-1.91","","199","","img/2to1/1.png","2","134","283","0.5","0.1","2","3","",""
"","","","","6320e37620d067c7d322246a","bdp_cybrbll","Mon Apr 10 2023 21:08:19 GMT-0400 (Eastern Daylight Time)","480831","1","3","animation","188","242176","0.0-5.0-2.91","","","","","","134","","","","2","3","[{""stimulus"":""img/2to3/1.png"",""time"":100},{""stimulus"":""img/2to3/2.png"",""time"":199},{""stimulus"":""img/2to3/3.png"",""time"":299},{""stimulus"":""img/2to3/4.png"",""time"":397},{""stimulus"":""img/2to3/5.png"",""time"":497},{""stimulus"":""img/2to3/6.png"",""time"":596},{""stimulus"":""img/2to3/7.png"",""time"":695},{""stimulus"":""img/2to3/8.png"",""time"":794},{""stimulus"":""img/2to3/9.png"",""time"":894},{""stimulus"":""img/2to3/10.png"",""time"":993},{""stimulus"":""img/2to3/11.png"",""time"":1093},{""stimulus"":""img/2to3/12.png"",""time"":1192}]","[]"
"","","","observe","6320e37620d067c7d322246a","bdp_cybrbll","Mon Apr 10 2023 21:08:19 GMT-0400 (Eastern Daylight Time)","480831","1","3","image-keyboard-response","189","243239","0.0-5.0-1.92","","null","","img/3to2/1.png","null","133","1062","0.5","0.1","3","2","",""
"","","","","6320e37620d067c7d322246a","bdp_cybrbll","Mon Apr 10 2023 21:08:19 GMT-0400 (Eastern Daylight Time)","480831","1","3","animation","190","244528","0.0-5.0-2.92","","","","","","133","","","","3","2","[{""stimulus"":""img/3to2/1.png"",""time"":100},{""stimulus"":""img/3to2/2.png"",""time"":199},{""stimulus"":""img/3to2/3.png"",""time"":298},{""stimulus"":""img/3to2/4.png"",""time"":396},{""stimulus"":""img/3to2/5.png"",""time"":495},{""stimulus"":""img/3to2/6.png"",""time"":595},{""stimulus"":""img/3to2/7.png"",""time"":694},{""stimulus"":""img/3to2/8.png"",""time"":793},{""stimulus"":""img/3to2/9.png"",""time"":892},{""stimulus"":""img/3to2/10.png"",""time"":992},{""stimulus"":""img/3to2/11.png"",""time"":1091},{""stimulus"":""img/3to2/12.png"",""time"":1190}]","[]"
