"trial_type","trial_index","time_elapsed","internal_node_id","subject_id","task","startTime","totalTime","fairPartner","unfairPartner","view_history","rt","event","trial","time","trialtype","success","stimulus","key_press","throwsLeft","rtDur","pFair","pUnfair","holder","receiver","animation_sequence","responses"
"pavlovia","0","2","0.0-0.0","5d5a48a67ca41f0001e97f8b","bdp_cybrbll","Sat Mar 25 2023 19:45:10 GMT-0400 (Eastern Daylight Time)","450177","1","3","","","","","","","","","","","","","","","","",""
"instructions","1","2671","0.0-1.0","5d5a48a67ca41f0001e97f8b","bdp_cybrbll","Sat Mar 25 2023 19:45:10 GMT-0400 (Eastern Daylight Time)","450177","1","3","[{""page_index"":0,""viewing_time"":2668}]","2668","","","","","","","","","","","","","","",""
"","","","","5d5a48a67ca41f0001e97f8b","bdp_cybrbll","Sat Mar 25 2023 19:45:10 GMT-0400 (Eastern Daylight Time)","450177","1","3","","","fullscreenenter","2","5636","fullscreenenter","","","","","","","","","","",""
"fullscreen","2","6575","0.0-2.0","5d5a48a67ca41f0001e97f8b","bdp_cybrbll","Sat Mar 25 2023 19:45:10 GMT-0400 (Eastern Daylight Time)","450177","1","3","","","","","","","true","","","","","","","","","",""
"instructions","3","32772","0.0-4.0","5d5a48a67ca41f0001e97f8b","bdp_cybrbll","Sat Mar 25 2023 19:45:10 GMT-0400 (Eastern Daylight Time)","450177","1","3","[{""page_index"":0,""viewing_time"":26194}]","26194","","","","","","","","","","","","","","",""
"image-keyboard-response","4","44091","0.0-5.0-1.0","5d5a48a67ca41f0001e97f8b","bdp_cybrbll","Sat Mar 25 2023 19:45:10 GMT-0400 (Eastern Daylight Time)","450177","1","3","","11315","","","","choice","","img/2to1/1.png","2","225","158","0.5","0.5","2","3","",""
"animation","5","45390","0.0-5.0-2.0","5d5a48a67ca41f0001e97f8b","bdp_cybrbll","Sat Mar 25 2023 19:45:10 GMT-0400 (Eastern Daylight Time)","450177","1","3","","","","","","","","","","225","","","","2","3","[{""stimulus"":""img/2to3/1.png"",""time"":113},{""stimulus"":""img/2to3/2.png"",""time"":215},{""stimulus"":""img/2to3/3.png"",""time"":302},{""stimulus"":""img/2to3/4.png"",""time"":398},{""stimulus"":""img/2to3/5.png"",""time"":506},{""stimulus"":""img/2to3/6.png"",""time"":606},{""stimulus"":""img/2to3/7.png"",""time"":707},{""stimulus"":""img/2to3/8.png"",""time"":806},{""stimulus"":""img/2to3/9.png"",""time"":906},{""stimulus"":""img/2to3/10.png"",""time"":999},{""stimulus"":""img/2to3/11.png"",""time"":1098},{""stimulus"":""img/2to3/12.png"",""time"":1198}]","[]"
"image-keyboard-response","6","45945","0.0-5.0-1.1","5d5a48a67ca41f0001e97f8b","bdp_cybrbll","Sat Mar 25 2023 19:45:10 GMT-0400 (Eastern Daylight Time)","450177","1","3","","null","","","","observe","","img/3to2/1.png","null","224","539","0.5","0.5","3","1","",""
"animation","7","47239","0.0-5.0-2.1","5d5a48a67ca41f0001e97f8b","bdp_cybrbll","Sat Mar 25 2023 19:45:10 GMT-0400 (Eastern Daylight Time)","450177","1","3","","","","","","","","","","224","","","","3","1","[{""stimulus"":""img/3to1/1.png"",""time"":109},{""stimulus"":""img/3to1/2.png"",""time"":205},{""stimulus"":""img/3to1/3.png"",""time"":308},{""stimulus"":""img/3to1/4.png"",""time"":412},{""stimulus"":""img/3to1/5.png"",""time"":509},{""stimulus"":""img/3to1/6.png"",""time"":643},{""stimulus"":""img/3to1/7.png"",""time"":697},{""stimulus"":""img/3to1/8.png"",""time"":795},{""stimulus"":""img/3to1/9.png"",""time"":894},{""stimulus"":""img/3to1/10.png"",""time"":993},{""stimulus"":""img/3to1/11.png"",""time"":1094},{""stimulus"":""img/3to1/12.png"",""time"":1194}]","[]"
"image-keyboard-response","8","48103","0.0-5.0-1.2","5d5a48a67ca41f0001e97f8b","bdp_cybrbll","Sat Mar 25 2023 19:45:10 GMT-0400 (Eastern Daylight Time)","450177","1","3","","null","","","","observe","","img/1to3/1.png","null","223","858","0.5","0.5","1","3","",""
"animation","9","49400","0.0-5.0-2.2","5d5a48a67ca41f0001e97f8b","bdp_cybrbll","Sat Mar 25 2023 19:45:10 GMT-0400 (Eastern Daylight Time)","450177","1","3","","","","","","","","","","223","","","","1","3","[{""stimulus"":""img/1to3/1.png"",""time"":110},{""stimulus"":""img/1to3/2.png"",""time"":204},{""stimulus"":""img/1to3/3.png"",""time"":303},{""stimulus"":""img/1to3/4.png"",""time"":403},{""stimulus"":""img/1to3/5.png"",""time"":517},{""stimulus"":""img/1to3/6.png"",""time"":605},{""stimulus"":""img/1to3/7.png"",""time"":707},{""stimulus"":""img/1to3/8.png"",""time"":803},{""stimulus"":""img/1to3/9.png"",""time"":903},{""stimulus"":""img/1to3/10.png"",""time"":996},{""stimulus"":""img/1to3/11.png"",""time"":1095},{""stimulus"":""img/1to3/12.png"",""time"":1193}]","[]"
"image-keyboard-response","10","49768","0.0-5.0-1.3","5d5a48a67ca41f0001e97f8b","bdp_cybrbll","Sat Mar 25 2023 19:45:10 GMT-0400 (Eastern Daylight Time)","450177","1","3","","null","","","","observe","","img/3to2/1.png","null","222","354","0.5","0.5","3","2","",""
"animation","11","51065","0.0-5.0-2.3","5d5a48a67ca41f0001e97f8b","bdp_cybrbll","Sat Mar 25 2023 19:45:10 GMT-0400 (Eastern Daylight Time)","450177","1","3","","","","","","","","","","222","","","","3","2","[{""stimulus"":""img/3to2/1.png"",""time"":110},{""stimulus"":""img/3to2/2.png"",""time"":205},{""stimulus"":""img/3to2/3.png"",""time"":313},{""stimulus"":""img/3to2/4.png"",""time"":398},{""stimulus"":""img/3to2/5.png"",""time"":505},{""stimulus"":""img/3to2/6.png"",""time"":605},{""stimulus"":""img/3to2/7.png"",""time"":704},{""stimulus"":""img/3to2/8.png"",""time"":806},{""stimulus"":""img/3to2/9.png"",""time"":897},{""stimulus"":""img/3to2/10.png"",""time"":996},{""stimulus"":""img/3to2/11.png"",""time"":1096},{""stimulus"":""img/3to2/12.png"",""time"":1197}]","[]"
"image-keyboard-response","12","51523","0.0-5.0-1.4","5d5a48a67ca41f0001e97f8b","bdp_cybrbll","Sat Mar 25 2023 19:45:10 GMT-0400 (Eastern Daylight Time)","450177","1","3","","458","","","","choice","","img/2to1/1.png","1","221","416","0.5","0.5","2","1","",""
"animation","13","52827","0.0-5.0-2.4","5d5a48a67ca41f0001e97f8b","bdp_cybrbll","Sat Mar 25 2023 19:45:10 GMT-0400 (Eastern Daylight Time)","450177","1","3","","","","","","","","","","221","","","","2","1","[{""stimulus"":""img/2to1/1.png"",""time"":112},{""stimulus"":""img/2to1/2.png"",""time"":208},{""stimulus"":""img/2to1/3.png"",""time"":309},{""stimulus"":""img/2to1/4.png"",""time"":408},{""stimulus"":""img/2to1/5.png"",""time"":509},{""stimulus"":""img/2to1/6.png"",""time"":602},{""stimulus"":""img/2to1/7.png"",""time"":701},{""stimulus"":""img/2to1/8.png"",""time"":809},{""stimulus"":""img/2to1/9.png"",""time"":906},{""stimulus"":""img/2to1/10.png"",""time"":1002},{""stimulus"":""img/2to1/11.png"",""time"":1093},{""stimulus"":""img/2to1/12.png"",""time"":1192}]","[]"
"image-keyboard-response","14","53093","0.0-5.0-1.5","5d5a48a67ca41f0001e97f8b","bdp_cybrbll","Sat Mar 25 2023 19:45:10 GMT-0400 (Eastern Daylight Time)","450177","1","3","","null","","","","observe","","img/1to3/1.png","null","220","259","0.5","0.5","1","2","",""
"animation","15","54389","0.0-5.0-2.5","5d5a48a67ca41f0001e97f8b","bdp_cybrbll","Sat Mar 25 2023 19:45:10 GMT-0400 (Eastern Daylight Time)","450177","1","3","","","","","","","","","","220","","","","1","2","[{""stimulus"":""img/1to2/1.png"",""time"":109},{""stimulus"":""img/1to2/2.png"",""time"":204},{""stimulus"":""img/1to2/3.png"",""time"":305},{""stimulus"":""img/1to2/4.png"",""time"":404},{""stimulus"":""img/1to2/5.png"",""time"":504},{""stimulus"":""img/1to2/6.png"",""time"":601},{""stimulus"":""img/1to2/7.png"",""time"":704},{""stimulus"":""img/1to2/8.png"",""time"":804},{""stimulus"":""img/1to2/9.png"",""time"":897},{""stimulus"":""img/1to2/10.png"",""time"":1005},{""stimulus"":""img/1to2/11.png"",""time"":1101},{""stimulus"":""img/1to2/12.png"",""time"":1199}]","[]"
"image-keyboard-response","16","55143","0.0-5.0-1.6","5d5a48a67ca41f0001e97f8b","bdp_cybrbll","Sat Mar 25 2023 19:45:10 GMT-0400 (Eastern Daylight Time)","450177","1","3","","751","","","","choice","","img/2to1/1.png","2","219","333","0.5","0.5","2","3","",""
"animation","17","56439","0.0-5.0-2.6","5d5a48a67ca41f0001e97f8b","bdp_cybrbll","Sat Mar 25 2023 19:45:10 GMT-0400 (Eastern Daylight Time)","450177","1","3","","","","","","","","","","219","","","","2","3","[{""stimulus"":""img/2to3/1.png"",""time"":108},{""stimulus"":""img/2to3/2.png"",""time"":204},{""stimulus"":""img/2to3/3.png"",""time"":310},{""stimulus"":""img/2to3/4.png"",""time"":411},{""stimulus"":""img/2to3/5.png"",""time"":511},{""stimulus"":""img/2to3/6.png"",""time"":611},{""stimulus"":""img/2to3/7.png"",""time"":710},{""stimulus"":""img/2to3/8.png"",""time"":803},{""stimulus"":""img/2to3/9.png"",""time"":901},{""stimulus"":""img/2to3/10.png"",""time"":1001},{""stimulus"":""img/2to3/11.png"",""time"":1109},{""stimulus"":""img/2to3/12.png"",""time"":1196}]","[]"
"image-keyboard-response","18","56882","0.0-5.0-1.7","5d5a48a67ca41f0001e97f8b","bdp_cybrbll","Sat Mar 25 2023 19:45:10 GMT-0400 (Eastern Daylight Time)","450177","1","3","","null","","","","observe","","img/3to2/1.png","null","218","436","0.5","0.5","3","1","",""
"animation","19","58179","0.0-5.0-2.7","5d5a48a67ca41f0001e97f8b","bdp_cybrbll","Sat Mar 25 2023 19:45:10 GMT-0400 (Eastern Daylight Time)","450177","1","3","","","","","","","","","","218","","","","3","1","[{""stimulus"":""img/3to1/1.png"",""time"":110},{""stimulus"":""img/3to1/2.png"",""time"":205},{""stimulus"":""img/3to1/3.png"",""time"":299},{""stimulus"":""img/3to1/4.png"",""time"":406},{""stimulus"":""img/3to1/5.png"",""time"":503},{""stimulus"":""img/3to1/6.png"",""time"":595},{""stimulus"":""img/3to1/7.png"",""time"":697},{""stimulus"":""img/3to1/8.png"",""time"":797},{""stimulus"":""img/3to1/9.png"",""time"":897},{""stimulus"":""img/3to1/10.png"",""time"":1005},{""stimulus"":""img/3to1/11.png"",""time"":1091},{""stimulus"":""img/3to1/12.png"",""time"":1198}]","[]"
"image-keyboard-response","20","58435","0.0-5.0-1.8","5d5a48a67ca41f0001e97f8b","bdp_cybrbll","Sat Mar 25 2023 19:45:10 GMT-0400 (Eastern Daylight Time)","450177","1","3","","null","","","","observe","","img/1to3/1.png","null","217","246","0.5","0.5","1","3","",""
"animation","21","59737","0.0-5.0-2.8","5d5a48a67ca41f0001e97f8b","bdp_cybrbll","Sat Mar 25 2023 19:45:10 GMT-0400 (Eastern Daylight Time)","450177","1","3","","","","","","","","","","217","","","","1","3","[{""stimulus"":""img/1to3/1.png"",""time"":109},{""stimulus"":""img/1to3/2.png"",""time"":205},{""stimulus"":""img/1to3/3.png"",""time"":301},{""stimulus"":""img/1to3/4.png"",""time"":402},{""stimulus"":""img/1to3/5.png"",""time"":503},{""stimulus"":""img/1to3/6.png"",""time"":603},{""stimulus"":""img/1to3/7.png"",""time"":693},{""stimulus"":""img/1to3/8.png"",""time"":800},{""stimulus"":""img/1to3/9.png"",""time"":900},{""stimulus"":""img/1to3/10.png"",""time"":999},{""stimulus"":""img/1to3/11.png"",""time"":1102},{""stimulus"":""img/1to3/12.png"",""time"":1202}]","[]"
"image-keyboard-response","22","60666","0.0-5.0-1.9","5d5a48a67ca41f0001e97f8b","bdp_cybrbll","Sat Mar 25 2023 19:45:10 GMT-0400 (Eastern Daylight Time)","450177","1","3","","null","","","","observe","","img/3to2/1.png","null","216","919","0.5","0.5","3","1","",""
"animation","23","61955","0.0-5.0-2.9","5d5a48a67ca41f0001e97f8b","bdp_cybrbll","Sat Mar 25 2023 19:45:10 GMT-0400 (Eastern Daylight Time)","450177","1","3","","","","","","","","","","216","","","","3","1","[{""stimulus"":""img/3to1/1.png"",""time"":110},{""stimulus"":""img/3to1/2.png"",""time"":207},{""stimulus"":""img/3to1/3.png"",""time"":306},{""stimulus"":""img/3to1/4.png"",""time"":405},{""stimulus"":""img/3to1/5.png"",""time"":505},{""stimulus"":""img/3to1/6.png"",""time"":605},{""stimulus"":""img/3to1/7.png"",""time"":706},{""stimulus"":""img/3to1/8.png"",""time"":805},{""stimulus"":""img/3to1/9.png"",""time"":898},{""stimulus"":""img/3to1/10.png"",""time"":996},{""stimulus"":""img/3to1/11.png"",""time"":1096},{""stimulus"":""img/3to1/12.png"",""time"":1204}]","[]"
"image-keyboard-response","24","62446","0.0-5.0-1.10","5d5a48a67ca41f0001e97f8b","bdp_cybrbll","Sat Mar 25 2023 19:45:10 GMT-0400 (Eastern Daylight Time)","450177","1","3","","null","","","","observe","","img/1to3/1.png","null","215","489","0.5","0.5","1","2","",""
"animation","25","63737","0.0-5.0-2.10","5d5a48a67ca41f0001e97f8b","bdp_cybrbll","Sat Mar 25 2023 19:45:10 GMT-0400 (Eastern Daylight Time)","450177","1","3","","","","","","","","","","215","","","","1","2","[{""stimulus"":""img/1to2/1.png"",""time"":109},{""stimulus"":""img/1to2/2.png"",""time"":210},{""stimulus"":""img/1to2/3.png"",""time"":309},{""stimulus"":""img/1to2/4.png"",""time"":402},{""stimulus"":""img/1to2/5.png"",""time"":500},{""stimulus"":""img/1to2/6.png"",""time"":608},{""stimulus"":""img/1to2/7.png"",""time"":694},{""stimulus"":""img/1to2/8.png"",""time"":808},{""stimulus"":""img/1to2/9.png"",""time"":893},{""stimulus"":""img/1to2/10.png"",""time"":993},{""stimulus"":""img/1to2/11.png"",""time"":1092},{""stimulus"":""img/1to2/12.png"",""time"":1192}]","[]"
"image-keyboard-response","26","64458","0.0-5.0-1.11","5d5a48a67ca41f0001e97f8b","bdp_cybrbll","Sat Mar 25 2023 19:45:10 GMT-0400 (Eastern Daylight Time)","450177","1","3","","720","","","","choice","","img/2to1/1.png","1","214","483","0.5","0.5","2","1","",""
"animation","27","65747","0.0-5.0-2.11","5d5a48a67ca41f0001e97f8b","bdp_cybrbll","Sat Mar 25 2023 19:45:10 GMT-0400 (Eastern Daylight Time)","450177","1","3","","","","","","","","","","214","","","","2","1","[{""stimulus"":""img/2to1/1.png"",""time"":101},{""stimulus"":""img/2to1/2.png"",""time"":203},{""stimulus"":""img/2to1/3.png"",""time"":311},{""stimulus"":""img/2to1/4.png"",""time"":412},{""stimulus"":""img/2to1/5.png"",""time"":501},{""stimulus"":""img/2to1/6.png"",""time"":596},{""stimulus"":""img/2to1/7.png"",""time"":697},{""stimulus"":""img/2to1/8.png"",""time"":795},{""stimulus"":""img/2to1/9.png"",""time"":896},{""stimulus"":""img/2to1/10.png"",""time"":996},{""stimulus"":""img/2to1/11.png"",""time"":1103},{""stimulus"":""img/2to1/12.png"",""time"":1203}]","[]"
"image-keyboard-response","28","66597","0.0-5.0-1.12","5d5a48a67ca41f0001e97f8b","bdp_cybrbll","Sat Mar 25 2023 19:45:10 GMT-0400 (Eastern Daylight Time)","450177","1","3","","null","","","","observe","","img/1to3/1.png","null","213","837","0.5","0.5","1","2","",""
"animation","29","67889","0.0-5.0-2.12","5d5a48a67ca41f0001e97f8b","bdp_cybrbll","Sat Mar 25 2023 19:45:10 GMT-0400 (Eastern Daylight Time)","450177","1","3","","","","","","","","","","213","","","","1","2","[{""stimulus"":""img/1to2/1.png"",""time"":110},{""stimulus"":""img/1to2/2.png"",""time"":208},{""stimulus"":""img/1to2/3.png"",""time"":312},{""stimulus"":""img/1to2/4.png"",""time"":407},{""stimulus"":""img/1to2/5.png"",""time"":500},{""stimulus"":""img/1to2/6.png"",""time"":608},{""stimulus"":""img/1to2/7.png"",""time"":701},{""stimulus"":""img/1to2/8.png"",""time"":801},{""stimulus"":""img/1to2/9.png"",""time"":908},{""stimulus"":""img/1to2/10.png"",""time"":993},{""stimulus"":""img/1to2/11.png"",""time"":1091},{""stimulus"":""img/1to2/12.png"",""time"":1192}]","[]"
"image-keyboard-response","30","68117","0.0-5.0-1.13","5d5a48a67ca41f0001e97f8b","bdp_cybrbll","Sat Mar 25 2023 19:45:10 GMT-0400 (Eastern Daylight Time)","450177","1","3","","226","","","","choice","","img/2to1/1.png","2","212","278","0.5","0.5","2","3","",""
"animation","31","69412","0.0-5.0-2.13","5d5a48a67ca41f0001e97f8b","bdp_cybrbll","Sat Mar 25 2023 19:45:10 GMT-0400 (Eastern Daylight Time)","450177","1","3","","","","","","","","","","212","","","","2","3","[{""stimulus"":""img/2to3/1.png"",""time"":111},{""stimulus"":""img/2to3/2.png"",""time"":204},{""stimulus"":""img/2to3/3.png"",""time"":304},{""stimulus"":""img/2to3/4.png"",""time"":404},{""stimulus"":""img/2to3/5.png"",""time"":505},{""stimulus"":""img/2to3/6.png"",""time"":604},{""stimulus"":""img/2to3/7.png"",""time"":708},{""stimulus"":""img/2to3/8.png"",""time"":797},{""stimulus"":""img/2to3/9.png"",""time"":897},{""stimulus"":""img/2to3/10.png"",""time"":996},{""stimulus"":""img/2to3/11.png"",""time"":1100},{""stimulus"":""img/2to3/12.png"",""time"":1196}]","[]"
"image-keyboard-response","32","69716","0.0-5.0-1.14","5d5a48a67ca41f0001e97f8b","bdp_cybrbll","Sat Mar 25 2023 19:45:10 GMT-0400 (Eastern Daylight Time)","450177","1","3","","null","","","","observe","","img/3to2/1.png","null","211","289","0.5","0.5","3","1","",""
"animation","33","71012","0.0-5.0-2.14","5d5a48a67ca41f0001e97f8b","bdp_cybrbll","Sat Mar 25 2023 19:45:10 GMT-0400 (Eastern Daylight Time)","450177","1","3","","","","","","","","","","211","","","","3","1","[{""stimulus"":""img/3to1/1.png"",""time"":110},{""stimulus"":""img/3to1/2.png"",""time"":205},{""stimulus"":""img/3to1/3.png"",""time"":305},{""stimulus"":""img/3to1/4.png"",""time"":405},{""stimulus"":""img/3to1/5.png"",""time"":499},{""stimulus"":""img/3to1/6.png"",""time"":606},{""stimulus"":""img/3to1/7.png"",""time"":706},{""stimulus"":""img/3to1/8.png"",""time"":805},{""stimulus"":""img/3to1/9.png"",""time"":898},{""stimulus"":""img/3to1/10.png"",""time"":998},{""stimulus"":""img/3to1/11.png"",""time"":1097},{""stimulus"":""img/3to1/12.png"",""time"":1197}]","[]"
"image-keyboard-response","34","71504","0.0-5.0-1.15","5d5a48a67ca41f0001e97f8b","bdp_cybrbll","Sat Mar 25 2023 19:45:10 GMT-0400 (Eastern Daylight Time)","450177","1","3","","null","","","","observe","","img/1to3/1.png","null","210","481","0.5","0.5","1","2","",""
"animation","35","72796","0.0-5.0-2.15","5d5a48a67ca41f0001e97f8b","bdp_cybrbll","Sat Mar 25 2023 19:45:10 GMT-0400 (Eastern Daylight Time)","450177","1","3","","","","","","","","","","210","","","","1","2","[{""stimulus"":""img/1to2/1.png"",""time"":110},{""stimulus"":""img/1to2/2.png"",""time"":200},{""stimulus"":""img/1to2/3.png"",""time"":301},{""stimulus"":""img/1to2/4.png"",""time"":400},{""stimulus"":""img/1to2/5.png"",""time"":500},{""stimulus"":""img/1to2/6.png"",""time"":602},{""stimulus"":""img/1to2/7.png"",""time"":696},{""stimulus"":""img/1to2/8.png"",""time"":808},{""stimulus"":""img/1to2/9.png"",""time"":893},{""stimulus"":""img/1to2/10.png"",""time"":992},{""stimulus"":""img/1to2/11.png"",""time"":1092},{""stimulus"":""img/1to2/12.png"",""time"":1191}]","[]"
"image-keyboard-response","36","73242","0.0-5.0-1.16","5d5a48a67ca41f0001e97f8b","bdp_cybrbll","Sat Mar 25 2023 19:45:10 GMT-0400 (Eastern Daylight Time)","450177","1","3","","445","","","","choice","","img/2to1/1.png","2","209","467","0.5","0.5","2","3","",""
"animation","37","74535","0.0-5.0-2.16","5d5a48a67ca41f0001e97f8b","bdp_cybrbll","Sat Mar 25 2023 19:45:10 GMT-0400 (Eastern Daylight Time)","450177","1","3","","","","","","","","","","209","","","","2","3","[{""stimulus"":""img/2to3/1.png"",""time"":101},{""stimulus"":""img/2to3/2.png"",""time"":202},{""stimulus"":""img/2to3/3.png"",""time"":303},{""stimulus"":""img/2to3/4.png"",""time"":403},{""stimulus"":""img/2to3/5.png"",""time"":502},{""stimulus"":""img/2to3/6.png"",""time"":603},{""stimulus"":""img/2to3/7.png"",""time"":706},{""stimulus"":""img/2to3/8.png"",""time"":802},{""stimulus"":""img/2to3/9.png"",""time"":898},{""stimulus"":""img/2to3/10.png"",""time"":995},{""stimulus"":""img/2to3/11.png"",""time"":1095},{""stimulus"":""img/2to3/12.png"",""time"":1196}]","[]"
"image-keyboard-response","38","74794","0.0-5.0-1.17","5d5a48a67ca41f0001e97f8b","bdp_cybrbll","Sat Mar 25 2023 19:45:10 GMT-0400 (Eastern Daylight Time)","450177","1","3","","null","","","","observe","","img/3to2/1.png","null","208","243","0.5","0.5","3","2","",""
"animation","39","76087","0.0-5.0-2.17","5d5a48a67ca41f0001e97f8b","bdp_cybrbll","Sat Mar 25 2023 19:45:10 GMT-0400 (Eastern Daylight Time)","450177","1","3","","","","","","","","","","208","","","","3","2","[{""stimulus"":""img/3to2/1.png"",""time"":110},{""stimulus"":""img/3to2/2.png"",""time"":201},{""stimulus"":""img/3to2/3.png"",""time"":301},{""stimulus"":""img/3to2/4.png"",""time"":401},{""stimulus"":""img/3to2/5.png"",""time"":500},{""stimulus"":""img/3to2/6.png"",""time"":608},{""stimulus"":""img/3to2/7.png"",""time"":704},{""stimulus"":""img/3to2/8.png"",""time"":800},{""stimulus"":""img/3to2/9.png"",""time"":903},{""stimulus"":""img/3to2/10.png"",""time"":996},{""stimulus"":""img/3to2/11.png"",""time"":1093},{""stimulus"":""img/3to2/12.png"",""time"":1193}]","[]"
"image-keyboard-response","40","76620","0.0-5.0-1.18","5d5a48a67ca41f0001e97f8b","bdp_cybrbll","Sat Mar 25 2023 19:45:10 GMT-0400 (Eastern Daylight Time)","450177","1","3","","531","","","","choice","","img/2to1/1.png","2","207","455","0.5","0.5","2","3","",""
"animation","41","77921","0.0-5.0-2.18","5d5a48a67ca41f0001e97f8b","bdp_cybrbll","Sat Mar 25 2023 19:45:10 GMT-0400 (Eastern Daylight Time)","450177","1","3","","","","","","","","","","207","","","","2","3","[{""stimulus"":""img/2to3/1.png"",""time"":103},{""stimulus"":""img/2to3/2.png"",""time"":211},{""stimulus"":""img/2to3/3.png"",""time"":310},{""stimulus"":""img/2to3/4.png"",""time"":401},{""stimulus"":""img/2to3/5.png"",""time"":503},{""stimulus"":""img/2to3/6.png"",""time"":595},{""stimulus"":""img/2to3/7.png"",""time"":701},{""stimulus"":""img/2to3/8.png"",""time"":801},{""stimulus"":""img/2to3/9.png"",""time"":900},{""stimulus"":""img/2to3/10.png"",""time"":992},{""stimulus"":""img/2to3/11.png"",""time"":1090},{""stimulus"":""img/2to3/12.png"",""time"":1191}]","[]"
"image-keyboard-response","42","78545","0.0-5.0-1.19","5d5a48a67ca41f0001e97f8b","bdp_cybrbll","Sat Mar 25 2023 19:45:10 GMT-0400 (Eastern Daylight Time)","450177","1","3","","null","","","","observe","","img/3to2/1.png","null","206","610","0.5","0.5","3","2","",""
"animation","43","79846","0.0-5.0-2.19","5d5a48a67ca41f0001e97f8b","bdp_cybrbll","Sat Mar 25 2023 19:45:10 GMT-0400 (Eastern Daylight Time)","450177","1","3","","","","","","","","","","206","","","","3","2","[{""stimulus"":""img/3to2/1.png"",""time"":110},{""stimulus"":""img/3to2/2.png"",""time"":201},{""stimulus"":""img/3to2/3.png"",""time"":300},{""stimulus"":""img/3to2/4.png"",""time"":410},{""stimulus"":""img/3to2/5.png"",""time"":508},{""stimulus"":""img/3to2/6.png"",""time"":608},{""stimulus"":""img/3to2/7.png"",""time"":709},{""stimulus"":""img/3to2/8.png"",""time"":794},{""stimulus"":""img/3to2/9.png"",""time"":893},{""stimulus"":""img/3to2/10.png"",""time"":993},{""stimulus"":""img/3to2/11.png"",""time"":1094},{""stimulus"":""img/3to2/12.png"",""time"":1200}]","[]"
"image-keyboard-response","44","80228","0.0-5.0-1.20","5d5a48a67ca41f0001e97f8b","bdp_cybrbll","Sat Mar 25 2023 19:45:10 GMT-0400 (Eastern Daylight Time)","450177","1","3","","381","","","","choice","","img/2to1/1.png","1","205","392","0.5","0.5","2","1","",""
"animation","45","81528","0.0-5.0-2.20","5d5a48a67ca41f0001e97f8b","bdp_cybrbll","Sat Mar 25 2023 19:45:10 GMT-0400 (Eastern Daylight Time)","450177","1","3","","","","","","","","","","205","","","","2","1","[{""stimulus"":""img/2to1/1.png"",""time"":111},{""stimulus"":""img/2to1/2.png"",""time"":201},{""stimulus"":""img/2to1/3.png"",""time"":301},{""stimulus"":""img/2to1/4.png"",""time"":410},{""stimulus"":""img/2to1/5.png"",""time"":510},{""stimulus"":""img/2to1/6.png"",""time"":610},{""stimulus"":""img/2to1/7.png"",""time"":703},{""stimulus"":""img/2to1/8.png"",""time"":794},{""stimulus"":""img/2to1/9.png"",""time"":892},{""stimulus"":""img/2to1/10.png"",""time"":1004},{""stimulus"":""img/2to1/11.png"",""time"":1101},{""stimulus"":""img/2to1/12.png"",""time"":1202}]","[]"
"image-keyboard-response","46","82034","0.0-5.0-1.21","5d5a48a67ca41f0001e97f8b","bdp_cybrbll","Sat Mar 25 2023 19:45:10 GMT-0400 (Eastern Daylight Time)","450177","1","3","","null","","","","observe","","img/1to3/1.png","null","204","500","0.5","0.5","1","2","",""
"animation","47","83324","0.0-5.0-2.21","5d5a48a67ca41f0001e97f8b","bdp_cybrbll","Sat Mar 25 2023 19:45:10 GMT-0400 (Eastern Daylight Time)","450177","1","3","","","","","","","","","","204","","","","1","2","[{""stimulus"":""img/1to2/1.png"",""time"":110},{""stimulus"":""img/1to2/2.png"",""time"":210},{""stimulus"":""img/1to2/3.png"",""time"":310},{""stimulus"":""img/1to2/4.png"",""time"":411},{""stimulus"":""img/1to2/5.png"",""time"":506},{""stimulus"":""img/1to2/6.png"",""time"":603},{""stimulus"":""img/1to2/7.png"",""time"":703},{""stimulus"":""img/1to2/8.png"",""time"":806},{""stimulus"":""img/1to2/9.png"",""time"":903},{""stimulus"":""img/1to2/10.png"",""time"":1000},{""stimulus"":""img/1to2/11.png"",""time"":1104},{""stimulus"":""img/1to2/12.png"",""time"":1192}]","[]"
"image-keyboard-response","48","84219","0.0-5.0-1.22","5d5a48a67ca41f0001e97f8b","bdp_cybrbll","Sat Mar 25 2023 19:45:10 GMT-0400 (Eastern Daylight Time)","450177","1","3","","894","","","","choice","","img/2to1/1.png","2","203","444","0.5","0.5","2","3","",""
"animation","49","85520","0.0-5.0-2.22","5d5a48a67ca41f0001e97f8b","bdp_cybrbll","Sat Mar 25 2023 19:45:10 GMT-0400 (Eastern Daylight Time)","450177","1","3","","","","","","","","","","203","","","","2","3","[{""stimulus"":""img/2to3/1.png"",""time"":103},{""stimulus"":""img/2to3/2.png"",""time"":202},{""stimulus"":""img/2to3/3.png"",""time"":302},{""stimulus"":""img/2to3/4.png"",""time"":402},{""stimulus"":""img/2to3/5.png"",""time"":502},{""stimulus"":""img/2to3/6.png"",""time"":602},{""stimulus"":""img/2to3/7.png"",""time"":702},{""stimulus"":""img/2to3/8.png"",""time"":803},{""stimulus"":""img/2to3/9.png"",""time"":902},{""stimulus"":""img/2to3/10.png"",""time"":1003},{""stimulus"":""img/2to3/11.png"",""time"":1104},{""stimulus"":""img/2to3/12.png"",""time"":1192}]","[]"
"image-keyboard-response","50","86215","0.0-5.0-1.23","5d5a48a67ca41f0001e97f8b","bdp_cybrbll","Sat Mar 25 2023 19:45:10 GMT-0400 (Eastern Daylight Time)","450177","1","3","","null","","","","observe","","img/3to2/1.png","null","202","679","0.5","0.5","3","2","",""
"animation","51","87512","0.0-5.0-2.23","5d5a48a67ca41f0001e97f8b","bdp_cybrbll","Sat Mar 25 2023 19:45:10 GMT-0400 (Eastern Daylight Time)","450177","1","3","","","","","","","","","","202","","","","3","2","[{""stimulus"":""img/3to2/1.png"",""time"":110},{""stimulus"":""img/3to2/2.png"",""time"":213},{""stimulus"":""img/3to2/3.png"",""time"":306},{""stimulus"":""img/3to2/4.png"",""time"":409},{""stimulus"":""img/3to2/5.png"",""time"":507},{""stimulus"":""img/3to2/6.png"",""time"":607},{""stimulus"":""img/3to2/7.png"",""time"":707},{""stimulus"":""img/3to2/8.png"",""time"":807},{""stimulus"":""img/3to2/9.png"",""time"":906},{""stimulus"":""img/3to2/10.png"",""time"":1001},{""stimulus"":""img/3to2/11.png"",""time"":1105},{""stimulus"":""img/3to2/12.png"",""time"":1190}]","[]"
"image-keyboard-response","52","87822","0.0-5.0-1.24","5d5a48a67ca41f0001e97f8b","bdp_cybrbll","Sat Mar 25 2023 19:45:10 GMT-0400 (Eastern Daylight Time)","450177","1","3","","309","","","","choice","","img/2to1/1.png","1","201","218","0.5","0.5","2","1","",""
"animation","53","89122","0.0-5.0-2.24","5d5a48a67ca41f0001e97f8b","bdp_cybrbll","Sat Mar 25 2023 19:45:10 GMT-0400 (Eastern Daylight Time)","450177","1","3","","","","","","","","","","201","","","","2","1","[{""stimulus"":""img/2to1/1.png"",""time"":103},{""stimulus"":""img/2to1/2.png"",""time"":201},{""stimulus"":""img/2to1/3.png"",""time"":299},{""stimulus"":""img/2to1/4.png"",""time"":399},{""stimulus"":""img/2to1/5.png"",""time"":496},{""stimulus"":""img/2to1/6.png"",""time"":607},{""stimulus"":""img/2to1/7.png"",""time"":705},{""stimulus"":""img/2to1/8.png"",""time"":806},{""stimulus"":""img/2to1/9.png"",""time"":906},{""stimulus"":""img/2to1/10.png"",""time"":1007},{""stimulus"":""img/2to1/11.png"",""time"":1101},{""stimulus"":""img/2to1/12.png"",""time"":1198}]","[]"
"image-keyboard-response","54","89925","0.0-5.0-1.25","5d5a48a67ca41f0001e97f8b","bdp_cybrbll","Sat Mar 25 2023 19:45:10 GMT-0400 (Eastern Daylight Time)","450177","1","3","","null","","","","observe","","img/1to3/1.png","null","200","799","0.5","0.5","1","3","",""
"animation","55","91222","0.0-5.0-2.25","5d5a48a67ca41f0001e97f8b","bdp_cybrbll","Sat Mar 25 2023 19:45:10 GMT-0400 (Eastern Daylight Time)","450177","1","3","","","","","","","","","","200","","","","1","3","[{""stimulus"":""img/1to3/1.png"",""time"":110},{""stimulus"":""img/1to3/2.png"",""time"":204},{""stimulus"":""img/1to3/3.png"",""time"":311},{""stimulus"":""img/1to3/4.png"",""time"":407},{""stimulus"":""img/1to3/5.png"",""time"":504},{""stimulus"":""img/1to3/6.png"",""time"":605},{""stimulus"":""img/1to3/7.png"",""time"":696},{""stimulus"":""img/1to3/8.png"",""time"":793},{""stimulus"":""img/1to3/9.png"",""time"":897},{""stimulus"":""img/1to3/10.png"",""time"":996},{""stimulus"":""img/1to3/11.png"",""time"":1097},{""stimulus"":""img/1to3/12.png"",""time"":1197}]","[]"
"image-keyboard-response","56","91647","0.0-5.0-1.26","5d5a48a67ca41f0001e97f8b","bdp_cybrbll","Sat Mar 25 2023 19:45:10 GMT-0400 (Eastern Daylight Time)","450177","1","3","","null","","","","observe","","img/3to2/1.png","null","199","413","0.5","0.5","3","2","",""
"animation","57","92935","0.0-5.0-2.26","5d5a48a67ca41f0001e97f8b","bdp_cybrbll","Sat Mar 25 2023 19:45:10 GMT-0400 (Eastern Daylight Time)","450177","1","3","","","","","","","","","","199","","","","3","2","[{""stimulus"":""img/3to2/1.png"",""time"":110},{""stimulus"":""img/3to2/2.png"",""time"":199},{""stimulus"":""img/3to2/3.png"",""time"":306},{""stimulus"":""img/3to2/4.png"",""time"":408},{""stimulus"":""img/3to2/5.png"",""time"":508},{""stimulus"":""img/3to2/6.png"",""time"":600},{""stimulus"":""img/3to2/7.png"",""time"":707},{""stimulus"":""img/3to2/8.png"",""time"":808},{""stimulus"":""img/3to2/9.png"",""time"":900},{""stimulus"":""img/3to2/10.png"",""time"":999},{""stimulus"":""img/3to2/11.png"",""time"":1090},{""stimulus"":""img/3to2/12.png"",""time"":1191}]","[]"
"image-keyboard-response","58","93124","0.0-5.0-1.27","5d5a48a67ca41f0001e97f8b","bdp_cybrbll","Sat Mar 25 2023 19:45:10 GMT-0400 (Eastern Daylight Time)","450177","1","3","","187","","","","choice","","img/2to1/1.png","1","198","274","0.5","0.5","2","1","",""
"animation","59","94421","0.0-5.0-2.27","5d5a48a67ca41f0001e97f8b","bdp_cybrbll","Sat Mar 25 2023 19:45:10 GMT-0400 (Eastern Daylight Time)","450177","1","3","","","","","","","","","","198","","","","2","1","[{""stimulus"":""img/2to1/1.png"",""time"":101},{""stimulus"":""img/2to1/2.png"",""time"":204},{""stimulus"":""img/2to1/3.png"",""time"":313},{""stimulus"":""img/2to1/4.png"",""time"":398},{""stimulus"":""img/2to1/5.png"",""time"":498},{""stimulus"":""img/2to1/6.png"",""time"":606},{""stimulus"":""img/2to1/7.png"",""time"":699},{""stimulus"":""img/2to1/8.png"",""time"":797},{""stimulus"":""img/2to1/9.png"",""time"":899},{""stimulus"":""img/2to1/10.png"",""time"":998},{""stimulus"":""img/2to1/11.png"",""time"":1097},{""stimulus"":""img/2to1/12.png"",""time"":1194}]","[]"
"image-keyboard-response","60","94652","0.0-5.0-1.28","5d5a48a67ca41f0001e97f8b","bdp_cybrbll","Sat Mar 25 2023 19:45:10 GMT-0400 (Eastern Daylight Time)","450177","1","3","","null","","","","observe","","img/1to3/1.png","null","197","228","0.5","0.5","1","2","",""
"animation","61","95942","0.0-5.0-2.28","5d5a48a67ca41f0001e97f8b","bdp_cybrbll","Sat Mar 25 2023 19:45:10 GMT-0400 (Eastern Daylight Time)","450177","1","3","","","","","","","","","","197","","","","1","2","[{""stimulus"":""img/1to2/1.png"",""time"":109},{""stimulus"":""img/1to2/2.png"",""time"":210},{""stimulus"":""img/1to2/3.png"",""time"":299},{""stimulus"":""img/1to2/4.png"",""time"":402},{""stimulus"":""img/1to2/5.png"",""time"":510},{""stimulus"":""img/1to2/6.png"",""time"":599},{""stimulus"":""img/1to2/7.png"",""time"":702},{""stimulus"":""img/1to2/8.png"",""time"":795},{""stimulus"":""img/1to2/9.png"",""time"":899},{""stimulus"":""img/1to2/10.png"",""time"":994},{""stimulus"":""img/1to2/11.png"",""time"":1094},{""stimulus"":""img/1to2/12.png"",""time"":1194}]","[]"
"image-keyboard-response","62","96232","0.0-5.0-1.29","5d5a48a67ca41f0001e97f8b","bdp_cybrbll","Sat Mar 25 2023 19:45:10 GMT-0400 (Eastern Daylight Time)","450177","1","3","","289","","","","choice","","img/2to1/1.png","2","196","142","0.5","0.5","2","3","",""
"animation","63","97533","0.0-5.0-2.29","5d5a48a67ca41f0001e97f8b","bdp_cybrbll","Sat Mar 25 2023 19:45:10 GMT-0400 (Eastern Daylight Time)","450177","1","3","","","","","","","","","","196","","","","2","3","[{""stimulus"":""img/2to3/1.png"",""time"":113},{""stimulus"":""img/2to3/2.png"",""time"":205},{""stimulus"":""img/2to3/3.png"",""time"":301},{""stimulus"":""img/2to3/4.png"",""time"":397},{""stimulus"":""img/2to3/5.png"",""time"":498},{""stimulus"":""img/2to3/6.png"",""time"":597},{""stimulus"":""img/2to3/7.png"",""time"":697},{""stimulus"":""img/2to3/8.png"",""time"":804},{""stimulus"":""img/2to3/9.png"",""time"":905},{""stimulus"":""img/2to3/10.png"",""time"":1006},{""stimulus"":""img/2to3/11.png"",""time"":1090},{""stimulus"":""img/2to3/12.png"",""time"":1205}]","[]"
"image-keyboard-response","64","98020","0.0-5.0-1.30","5d5a48a67ca41f0001e97f8b","bdp_cybrbll","Sat Mar 25 2023 19:45:10 GMT-0400 (Eastern Daylight Time)","450177","1","3","","null","","","","observe","","img/3to2/1.png","null","195","471","0.5","0.5","3","1","",""
"animation","65","99313","0.0-5.0-2.30","5d5a48a67ca41f0001e97f8b","bdp_cybrbll","Sat Mar 25 2023 19:45:10 GMT-0400 (Eastern Daylight Time)","450177","1","3","","","","","","","","","","195","","","","3","1","[{""stimulus"":""img/3to1/1.png"",""time"":110},{""stimulus"":""img/3to1/2.png"",""time"":209},{""stimulus"":""img/3to1/3.png"",""time"":301},{""stimulus"":""img/3to1/4.png"",""time"":405},{""stimulus"":""img/3to1/5.png"",""time"":509},{""stimulus"":""img/3to1/6.png"",""time"":609},{""stimulus"":""img/3to1/7.png"",""time"":709},{""stimulus"":""img/3to1/8.png"",""time"":794},{""stimulus"":""img/3to1/9.png"",""time"":908},{""stimulus"":""img/3to1/10.png"",""time"":993},{""stimulus"":""img/3to1/11.png"",""time"":1097},{""stimulus"":""img/3to1/12.png"",""time"":1201}]","[]"
"image-keyboard-response","66","99757","0.0-5.0-1.31","5d5a48a67ca41f0001e97f8b","bdp_cybrbll","Sat Mar 25 2023 19:45:10 GMT-0400 (Eastern Daylight Time)","450177","1","3","","null","","","","observe","","img/1to3/1.png","null","194","435","0.5","0.5","1","3","",""
"animation","67","101055","0.0-5.0-2.31","5d5a48a67ca41f0001e97f8b","bdp_cybrbll","Sat Mar 25 2023 19:45:10 GMT-0400 (Eastern Daylight Time)","450177","1","3","","","","","","","","","","194","","","","1","3","[{""stimulus"":""img/1to3/1.png"",""time"":110},{""stimulus"":""img/1to3/2.png"",""time"":206},{""stimulus"":""img/1to3/3.png"",""time"":305},{""stimulus"":""img/1to3/4.png"",""time"":397},{""stimulus"":""img/1to3/5.png"",""time"":509},{""stimulus"":""img/1to3/6.png"",""time"":605},{""stimulus"":""img/1to3/7.png"",""time"":698},{""stimulus"":""img/1to3/8.png"",""time"":806},{""stimulus"":""img/1to3/9.png"",""time"":898},{""stimulus"":""img/1to3/10.png"",""time"":1000},{""stimulus"":""img/1to3/11.png"",""time"":1097},{""stimulus"":""img/1to3/12.png"",""time"":1199}]","[]"
"image-keyboard-response","68","102893","0.0-5.0-1.32","5d5a48a67ca41f0001e97f8b","bdp_cybrbll","Sat Mar 25 2023 19:45:10 GMT-0400 (Eastern Daylight Time)","450177","1","3","","null","","","","observe","","img/3to2/1.png","null","193","1832","0.5","0.5","3","1","",""
"animation","69","104187","0.0-5.0-2.32","5d5a48a67ca41f0001e97f8b","bdp_cybrbll","Sat Mar 25 2023 19:45:10 GMT-0400 (Eastern Daylight Time)","450177","1","3","","","","","","","","","","193","","","","3","1","[{""stimulus"":""img/3to1/1.png"",""time"":111},{""stimulus"":""img/3to1/2.png"",""time"":211},{""stimulus"":""img/3to1/3.png"",""time"":312},{""stimulus"":""img/3to1/4.png"",""time"":413},{""stimulus"":""img/3to1/5.png"",""time"":509},{""stimulus"":""img/3to1/6.png"",""time"":597},{""stimulus"":""img/3to1/7.png"",""time"":696},{""stimulus"":""img/3to1/8.png"",""time"":794},{""stimulus"":""img/3to1/9.png"",""time"":897},{""stimulus"":""img/3to1/10.png"",""time"":995},{""stimulus"":""img/3to1/11.png"",""time"":1095},{""stimulus"":""img/3to1/12.png"",""time"":1194}]","[]"
"image-keyboard-response","70","104337","0.0-5.0-1.33","5d5a48a67ca41f0001e97f8b","bdp_cybrbll","Sat Mar 25 2023 19:45:10 GMT-0400 (Eastern Daylight Time)","450177","1","3","","null","","","","observe","","img/1to3/1.png","null","192","144","0.5","0.5","1","3","",""
"animation","71","105638","0.0-5.0-2.33","5d5a48a67ca41f0001e97f8b","bdp_cybrbll","Sat Mar 25 2023 19:45:10 GMT-0400 (Eastern Daylight Time)","450177","1","3","","","","","","","","","","192","","","","1","3","[{""stimulus"":""img/1to3/1.png"",""time"":110},{""stimulus"":""img/1to3/2.png"",""time"":211},{""stimulus"":""img/1to3/3.png"",""time"":303},{""stimulus"":""img/1to3/4.png"",""time"":402},{""stimulus"":""img/1to3/5.png"",""time"":501},{""stimulus"":""img/1to3/6.png"",""time"":604},{""stimulus"":""img/1to3/7.png"",""time"":701},{""stimulus"":""img/1to3/8.png"",""time"":794},{""stimulus"":""img/1to3/9.png"",""time"":900},{""stimulus"":""img/1to3/10.png"",""time"":995},{""stimulus"":""img/1to3/11.png"",""time"":1092},{""stimulus"":""img/1to3/12.png"",""time"":1200}]","[]"
"image-keyboard-response","72","106281","0.0-5.0-1.34","5d5a48a67ca41f0001e97f8b","bdp_cybrbll","Sat Mar 25 2023 19:45:10 GMT-0400 (Eastern Daylight Time)","450177","1","3","","null","","","","observe","","img/3to2/1.png","null","191","640","0.5","0.5","3","1","",""
"animation","73","107575","0.0-5.0-2.34","5d5a48a67ca41f0001e97f8b","bdp_cybrbll","Sat Mar 25 2023 19:45:10 GMT-0400 (Eastern Daylight Time)","450177","1","3","","","","","","","","","","191","","","","3","1","[{""stimulus"":""img/3to1/1.png"",""time"":110},{""stimulus"":""img/3to1/2.png"",""time"":206},{""stimulus"":""img/3to1/3.png"",""time"":307},{""stimulus"":""img/3to1/4.png"",""time"":407},{""stimulus"":""img/3to1/5.png"",""time"":508},{""stimulus"":""img/3to1/6.png"",""time"":607},{""stimulus"":""img/3to1/7.png"",""time"":707},{""stimulus"":""img/3to1/8.png"",""time"":807},{""stimulus"":""img/3to1/9.png"",""time"":892},{""stimulus"":""img/3to1/10.png"",""time"":1000},{""stimulus"":""img/3to1/11.png"",""time"":1100},{""stimulus"":""img/3to1/12.png"",""time"":1197}]","[]"
"image-keyboard-response","74","108256","0.0-5.0-1.35","5d5a48a67ca41f0001e97f8b","bdp_cybrbll","Sat Mar 25 2023 19:45:10 GMT-0400 (Eastern Daylight Time)","450177","1","3","","null","","","","observe","","img/1to3/1.png","null","190","666","0.5","0.5","1","3","",""
"animation","75","109546","0.0-5.0-2.35","5d5a48a67ca41f0001e97f8b","bdp_cybrbll","Sat Mar 25 2023 19:45:10 GMT-0400 (Eastern Daylight Time)","450177","1","3","","","","","","","","","","190","","","","1","3","[{""stimulus"":""img/1to3/1.png"",""time"":109},{""stimulus"":""img/1to3/2.png"",""time"":205},{""stimulus"":""img/1to3/3.png"",""time"":300},{""stimulus"":""img/1to3/4.png"",""time"":397},{""stimulus"":""img/1to3/5.png"",""time"":497},{""stimulus"":""img/1to3/6.png"",""time"":596},{""stimulus"":""img/1to3/7.png"",""time"":696},{""stimulus"":""img/1to3/8.png"",""time"":796},{""stimulus"":""img/1to3/9.png"",""time"":897},{""stimulus"":""img/1to3/10.png"",""time"":996},{""stimulus"":""img/1to3/11.png"",""time"":1096},{""stimulus"":""img/1to3/12.png"",""time"":1192}]","[]"
"image-keyboard-response","76","109989","0.0-5.0-1.36","5d5a48a67ca41f0001e97f8b","bdp_cybrbll","Sat Mar 25 2023 19:45:10 GMT-0400 (Eastern Daylight Time)","450177","1","3","","null","","","","observe","","img/3to2/1.png","null","189","429","0.5","0.5","3","2","",""
"animation","77","111279","0.0-5.0-2.36","5d5a48a67ca41f0001e97f8b","bdp_cybrbll","Sat Mar 25 2023 19:45:10 GMT-0400 (Eastern Daylight Time)","450177","1","3","","","","","","","","","","189","","","","3","2","[{""stimulus"":""img/3to2/1.png"",""time"":109},{""stimulus"":""img/3to2/2.png"",""time"":206},{""stimulus"":""img/3to2/3.png"",""time"":305},{""stimulus"":""img/3to2/4.png"",""time"":406},{""stimulus"":""img/3to2/5.png"",""time"":506},{""stimulus"":""img/3to2/6.png"",""time"":598},{""stimulus"":""img/3to2/7.png"",""time"":698},{""stimulus"":""img/3to2/8.png"",""time"":806},{""stimulus"":""img/3to2/9.png"",""time"":906},{""stimulus"":""img/3to2/10.png"",""time"":991},{""stimulus"":""img/3to2/11.png"",""time"":1090},{""stimulus"":""img/3to2/12.png"",""time"":1190}]","[]"
"image-keyboard-response","78","111416","0.0-5.0-1.37","5d5a48a67ca41f0001e97f8b","bdp_cybrbll","Sat Mar 25 2023 19:45:10 GMT-0400 (Eastern Daylight Time)","450177","1","3","","135","","","","choice","","img/2to1/1.png","1","188","513","0.5","0.5","2","1","",""
"animation","79","112712","0.0-5.0-2.37","5d5a48a67ca41f0001e97f8b","bdp_cybrbll","Sat Mar 25 2023 19:45:10 GMT-0400 (Eastern Daylight Time)","450177","1","3","","","","","","","","","","188","","","","2","1","[{""stimulus"":""img/2to1/1.png"",""time"":112},{""stimulus"":""img/2to1/2.png"",""time"":213},{""stimulus"":""img/2to1/3.png"",""time"":307},{""stimulus"":""img/2to1/4.png"",""time"":403},{""stimulus"":""img/2to1/5.png"",""time"":507},{""stimulus"":""img/2to1/6.png"",""time"":601},{""stimulus"":""img/2to1/7.png"",""time"":697},{""stimulus"":""img/2to1/8.png"",""time"":796},{""stimulus"":""img/2to1/9.png"",""time"":897},{""stimulus"":""img/2to1/10.png"",""time"":997},{""stimulus"":""img/2to1/11.png"",""time"":1092},{""stimulus"":""img/2to1/12.png"",""time"":1198}]","[]"
"image-keyboard-response","80","112973","0.0-5.0-1.38","5d5a48a67ca41f0001e97f8b","bdp_cybrbll","Sat Mar 25 2023 19:45:10 GMT-0400 (Eastern Daylight Time)","450177","1","3","","null","","","","observe","","img/1to3/1.png","null","187","245","0.5","0.5","1","3","",""
"animation","81","114270","0.0-5.0-2.38","5d5a48a67ca41f0001e97f8b","bdp_cybrbll","Sat Mar 25 2023 19:45:10 GMT-0400 (Eastern Daylight Time)","450177","1","3","","","","","","","","","","187","","","","1","3","[{""stimulus"":""img/1to3/1.png"",""time"":111},{""stimulus"":""img/1to3/2.png"",""time"":205},{""stimulus"":""img/1to3/3.png"",""time"":298},{""stimulus"":""img/1to3/4.png"",""time"":397},{""stimulus"":""img/1to3/5.png"",""time"":505},{""stimulus"":""img/1to3/6.png"",""time"":602},{""stimulus"":""img/1to3/7.png"",""time"":697},{""stimulus"":""img/1to3/8.png"",""time"":798},{""stimulus"":""img/1to3/9.png"",""time"":897},{""stimulus"":""img/1to3/10.png"",""time"":997},{""stimulus"":""img/1to3/11.png"",""time"":1097},{""stimulus"":""img/1to3/12.png"",""time"":1199}]","[]"
"image-keyboard-response","82","114527","0.0-5.0-1.39","5d5a48a67ca41f0001e97f8b","bdp_cybrbll","Sat Mar 25 2023 19:45:10 GMT-0400 (Eastern Daylight Time)","450177","1","3","","null","","","","observe","","img/3to2/1.png","null","186","255","0.5","0.5","3","1","",""
"animation","83","115828","0.0-5.0-2.39","5d5a48a67ca41f0001e97f8b","bdp_cybrbll","Sat Mar 25 2023 19:45:10 GMT-0400 (Eastern Daylight Time)","450177","1","3","","","","","","","","","","186","","","","3","1","[{""stimulus"":""img/3to1/1.png"",""time"":110},{""stimulus"":""img/3to1/2.png"",""time"":212},{""stimulus"":""img/3to1/3.png"",""time"":311},{""stimulus"":""img/3to1/4.png"",""time"":406},{""stimulus"":""img/3to1/5.png"",""time"":502},{""stimulus"":""img/3to1/6.png"",""time"":602},{""stimulus"":""img/3to1/7.png"",""time"":703},{""stimulus"":""img/3to1/8.png"",""time"":795},{""stimulus"":""img/3to1/9.png"",""time"":895},{""stimulus"":""img/3to1/10.png"",""time"":994},{""stimulus"":""img/3to1/11.png"",""time"":1095},{""stimulus"":""img/3to1/12.png"",""time"":1205}]","[]"
"image-keyboard-response","84","116429","0.0-5.0-1.40","5d5a48a67ca41f0001e97f8b","bdp_cybrbll","Sat Mar 25 2023 19:45:10 GMT-0400 (Eastern Daylight Time)","450177","1","3","","null","","","","observe","","img/1to3/1.png","null","185","595","0.5","0.5","1","2","",""
"animation","85","117720","0.0-5.0-2.40","5d5a48a67ca41f0001e97f8b","bdp_cybrbll","Sat Mar 25 2023 19:45:10 GMT-0400 (Eastern Daylight Time)","450177","1","3","","","","","","","","","","185","","","","1","2","[{""stimulus"":""img/1to2/1.png"",""time"":110},{""stimulus"":""img/1to2/2.png"",""time"":211},{""stimulus"":""img/1to2/3.png"",""time"":303},{""stimulus"":""img/1to2/4.png"",""time"":400},{""stimulus"":""img/1to2/5.png"",""time"":507},{""stimulus"":""img/1to2/6.png"",""time"":609},{""stimulus"":""img/1to2/7.png"",""time"":701},{""stimulus"":""img/1to2/8.png"",""time"":793},{""stimulus"":""img/1to2/9.png"",""time"":893},{""stimulus"":""img/1to2/10.png"",""time"":992},{""stimulus"":""img/1to2/11.png"",""time"":1092},{""stimulus"":""img/1to2/12.png"",""time"":1192}]","[]"
"image-keyboard-response","86","117827","0.0-5.0-1.41","5d5a48a67ca41f0001e97f8b","bdp_cybrbll","Sat Mar 25 2023 19:45:10 GMT-0400 (Eastern Daylight Time)","450177","1","3","","105","","","","choice","","img/2to1/1.png","2","184","532","0.5","0.5","2","3","",""
"animation","87","119129","0.0-5.0-2.41","5d5a48a67ca41f0001e97f8b","bdp_cybrbll","Sat Mar 25 2023 19:45:10 GMT-0400 (Eastern Daylight Time)","450177","1","3","","","","","","","","","","184","","","","2","3","[{""stimulus"":""img/2to3/1.png"",""time"":116},{""stimulus"":""img/2to3/2.png"",""time"":203},{""stimulus"":""img/2to3/3.png"",""time"":302},{""stimulus"":""img/2to3/4.png"",""time"":404},{""stimulus"":""img/2to3/5.png"",""time"":500},{""stimulus"":""img/2to3/6.png"",""time"":610},{""stimulus"":""img/2to3/7.png"",""time"":695},{""stimulus"":""img/2to3/8.png"",""time"":794},{""stimulus"":""img/2to3/9.png"",""time"":907},{""stimulus"":""img/2to3/10.png"",""time"":1002},{""stimulus"":""img/2to3/11.png"",""time"":1100},{""stimulus"":""img/2to3/12.png"",""time"":1205}]","[]"
"image-keyboard-response","88","120053","0.0-5.0-1.42","5d5a48a67ca41f0001e97f8b","bdp_cybrbll","Sat Mar 25 2023 19:45:10 GMT-0400 (Eastern Daylight Time)","450177","1","3","","null","","","","observe","","img/3to2/1.png","null","183","921","0.5","0.5","3","1","",""
"animation","89","121355","0.0-5.0-2.42","5d5a48a67ca41f0001e97f8b","bdp_cybrbll","Sat Mar 25 2023 19:45:10 GMT-0400 (Eastern Daylight Time)","450177","1","3","","","","","","","","","","183","","","","3","1","[{""stimulus"":""img/3to1/1.png"",""time"":110},{""stimulus"":""img/3to1/2.png"",""time"":214},{""stimulus"":""img/3to1/3.png"",""time"":302},{""stimulus"":""img/3to1/4.png"",""time"":402},{""stimulus"":""img/3to1/5.png"",""time"":502},{""stimulus"":""img/3to1/6.png"",""time"":602},{""stimulus"":""img/3to1/7.png"",""time"":702},{""stimulus"":""img/3to1/8.png"",""time"":801},{""stimulus"":""img/3to1/9.png"",""time"":904},{""stimulus"":""img/3to1/10.png"",""time"":1001},{""stimulus"":""img/3to1/11.png"",""time"":1102},{""stimulus"":""img/3to1/12.png"",""time"":1202}]","[]"
"image-keyboard-response","90","121642","0.0-5.0-1.43","5d5a48a67ca41f0001e97f8b","bdp_cybrbll","Sat Mar 25 2023 19:45:10 GMT-0400 (Eastern Daylight Time)","450177","1","3","","null","","","","observe","","img/1to3/1.png","null","182","272","0.5","0.5","1","2","",""
"animation","91","122938","0.0-5.0-2.43","5d5a48a67ca41f0001e97f8b","bdp_cybrbll","Sat Mar 25 2023 19:45:10 GMT-0400 (Eastern Daylight Time)","450177","1","3","","","","","","","","","","182","","","","1","2","[{""stimulus"":""img/1to2/1.png"",""time"":111},{""stimulus"":""img/1to2/2.png"",""time"":205},{""stimulus"":""img/1to2/3.png"",""time"":309},{""stimulus"":""img/1to2/4.png"",""time"":411},{""stimulus"":""img/1to2/5.png"",""time"":499},{""stimulus"":""img/1to2/6.png"",""time"":596},{""stimulus"":""img/1to2/7.png"",""time"":707},{""stimulus"":""img/1to2/8.png"",""time"":795},{""stimulus"":""img/1to2/9.png"",""time"":903},{""stimulus"":""img/1to2/10.png"",""time"":1007},{""stimulus"":""img/1to2/11.png"",""time"":1095},{""stimulus"":""img/1to2/12.png"",""time"":1204}]","[]"
"image-keyboard-response","92","123253","0.0-5.0-1.44","5d5a48a67ca41f0001e97f8b","bdp_cybrbll","Sat Mar 25 2023 19:45:10 GMT-0400 (Eastern Daylight Time)","450177","1","3","","314","","","","choice","","img/2to1/1.png","2","181","379","0.5","0.5","2","3","",""
"animation","93","124555","0.0-5.0-2.44","5d5a48a67ca41f0001e97f8b","bdp_cybrbll","Sat Mar 25 2023 19:45:10 GMT-0400 (Eastern Daylight Time)","450177","1","3","","","","","","","","","","181","","","","2","3","[{""stimulus"":""img/2to3/1.png"",""time"":103},{""stimulus"":""img/2to3/2.png"",""time"":200},{""stimulus"":""img/2to3/3.png"",""time"":303},{""stimulus"":""img/2to3/4.png"",""time"":406},{""stimulus"":""img/2to3/5.png"",""time"":500},{""stimulus"":""img/2to3/6.png"",""time"":600},{""stimulus"":""img/2to3/7.png"",""time"":701},{""stimulus"":""img/2to3/8.png"",""time"":800},{""stimulus"":""img/2to3/9.png"",""time"":900},{""stimulus"":""img/2to3/10.png"",""time"":1001},{""stimulus"":""img/2to3/11.png"",""time"":1100},{""stimulus"":""img/2to3/12.png"",""time"":1201}]","[]"
"image-keyboard-response","94","125279","0.0-5.0-1.45","5d5a48a67ca41f0001e97f8b","bdp_cybrbll","Sat Mar 25 2023 19:45:10 GMT-0400 (Eastern Daylight Time)","450177","1","3","","null","","","","observe","","img/3to2/1.png","null","180","706","0.5","0.5","3","1","",""
"animation","95","126579","0.0-5.0-2.45","5d5a48a67ca41f0001e97f8b","bdp_cybrbll","Sat Mar 25 2023 19:45:10 GMT-0400 (Eastern Daylight Time)","450177","1","3","","","","","","","","","","180","","","","3","1","[{""stimulus"":""img/3to1/1.png"",""time"":111},{""stimulus"":""img/3to1/2.png"",""time"":199},{""stimulus"":""img/3to1/3.png"",""time"":300},{""stimulus"":""img/3to1/4.png"",""time"":400},{""stimulus"":""img/3to1/5.png"",""time"":504},{""stimulus"":""img/3to1/6.png"",""time"":608},{""stimulus"":""img/3to1/7.png"",""time"":709},{""stimulus"":""img/3to1/8.png"",""time"":807},{""stimulus"":""img/3to1/9.png"",""time"":900},{""stimulus"":""img/3to1/10.png"",""time"":1000},{""stimulus"":""img/3to1/11.png"",""time"":1100},{""stimulus"":""img/3to1/12.png"",""time"":1200}]","[]"
"image-keyboard-response","96","127055","0.0-5.0-1.46","5d5a48a67ca41f0001e97f8b","bdp_cybrbll","Sat Mar 25 2023 19:45:10 GMT-0400 (Eastern Daylight Time)","450177","1","3","","null","","","","observe","","img/1to3/1.png","null","179","463","0.5","0.5","1","3","",""
"animation","97","128346","0.0-5.0-2.46","5d5a48a67ca41f0001e97f8b","bdp_cybrbll","Sat Mar 25 2023 19:45:10 GMT-0400 (Eastern Daylight Time)","450177","1","3","","","","","","","","","","179","","","","1","3","[{""stimulus"":""img/1to3/1.png"",""time"":110},{""stimulus"":""img/1to3/2.png"",""time"":208},{""stimulus"":""img/1to3/3.png"",""time"":307},{""stimulus"":""img/1to3/4.png"",""time"":399},{""stimulus"":""img/1to3/5.png"",""time"":499},{""stimulus"":""img/1to3/6.png"",""time"":600},{""stimulus"":""img/1to3/7.png"",""time"":699},{""stimulus"":""img/1to3/8.png"",""time"":799},{""stimulus"":""img/1to3/9.png"",""time"":906},{""stimulus"":""img/1to3/10.png"",""time"":999},{""stimulus"":""img/1to3/11.png"",""time"":1100},{""stimulus"":""img/1to3/12.png"",""time"":1195}]","[]"
"image-keyboard-response","98","129268","0.0-5.0-1.47","5d5a48a67ca41f0001e97f8b","bdp_cybrbll","Sat Mar 25 2023 19:45:10 GMT-0400 (Eastern Daylight Time)","450177","1","3","","null","","","","observe","","img/3to2/1.png","null","178","911","0.5","0.5","3","1","",""
"animation","99","130570","0.0-5.0-2.47","5d5a48a67ca41f0001e97f8b","bdp_cybrbll","Sat Mar 25 2023 19:45:10 GMT-0400 (Eastern Daylight Time)","450177","1","3","","","","","","","","","","178","","","","3","1","[{""stimulus"":""img/3to1/1.png"",""time"":110},{""stimulus"":""img/3to1/2.png"",""time"":203},{""stimulus"":""img/3to1/3.png"",""time"":301},{""stimulus"":""img/3to1/4.png"",""time"":396},{""stimulus"":""img/3to1/5.png"",""time"":496},{""stimulus"":""img/3to1/6.png"",""time"":596},{""stimulus"":""img/3to1/7.png"",""time"":695},{""stimulus"":""img/3to1/8.png"",""time"":795},{""stimulus"":""img/3to1/9.png"",""time"":895},{""stimulus"":""img/3to1/10.png"",""time"":994},{""stimulus"":""img/3to1/11.png"",""time"":1095},{""stimulus"":""img/3to1/12.png"",""time"":1194}]","[]"
"image-keyboard-response","100","131485","0.0-5.0-1.48","5d5a48a67ca41f0001e97f8b","bdp_cybrbll","Sat Mar 25 2023 19:45:10 GMT-0400 (Eastern Daylight Time)","450177","1","3","","null","","","","observe","","img/1to3/1.png","null","177","911","0.5","0.5","1","2","",""
"animation","101","132787","0.0-5.0-2.48","5d5a48a67ca41f0001e97f8b","bdp_cybrbll","Sat Mar 25 2023 19:45:10 GMT-0400 (Eastern Daylight Time)","450177","1","3","","","","","","","","","","177","","","","1","2","[{""stimulus"":""img/1to2/1.png"",""time"":109},{""stimulus"":""img/1to2/2.png"",""time"":203},{""stimulus"":""img/1to2/3.png"",""time"":303},{""stimulus"":""img/1to2/4.png"",""time"":403},{""stimulus"":""img/1to2/5.png"",""time"":503},{""stimulus"":""img/1to2/6.png"",""time"":603},{""stimulus"":""img/1to2/7.png"",""time"":706},{""stimulus"":""img/1to2/8.png"",""time"":807},{""stimulus"":""img/1to2/9.png"",""time"":903},{""stimulus"":""img/1to2/10.png"",""time"":1002},{""stimulus"":""img/1to2/11.png"",""time"":1104},{""stimulus"":""img/1to2/12.png"",""time"":1203}]","[]"
"image-keyboard-response","102","132943","0.0-5.0-1.49","5d5a48a67ca41f0001e97f8b","bdp_cybrbll","Sat Mar 25 2023 19:45:10 GMT-0400 (Eastern Daylight Time)","450177","1","3","","155","","","","choice","","img/2to1/1.png","2","176","346","0.5","0.5","2","3","",""
"animation","103","134241","0.0-5.0-2.49","5d5a48a67ca41f0001e97f8b","bdp_cybrbll","Sat Mar 25 2023 19:45:10 GMT-0400 (Eastern Daylight Time)","450177","1","3","","","","","","","","","","176","","","","2","3","[{""stimulus"":""img/2to3/1.png"",""time"":111},{""stimulus"":""img/2to3/2.png"",""time"":210},{""stimulus"":""img/2to3/3.png"",""time"":310},{""stimulus"":""img/2to3/4.png"",""time"":398},{""stimulus"":""img/2to3/5.png"",""time"":501},{""stimulus"":""img/2to3/6.png"",""time"":601},{""stimulus"":""img/2to3/7.png"",""time"":701},{""stimulus"":""img/2to3/8.png"",""time"":801},{""stimulus"":""img/2to3/9.png"",""time"":901},{""stimulus"":""img/2to3/10.png"",""time"":997},{""stimulus"":""img/2to3/11.png"",""time"":1097},{""stimulus"":""img/2to3/12.png"",""time"":1201}]","[]"
"image-keyboard-response","104","134806","0.0-5.0-1.50","5d5a48a67ca41f0001e97f8b","bdp_cybrbll","Sat Mar 25 2023 19:45:10 GMT-0400 (Eastern Daylight Time)","450177","1","3","","null","","","","observe","","img/3to2/1.png","null","175","550","0.5","0.5","3","1","",""
"animation","105","136103","0.0-5.0-2.50","5d5a48a67ca41f0001e97f8b","bdp_cybrbll","Sat Mar 25 2023 19:45:10 GMT-0400 (Eastern Daylight Time)","450177","1","3","","","","","","","","","","175","","","","3","1","[{""stimulus"":""img/3to1/1.png"",""time"":110},{""stimulus"":""img/3to1/2.png"",""time"":205},{""stimulus"":""img/3to1/3.png"",""time"":314},{""stimulus"":""img/3to1/4.png"",""time"":399},{""stimulus"":""img/3to1/5.png"",""time"":507},{""stimulus"":""img/3to1/6.png"",""time"":603},{""stimulus"":""img/3to1/7.png"",""time"":708},{""stimulus"":""img/3to1/8.png"",""time"":807},{""stimulus"":""img/3to1/9.png"",""time"":906},{""stimulus"":""img/3to1/10.png"",""time"":1006},{""stimulus"":""img/3to1/11.png"",""time"":1106},{""stimulus"":""img/3to1/12.png"",""time"":1190}]","[]"
"image-keyboard-response","106","136986","0.0-5.0-1.51","5d5a48a67ca41f0001e97f8b","bdp_cybrbll","Sat Mar 25 2023 19:45:10 GMT-0400 (Eastern Daylight Time)","450177","1","3","","null","","","","observe","","img/1to3/1.png","null","174","877","0.5","0.5","1","2","",""
"animation","107","138284","0.0-5.0-2.51","5d5a48a67ca41f0001e97f8b","bdp_cybrbll","Sat Mar 25 2023 19:45:10 GMT-0400 (Eastern Daylight Time)","450177","1","3","","","","","","","","","","174","","","","1","2","[{""stimulus"":""img/1to2/1.png"",""time"":110},{""stimulus"":""img/1to2/2.png"",""time"":210},{""stimulus"":""img/1to2/3.png"",""time"":301},{""stimulus"":""img/1to2/4.png"",""time"":402},{""stimulus"":""img/1to2/5.png"",""time"":497},{""stimulus"":""img/1to2/6.png"",""time"":603},{""stimulus"":""img/1to2/7.png"",""time"":703},{""stimulus"":""img/1to2/8.png"",""time"":794},{""stimulus"":""img/1to2/9.png"",""time"":901},{""stimulus"":""img/1to2/10.png"",""time"":1003},{""stimulus"":""img/1to2/11.png"",""time"":1102},{""stimulus"":""img/1to2/12.png"",""time"":1202}]","[]"
"image-keyboard-response","108","138610","0.0-5.0-1.52","5d5a48a67ca41f0001e97f8b","bdp_cybrbll","Sat Mar 25 2023 19:45:10 GMT-0400 (Eastern Daylight Time)","450177","1","3","","325","","","","choice","","img/2to1/1.png","2","173","605","0.5","0.5","2","3","",""
"animation","109","139901","0.0-5.0-2.52","5d5a48a67ca41f0001e97f8b","bdp_cybrbll","Sat Mar 25 2023 19:45:10 GMT-0400 (Eastern Daylight Time)","450177","1","3","","","","","","","","","","173","","","","2","3","[{""stimulus"":""img/2to3/1.png"",""time"":115},{""stimulus"":""img/2to3/2.png"",""time"":203},{""stimulus"":""img/2to3/3.png"",""time"":306},{""stimulus"":""img/2to3/4.png"",""time"":402},{""stimulus"":""img/2to3/5.png"",""time"":501},{""stimulus"":""img/2to3/6.png"",""time"":601},{""stimulus"":""img/2to3/7.png"",""time"":708},{""stimulus"":""img/2to3/8.png"",""time"":793},{""stimulus"":""img/2to3/9.png"",""time"":893},{""stimulus"":""img/2to3/10.png"",""time"":1005},{""stimulus"":""img/2to3/11.png"",""time"":1101},{""stimulus"":""img/2to3/12.png"",""time"":1194}]","[]"
"image-keyboard-response","110","140225","0.0-5.0-1.53","5d5a48a67ca41f0001e97f8b","bdp_cybrbll","Sat Mar 25 2023 19:45:10 GMT-0400 (Eastern Daylight Time)","450177","1","3","","null","","","","observe","","img/3to2/1.png","null","172","319","0.5","0.5","3","1","",""
"animation","111","141521","0.0-5.0-2.53","5d5a48a67ca41f0001e97f8b","bdp_cybrbll","Sat Mar 25 2023 19:45:10 GMT-0400 (Eastern Daylight Time)","450177","1","3","","","","","","","","","","172","","","","3","1","[{""stimulus"":""img/3to1/1.png"",""time"":110},{""stimulus"":""img/3to1/2.png"",""time"":205},{""stimulus"":""img/3to1/3.png"",""time"":304},{""stimulus"":""img/3to1/4.png"",""time"":404},{""stimulus"":""img/3to1/5.png"",""time"":512},{""stimulus"":""img/3to1/6.png"",""time"":597},{""stimulus"":""img/3to1/7.png"",""time"":704},{""stimulus"":""img/3to1/8.png"",""time"":804},{""stimulus"":""img/3to1/9.png"",""time"":904},{""stimulus"":""img/3to1/10.png"",""time"":1000},{""stimulus"":""img/3to1/11.png"",""time"":1096},{""stimulus"":""img/3to1/12.png"",""time"":1196}]","[]"
"image-keyboard-response","112","142012","0.0-5.0-1.54","5d5a48a67ca41f0001e97f8b","bdp_cybrbll","Sat Mar 25 2023 19:45:10 GMT-0400 (Eastern Daylight Time)","450177","1","3","","null","","","","observe","","img/1to3/1.png","null","171","483","0.5","0.5","1","2","",""
"animation","113","143312","0.0-5.0-2.54","5d5a48a67ca41f0001e97f8b","bdp_cybrbll","Sat Mar 25 2023 19:45:10 GMT-0400 (Eastern Daylight Time)","450177","1","3","","","","","","","","","","171","","","","1","2","[{""stimulus"":""img/1to2/1.png"",""time"":110},{""stimulus"":""img/1to2/2.png"",""time"":214},{""stimulus"":""img/1to2/3.png"",""time"":309},{""stimulus"":""img/1to2/4.png"",""time"":409},{""stimulus"":""img/1to2/5.png"",""time"":504},{""stimulus"":""img/1to2/6.png"",""time"":600},{""stimulus"":""img/1to2/7.png"",""time"":700},{""stimulus"":""img/1to2/8.png"",""time"":800},{""stimulus"":""img/1to2/9.png"",""time"":900},{""stimulus"":""img/1to2/10.png"",""time"":1000},{""stimulus"":""img/1to2/11.png"",""time"":1101},{""stimulus"":""img/1to2/12.png"",""time"":1200}]","[]"
"image-keyboard-response","114","143356","0.0-5.0-1.55","5d5a48a67ca41f0001e97f8b","bdp_cybrbll","Sat Mar 25 2023 19:45:10 GMT-0400 (Eastern Daylight Time)","450177","1","3","","43","","","","choice","","img/2to1/1.png","2","170","251","0.5","0.5","2","3","",""
"animation","115","144654","0.0-5.0-2.55","5d5a48a67ca41f0001e97f8b","bdp_cybrbll","Sat Mar 25 2023 19:45:10 GMT-0400 (Eastern Daylight Time)","450177","1","3","","","","","","","","","","170","","","","2","3","[{""stimulus"":""img/2to3/1.png"",""time"":104},{""stimulus"":""img/2to3/2.png"",""time"":207},{""stimulus"":""img/2to3/3.png"",""time"":306},{""stimulus"":""img/2to3/4.png"",""time"":410},{""stimulus"":""img/2to3/5.png"",""time"":497},{""stimulus"":""img/2to3/6.png"",""time"":598},{""stimulus"":""img/2to3/7.png"",""time"":706},{""stimulus"":""img/2to3/8.png"",""time"":806},{""stimulus"":""img/2to3/9.png"",""time"":899},{""stimulus"":""img/2to3/10.png"",""time"":998},{""stimulus"":""img/2to3/11.png"",""time"":1095},{""stimulus"":""img/2to3/12.png"",""time"":1199}]","[]"
"image-keyboard-response","116","145459","0.0-5.0-1.56","5d5a48a67ca41f0001e97f8b","bdp_cybrbll","Sat Mar 25 2023 19:45:10 GMT-0400 (Eastern Daylight Time)","450177","1","3","","null","","","","observe","","img/3to2/1.png","null","169","791","0.5","0.5","3","2","",""
"animation","117","146762","0.0-5.0-2.56","5d5a48a67ca41f0001e97f8b","bdp_cybrbll","Sat Mar 25 2023 19:45:10 GMT-0400 (Eastern Daylight Time)","450177","1","3","","","","","","","","","","169","","","","3","2","[{""stimulus"":""img/3to2/1.png"",""time"":110},{""stimulus"":""img/3to2/2.png"",""time"":203},{""stimulus"":""img/3to2/3.png"",""time"":298},{""stimulus"":""img/3to2/4.png"",""time"":411},{""stimulus"":""img/3to2/5.png"",""time"":497},{""stimulus"":""img/3to2/6.png"",""time"":595},{""stimulus"":""img/3to2/7.png"",""time"":696},{""stimulus"":""img/3to2/8.png"",""time"":795},{""stimulus"":""img/3to2/9.png"",""time"":896},{""stimulus"":""img/3to2/10.png"",""time"":995},{""stimulus"":""img/3to2/11.png"",""time"":1104},{""stimulus"":""img/3to2/12.png"",""time"":1203}]","[]"
"image-keyboard-response","118","146883","0.0-5.0-1.57","5d5a48a67ca41f0001e97f8b","bdp_cybrbll","Sat Mar 25 2023 19:45:10 GMT-0400 (Eastern Daylight Time)","450177","1","3","","121","","","","choice","","img/2to1/1.png","1","168","242","0.5","0.5","2","1","",""
"animation","119","148179","0.0-5.0-2.57","5d5a48a67ca41f0001e97f8b","bdp_cybrbll","Sat Mar 25 2023 19:45:10 GMT-0400 (Eastern Daylight Time)","450177","1","3","","","","","","","","","","168","","","","2","1","[{""stimulus"":""img/2to1/1.png"",""time"":107},{""stimulus"":""img/2to1/2.png"",""time"":210},{""stimulus"":""img/2to1/3.png"",""time"":303},{""stimulus"":""img/2to1/4.png"",""time"":405},{""stimulus"":""img/2to1/5.png"",""time"":505},{""stimulus"":""img/2to1/6.png"",""time"":597},{""stimulus"":""img/2to1/7.png"",""time"":696},{""stimulus"":""img/2to1/8.png"",""time"":795},{""stimulus"":""img/2to1/9.png"",""time"":896},{""stimulus"":""img/2to1/10.png"",""time"":995},{""stimulus"":""img/2to1/11.png"",""time"":1103},{""stimulus"":""img/2to1/12.png"",""time"":1200}]","[]"
"image-keyboard-response","120","148430","0.0-5.0-1.58","5d5a48a67ca41f0001e97f8b","bdp_cybrbll","Sat Mar 25 2023 19:45:10 GMT-0400 (Eastern Daylight Time)","450177","1","3","","null","","","","observe","","img/1to3/1.png","null","167","243","0.5","0.5","1","2","",""
"animation","121","149728","0.0-5.0-2.58","5d5a48a67ca41f0001e97f8b","bdp_cybrbll","Sat Mar 25 2023 19:45:10 GMT-0400 (Eastern Daylight Time)","450177","1","3","","","","","","","","","","167","","","","1","2","[{""stimulus"":""img/1to2/1.png"",""time"":109},{""stimulus"":""img/1to2/2.png"",""time"":207},{""stimulus"":""img/1to2/3.png"",""time"":307},{""stimulus"":""img/1to2/4.png"",""time"":407},{""stimulus"":""img/1to2/5.png"",""time"":503},{""stimulus"":""img/1to2/6.png"",""time"":599},{""stimulus"":""img/1to2/7.png"",""time"":698},{""stimulus"":""img/1to2/8.png"",""time"":799},{""stimulus"":""img/1to2/9.png"",""time"":906},{""stimulus"":""img/1to2/10.png"",""time"":992},{""stimulus"":""img/1to2/11.png"",""time"":1090},{""stimulus"":""img/1to2/12.png"",""time"":1201}]","[]"
"image-keyboard-response","122","149755","0.0-5.0-1.59","5d5a48a67ca41f0001e97f8b","bdp_cybrbll","Sat Mar 25 2023 19:45:10 GMT-0400 (Eastern Daylight Time)","450177","1","3","","25","","","","choice","","img/2to1/1.png","2","166","628","0.5","0.5","2","3","",""
"animation","123","151046","0.0-5.0-2.59","5d5a48a67ca41f0001e97f8b","bdp_cybrbll","Sat Mar 25 2023 19:45:10 GMT-0400 (Eastern Daylight Time)","450177","1","3","","","","","","","","","","166","","","","2","3","[{""stimulus"":""img/2to3/1.png"",""time"":105},{""stimulus"":""img/2to3/2.png"",""time"":199},{""stimulus"":""img/2to3/3.png"",""time"":309},{""stimulus"":""img/2to3/4.png"",""time"":403},{""stimulus"":""img/2to3/5.png"",""time"":500},{""stimulus"":""img/2to3/6.png"",""time"":607},{""stimulus"":""img/2to3/7.png"",""time"":699},{""stimulus"":""img/2to3/8.png"",""time"":808},{""stimulus"":""img/2to3/9.png"",""time"":907},{""stimulus"":""img/2to3/10.png"",""time"":1000},{""stimulus"":""img/2to3/11.png"",""time"":1099},{""stimulus"":""img/2to3/12.png"",""time"":1195}]","[]"
"image-keyboard-response","124","151396","0.0-5.0-1.60","5d5a48a67ca41f0001e97f8b","bdp_cybrbll","Sat Mar 25 2023 19:45:10 GMT-0400 (Eastern Daylight Time)","450177","1","3","","null","","","","observe","","img/3to2/1.png","null","165","340","0.5","0.5","3","2","",""
"animation","125","152687","0.0-5.0-2.60","5d5a48a67ca41f0001e97f8b","bdp_cybrbll","Sat Mar 25 2023 19:45:10 GMT-0400 (Eastern Daylight Time)","450177","1","3","","","","","","","","","","165","","","","3","2","[{""stimulus"":""img/3to2/1.png"",""time"":111},{""stimulus"":""img/3to2/2.png"",""time"":199},{""stimulus"":""img/3to2/3.png"",""time"":310},{""stimulus"":""img/3to2/4.png"",""time"":398},{""stimulus"":""img/3to2/5.png"",""time"":508},{""stimulus"":""img/3to2/6.png"",""time"":595},{""stimulus"":""img/3to2/7.png"",""time"":707},{""stimulus"":""img/3to2/8.png"",""time"":803},{""stimulus"":""img/3to2/9.png"",""time"":900},{""stimulus"":""img/3to2/10.png"",""time"":999},{""stimulus"":""img/3to2/11.png"",""time"":1092},{""stimulus"":""img/3to2/12.png"",""time"":1193}]","[]"
"image-keyboard-response","126","152777","0.0-5.0-1.61","5d5a48a67ca41f0001e97f8b","bdp_cybrbll","Sat Mar 25 2023 19:45:10 GMT-0400 (Eastern Daylight Time)","450177","1","3","","89","","","","choice","","img/2to1/1.png","1","164","283","0.5","0.5","2","1","",""
"animation","127","154078","0.0-5.0-2.61","5d5a48a67ca41f0001e97f8b","bdp_cybrbll","Sat Mar 25 2023 19:45:10 GMT-0400 (Eastern Daylight Time)","450177","1","3","","","","","","","","","","164","","","","2","1","[{""stimulus"":""img/2to1/1.png"",""time"":103},{""stimulus"":""img/2to1/2.png"",""time"":203},{""stimulus"":""img/2to1/3.png"",""time"":303},{""stimulus"":""img/2to1/4.png"",""time"":403},{""stimulus"":""img/2to1/5.png"",""time"":498},{""stimulus"":""img/2to1/6.png"",""time"":601},{""stimulus"":""img/2to1/7.png"",""time"":704},{""stimulus"":""img/2to1/8.png"",""time"":797},{""stimulus"":""img/2to1/9.png"",""time"":895},{""stimulus"":""img/2to1/10.png"",""time"":999},{""stimulus"":""img/2to1/11.png"",""time"":1097},{""stimulus"":""img/2to1/12.png"",""time"":1200}]","[]"
"image-keyboard-response","128","154272","0.0-5.0-1.62","5d5a48a67ca41f0001e97f8b","bdp_cybrbll","Sat Mar 25 2023 19:45:10 GMT-0400 (Eastern Daylight Time)","450177","1","3","","null","","","","observe","","img/1to3/1.png","null","163","188","0.5","0.5","1","2","",""
"animation","129","155570","0.0-5.0-2.62","5d5a48a67ca41f0001e97f8b","bdp_cybrbll","Sat Mar 25 2023 19:45:10 GMT-0400 (Eastern Daylight Time)","450177","1","3","","","","","","","","","","163","","","","1","2","[{""stimulus"":""img/1to2/1.png"",""time"":110},{""stimulus"":""img/1to2/2.png"",""time"":206},{""stimulus"":""img/1to2/3.png"",""time"":299},{""stimulus"":""img/1to2/4.png"",""time"":399},{""stimulus"":""img/1to2/5.png"",""time"":499},{""stimulus"":""img/1to2/6.png"",""time"":608},{""stimulus"":""img/1to2/7.png"",""time"":707},{""stimulus"":""img/1to2/8.png"",""time"":799},{""stimulus"":""img/1to2/9.png"",""time"":901},{""stimulus"":""img/1to2/10.png"",""time"":999},{""stimulus"":""img/1to2/11.png"",""time"":1099},{""stimulus"":""img/1to2/12.png"",""time"":1199}]","[]"
"image-keyboard-response","130","155628","0.0-5.0-1.63","5d5a48a67ca41f0001e97f8b","bdp_cybrbll","Sat Mar 25 2023 19:45:10 GMT-0400 (Eastern Daylight Time)","450177","1","3","","56","","","","choice","","img/2to1/1.png","2","162","618","0.5","0.5","2","3","",""
"animation","131","156916","0.0-5.0-2.63","5d5a48a67ca41f0001e97f8b","bdp_cybrbll","Sat Mar 25 2023 19:45:10 GMT-0400 (Eastern Daylight Time)","450177","1","3","","","","","","","","","","162","","","","2","3","[{""stimulus"":""img/2to3/1.png"",""time"":115},{""stimulus"":""img/2to3/2.png"",""time"":209},{""stimulus"":""img/2to3/3.png"",""time"":310},{""stimulus"":""img/2to3/4.png"",""time"":409},{""stimulus"":""img/2to3/5.png"",""time"":502},{""stimulus"":""img/2to3/6.png"",""time"":609},{""stimulus"":""img/2to3/7.png"",""time"":694},{""stimulus"":""img/2to3/8.png"",""time"":808},{""stimulus"":""img/2to3/9.png"",""time"":905},{""stimulus"":""img/2to3/10.png"",""time"":1000},{""stimulus"":""img/2to3/11.png"",""time"":1092},{""stimulus"":""img/2to3/12.png"",""time"":1193}]","[]"
"image-keyboard-response","132","157418","0.0-5.0-1.64","5d5a48a67ca41f0001e97f8b","bdp_cybrbll","Sat Mar 25 2023 19:45:10 GMT-0400 (Eastern Daylight Time)","450177","1","3","","null","","","","observe","","img/3to2/1.png","null","161","498","0.5","0.5","3","2","",""
"animation","133","158712","0.0-5.0-2.64","5d5a48a67ca41f0001e97f8b","bdp_cybrbll","Sat Mar 25 2023 19:45:10 GMT-0400 (Eastern Daylight Time)","450177","1","3","","","","","","","","","","161","","","","3","2","[{""stimulus"":""img/3to2/1.png"",""time"":110},{""stimulus"":""img/3to2/2.png"",""time"":204},{""stimulus"":""img/3to2/3.png"",""time"":303},{""stimulus"":""img/3to2/4.png"",""time"":402},{""stimulus"":""img/3to2/5.png"",""time"":502},{""stimulus"":""img/3to2/6.png"",""time"":603},{""stimulus"":""img/3to2/7.png"",""time"":703},{""stimulus"":""img/3to2/8.png"",""time"":801},{""stimulus"":""img/3to2/9.png"",""time"":899},{""stimulus"":""img/3to2/10.png"",""time"":1001},{""stimulus"":""img/3to2/11.png"",""time"":1090},{""stimulus"":""img/3to2/12.png"",""time"":1202}]","[]"
"image-keyboard-response","134","158890","0.0-5.0-1.65","5d5a48a67ca41f0001e97f8b","bdp_cybrbll","Sat Mar 25 2023 19:45:10 GMT-0400 (Eastern Daylight Time)","450177","1","3","","178","","","","choice","","img/2to1/1.png","1","160","490","0.5","0.5","2","1","",""
"animation","135","160187","0.0-5.0-2.65","5d5a48a67ca41f0001e97f8b","bdp_cybrbll","Sat Mar 25 2023 19:45:10 GMT-0400 (Eastern Daylight Time)","450177","1","3","","","","","","","","","","160","","","","2","1","[{""stimulus"":""img/2to1/1.png"",""time"":101},{""stimulus"":""img/2to1/2.png"",""time"":213},{""stimulus"":""img/2to1/3.png"",""time"":306},{""stimulus"":""img/2to1/4.png"",""time"":397},{""stimulus"":""img/2to1/5.png"",""time"":497},{""stimulus"":""img/2to1/6.png"",""time"":598},{""stimulus"":""img/2to1/7.png"",""time"":698},{""stimulus"":""img/2to1/8.png"",""time"":799},{""stimulus"":""img/2to1/9.png"",""time"":897},{""stimulus"":""img/2to1/10.png"",""time"":998},{""stimulus"":""img/2to1/11.png"",""time"":1092},{""stimulus"":""img/2to1/12.png"",""time"":1196}]","[]"
"image-keyboard-response","136","160482","0.0-5.0-1.66","5d5a48a67ca41f0001e97f8b","bdp_cybrbll","Sat Mar 25 2023 19:45:10 GMT-0400 (Eastern Daylight Time)","450177","1","3","","null","","","","observe","","img/1to3/1.png","null","159","282","0.5","0.5","1","2","",""
"animation","137","161771","0.0-5.0-2.66","5d5a48a67ca41f0001e97f8b","bdp_cybrbll","Sat Mar 25 2023 19:45:10 GMT-0400 (Eastern Daylight Time)","450177","1","3","","","","","","","","","","159","","","","1","2","[{""stimulus"":""img/1to2/1.png"",""time"":110},{""stimulus"":""img/1to2/2.png"",""time"":206},{""stimulus"":""img/1to2/3.png"",""time"":298},{""stimulus"":""img/1to2/4.png"",""time"":406},{""stimulus"":""img/1to2/5.png"",""time"":502},{""stimulus"":""img/1to2/6.png"",""time"":605},{""stimulus"":""img/1to2/7.png"",""time"":707},{""stimulus"":""img/1to2/8.png"",""time"":803},{""stimulus"":""img/1to2/9.png"",""time"":904},{""stimulus"":""img/1to2/10.png"",""time"":1004},{""stimulus"":""img/1to2/11.png"",""time"":1090},{""stimulus"":""img/1to2/12.png"",""time"":1189}]","[]"
"image-keyboard-response","138","161887","0.0-5.0-1.67","5d5a48a67ca41f0001e97f8b","bdp_cybrbll","Sat Mar 25 2023 19:45:10 GMT-0400 (Eastern Daylight Time)","450177","1","3","","115","","","","choice","","img/2to1/1.png","2","158","536","0.5","0.5","2","3","",""
"animation","139","163178","0.0-5.0-2.67","5d5a48a67ca41f0001e97f8b","bdp_cybrbll","Sat Mar 25 2023 19:45:10 GMT-0400 (Eastern Daylight Time)","450177","1","3","","","","","","","","","","158","","","","2","3","[{""stimulus"":""img/2to3/1.png"",""time"":103},{""stimulus"":""img/2to3/2.png"",""time"":200},{""stimulus"":""img/2to3/3.png"",""time"":300},{""stimulus"":""img/2to3/4.png"",""time"":400},{""stimulus"":""img/2to3/5.png"",""time"":500},{""stimulus"":""img/2to3/6.png"",""time"":598},{""stimulus"":""img/2to3/7.png"",""time"":700},{""stimulus"":""img/2to3/8.png"",""time"":792},{""stimulus"":""img/2to3/9.png"",""time"":906},{""stimulus"":""img/2to3/10.png"",""time"":991},{""stimulus"":""img/2to3/11.png"",""time"":1089},{""stimulus"":""img/2to3/12.png"",""time"":1191}]","[]"
"image-keyboard-response","140","164447","0.0-5.0-1.68","5d5a48a67ca41f0001e97f8b","bdp_cybrbll","Sat Mar 25 2023 19:45:10 GMT-0400 (Eastern Daylight Time)","450177","1","3","","null","","","","observe","","img/3to2/1.png","null","157","1265","0.5","0.5","3","2","",""
"animation","141","165745","0.0-5.0-2.68","5d5a48a67ca41f0001e97f8b","bdp_cybrbll","Sat Mar 25 2023 19:45:10 GMT-0400 (Eastern Daylight Time)","450177","1","3","","","","","","","","","","157","","","","3","2","[{""stimulus"":""img/3to2/1.png"",""time"":108},{""stimulus"":""img/3to2/2.png"",""time"":214},{""stimulus"":""img/3to2/3.png"",""time"":298},{""stimulus"":""img/3to2/4.png"",""time"":398},{""stimulus"":""img/3to2/5.png"",""time"":499},{""stimulus"":""img/3to2/6.png"",""time"":605},{""stimulus"":""img/3to2/7.png"",""time"":707},{""stimulus"":""img/3to2/8.png"",""time"":807},{""stimulus"":""img/3to2/9.png"",""time"":908},{""stimulus"":""img/3to2/10.png"",""time"":992},{""stimulus"":""img/3to2/11.png"",""time"":1103},{""stimulus"":""img/3to2/12.png"",""time"":1199}]","[]"
"image-keyboard-response","142","165800","0.0-5.0-1.69","5d5a48a67ca41f0001e97f8b","bdp_cybrbll","Sat Mar 25 2023 19:45:10 GMT-0400 (Eastern Daylight Time)","450177","1","3","","54","","","","choice","","img/2to1/1.png","1","156","289","0.5","0.5","2","1","",""
"animation","143","167098","0.0-5.0-2.69","5d5a48a67ca41f0001e97f8b","bdp_cybrbll","Sat Mar 25 2023 19:45:10 GMT-0400 (Eastern Daylight Time)","450177","1","3","","","","","","","","","","156","","","","2","1","[{""stimulus"":""img/2to1/1.png"",""time"":111},{""stimulus"":""img/2to1/2.png"",""time"":212},{""stimulus"":""img/2to1/3.png"",""time"":304},{""stimulus"":""img/2to1/4.png"",""time"":398},{""stimulus"":""img/2to1/5.png"",""time"":498},{""stimulus"":""img/2to1/6.png"",""time"":596},{""stimulus"":""img/2to1/7.png"",""time"":696},{""stimulus"":""img/2to1/8.png"",""time"":796},{""stimulus"":""img/2to1/9.png"",""time"":901},{""stimulus"":""img/2to1/10.png"",""time"":1005},{""stimulus"":""img/2to1/11.png"",""time"":1104},{""stimulus"":""img/2to1/12.png"",""time"":1204}]","[]"
"image-keyboard-response","144","167508","0.0-5.0-1.70","5d5a48a67ca41f0001e97f8b","bdp_cybrbll","Sat Mar 25 2023 19:45:10 GMT-0400 (Eastern Daylight Time)","450177","1","3","","null","","","","observe","","img/1to3/1.png","null","155","403","0.5","0.5","1","2","",""
"animation","145","168809","0.0-5.0-2.70","5d5a48a67ca41f0001e97f8b","bdp_cybrbll","Sat Mar 25 2023 19:45:10 GMT-0400 (Eastern Daylight Time)","450177","1","3","","","","","","","","","","155","","","","1","2","[{""stimulus"":""img/1to2/1.png"",""time"":109},{""stimulus"":""img/1to2/2.png"",""time"":213},{""stimulus"":""img/1to2/3.png"",""time"":312},{""stimulus"":""img/1to2/4.png"",""time"":412},{""stimulus"":""img/1to2/5.png"",""time"":497},{""stimulus"":""img/1to2/6.png"",""time"":597},{""stimulus"":""img/1to2/7.png"",""time"":700},{""stimulus"":""img/1to2/8.png"",""time"":803},{""stimulus"":""img/1to2/9.png"",""time"":904},{""stimulus"":""img/1to2/10.png"",""time"":996},{""stimulus"":""img/1to2/11.png"",""time"":1095},{""stimulus"":""img/1to2/12.png"",""time"":1196}]","[]"
"image-keyboard-response","146","169007","0.0-5.0-1.71","5d5a48a67ca41f0001e97f8b","bdp_cybrbll","Sat Mar 25 2023 19:45:10 GMT-0400 (Eastern Daylight Time)","450177","1","3","","197","","","","choice","","img/2to1/1.png","2","154","1685","0.5","0.5","2","3","",""
"animation","147","170296","0.0-5.0-2.71","5d5a48a67ca41f0001e97f8b","bdp_cybrbll","Sat Mar 25 2023 19:45:10 GMT-0400 (Eastern Daylight Time)","450177","1","3","","","","","","","","","","154","","","","2","3","[{""stimulus"":""img/2to3/1.png"",""time"":112},{""stimulus"":""img/2to3/2.png"",""time"":213},{""stimulus"":""img/2to3/3.png"",""time"":307},{""stimulus"":""img/2to3/4.png"",""time"":403},{""stimulus"":""img/2to3/5.png"",""time"":497},{""stimulus"":""img/2to3/6.png"",""time"":596},{""stimulus"":""img/2to3/7.png"",""time"":696},{""stimulus"":""img/2to3/8.png"",""time"":796},{""stimulus"":""img/2to3/9.png"",""time"":897},{""stimulus"":""img/2to3/10.png"",""time"":1000},{""stimulus"":""img/2to3/11.png"",""time"":1105},{""stimulus"":""img/2to3/12.png"",""time"":1197}]","[]"
"image-keyboard-response","148","170608","0.0-5.0-1.72","5d5a48a67ca41f0001e97f8b","bdp_cybrbll","Sat Mar 25 2023 19:45:10 GMT-0400 (Eastern Daylight Time)","450177","1","3","","null","","","","observe","","img/3to2/1.png","null","153","302","0.5","0.5","3","2","",""
"animation","149","171896","0.0-5.0-2.72","5d5a48a67ca41f0001e97f8b","bdp_cybrbll","Sat Mar 25 2023 19:45:10 GMT-0400 (Eastern Daylight Time)","450177","1","3","","","","","","","","","","153","","","","3","2","[{""stimulus"":""img/3to2/1.png"",""time"":110},{""stimulus"":""img/3to2/2.png"",""time"":205},{""stimulus"":""img/3to2/3.png"",""time"":305},{""stimulus"":""img/3to2/4.png"",""time"":404},{""stimulus"":""img/3to2/5.png"",""time"":505},{""stimulus"":""img/3to2/6.png"",""time"":605},{""stimulus"":""img/3to2/7.png"",""time"":700},{""stimulus"":""img/3to2/8.png"",""time"":810},{""stimulus"":""img/3to2/9.png"",""time"":904},{""stimulus"":""img/3to2/10.png"",""time"":1005},{""stimulus"":""img/3to2/11.png"",""time"":1105},{""stimulus"":""img/3to2/12.png"",""time"":1204}]","[]"
"image-keyboard-response","150","171934","0.0-5.0-1.73","5d5a48a67ca41f0001e97f8b","bdp_cybrbll","Sat Mar 25 2023 19:45:10 GMT-0400 (Eastern Daylight Time)","450177","1","3","","37","","","","choice","","img/2to1/1.png","1","152","272","0.5","0.5","2","1","",""
"animation","151","173228","0.0-5.0-2.73","5d5a48a67ca41f0001e97f8b","bdp_cybrbll","Sat Mar 25 2023 19:45:10 GMT-0400 (Eastern Daylight Time)","450177","1","3","","","","","","","","","","152","","","","2","1","[{""stimulus"":""img/2to1/1.png"",""time"":112},{""stimulus"":""img/2to1/2.png"",""time"":199},{""stimulus"":""img/2to1/3.png"",""time"":304},{""stimulus"":""img/2to1/4.png"",""time"":404},{""stimulus"":""img/2to1/5.png"",""time"":506},{""stimulus"":""img/2to1/6.png"",""time"":598},{""stimulus"":""img/2to1/7.png"",""time"":704},{""stimulus"":""img/2to1/8.png"",""time"":808},{""stimulus"":""img/2to1/9.png"",""time"":896},{""stimulus"":""img/2to1/10.png"",""time"":994},{""stimulus"":""img/2to1/11.png"",""time"":1095},{""stimulus"":""img/2to1/12.png"",""time"":1195}]","[]"
"image-keyboard-response","152","173627","0.0-5.0-1.74","5d5a48a67ca41f0001e97f8b","bdp_cybrbll","Sat Mar 25 2023 19:45:10 GMT-0400 (Eastern Daylight Time)","450177","1","3","","null","","","","observe","","img/1to3/1.png","null","151","392","0.5","0.5","1","3","",""
"animation","153","174921","0.0-5.0-2.74","5d5a48a67ca41f0001e97f8b","bdp_cybrbll","Sat Mar 25 2023 19:45:10 GMT-0400 (Eastern Daylight Time)","450177","1","3","","","","","","","","","","151","","","","1","3","[{""stimulus"":""img/1to3/1.png"",""time"":110},{""stimulus"":""img/1to3/2.png"",""time"":202},{""stimulus"":""img/1to3/3.png"",""time"":305},{""stimulus"":""img/1to3/4.png"",""time"":402},{""stimulus"":""img/1to3/5.png"",""time"":501},{""stimulus"":""img/1to3/6.png"",""time"":602},{""stimulus"":""img/1to3/7.png"",""time"":695},{""stimulus"":""img/1to3/8.png"",""time"":794},{""stimulus"":""img/1to3/9.png"",""time"":895},{""stimulus"":""img/1to3/10.png"",""time"":994},{""stimulus"":""img/1to3/11.png"",""time"":1094},{""stimulus"":""img/1to3/12.png"",""time"":1194}]","[]"
"image-keyboard-response","154","175196","0.0-5.0-1.75","5d5a48a67ca41f0001e97f8b","bdp_cybrbll","Sat Mar 25 2023 19:45:10 GMT-0400 (Eastern Daylight Time)","450177","1","3","","null","","","","observe","","img/3to2/1.png","null","150","266","0.5","0.5","3","1","",""
"animation","155","176487","0.0-5.0-2.75","5d5a48a67ca41f0001e97f8b","bdp_cybrbll","Sat Mar 25 2023 19:45:10 GMT-0400 (Eastern Daylight Time)","450177","1","3","","","","","","","","","","150","","","","3","1","[{""stimulus"":""img/3to1/1.png"",""time"":110},{""stimulus"":""img/3to1/2.png"",""time"":199},{""stimulus"":""img/3to1/3.png"",""time"":310},{""stimulus"":""img/3to1/4.png"",""time"":402},{""stimulus"":""img/3to1/5.png"",""time"":501},{""stimulus"":""img/3to1/6.png"",""time"":599},{""stimulus"":""img/3to1/7.png"",""time"":700},{""stimulus"":""img/3to1/8.png"",""time"":794},{""stimulus"":""img/3to1/9.png"",""time"":891},{""stimulus"":""img/3to1/10.png"",""time"":992},{""stimulus"":""img/3to1/11.png"",""time"":1092},{""stimulus"":""img/3to1/12.png"",""time"":1192}]","[]"
"image-keyboard-response","156","176901","0.0-5.0-1.76","5d5a48a67ca41f0001e97f8b","bdp_cybrbll","Sat Mar 25 2023 19:45:10 GMT-0400 (Eastern Daylight Time)","450177","1","3","","null","","","","observe","","img/1to3/1.png","null","149","401","0.5","0.1","1","2","",""
"animation","157","178193","0.0-5.0-2.76","5d5a48a67ca41f0001e97f8b","bdp_cybrbll","Sat Mar 25 2023 19:45:10 GMT-0400 (Eastern Daylight Time)","450177","1","3","","","","","","","","","","149","","","","1","2","[{""stimulus"":""img/1to2/1.png"",""time"":110},{""stimulus"":""img/1to2/2.png"",""time"":203},{""stimulus"":""img/1to2/3.png"",""time"":304},{""stimulus"":""img/1to2/4.png"",""time"":403},{""stimulus"":""img/1to2/5.png"",""time"":498},{""stimulus"":""img/1to2/6.png"",""time"":610},{""stimulus"":""img/1to2/7.png"",""time"":696},{""stimulus"":""img/1to2/8.png"",""time"":803},{""stimulus"":""img/1to2/9.png"",""time"":904},{""stimulus"":""img/1to2/10.png"",""time"":1003},{""stimulus"":""img/1to2/11.png"",""time"":1103},{""stimulus"":""img/1to2/12.png"",""time"":1196}]","[]"
"image-keyboard-response","158","178296","0.0-5.0-1.77","5d5a48a67ca41f0001e97f8b","bdp_cybrbll","Sat Mar 25 2023 19:45:10 GMT-0400 (Eastern Daylight Time)","450177","1","3","","102","","","","choice","","img/2to1/1.png","2","148","682","0.5","0.1","2","3","",""
"animation","159","179599","0.0-5.0-2.77","5d5a48a67ca41f0001e97f8b","bdp_cybrbll","Sat Mar 25 2023 19:45:10 GMT-0400 (Eastern Daylight Time)","450177","1","3","","","","","","","","","","148","","","","2","3","[{""stimulus"":""img/2to3/1.png"",""time"":113},{""stimulus"":""img/2to3/2.png"",""time"":200},{""stimulus"":""img/2to3/3.png"",""time"":299},{""stimulus"":""img/2to3/4.png"",""time"":400},{""stimulus"":""img/2to3/5.png"",""time"":499},{""stimulus"":""img/2to3/6.png"",""time"":601},{""stimulus"":""img/2to3/7.png"",""time"":707},{""stimulus"":""img/2to3/8.png"",""time"":794},{""stimulus"":""img/2to3/9.png"",""time"":901},{""stimulus"":""img/2to3/10.png"",""time"":1038},{""stimulus"":""img/2to3/11.png"",""time"":1092},{""stimulus"":""img/2to3/12.png"",""time"":1189}]","[]"
"image-keyboard-response","160","180335","0.0-5.0-1.78","5d5a48a67ca41f0001e97f8b","bdp_cybrbll","Sat Mar 25 2023 19:45:10 GMT-0400 (Eastern Daylight Time)","450177","1","3","","null","","","","observe","","img/3to2/1.png","null","147","730","0.5","0.1","3","1","",""
"animation","161","181638","0.0-5.0-2.78","5d5a48a67ca41f0001e97f8b","bdp_cybrbll","Sat Mar 25 2023 19:45:10 GMT-0400 (Eastern Daylight Time)","450177","1","3","","","","","","","","","","147","","","","3","1","[{""stimulus"":""img/3to1/1.png"",""time"":113},{""stimulus"":""img/3to1/2.png"",""time"":211},{""stimulus"":""img/3to1/3.png"",""time"":310},{""stimulus"":""img/3to1/4.png"",""time"":410},{""stimulus"":""img/3to1/5.png"",""time"":510},{""stimulus"":""img/3to1/6.png"",""time"":603},{""stimulus"":""img/3to1/7.png"",""time"":702},{""stimulus"":""img/3to1/8.png"",""time"":802},{""stimulus"":""img/3to1/9.png"",""time"":903},{""stimulus"":""img/3to1/10.png"",""time"":1002},{""stimulus"":""img/3to1/11.png"",""time"":1090},{""stimulus"":""img/3to1/12.png"",""time"":1201}]","[]"
"image-keyboard-response","162","182004","0.0-5.0-1.79","5d5a48a67ca41f0001e97f8b","bdp_cybrbll","Sat Mar 25 2023 19:45:10 GMT-0400 (Eastern Daylight Time)","450177","1","3","","null","","","","observe","","img/1to3/1.png","null","146","363","0.5","0.1","1","2","",""
"animation","163","183294","0.0-5.0-2.79","5d5a48a67ca41f0001e97f8b","bdp_cybrbll","Sat Mar 25 2023 19:45:10 GMT-0400 (Eastern Daylight Time)","450177","1","3","","","","","","","","","","146","","","","1","2","[{""stimulus"":""img/1to2/1.png"",""time"":111},{""stimulus"":""img/1to2/2.png"",""time"":203},{""stimulus"":""img/1to2/3.png"",""time"":301},{""stimulus"":""img/1to2/4.png"",""time"":400},{""stimulus"":""img/1to2/5.png"",""time"":497},{""stimulus"":""img/1to2/6.png"",""time"":601},{""stimulus"":""img/1to2/7.png"",""time"":700},{""stimulus"":""img/1to2/8.png"",""time"":801},{""stimulus"":""img/1to2/9.png"",""time"":901},{""stimulus"":""img/1to2/10.png"",""time"":993},{""stimulus"":""img/1to2/11.png"",""time"":1093},{""stimulus"":""img/1to2/12.png"",""time"":1191}]","[]"
"image-keyboard-response","164","183421","0.0-5.0-1.80","5d5a48a67ca41f0001e97f8b","bdp_cybrbll","Sat Mar 25 2023 19:45:10 GMT-0400 (Eastern Daylight Time)","450177","1","3","","126","","","","choice","","img/2to1/1.png","2","145","248","0.5","0.1","2","3","",""
"animation","165","184712","0.0-5.0-2.80","5d5a48a67ca41f0001e97f8b","bdp_cybrbll","Sat Mar 25 2023 19:45:10 GMT-0400 (Eastern Daylight Time)","450177","1","3","","","","","","","","","","145","","","","2","3","[{""stimulus"":""img/2to3/1.png"",""time"":103},{""stimulus"":""img/2to3/2.png"",""time"":203},{""stimulus"":""img/2to3/3.png"",""time"":307},{""stimulus"":""img/2to3/4.png"",""time"":409},{""stimulus"":""img/2to3/5.png"",""time"":500},{""stimulus"":""img/2to3/6.png"",""time"":599},{""stimulus"":""img/2to3/7.png"",""time"":708},{""stimulus"":""img/2to3/8.png"",""time"":808},{""stimulus"":""img/2to3/9.png"",""time"":900},{""stimulus"":""img/2to3/10.png"",""time"":1000},{""stimulus"":""img/2to3/11.png"",""time"":1094},{""stimulus"":""img/2to3/12.png"",""time"":1191}]","[]"
"image-keyboard-response","166","185352","0.0-5.0-1.81","5d5a48a67ca41f0001e97f8b","bdp_cybrbll","Sat Mar 25 2023 19:45:10 GMT-0400 (Eastern Daylight Time)","450177","1","3","","null","","","","observe","","img/3to2/1.png","null","144","636","0.5","0.1","3","1","",""
"animation","167","186646","0.0-5.0-2.81","5d5a48a67ca41f0001e97f8b","bdp_cybrbll","Sat Mar 25 2023 19:45:10 GMT-0400 (Eastern Daylight Time)","450177","1","3","","","","","","","","","","144","","","","3","1","[{""stimulus"":""img/3to1/1.png"",""time"":109},{""stimulus"":""img/3to1/2.png"",""time"":209},{""stimulus"":""img/3to1/3.png"",""time"":310},{""stimulus"":""img/3to1/4.png"",""time"":409},{""stimulus"":""img/3to1/5.png"",""time"":495},{""stimulus"":""img/3to1/6.png"",""time"":598},{""stimulus"":""img/3to1/7.png"",""time"":703},{""stimulus"":""img/3to1/8.png"",""time"":799},{""stimulus"":""img/3to1/9.png"",""time"":902},{""stimulus"":""img/3to1/10.png"",""time"":1001},{""stimulus"":""img/3to1/11.png"",""time"":1101},{""stimulus"":""img/3to1/12.png"",""time"":1195}]","[]"
"image-keyboard-response","168","187388","0.0-5.0-1.82","5d5a48a67ca41f0001e97f8b","bdp_cybrbll","Sat Mar 25 2023 19:45:10 GMT-0400 (Eastern Daylight Time)","450177","1","3","","null","","","","observe","","img/1to3/1.png","null","143","731","0.5","0.1","1","2","",""
"animation","169","188687","0.0-5.0-2.82","5d5a48a67ca41f0001e97f8b","bdp_cybrbll","Sat Mar 25 2023 19:45:10 GMT-0400 (Eastern Daylight Time)","450177","1","3","","","","","","","","","","143","","","","1","2","[{""stimulus"":""img/1to2/1.png"",""time"":100},{""stimulus"":""img/1to2/2.png"",""time"":201},{""stimulus"":""img/1to2/3.png"",""time"":300},{""stimulus"":""img/1to2/4.png"",""time"":400},{""stimulus"":""img/1to2/5.png"",""time"":500},{""stimulus"":""img/1to2/6.png"",""time"":600},{""stimulus"":""img/1to2/7.png"",""time"":709},{""stimulus"":""img/1to2/8.png"",""time"":793},{""stimulus"":""img/1to2/9.png"",""time"":899},{""stimulus"":""img/1to2/10.png"",""time"":1000},{""stimulus"":""img/1to2/11.png"",""time"":1100},{""stimulus"":""img/1to2/12.png"",""time"":1201}]","[]"
"image-keyboard-response","170","188713","0.0-5.0-1.83","5d5a48a67ca41f0001e97f8b","bdp_cybrbll","Sat Mar 25 2023 19:45:10 GMT-0400 (Eastern Daylight Time)","450177","1","3","","25","","","","choice","","img/2to1/1.png","2","142","191","0.5","0.1","2","3","",""
"animation","171","190014","0.0-5.0-2.83","5d5a48a67ca41f0001e97f8b","bdp_cybrbll","Sat Mar 25 2023 19:45:10 GMT-0400 (Eastern Daylight Time)","450177","1","3","","","","","","","","","","142","","","","2","3","[{""stimulus"":""img/2to3/1.png"",""time"":110},{""stimulus"":""img/2to3/2.png"",""time"":201},{""stimulus"":""img/2to3/3.png"",""time"":308},{""stimulus"":""img/2to3/4.png"",""time"":408},{""stimulus"":""img/2to3/5.png"",""time"":509},{""stimulus"":""img/2to3/6.png"",""time"":597},{""stimulus"":""img/2to3/7.png"",""time"":701},{""stimulus"":""img/2to3/8.png"",""time"":799},{""stimulus"":""img/2to3/9.png"",""time"":900},{""stimulus"":""img/2to3/10.png"",""time"":999},{""stimulus"":""img/2to3/11.png"",""time"":1091},{""stimulus"":""img/2to3/12.png"",""time"":1191}]","[]"
"image-keyboard-response","172","190637","0.0-5.0-1.84","5d5a48a67ca41f0001e97f8b","bdp_cybrbll","Sat Mar 25 2023 19:45:10 GMT-0400 (Eastern Daylight Time)","450177","1","3","","null","","","","observe","","img/3to2/1.png","null","141","616","0.5","0.1","3","1","",""
"animation","173","191928","0.0-5.0-2.84","5d5a48a67ca41f0001e97f8b","bdp_cybrbll","Sat Mar 25 2023 19:45:10 GMT-0400 (Eastern Daylight Time)","450177","1","3","","","","","","","","","","141","","","","3","1","[{""stimulus"":""img/3to1/1.png"",""time"":109},{""stimulus"":""img/3to1/2.png"",""time"":202},{""stimulus"":""img/3to1/3.png"",""time"":299},{""stimulus"":""img/3to1/4.png"",""time"":400},{""stimulus"":""img/3to1/5.png"",""time"":500},{""stimulus"":""img/3to1/6.png"",""time"":596},{""stimulus"":""img/3to1/7.png"",""time"":708},{""stimulus"":""img/3to1/8.png"",""time"":809},{""stimulus"":""img/3to1/9.png"",""time"":891},{""stimulus"":""img/3to1/10.png"",""time"":991},{""stimulus"":""img/3to1/11.png"",""time"":1091},{""stimulus"":""img/3to1/12.png"",""time"":1191}]","[]"
"image-keyboard-response","174","192811","0.0-5.0-1.85","5d5a48a67ca41f0001e97f8b","bdp_cybrbll","Sat Mar 25 2023 19:45:10 GMT-0400 (Eastern Daylight Time)","450177","1","3","","null","","","","observe","","img/1to3/1.png","null","140","871","0.5","0.1","1","2","",""
"animation","175","194108","0.0-5.0-2.85","5d5a48a67ca41f0001e97f8b","bdp_cybrbll","Sat Mar 25 2023 19:45:10 GMT-0400 (Eastern Daylight Time)","450177","1","3","","","","","","","","","","140","","","","1","2","[{""stimulus"":""img/1to2/1.png"",""time"":110},{""stimulus"":""img/1to2/2.png"",""time"":205},{""stimulus"":""img/1to2/3.png"",""time"":301},{""stimulus"":""img/1to2/4.png"",""time"":409},{""stimulus"":""img/1to2/5.png"",""time"":511},{""stimulus"":""img/1to2/6.png"",""time"":596},{""stimulus"":""img/1to2/7.png"",""time"":703},{""stimulus"":""img/1to2/8.png"",""time"":802},{""stimulus"":""img/1to2/9.png"",""time"":893},{""stimulus"":""img/1to2/10.png"",""time"":994},{""stimulus"":""img/1to2/11.png"",""time"":1093},{""stimulus"":""img/1to2/12.png"",""time"":1194}]","[]"
"image-keyboard-response","176","194283","0.0-5.0-1.86","5d5a48a67ca41f0001e97f8b","bdp_cybrbll","Sat Mar 25 2023 19:45:10 GMT-0400 (Eastern Daylight Time)","450177","1","3","","174","","","","choice","","img/2to1/1.png","2","139","501","0.5","0.1","2","3","",""
"animation","177","195572","0.0-5.0-2.86","5d5a48a67ca41f0001e97f8b","bdp_cybrbll","Sat Mar 25 2023 19:45:10 GMT-0400 (Eastern Daylight Time)","450177","1","3","","","","","","","","","","139","","","","2","3","[{""stimulus"":""img/2to3/1.png"",""time"":104},{""stimulus"":""img/2to3/2.png"",""time"":205},{""stimulus"":""img/2to3/3.png"",""time"":305},{""stimulus"":""img/2to3/4.png"",""time"":405},{""stimulus"":""img/2to3/5.png"",""time"":497},{""stimulus"":""img/2to3/6.png"",""time"":604},{""stimulus"":""img/2to3/7.png"",""time"":706},{""stimulus"":""img/2to3/8.png"",""time"":805},{""stimulus"":""img/2to3/9.png"",""time"":905},{""stimulus"":""img/2to3/10.png"",""time"":1001},{""stimulus"":""img/2to3/11.png"",""time"":1097},{""stimulus"":""img/2to3/12.png"",""time"":1190}]","[]"
"image-keyboard-response","178","196075","0.0-5.0-1.87","5d5a48a67ca41f0001e97f8b","bdp_cybrbll","Sat Mar 25 2023 19:45:10 GMT-0400 (Eastern Daylight Time)","450177","1","3","","null","","","","observe","","img/3to2/1.png","null","138","500","0.5","0.1","3","1","",""
"animation","179","197364","0.0-5.0-2.87","5d5a48a67ca41f0001e97f8b","bdp_cybrbll","Sat Mar 25 2023 19:45:10 GMT-0400 (Eastern Daylight Time)","450177","1","3","","","","","","","","","","138","","","","3","1","[{""stimulus"":""img/3to1/1.png"",""time"":110},{""stimulus"":""img/3to1/2.png"",""time"":204},{""stimulus"":""img/3to1/3.png"",""time"":311},{""stimulus"":""img/3to1/4.png"",""time"":408},{""stimulus"":""img/3to1/5.png"",""time"":504},{""stimulus"":""img/3to1/6.png"",""time"":596},{""stimulus"":""img/3to1/7.png"",""time"":696},{""stimulus"":""img/3to1/8.png"",""time"":796},{""stimulus"":""img/3to1/9.png"",""time"":898},{""stimulus"":""img/3to1/10.png"",""time"":996},{""stimulus"":""img/3to1/11.png"",""time"":1097},{""stimulus"":""img/3to1/12.png"",""time"":1196}]","[]"
"image-keyboard-response","180","197979","0.0-5.0-1.88","5d5a48a67ca41f0001e97f8b","bdp_cybrbll","Sat Mar 25 2023 19:45:10 GMT-0400 (Eastern Daylight Time)","450177","1","3","","null","","","","observe","","img/1to3/1.png","null","137","604","0.5","0.1","1","3","",""
"animation","181","199278","0.0-5.0-2.88","5d5a48a67ca41f0001e97f8b","bdp_cybrbll","Sat Mar 25 2023 19:45:10 GMT-0400 (Eastern Daylight Time)","450177","1","3","","","","","","","","","","137","","","","1","3","[{""stimulus"":""img/1to3/1.png"",""time"":111},{""stimulus"":""img/1to3/2.png"",""time"":201},{""stimulus"":""img/1to3/3.png"",""time"":299},{""stimulus"":""img/1to3/4.png"",""time"":410},{""stimulus"":""img/1to3/5.png"",""time"":510},{""stimulus"":""img/1to3/6.png"",""time"":609},{""stimulus"":""img/1to3/7.png"",""time"":700},{""stimulus"":""img/1to3/8.png"",""time"":808},{""stimulus"":""img/1to3/9.png"",""time"":894},{""stimulus"":""img/1to3/10.png"",""time"":1001},{""stimulus"":""img/1to3/11.png"",""time"":1099},{""stimulus"":""img/1to3/12.png"",""time"":1200}]","[]"
"image-keyboard-response","182","199810","0.0-5.0-1.89","5d5a48a67ca41f0001e97f8b","bdp_cybrbll","Sat Mar 25 2023 19:45:10 GMT-0400 (Eastern Daylight Time)","450177","1","3","","null","","","","observe","","img/3to2/1.png","null","136","523","0.5","0.1","3","1","",""
"animation","183","201113","0.0-5.0-2.89","5d5a48a67ca41f0001e97f8b","bdp_cybrbll","Sat Mar 25 2023 19:45:10 GMT-0400 (Eastern Daylight Time)","450177","1","3","","","","","","","","","","136","","","","3","1","[{""stimulus"":""img/3to1/1.png"",""time"":110},{""stimulus"":""img/3to1/2.png"",""time"":211},{""stimulus"":""img/3to1/3.png"",""time"":311},{""stimulus"":""img/3to1/4.png"",""time"":411},{""stimulus"":""img/3to1/5.png"",""time"":498},{""stimulus"":""img/3to1/6.png"",""time"":603},{""stimulus"":""img/3to1/7.png"",""time"":702},{""stimulus"":""img/3to1/8.png"",""time"":802},{""stimulus"":""img/3to1/9.png"",""time"":902},{""stimulus"":""img/3to1/10.png"",""time"":1003},{""stimulus"":""img/3to1/11.png"",""time"":1102},{""stimulus"":""img/3to1/12.png"",""time"":1195}]","[]"
"image-keyboard-response","184","201651","0.0-5.0-1.90","5d5a48a67ca41f0001e97f8b","bdp_cybrbll","Sat Mar 25 2023 19:45:10 GMT-0400 (Eastern Daylight Time)","450177","1","3","","null","","","","observe","","img/1to3/1.png","null","135","530","0.5","0.1","1","3","",""
"animation","185","202941","0.0-5.0-2.90","5d5a48a67ca41f0001e97f8b","bdp_cybrbll","Sat Mar 25 2023 19:45:10 GMT-0400 (Eastern Daylight Time)","450177","1","3","","","","","","","","","","135","","","","1","3","[{""stimulus"":""img/1to3/1.png"",""time"":110},{""stimulus"":""img/1to3/2.png"",""time"":199},{""stimulus"":""img/1to3/3.png"",""time"":306},{""stimulus"":""img/1to3/4.png"",""time"":403},{""stimulus"":""img/1to3/5.png"",""time"":504},{""stimulus"":""img/1to3/6.png"",""time"":603},{""stimulus"":""img/1to3/7.png"",""time"":703},{""stimulus"":""img/1to3/8.png"",""time"":803},{""stimulus"":""img/1to3/9.png"",""time"":896},{""stimulus"":""img/1to3/10.png"",""time"":996},{""stimulus"":""img/1to3/11.png"",""time"":1094},{""stimulus"":""img/1to3/12.png"",""time"":1195}]","[]"
"image-keyboard-response","186","203169","0.0-5.0-1.91","5d5a48a67ca41f0001e97f8b","bdp_cybrbll","Sat Mar 25 2023 19:45:10 GMT-0400 (Eastern Daylight Time)","450177","1","3","","null","","","","observe","","img/3to2/1.png","null","134","219","0.5","0.1","3","1","",""
"animation","187","204470","0.0-5.0-2.91","5d5a48a67ca41f0001e97f8b","bdp_cybrbll","Sat Mar 25 2023 19:45:10 GMT-0400 (Eastern Daylight Time)","450177","1","3","","","","","","","","","","134","","","","3","1","[{""stimulus"":""img/3to1/1.png"",""time"":109},{""stimulus"":""img/3to1/2.png"",""time"":208},{""stimulus"":""img/3to1/3.png"",""time"":306},{""stimulus"":""img/3to1/4.png"",""time"":401},{""stimulus"":""img/3to1/5.png"",""time"":500},{""stimulus"":""img/3to1/6.png"",""time"":600},{""stimulus"":""img/3to1/7.png"",""time"":700},{""stimulus"":""img/3to1/8.png"",""time"":800},{""stimulus"":""img/3to1/9.png"",""time"":900},{""stimulus"":""img/3to1/10.png"",""time"":1000},{""stimulus"":""img/3to1/11.png"",""time"":1100},{""stimulus"":""img/3to1/12.png"",""time"":1201}]","[]"
"image-keyboard-response","188","205415","0.0-5.0-1.92","5d5a48a67ca41f0001e97f8b","bdp_cybrbll","Sat Mar 25 2023 19:45:10 GMT-0400 (Eastern Daylight Time)","450177","1","3","","null","","","","observe","","img/1to3/1.png","null","133","935","0.5","0.1","1","2","",""
"animation","189","206714","0.0-5.0-2.92","5d5a48a67ca41f0001e97f8b","bdp_cybrbll","Sat Mar 25 2023 19:45:10 GMT-0400 (Eastern Daylight Time)","450177","1","3","","","","","","","","","","133","","","","1","2","[{""stimulus"":""img/1to2/1.png"",""time"":109},{""stimulus"":""img/1to2/2.png"",""time"":206},{""stimulus"":""img/1to2/3.png"",""time"":305},{""stimulus"":""img/1to2/4.png"",""time"":405},{""stimulus"":""img/1to2/5.png"",""time"":498},{""stimulus"":""img/1to2/6.png"",""time"":600},{""stimulus"":""img/1to2/7.png"",""time"":696},{""stimulus"":""img/1to2/8.png"",""time"":796},{""stimulus"":""img/1to2/9.png"",""time"":897},{""stimulus"":""img/1to2/10.png"",""time"":996},{""stimulus"":""img/1to2/11.png"",""time"":1093},{""stimulus"":""img/1to2/12.png"",""time"":1203}]","[]"
"image-keyboard-response","190","206766","0.0-5.0-1.93","5d5a48a67ca41f0001e97f8b","bdp_cybrbll","Sat Mar 25 2023 19:45:10 GMT-0400 (Eastern Daylight Time)","450177","1","3","","50","","","","choice","","img/2to1/1.png","2","132","662","0.5","0.1","2","3","",""
