"trial_type","trial_index","time_elapsed","internal_node_id","subject_id","task","startTime","totalTime","fairPartner","unfairPartner","view_history","rt","event","trial","time","trialtype","success","stimulus","key_press","throwsLeft","rtDur","pFair","pUnfair","holder","receiver","animation_sequence","responses"
"pavlovia","0","9","0.0-0.0","63f791c69ca73d3460eeb2d9","bdp_cybrbll","Sun Mar 26 2023 07:57:12 GMT-0700 (Pacific Daylight Time)","506631","1","3","","","","","","","","","","","","","","","","",""
"instructions","1","2455","0.0-1.0","63f791c69ca73d3460eeb2d9","bdp_cybrbll","Sun Mar 26 2023 07:57:12 GMT-0700 (Pacific Daylight Time)","506631","1","3","[{""page_index"":0,""viewing_time"":2444}]","2445","","","","","","","","","","","","","","",""
"","","","","63f791c69ca73d3460eeb2d9","bdp_cybrbll","Sun Mar 26 2023 07:57:12 GMT-0700 (Pacific Daylight Time)","506631","1","3","","","fullscreenenter","2","5135","fullscreenenter","","","","","","","","","","",""
"fullscreen","2","6146","0.0-2.0","63f791c69ca73d3460eeb2d9","bdp_cybrbll","Sun Mar 26 2023 07:57:12 GMT-0700 (Pacific Daylight Time)","506631","1","3","","","","","","","true","","","","","","","","","",""
"instructions","3","52537","0.0-4.0","63f791c69ca73d3460eeb2d9","bdp_cybrbll","Sun Mar 26 2023 07:57:12 GMT-0700 (Pacific Daylight Time)","506631","1","3","[{""page_index"":0,""viewing_time"":46388}]","46388","","","","","","","","","","","","","","",""
"image-keyboard-response","4","55635","0.0-5.0-1.0","63f791c69ca73d3460eeb2d9","bdp_cybrbll","Sun Mar 26 2023 07:57:12 GMT-0700 (Pacific Daylight Time)","506631","1","3","","3094","","","","choice","","img/2to1/1.png","1","225","354","0.5","0.5","2","1","",""
"animation","5","56924","0.0-5.0-2.0","63f791c69ca73d3460eeb2d9","bdp_cybrbll","Sun Mar 26 2023 07:57:12 GMT-0700 (Pacific Daylight Time)","506631","1","3","","","","","","","","","","225","","","","2","1","[{""stimulus"":""img/2to1/1.png"",""time"":100},{""stimulus"":""img/2to1/2.png"",""time"":199},{""stimulus"":""img/2to1/3.png"",""time"":299},{""stimulus"":""img/2to1/4.png"",""time"":397},{""stimulus"":""img/2to1/5.png"",""time"":497},{""stimulus"":""img/2to1/6.png"",""time"":596},{""stimulus"":""img/2to1/7.png"",""time"":694},{""stimulus"":""img/2to1/8.png"",""time"":794},{""stimulus"":""img/2to1/9.png"",""time"":892},{""stimulus"":""img/2to1/10.png"",""time"":992},{""stimulus"":""img/2to1/11.png"",""time"":1089},{""stimulus"":""img/2to1/12.png"",""time"":1189}]","[]"
"image-keyboard-response","6","57611","0.0-5.0-1.1","63f791c69ca73d3460eeb2d9","bdp_cybrbll","Sun Mar 26 2023 07:57:12 GMT-0700 (Pacific Daylight Time)","506631","1","3","","null","","","","observe","","img/1to3/1.png","null","224","685","0.5","0.5","1","3","",""
"animation","7","58900","0.0-5.0-2.1","63f791c69ca73d3460eeb2d9","bdp_cybrbll","Sun Mar 26 2023 07:57:12 GMT-0700 (Pacific Daylight Time)","506631","1","3","","","","","","","","","","224","","","","1","3","[{""stimulus"":""img/1to3/1.png"",""time"":100},{""stimulus"":""img/1to3/2.png"",""time"":198},{""stimulus"":""img/1to3/3.png"",""time"":298},{""stimulus"":""img/1to3/4.png"",""time"":397},{""stimulus"":""img/1to3/5.png"",""time"":495},{""stimulus"":""img/1to3/6.png"",""time"":595},{""stimulus"":""img/1to3/7.png"",""time"":694},{""stimulus"":""img/1to3/8.png"",""time"":792},{""stimulus"":""img/1to3/9.png"",""time"":891},{""stimulus"":""img/1to3/10.png"",""time"":991},{""stimulus"":""img/1to3/11.png"",""time"":1089},{""stimulus"":""img/1to3/12.png"",""time"":1189}]","[]"
"image-keyboard-response","8","59643","0.0-5.0-1.2","63f791c69ca73d3460eeb2d9","bdp_cybrbll","Sun Mar 26 2023 07:57:12 GMT-0700 (Pacific Daylight Time)","506631","1","3","","null","","","","observe","","img/3to2/1.png","null","223","741","0.5","0.5","3","2","",""
"animation","9","60931","0.0-5.0-2.2","63f791c69ca73d3460eeb2d9","bdp_cybrbll","Sun Mar 26 2023 07:57:12 GMT-0700 (Pacific Daylight Time)","506631","1","3","","","","","","","","","","223","","","","3","2","[{""stimulus"":""img/3to2/1.png"",""time"":101},{""stimulus"":""img/3to2/2.png"",""time"":199},{""stimulus"":""img/3to2/3.png"",""time"":298},{""stimulus"":""img/3to2/4.png"",""time"":398},{""stimulus"":""img/3to2/5.png"",""time"":496},{""stimulus"":""img/3to2/6.png"",""time"":595},{""stimulus"":""img/3to2/7.png"",""time"":694},{""stimulus"":""img/3to2/8.png"",""time"":793},{""stimulus"":""img/3to2/9.png"",""time"":892},{""stimulus"":""img/3to2/10.png"",""time"":991},{""stimulus"":""img/3to2/11.png"",""time"":1090},{""stimulus"":""img/3to2/12.png"",""time"":1189}]","[]"
"image-keyboard-response","10","63385","0.0-5.0-1.3","63f791c69ca73d3460eeb2d9","bdp_cybrbll","Sun Mar 26 2023 07:57:12 GMT-0700 (Pacific Daylight Time)","506631","1","3","","2453","","","","choice","","img/2to1/1.png","2","222","693","0.5","0.5","2","3","",""
"animation","11","64673","0.0-5.0-2.3","63f791c69ca73d3460eeb2d9","bdp_cybrbll","Sun Mar 26 2023 07:57:12 GMT-0700 (Pacific Daylight Time)","506631","1","3","","","","","","","","","","222","","","","2","3","[{""stimulus"":""img/2to3/1.png"",""time"":100},{""stimulus"":""img/2to3/2.png"",""time"":199},{""stimulus"":""img/2to3/3.png"",""time"":298},{""stimulus"":""img/2to3/4.png"",""time"":396},{""stimulus"":""img/2to3/5.png"",""time"":496},{""stimulus"":""img/2to3/6.png"",""time"":594},{""stimulus"":""img/2to3/7.png"",""time"":694},{""stimulus"":""img/2to3/8.png"",""time"":794},{""stimulus"":""img/2to3/9.png"",""time"":892},{""stimulus"":""img/2to3/10.png"",""time"":991},{""stimulus"":""img/2to3/11.png"",""time"":1090},{""stimulus"":""img/2to3/12.png"",""time"":1190}]","[]"
"image-keyboard-response","12","65091","0.0-5.0-1.4","63f791c69ca73d3460eeb2d9","bdp_cybrbll","Sun Mar 26 2023 07:57:12 GMT-0700 (Pacific Daylight Time)","506631","1","3","","null","","","","observe","","img/3to2/1.png","null","221","416","0.5","0.5","3","1","",""
"animation","13","66379","0.0-5.0-2.4","63f791c69ca73d3460eeb2d9","bdp_cybrbll","Sun Mar 26 2023 07:57:12 GMT-0700 (Pacific Daylight Time)","506631","1","3","","","","","","","","","","221","","","","3","1","[{""stimulus"":""img/3to1/1.png"",""time"":100},{""stimulus"":""img/3to1/2.png"",""time"":199},{""stimulus"":""img/3to1/3.png"",""time"":298},{""stimulus"":""img/3to1/4.png"",""time"":397},{""stimulus"":""img/3to1/5.png"",""time"":496},{""stimulus"":""img/3to1/6.png"",""time"":595},{""stimulus"":""img/3to1/7.png"",""time"":694},{""stimulus"":""img/3to1/8.png"",""time"":793},{""stimulus"":""img/3to1/9.png"",""time"":892},{""stimulus"":""img/3to1/10.png"",""time"":991},{""stimulus"":""img/3to1/11.png"",""time"":1090},{""stimulus"":""img/3to1/12.png"",""time"":1189}]","[]"
"image-keyboard-response","14","66851","0.0-5.0-1.5","63f791c69ca73d3460eeb2d9","bdp_cybrbll","Sun Mar 26 2023 07:57:12 GMT-0700 (Pacific Daylight Time)","506631","1","3","","null","","","","observe","","img/1to3/1.png","null","220","471","0.5","0.5","1","2","",""
"animation","15","68139","0.0-5.0-2.5","63f791c69ca73d3460eeb2d9","bdp_cybrbll","Sun Mar 26 2023 07:57:12 GMT-0700 (Pacific Daylight Time)","506631","1","3","","","","","","","","","","220","","","","1","2","[{""stimulus"":""img/1to2/1.png"",""time"":101},{""stimulus"":""img/1to2/2.png"",""time"":200},{""stimulus"":""img/1to2/3.png"",""time"":298},{""stimulus"":""img/1to2/4.png"",""time"":397},{""stimulus"":""img/1to2/5.png"",""time"":497},{""stimulus"":""img/1to2/6.png"",""time"":596},{""stimulus"":""img/1to2/7.png"",""time"":705},{""stimulus"":""img/1to2/8.png"",""time"":793},{""stimulus"":""img/1to2/9.png"",""time"":893},{""stimulus"":""img/1to2/10.png"",""time"":992},{""stimulus"":""img/1to2/11.png"",""time"":1091},{""stimulus"":""img/1to2/12.png"",""time"":1189}]","[]"
"image-keyboard-response","16","69979","0.0-5.0-1.6","63f791c69ca73d3460eeb2d9","bdp_cybrbll","Sun Mar 26 2023 07:57:12 GMT-0700 (Pacific Daylight Time)","506631","1","3","","1839","","","","choice","","img/2to1/1.png","2","219","313","0.5","0.5","2","3","",""
"animation","17","71267","0.0-5.0-2.6","63f791c69ca73d3460eeb2d9","bdp_cybrbll","Sun Mar 26 2023 07:57:12 GMT-0700 (Pacific Daylight Time)","506631","1","3","","","","","","","","","","219","","","","2","3","[{""stimulus"":""img/2to3/1.png"",""time"":100},{""stimulus"":""img/2to3/2.png"",""time"":199},{""stimulus"":""img/2to3/3.png"",""time"":298},{""stimulus"":""img/2to3/4.png"",""time"":397},{""stimulus"":""img/2to3/5.png"",""time"":496},{""stimulus"":""img/2to3/6.png"",""time"":595},{""stimulus"":""img/2to3/7.png"",""time"":694},{""stimulus"":""img/2to3/8.png"",""time"":793},{""stimulus"":""img/2to3/9.png"",""time"":892},{""stimulus"":""img/2to3/10.png"",""time"":991},{""stimulus"":""img/2to3/11.png"",""time"":1090},{""stimulus"":""img/2to3/12.png"",""time"":1189}]","[]"
"image-keyboard-response","18","71580","0.0-5.0-1.7","63f791c69ca73d3460eeb2d9","bdp_cybrbll","Sun Mar 26 2023 07:57:12 GMT-0700 (Pacific Daylight Time)","506631","1","3","","null","","","","observe","","img/3to2/1.png","null","218","311","0.5","0.5","3","1","",""
"animation","19","72869","0.0-5.0-2.7","63f791c69ca73d3460eeb2d9","bdp_cybrbll","Sun Mar 26 2023 07:57:12 GMT-0700 (Pacific Daylight Time)","506631","1","3","","","","","","","","","","218","","","","3","1","[{""stimulus"":""img/3to1/1.png"",""time"":100},{""stimulus"":""img/3to1/2.png"",""time"":199},{""stimulus"":""img/3to1/3.png"",""time"":297},{""stimulus"":""img/3to1/4.png"",""time"":397},{""stimulus"":""img/3to1/5.png"",""time"":496},{""stimulus"":""img/3to1/6.png"",""time"":595},{""stimulus"":""img/3to1/7.png"",""time"":693},{""stimulus"":""img/3to1/8.png"",""time"":792},{""stimulus"":""img/3to1/9.png"",""time"":892},{""stimulus"":""img/3to1/10.png"",""time"":991},{""stimulus"":""img/3to1/11.png"",""time"":1089},{""stimulus"":""img/3to1/12.png"",""time"":1189}]","[]"
"image-keyboard-response","20","73927","0.0-5.0-1.8","63f791c69ca73d3460eeb2d9","bdp_cybrbll","Sun Mar 26 2023 07:57:12 GMT-0700 (Pacific Daylight Time)","506631","1","3","","null","","","","observe","","img/1to3/1.png","null","217","1057","0.5","0.5","1","3","",""
"animation","21","75215","0.0-5.0-2.8","63f791c69ca73d3460eeb2d9","bdp_cybrbll","Sun Mar 26 2023 07:57:12 GMT-0700 (Pacific Daylight Time)","506631","1","3","","","","","","","","","","217","","","","1","3","[{""stimulus"":""img/1to3/1.png"",""time"":100},{""stimulus"":""img/1to3/2.png"",""time"":200},{""stimulus"":""img/1to3/3.png"",""time"":298},{""stimulus"":""img/1to3/4.png"",""time"":398},{""stimulus"":""img/1to3/5.png"",""time"":496},{""stimulus"":""img/1to3/6.png"",""time"":596},{""stimulus"":""img/1to3/7.png"",""time"":694},{""stimulus"":""img/1to3/8.png"",""time"":794},{""stimulus"":""img/1to3/9.png"",""time"":892},{""stimulus"":""img/1to3/10.png"",""time"":991},{""stimulus"":""img/1to3/11.png"",""time"":1090},{""stimulus"":""img/1to3/12.png"",""time"":1189}]","[]"
"image-keyboard-response","22","75503","0.0-5.0-1.9","63f791c69ca73d3460eeb2d9","bdp_cybrbll","Sun Mar 26 2023 07:57:12 GMT-0700 (Pacific Daylight Time)","506631","1","3","","null","","","","observe","","img/3to2/1.png","null","216","286","0.5","0.5","3","1","",""
"animation","23","76791","0.0-5.0-2.9","63f791c69ca73d3460eeb2d9","bdp_cybrbll","Sun Mar 26 2023 07:57:12 GMT-0700 (Pacific Daylight Time)","506631","1","3","","","","","","","","","","216","","","","3","1","[{""stimulus"":""img/3to1/1.png"",""time"":100},{""stimulus"":""img/3to1/2.png"",""time"":200},{""stimulus"":""img/3to1/3.png"",""time"":299},{""stimulus"":""img/3to1/4.png"",""time"":398},{""stimulus"":""img/3to1/5.png"",""time"":496},{""stimulus"":""img/3to1/6.png"",""time"":595},{""stimulus"":""img/3to1/7.png"",""time"":694},{""stimulus"":""img/3to1/8.png"",""time"":793},{""stimulus"":""img/3to1/9.png"",""time"":892},{""stimulus"":""img/3to1/10.png"",""time"":991},{""stimulus"":""img/3to1/11.png"",""time"":1091},{""stimulus"":""img/3to1/12.png"",""time"":1190}]","[]"
"image-keyboard-response","24","77293","0.0-5.0-1.10","63f791c69ca73d3460eeb2d9","bdp_cybrbll","Sun Mar 26 2023 07:57:12 GMT-0700 (Pacific Daylight Time)","506631","1","3","","null","","","","observe","","img/1to3/1.png","null","215","501","0.5","0.5","1","2","",""
"animation","25","78581","0.0-5.0-2.10","63f791c69ca73d3460eeb2d9","bdp_cybrbll","Sun Mar 26 2023 07:57:12 GMT-0700 (Pacific Daylight Time)","506631","1","3","","","","","","","","","","215","","","","1","2","[{""stimulus"":""img/1to2/1.png"",""time"":102},{""stimulus"":""img/1to2/2.png"",""time"":199},{""stimulus"":""img/1to2/3.png"",""time"":298},{""stimulus"":""img/1to2/4.png"",""time"":397},{""stimulus"":""img/1to2/5.png"",""time"":496},{""stimulus"":""img/1to2/6.png"",""time"":596},{""stimulus"":""img/1to2/7.png"",""time"":694},{""stimulus"":""img/1to2/8.png"",""time"":794},{""stimulus"":""img/1to2/9.png"",""time"":893},{""stimulus"":""img/1to2/10.png"",""time"":991},{""stimulus"":""img/1to2/11.png"",""time"":1091},{""stimulus"":""img/1to2/12.png"",""time"":1190}]","[]"
"image-keyboard-response","26","79616","0.0-5.0-1.11","63f791c69ca73d3460eeb2d9","bdp_cybrbll","Sun Mar 26 2023 07:57:12 GMT-0700 (Pacific Daylight Time)","506631","1","3","","1034","","","","choice","","img/2to1/1.png","2","214","357","0.5","0.5","2","3","",""
"animation","27","80905","0.0-5.0-2.11","63f791c69ca73d3460eeb2d9","bdp_cybrbll","Sun Mar 26 2023 07:57:12 GMT-0700 (Pacific Daylight Time)","506631","1","3","","","","","","","","","","214","","","","2","3","[{""stimulus"":""img/2to3/1.png"",""time"":99},{""stimulus"":""img/2to3/2.png"",""time"":198},{""stimulus"":""img/2to3/3.png"",""time"":297},{""stimulus"":""img/2to3/4.png"",""time"":397},{""stimulus"":""img/2to3/5.png"",""time"":496},{""stimulus"":""img/2to3/6.png"",""time"":595},{""stimulus"":""img/2to3/7.png"",""time"":693},{""stimulus"":""img/2to3/8.png"",""time"":793},{""stimulus"":""img/2to3/9.png"",""time"":891},{""stimulus"":""img/2to3/10.png"",""time"":990},{""stimulus"":""img/2to3/11.png"",""time"":1089},{""stimulus"":""img/2to3/12.png"",""time"":1188}]","[]"
"image-keyboard-response","28","81952","0.0-5.0-1.12","63f791c69ca73d3460eeb2d9","bdp_cybrbll","Sun Mar 26 2023 07:57:12 GMT-0700 (Pacific Daylight Time)","506631","1","3","","null","","","","observe","","img/3to2/1.png","null","213","1046","0.5","0.5","3","1","",""
"animation","29","83240","0.0-5.0-2.12","63f791c69ca73d3460eeb2d9","bdp_cybrbll","Sun Mar 26 2023 07:57:12 GMT-0700 (Pacific Daylight Time)","506631","1","3","","","","","","","","","","213","","","","3","1","[{""stimulus"":""img/3to1/1.png"",""time"":101},{""stimulus"":""img/3to1/2.png"",""time"":200},{""stimulus"":""img/3to1/3.png"",""time"":299},{""stimulus"":""img/3to1/4.png"",""time"":397},{""stimulus"":""img/3to1/5.png"",""time"":497},{""stimulus"":""img/3to1/6.png"",""time"":595},{""stimulus"":""img/3to1/7.png"",""time"":695},{""stimulus"":""img/3to1/8.png"",""time"":794},{""stimulus"":""img/3to1/9.png"",""time"":893},{""stimulus"":""img/3to1/10.png"",""time"":991},{""stimulus"":""img/3to1/11.png"",""time"":1091},{""stimulus"":""img/3to1/12.png"",""time"":1190}]","[]"
"image-keyboard-response","30","84478","0.0-5.0-1.13","63f791c69ca73d3460eeb2d9","bdp_cybrbll","Sun Mar 26 2023 07:57:12 GMT-0700 (Pacific Daylight Time)","506631","1","3","","null","","","","observe","","img/1to3/1.png","null","212","1236","0.5","0.5","1","2","",""
"animation","31","85766","0.0-5.0-2.13","63f791c69ca73d3460eeb2d9","bdp_cybrbll","Sun Mar 26 2023 07:57:12 GMT-0700 (Pacific Daylight Time)","506631","1","3","","","","","","","","","","212","","","","1","2","[{""stimulus"":""img/1to2/1.png"",""time"":100},{""stimulus"":""img/1to2/2.png"",""time"":199},{""stimulus"":""img/1to2/3.png"",""time"":299},{""stimulus"":""img/1to2/4.png"",""time"":398},{""stimulus"":""img/1to2/5.png"",""time"":496},{""stimulus"":""img/1to2/6.png"",""time"":595},{""stimulus"":""img/1to2/7.png"",""time"":695},{""stimulus"":""img/1to2/8.png"",""time"":793},{""stimulus"":""img/1to2/9.png"",""time"":892},{""stimulus"":""img/1to2/10.png"",""time"":992},{""stimulus"":""img/1to2/11.png"",""time"":1090},{""stimulus"":""img/1to2/12.png"",""time"":1189}]","[]"
"image-keyboard-response","32","86863","0.0-5.0-1.14","63f791c69ca73d3460eeb2d9","bdp_cybrbll","Sun Mar 26 2023 07:57:12 GMT-0700 (Pacific Daylight Time)","506631","1","3","","1096","","","","choice","","img/2to1/1.png","2","211","440","0.5","0.5","2","3","",""
"animation","33","88151","0.0-5.0-2.14","63f791c69ca73d3460eeb2d9","bdp_cybrbll","Sun Mar 26 2023 07:57:12 GMT-0700 (Pacific Daylight Time)","506631","1","3","","","","","","","","","","211","","","","2","3","[{""stimulus"":""img/2to3/1.png"",""time"":101},{""stimulus"":""img/2to3/2.png"",""time"":200},{""stimulus"":""img/2to3/3.png"",""time"":298},{""stimulus"":""img/2to3/4.png"",""time"":397},{""stimulus"":""img/2to3/5.png"",""time"":496},{""stimulus"":""img/2to3/6.png"",""time"":595},{""stimulus"":""img/2to3/7.png"",""time"":695},{""stimulus"":""img/2to3/8.png"",""time"":793},{""stimulus"":""img/2to3/9.png"",""time"":892},{""stimulus"":""img/2to3/10.png"",""time"":992},{""stimulus"":""img/2to3/11.png"",""time"":1091},{""stimulus"":""img/2to3/12.png"",""time"":1190}]","[]"
"image-keyboard-response","34","88768","0.0-5.0-1.15","63f791c69ca73d3460eeb2d9","bdp_cybrbll","Sun Mar 26 2023 07:57:12 GMT-0700 (Pacific Daylight Time)","506631","1","3","","null","","","","observe","","img/3to2/1.png","null","210","616","0.5","0.5","3","2","",""
"animation","35","90056","0.0-5.0-2.15","63f791c69ca73d3460eeb2d9","bdp_cybrbll","Sun Mar 26 2023 07:57:12 GMT-0700 (Pacific Daylight Time)","506631","1","3","","","","","","","","","","210","","","","3","2","[{""stimulus"":""img/3to2/1.png"",""time"":100},{""stimulus"":""img/3to2/2.png"",""time"":199},{""stimulus"":""img/3to2/3.png"",""time"":298},{""stimulus"":""img/3to2/4.png"",""time"":397},{""stimulus"":""img/3to2/5.png"",""time"":496},{""stimulus"":""img/3to2/6.png"",""time"":595},{""stimulus"":""img/3to2/7.png"",""time"":695},{""stimulus"":""img/3to2/8.png"",""time"":794},{""stimulus"":""img/3to2/9.png"",""time"":892},{""stimulus"":""img/3to2/10.png"",""time"":991},{""stimulus"":""img/3to2/11.png"",""time"":1090},{""stimulus"":""img/3to2/12.png"",""time"":1190}]","[]"
"image-keyboard-response","36","91710","0.0-5.0-1.16","63f791c69ca73d3460eeb2d9","bdp_cybrbll","Sun Mar 26 2023 07:57:12 GMT-0700 (Pacific Daylight Time)","506631","1","3","","1653","","","","choice","","img/2to1/1.png","1","209","346","0.5","0.5","2","1","",""
"animation","37","92999","0.0-5.0-2.16","63f791c69ca73d3460eeb2d9","bdp_cybrbll","Sun Mar 26 2023 07:57:12 GMT-0700 (Pacific Daylight Time)","506631","1","3","","","","","","","","","","209","","","","2","1","[{""stimulus"":""img/2to1/1.png"",""time"":100},{""stimulus"":""img/2to1/2.png"",""time"":198},{""stimulus"":""img/2to1/3.png"",""time"":298},{""stimulus"":""img/2to1/4.png"",""time"":397},{""stimulus"":""img/2to1/5.png"",""time"":496},{""stimulus"":""img/2to1/6.png"",""time"":594},{""stimulus"":""img/2to1/7.png"",""time"":695},{""stimulus"":""img/2to1/8.png"",""time"":793},{""stimulus"":""img/2to1/9.png"",""time"":892},{""stimulus"":""img/2to1/10.png"",""time"":990},{""stimulus"":""img/2to1/11.png"",""time"":1090},{""stimulus"":""img/2to1/12.png"",""time"":1189}]","[]"
"image-keyboard-response","38","93375","0.0-5.0-1.17","63f791c69ca73d3460eeb2d9","bdp_cybrbll","Sun Mar 26 2023 07:57:12 GMT-0700 (Pacific Daylight Time)","506631","1","3","","null","","","","observe","","img/1to3/1.png","null","208","375","0.5","0.5","1","2","",""
"animation","39","94663","0.0-5.0-2.17","63f791c69ca73d3460eeb2d9","bdp_cybrbll","Sun Mar 26 2023 07:57:12 GMT-0700 (Pacific Daylight Time)","506631","1","3","","","","","","","","","","208","","","","1","2","[{""stimulus"":""img/1to2/1.png"",""time"":100},{""stimulus"":""img/1to2/2.png"",""time"":200},{""stimulus"":""img/1to2/3.png"",""time"":298},{""stimulus"":""img/1to2/4.png"",""time"":397},{""stimulus"":""img/1to2/5.png"",""time"":496},{""stimulus"":""img/1to2/6.png"",""time"":595},{""stimulus"":""img/1to2/7.png"",""time"":694},{""stimulus"":""img/1to2/8.png"",""time"":794},{""stimulus"":""img/1to2/9.png"",""time"":892},{""stimulus"":""img/1to2/10.png"",""time"":991},{""stimulus"":""img/1to2/11.png"",""time"":1091},{""stimulus"":""img/1to2/12.png"",""time"":1190}]","[]"
"image-keyboard-response","40","95245","0.0-5.0-1.18","63f791c69ca73d3460eeb2d9","bdp_cybrbll","Sun Mar 26 2023 07:57:12 GMT-0700 (Pacific Daylight Time)","506631","1","3","","581","","","","choice","","img/2to1/1.png","2","207","344","0.5","0.5","2","3","",""
"animation","41","96534","0.0-5.0-2.18","63f791c69ca73d3460eeb2d9","bdp_cybrbll","Sun Mar 26 2023 07:57:12 GMT-0700 (Pacific Daylight Time)","506631","1","3","","","","","","","","","","207","","","","2","3","[{""stimulus"":""img/2to3/1.png"",""time"":99},{""stimulus"":""img/2to3/2.png"",""time"":198},{""stimulus"":""img/2to3/3.png"",""time"":297},{""stimulus"":""img/2to3/4.png"",""time"":397},{""stimulus"":""img/2to3/5.png"",""time"":495},{""stimulus"":""img/2to3/6.png"",""time"":595},{""stimulus"":""img/2to3/7.png"",""time"":693},{""stimulus"":""img/2to3/8.png"",""time"":793},{""stimulus"":""img/2to3/9.png"",""time"":892},{""stimulus"":""img/2to3/10.png"",""time"":990},{""stimulus"":""img/2to3/11.png"",""time"":1089},{""stimulus"":""img/2to3/12.png"",""time"":1189}]","[]"
"image-keyboard-response","42","96905","0.0-5.0-1.19","63f791c69ca73d3460eeb2d9","bdp_cybrbll","Sun Mar 26 2023 07:57:12 GMT-0700 (Pacific Daylight Time)","506631","1","3","","null","","","","observe","","img/3to2/1.png","null","206","369","0.5","0.5","3","1","",""
"animation","43","98193","0.0-5.0-2.19","63f791c69ca73d3460eeb2d9","bdp_cybrbll","Sun Mar 26 2023 07:57:12 GMT-0700 (Pacific Daylight Time)","506631","1","3","","","","","","","","","","206","","","","3","1","[{""stimulus"":""img/3to1/1.png"",""time"":100},{""stimulus"":""img/3to1/2.png"",""time"":199},{""stimulus"":""img/3to1/3.png"",""time"":298},{""stimulus"":""img/3to1/4.png"",""time"":397},{""stimulus"":""img/3to1/5.png"",""time"":496},{""stimulus"":""img/3to1/6.png"",""time"":595},{""stimulus"":""img/3to1/7.png"",""time"":694},{""stimulus"":""img/3to1/8.png"",""time"":793},{""stimulus"":""img/3to1/9.png"",""time"":892},{""stimulus"":""img/3to1/10.png"",""time"":991},{""stimulus"":""img/3to1/11.png"",""time"":1090},{""stimulus"":""img/3to1/12.png"",""time"":1189}]","[]"
"image-keyboard-response","44","99028","0.0-5.0-1.20","63f791c69ca73d3460eeb2d9","bdp_cybrbll","Sun Mar 26 2023 07:57:12 GMT-0700 (Pacific Daylight Time)","506631","1","3","","null","","","","observe","","img/1to3/1.png","null","205","834","0.5","0.5","1","2","",""
"animation","45","100316","0.0-5.0-2.20","63f791c69ca73d3460eeb2d9","bdp_cybrbll","Sun Mar 26 2023 07:57:12 GMT-0700 (Pacific Daylight Time)","506631","1","3","","","","","","","","","","205","","","","1","2","[{""stimulus"":""img/1to2/1.png"",""time"":101},{""stimulus"":""img/1to2/2.png"",""time"":199},{""stimulus"":""img/1to2/3.png"",""time"":299},{""stimulus"":""img/1to2/4.png"",""time"":397},{""stimulus"":""img/1to2/5.png"",""time"":497},{""stimulus"":""img/1to2/6.png"",""time"":596},{""stimulus"":""img/1to2/7.png"",""time"":694},{""stimulus"":""img/1to2/8.png"",""time"":793},{""stimulus"":""img/1to2/9.png"",""time"":893},{""stimulus"":""img/1to2/10.png"",""time"":991},{""stimulus"":""img/1to2/11.png"",""time"":1090},{""stimulus"":""img/1to2/12.png"",""time"":1189}]","[]"
"image-keyboard-response","46","101419","0.0-5.0-1.21","63f791c69ca73d3460eeb2d9","bdp_cybrbll","Sun Mar 26 2023 07:57:12 GMT-0700 (Pacific Daylight Time)","506631","1","3","","1102","","","","choice","","img/2to1/1.png","2","204","238","0.5","0.5","2","3","",""
"animation","47","102707","0.0-5.0-2.21","63f791c69ca73d3460eeb2d9","bdp_cybrbll","Sun Mar 26 2023 07:57:12 GMT-0700 (Pacific Daylight Time)","506631","1","3","","","","","","","","","","204","","","","2","3","[{""stimulus"":""img/2to3/1.png"",""time"":99},{""stimulus"":""img/2to3/2.png"",""time"":198},{""stimulus"":""img/2to3/3.png"",""time"":297},{""stimulus"":""img/2to3/4.png"",""time"":397},{""stimulus"":""img/2to3/5.png"",""time"":496},{""stimulus"":""img/2to3/6.png"",""time"":595},{""stimulus"":""img/2to3/7.png"",""time"":693},{""stimulus"":""img/2to3/8.png"",""time"":793},{""stimulus"":""img/2to3/9.png"",""time"":892},{""stimulus"":""img/2to3/10.png"",""time"":991},{""stimulus"":""img/2to3/11.png"",""time"":1090},{""stimulus"":""img/2to3/12.png"",""time"":1188}]","[]"
"image-keyboard-response","48","102973","0.0-5.0-1.22","63f791c69ca73d3460eeb2d9","bdp_cybrbll","Sun Mar 26 2023 07:57:12 GMT-0700 (Pacific Daylight Time)","506631","1","3","","null","","","","observe","","img/3to2/1.png","null","203","264","0.5","0.5","3","1","",""
"animation","49","104261","0.0-5.0-2.22","63f791c69ca73d3460eeb2d9","bdp_cybrbll","Sun Mar 26 2023 07:57:12 GMT-0700 (Pacific Daylight Time)","506631","1","3","","","","","","","","","","203","","","","3","1","[{""stimulus"":""img/3to1/1.png"",""time"":100},{""stimulus"":""img/3to1/2.png"",""time"":199},{""stimulus"":""img/3to1/3.png"",""time"":298},{""stimulus"":""img/3to1/4.png"",""time"":397},{""stimulus"":""img/3to1/5.png"",""time"":496},{""stimulus"":""img/3to1/6.png"",""time"":595},{""stimulus"":""img/3to1/7.png"",""time"":695},{""stimulus"":""img/3to1/8.png"",""time"":793},{""stimulus"":""img/3to1/9.png"",""time"":892},{""stimulus"":""img/3to1/10.png"",""time"":991},{""stimulus"":""img/3to1/11.png"",""time"":1090},{""stimulus"":""img/3to1/12.png"",""time"":1190}]","[]"
"image-keyboard-response","50","104780","0.0-5.0-1.23","63f791c69ca73d3460eeb2d9","bdp_cybrbll","Sun Mar 26 2023 07:57:12 GMT-0700 (Pacific Daylight Time)","506631","1","3","","null","","","","observe","","img/1to3/1.png","null","202","518","0.5","0.5","1","3","",""
"animation","51","106068","0.0-5.0-2.23","63f791c69ca73d3460eeb2d9","bdp_cybrbll","Sun Mar 26 2023 07:57:12 GMT-0700 (Pacific Daylight Time)","506631","1","3","","","","","","","","","","202","","","","1","3","[{""stimulus"":""img/1to3/1.png"",""time"":101},{""stimulus"":""img/1to3/2.png"",""time"":199},{""stimulus"":""img/1to3/3.png"",""time"":298},{""stimulus"":""img/1to3/4.png"",""time"":397},{""stimulus"":""img/1to3/5.png"",""time"":496},{""stimulus"":""img/1to3/6.png"",""time"":595},{""stimulus"":""img/1to3/7.png"",""time"":694},{""stimulus"":""img/1to3/8.png"",""time"":793},{""stimulus"":""img/1to3/9.png"",""time"":892},{""stimulus"":""img/1to3/10.png"",""time"":991},{""stimulus"":""img/1to3/11.png"",""time"":1090},{""stimulus"":""img/1to3/12.png"",""time"":1189}]","[]"
"image-keyboard-response","52","106654","0.0-5.0-1.24","63f791c69ca73d3460eeb2d9","bdp_cybrbll","Sun Mar 26 2023 07:57:12 GMT-0700 (Pacific Daylight Time)","506631","1","3","","null","","","","observe","","img/3to2/1.png","null","201","585","0.5","0.5","3","2","",""
"animation","53","107943","0.0-5.0-2.24","63f791c69ca73d3460eeb2d9","bdp_cybrbll","Sun Mar 26 2023 07:57:12 GMT-0700 (Pacific Daylight Time)","506631","1","3","","","","","","","","","","201","","","","3","2","[{""stimulus"":""img/3to2/1.png"",""time"":100},{""stimulus"":""img/3to2/2.png"",""time"":199},{""stimulus"":""img/3to2/3.png"",""time"":299},{""stimulus"":""img/3to2/4.png"",""time"":398},{""stimulus"":""img/3to2/5.png"",""time"":497},{""stimulus"":""img/3to2/6.png"",""time"":596},{""stimulus"":""img/3to2/7.png"",""time"":694},{""stimulus"":""img/3to2/8.png"",""time"":794},{""stimulus"":""img/3to2/9.png"",""time"":893},{""stimulus"":""img/3to2/10.png"",""time"":992},{""stimulus"":""img/3to2/11.png"",""time"":1091},{""stimulus"":""img/3to2/12.png"",""time"":1189}]","[]"
"image-keyboard-response","54","108174","0.0-5.0-1.25","63f791c69ca73d3460eeb2d9","bdp_cybrbll","Sun Mar 26 2023 07:57:12 GMT-0700 (Pacific Daylight Time)","506631","1","3","","230","","","","choice","","img/2to1/1.png","1","200","253","0.5","0.5","2","1","",""
"animation","55","109463","0.0-5.0-2.25","63f791c69ca73d3460eeb2d9","bdp_cybrbll","Sun Mar 26 2023 07:57:12 GMT-0700 (Pacific Daylight Time)","506631","1","3","","","","","","","","","","200","","","","2","1","[{""stimulus"":""img/2to1/1.png"",""time"":100},{""stimulus"":""img/2to1/2.png"",""time"":198},{""stimulus"":""img/2to1/3.png"",""time"":298},{""stimulus"":""img/2to1/4.png"",""time"":397},{""stimulus"":""img/2to1/5.png"",""time"":496},{""stimulus"":""img/2to1/6.png"",""time"":595},{""stimulus"":""img/2to1/7.png"",""time"":696},{""stimulus"":""img/2to1/8.png"",""time"":792},{""stimulus"":""img/2to1/9.png"",""time"":892},{""stimulus"":""img/2to1/10.png"",""time"":991},{""stimulus"":""img/2to1/11.png"",""time"":1090},{""stimulus"":""img/2to1/12.png"",""time"":1189}]","[]"
"image-keyboard-response","56","109918","0.0-5.0-1.26","63f791c69ca73d3460eeb2d9","bdp_cybrbll","Sun Mar 26 2023 07:57:12 GMT-0700 (Pacific Daylight Time)","506631","1","3","","null","","","","observe","","img/1to3/1.png","null","199","453","0.5","0.5","1","3","",""
"animation","57","111206","0.0-5.0-2.26","63f791c69ca73d3460eeb2d9","bdp_cybrbll","Sun Mar 26 2023 07:57:12 GMT-0700 (Pacific Daylight Time)","506631","1","3","","","","","","","","","","199","","","","1","3","[{""stimulus"":""img/1to3/1.png"",""time"":100},{""stimulus"":""img/1to3/2.png"",""time"":199},{""stimulus"":""img/1to3/3.png"",""time"":298},{""stimulus"":""img/1to3/4.png"",""time"":397},{""stimulus"":""img/1to3/5.png"",""time"":496},{""stimulus"":""img/1to3/6.png"",""time"":596},{""stimulus"":""img/1to3/7.png"",""time"":695},{""stimulus"":""img/1to3/8.png"",""time"":793},{""stimulus"":""img/1to3/9.png"",""time"":892},{""stimulus"":""img/1to3/10.png"",""time"":991},{""stimulus"":""img/1to3/11.png"",""time"":1090},{""stimulus"":""img/1to3/12.png"",""time"":1189}]","[]"
"image-keyboard-response","58","111823","0.0-5.0-1.27","63f791c69ca73d3460eeb2d9","bdp_cybrbll","Sun Mar 26 2023 07:57:12 GMT-0700 (Pacific Daylight Time)","506631","1","3","","null","","","","observe","","img/3to2/1.png","null","198","616","0.5","0.5","3","1","",""
"animation","59","113111","0.0-5.0-2.27","63f791c69ca73d3460eeb2d9","bdp_cybrbll","Sun Mar 26 2023 07:57:12 GMT-0700 (Pacific Daylight Time)","506631","1","3","","","","","","","","","","198","","","","3","1","[{""stimulus"":""img/3to1/1.png"",""time"":105},{""stimulus"":""img/3to1/2.png"",""time"":199},{""stimulus"":""img/3to1/3.png"",""time"":299},{""stimulus"":""img/3to1/4.png"",""time"":397},{""stimulus"":""img/3to1/5.png"",""time"":496},{""stimulus"":""img/3to1/6.png"",""time"":596},{""stimulus"":""img/3to1/7.png"",""time"":694},{""stimulus"":""img/3to1/8.png"",""time"":793},{""stimulus"":""img/3to1/9.png"",""time"":892},{""stimulus"":""img/3to1/10.png"",""time"":992},{""stimulus"":""img/3to1/11.png"",""time"":1090},{""stimulus"":""img/3to1/12.png"",""time"":1190}]","[]"
"image-keyboard-response","60","113741","0.0-5.0-1.28","63f791c69ca73d3460eeb2d9","bdp_cybrbll","Sun Mar 26 2023 07:57:12 GMT-0700 (Pacific Daylight Time)","506631","1","3","","null","","","","observe","","img/1to3/1.png","null","197","628","0.5","0.5","1","2","",""
"animation","61","115028","0.0-5.0-2.28","63f791c69ca73d3460eeb2d9","bdp_cybrbll","Sun Mar 26 2023 07:57:12 GMT-0700 (Pacific Daylight Time)","506631","1","3","","","","","","","","","","197","","","","1","2","[{""stimulus"":""img/1to2/1.png"",""time"":100},{""stimulus"":""img/1to2/2.png"",""time"":199},{""stimulus"":""img/1to2/3.png"",""time"":298},{""stimulus"":""img/1to2/4.png"",""time"":397},{""stimulus"":""img/1to2/5.png"",""time"":496},{""stimulus"":""img/1to2/6.png"",""time"":595},{""stimulus"":""img/1to2/7.png"",""time"":694},{""stimulus"":""img/1to2/8.png"",""time"":793},{""stimulus"":""img/1to2/9.png"",""time"":893},{""stimulus"":""img/1to2/10.png"",""time"":991},{""stimulus"":""img/1to2/11.png"",""time"":1090},{""stimulus"":""img/1to2/12.png"",""time"":1189}]","[]"
"image-keyboard-response","62","116351","0.0-5.0-1.29","63f791c69ca73d3460eeb2d9","bdp_cybrbll","Sun Mar 26 2023 07:57:12 GMT-0700 (Pacific Daylight Time)","506631","1","3","","1322","","","","choice","","img/2to1/1.png","1","196","312","0.5","0.5","2","1","",""
"animation","63","117640","0.0-5.0-2.29","63f791c69ca73d3460eeb2d9","bdp_cybrbll","Sun Mar 26 2023 07:57:12 GMT-0700 (Pacific Daylight Time)","506631","1","3","","","","","","","","","","196","","","","2","1","[{""stimulus"":""img/2to1/1.png"",""time"":99},{""stimulus"":""img/2to1/2.png"",""time"":199},{""stimulus"":""img/2to1/3.png"",""time"":298},{""stimulus"":""img/2to1/4.png"",""time"":397},{""stimulus"":""img/2to1/5.png"",""time"":496},{""stimulus"":""img/2to1/6.png"",""time"":594},{""stimulus"":""img/2to1/7.png"",""time"":694},{""stimulus"":""img/2to1/8.png"",""time"":793},{""stimulus"":""img/2to1/9.png"",""time"":891},{""stimulus"":""img/2to1/10.png"",""time"":990},{""stimulus"":""img/2to1/11.png"",""time"":1090},{""stimulus"":""img/2to1/12.png"",""time"":1189}]","[]"
"image-keyboard-response","64","118829","0.0-5.0-1.30","63f791c69ca73d3460eeb2d9","bdp_cybrbll","Sun Mar 26 2023 07:57:12 GMT-0700 (Pacific Daylight Time)","506631","1","3","","null","","","","observe","","img/1to3/1.png","null","195","1188","0.5","0.5","1","2","",""
"animation","65","120116","0.0-5.0-2.30","63f791c69ca73d3460eeb2d9","bdp_cybrbll","Sun Mar 26 2023 07:57:12 GMT-0700 (Pacific Daylight Time)","506631","1","3","","","","","","","","","","195","","","","1","2","[{""stimulus"":""img/1to2/1.png"",""time"":100},{""stimulus"":""img/1to2/2.png"",""time"":199},{""stimulus"":""img/1to2/3.png"",""time"":298},{""stimulus"":""img/1to2/4.png"",""time"":397},{""stimulus"":""img/1to2/5.png"",""time"":496},{""stimulus"":""img/1to2/6.png"",""time"":596},{""stimulus"":""img/1to2/7.png"",""time"":694},{""stimulus"":""img/1to2/8.png"",""time"":793},{""stimulus"":""img/1to2/9.png"",""time"":892},{""stimulus"":""img/1to2/10.png"",""time"":991},{""stimulus"":""img/1to2/11.png"",""time"":1091},{""stimulus"":""img/1to2/12.png"",""time"":1189}]","[]"
"image-keyboard-response","66","120716","0.0-5.0-1.31","63f791c69ca73d3460eeb2d9","bdp_cybrbll","Sun Mar 26 2023 07:57:12 GMT-0700 (Pacific Daylight Time)","506631","1","3","","599","","","","choice","","img/2to1/1.png","2","194","356","0.5","0.5","2","3","",""
"animation","67","122004","0.0-5.0-2.31","63f791c69ca73d3460eeb2d9","bdp_cybrbll","Sun Mar 26 2023 07:57:12 GMT-0700 (Pacific Daylight Time)","506631","1","3","","","","","","","","","","194","","","","2","3","[{""stimulus"":""img/2to3/1.png"",""time"":100},{""stimulus"":""img/2to3/2.png"",""time"":199},{""stimulus"":""img/2to3/3.png"",""time"":298},{""stimulus"":""img/2to3/4.png"",""time"":397},{""stimulus"":""img/2to3/5.png"",""time"":495},{""stimulus"":""img/2to3/6.png"",""time"":594},{""stimulus"":""img/2to3/7.png"",""time"":693},{""stimulus"":""img/2to3/8.png"",""time"":793},{""stimulus"":""img/2to3/9.png"",""time"":892},{""stimulus"":""img/2to3/10.png"",""time"":990},{""stimulus"":""img/2to3/11.png"",""time"":1090},{""stimulus"":""img/2to3/12.png"",""time"":1189}]","[]"
"image-keyboard-response","68","122256","0.0-5.0-1.32","63f791c69ca73d3460eeb2d9","bdp_cybrbll","Sun Mar 26 2023 07:57:12 GMT-0700 (Pacific Daylight Time)","506631","1","3","","null","","","","observe","","img/3to2/1.png","null","193","250","0.5","0.5","3","2","",""
"animation","69","123543","0.0-5.0-2.32","63f791c69ca73d3460eeb2d9","bdp_cybrbll","Sun Mar 26 2023 07:57:12 GMT-0700 (Pacific Daylight Time)","506631","1","3","","","","","","","","","","193","","","","3","2","[{""stimulus"":""img/3to2/1.png"",""time"":100},{""stimulus"":""img/3to2/2.png"",""time"":199},{""stimulus"":""img/3to2/3.png"",""time"":298},{""stimulus"":""img/3to2/4.png"",""time"":397},{""stimulus"":""img/3to2/5.png"",""time"":496},{""stimulus"":""img/3to2/6.png"",""time"":595},{""stimulus"":""img/3to2/7.png"",""time"":694},{""stimulus"":""img/3to2/8.png"",""time"":793},{""stimulus"":""img/3to2/9.png"",""time"":892},{""stimulus"":""img/3to2/10.png"",""time"":991},{""stimulus"":""img/3to2/11.png"",""time"":1090},{""stimulus"":""img/3to2/12.png"",""time"":1189}]","[]"
"image-keyboard-response","70","124195","0.0-5.0-1.33","63f791c69ca73d3460eeb2d9","bdp_cybrbll","Sun Mar 26 2023 07:57:12 GMT-0700 (Pacific Daylight Time)","506631","1","3","","651","","","","choice","","img/2to1/1.png","2","192","226","0.5","0.5","2","3","",""
"animation","71","125483","0.0-5.0-2.33","63f791c69ca73d3460eeb2d9","bdp_cybrbll","Sun Mar 26 2023 07:57:12 GMT-0700 (Pacific Daylight Time)","506631","1","3","","","","","","","","","","192","","","","2","3","[{""stimulus"":""img/2to3/1.png"",""time"":100},{""stimulus"":""img/2to3/2.png"",""time"":200},{""stimulus"":""img/2to3/3.png"",""time"":298},{""stimulus"":""img/2to3/4.png"",""time"":398},{""stimulus"":""img/2to3/5.png"",""time"":497},{""stimulus"":""img/2to3/6.png"",""time"":595},{""stimulus"":""img/2to3/7.png"",""time"":695},{""stimulus"":""img/2to3/8.png"",""time"":794},{""stimulus"":""img/2to3/9.png"",""time"":893},{""stimulus"":""img/2to3/10.png"",""time"":991},{""stimulus"":""img/2to3/11.png"",""time"":1091},{""stimulus"":""img/2to3/12.png"",""time"":1189}]","[]"
"image-keyboard-response","72","125901","0.0-5.0-1.34","63f791c69ca73d3460eeb2d9","bdp_cybrbll","Sun Mar 26 2023 07:57:12 GMT-0700 (Pacific Daylight Time)","506631","1","3","","null","","","","observe","","img/3to2/1.png","null","191","417","0.5","0.5","3","2","",""
"animation","73","127189","0.0-5.0-2.34","63f791c69ca73d3460eeb2d9","bdp_cybrbll","Sun Mar 26 2023 07:57:12 GMT-0700 (Pacific Daylight Time)","506631","1","3","","","","","","","","","","191","","","","3","2","[{""stimulus"":""img/3to2/1.png"",""time"":101},{""stimulus"":""img/3to2/2.png"",""time"":199},{""stimulus"":""img/3to2/3.png"",""time"":297},{""stimulus"":""img/3to2/4.png"",""time"":397},{""stimulus"":""img/3to2/5.png"",""time"":496},{""stimulus"":""img/3to2/6.png"",""time"":595},{""stimulus"":""img/3to2/7.png"",""time"":694},{""stimulus"":""img/3to2/8.png"",""time"":793},{""stimulus"":""img/3to2/9.png"",""time"":891},{""stimulus"":""img/3to2/10.png"",""time"":991},{""stimulus"":""img/3to2/11.png"",""time"":1090},{""stimulus"":""img/3to2/12.png"",""time"":1188}]","[]"
"image-keyboard-response","74","127426","0.0-5.0-1.35","63f791c69ca73d3460eeb2d9","bdp_cybrbll","Sun Mar 26 2023 07:57:12 GMT-0700 (Pacific Daylight Time)","506631","1","3","","236","","","","choice","","img/2to1/1.png","1","190","522","0.5","0.5","2","1","",""
"animation","75","128715","0.0-5.0-2.35","63f791c69ca73d3460eeb2d9","bdp_cybrbll","Sun Mar 26 2023 07:57:12 GMT-0700 (Pacific Daylight Time)","506631","1","3","","","","","","","","","","190","","","","2","1","[{""stimulus"":""img/2to1/1.png"",""time"":99},{""stimulus"":""img/2to1/2.png"",""time"":199},{""stimulus"":""img/2to1/3.png"",""time"":298},{""stimulus"":""img/2to1/4.png"",""time"":397},{""stimulus"":""img/2to1/5.png"",""time"":496},{""stimulus"":""img/2to1/6.png"",""time"":594},{""stimulus"":""img/2to1/7.png"",""time"":694},{""stimulus"":""img/2to1/8.png"",""time"":793},{""stimulus"":""img/2to1/9.png"",""time"":891},{""stimulus"":""img/2to1/10.png"",""time"":990},{""stimulus"":""img/2to1/11.png"",""time"":1089},{""stimulus"":""img/2to1/12.png"",""time"":1189}]","[]"
"image-keyboard-response","76","129495","0.0-5.0-1.36","63f791c69ca73d3460eeb2d9","bdp_cybrbll","Sun Mar 26 2023 07:57:12 GMT-0700 (Pacific Daylight Time)","506631","1","3","","null","","","","observe","","img/1to3/1.png","null","189","778","0.5","0.5","1","3","",""
"animation","77","130783","0.0-5.0-2.36","63f791c69ca73d3460eeb2d9","bdp_cybrbll","Sun Mar 26 2023 07:57:12 GMT-0700 (Pacific Daylight Time)","506631","1","3","","","","","","","","","","189","","","","1","3","[{""stimulus"":""img/1to3/1.png"",""time"":100},{""stimulus"":""img/1to3/2.png"",""time"":199},{""stimulus"":""img/1to3/3.png"",""time"":298},{""stimulus"":""img/1to3/4.png"",""time"":398},{""stimulus"":""img/1to3/5.png"",""time"":496},{""stimulus"":""img/1to3/6.png"",""time"":595},{""stimulus"":""img/1to3/7.png"",""time"":694},{""stimulus"":""img/1to3/8.png"",""time"":793},{""stimulus"":""img/1to3/9.png"",""time"":892},{""stimulus"":""img/1to3/10.png"",""time"":991},{""stimulus"":""img/1to3/11.png"",""time"":1093},{""stimulus"":""img/1to3/12.png"",""time"":1189}]","[]"
"image-keyboard-response","78","131478","0.0-5.0-1.37","63f791c69ca73d3460eeb2d9","bdp_cybrbll","Sun Mar 26 2023 07:57:12 GMT-0700 (Pacific Daylight Time)","506631","1","3","","null","","","","observe","","img/3to2/1.png","null","188","694","0.5","0.5","3","1","",""
"animation","79","132766","0.0-5.0-2.37","63f791c69ca73d3460eeb2d9","bdp_cybrbll","Sun Mar 26 2023 07:57:12 GMT-0700 (Pacific Daylight Time)","506631","1","3","","","","","","","","","","188","","","","3","1","[{""stimulus"":""img/3to1/1.png"",""time"":101},{""stimulus"":""img/3to1/2.png"",""time"":200},{""stimulus"":""img/3to1/3.png"",""time"":298},{""stimulus"":""img/3to1/4.png"",""time"":398},{""stimulus"":""img/3to1/5.png"",""time"":498},{""stimulus"":""img/3to1/6.png"",""time"":595},{""stimulus"":""img/3to1/7.png"",""time"":694},{""stimulus"":""img/3to1/8.png"",""time"":794},{""stimulus"":""img/3to1/9.png"",""time"":892},{""stimulus"":""img/3to1/10.png"",""time"":991},{""stimulus"":""img/3to1/11.png"",""time"":1091},{""stimulus"":""img/3to1/12.png"",""time"":1190}]","[]"
"image-keyboard-response","80","133122","0.0-5.0-1.38","63f791c69ca73d3460eeb2d9","bdp_cybrbll","Sun Mar 26 2023 07:57:12 GMT-0700 (Pacific Daylight Time)","506631","1","3","","null","","","","observe","","img/1to3/1.png","null","187","354","0.5","0.5","1","3","",""
"animation","81","134411","0.0-5.0-2.38","63f791c69ca73d3460eeb2d9","bdp_cybrbll","Sun Mar 26 2023 07:57:12 GMT-0700 (Pacific Daylight Time)","506631","1","3","","","","","","","","","","187","","","","1","3","[{""stimulus"":""img/1to3/1.png"",""time"":100},{""stimulus"":""img/1to3/2.png"",""time"":199},{""stimulus"":""img/1to3/3.png"",""time"":297},{""stimulus"":""img/1to3/4.png"",""time"":396},{""stimulus"":""img/1to3/5.png"",""time"":496},{""stimulus"":""img/1to3/6.png"",""time"":595},{""stimulus"":""img/1to3/7.png"",""time"":693},{""stimulus"":""img/1to3/8.png"",""time"":793},{""stimulus"":""img/1to3/9.png"",""time"":891},{""stimulus"":""img/1to3/10.png"",""time"":990},{""stimulus"":""img/1to3/11.png"",""time"":1090},{""stimulus"":""img/1to3/12.png"",""time"":1189}]","[]"
"image-keyboard-response","82","134988","0.0-5.0-1.39","63f791c69ca73d3460eeb2d9","bdp_cybrbll","Sun Mar 26 2023 07:57:12 GMT-0700 (Pacific Daylight Time)","506631","1","3","","null","","","","observe","","img/3to2/1.png","null","186","576","0.5","0.5","3","2","",""
"animation","83","136276","0.0-5.0-2.39","63f791c69ca73d3460eeb2d9","bdp_cybrbll","Sun Mar 26 2023 07:57:12 GMT-0700 (Pacific Daylight Time)","506631","1","3","","","","","","","","","","186","","","","3","2","[{""stimulus"":""img/3to2/1.png"",""time"":100},{""stimulus"":""img/3to2/2.png"",""time"":199},{""stimulus"":""img/3to2/3.png"",""time"":298},{""stimulus"":""img/3to2/4.png"",""time"":397},{""stimulus"":""img/3to2/5.png"",""time"":497},{""stimulus"":""img/3to2/6.png"",""time"":604},{""stimulus"":""img/3to2/7.png"",""time"":695},{""stimulus"":""img/3to2/8.png"",""time"":793},{""stimulus"":""img/3to2/9.png"",""time"":892},{""stimulus"":""img/3to2/10.png"",""time"":992},{""stimulus"":""img/3to2/11.png"",""time"":1090},{""stimulus"":""img/3to2/12.png"",""time"":1189}]","[]"
"image-keyboard-response","84","138812","0.0-5.0-1.40","63f791c69ca73d3460eeb2d9","bdp_cybrbll","Sun Mar 26 2023 07:57:12 GMT-0700 (Pacific Daylight Time)","506631","1","3","","2535","","","","choice","","img/2to1/1.png","2","185","444","0.5","0.5","2","3","",""
"animation","85","140101","0.0-5.0-2.40","63f791c69ca73d3460eeb2d9","bdp_cybrbll","Sun Mar 26 2023 07:57:12 GMT-0700 (Pacific Daylight Time)","506631","1","3","","","","","","","","","","185","","","","2","3","[{""stimulus"":""img/2to3/1.png"",""time"":100},{""stimulus"":""img/2to3/2.png"",""time"":200},{""stimulus"":""img/2to3/3.png"",""time"":298},{""stimulus"":""img/2to3/4.png"",""time"":397},{""stimulus"":""img/2to3/5.png"",""time"":496},{""stimulus"":""img/2to3/6.png"",""time"":595},{""stimulus"":""img/2to3/7.png"",""time"":694},{""stimulus"":""img/2to3/8.png"",""time"":793},{""stimulus"":""img/2to3/9.png"",""time"":892},{""stimulus"":""img/2to3/10.png"",""time"":991},{""stimulus"":""img/2to3/11.png"",""time"":1091},{""stimulus"":""img/2to3/12.png"",""time"":1189}]","[]"
"image-keyboard-response","86","141352","0.0-5.0-1.41","63f791c69ca73d3460eeb2d9","bdp_cybrbll","Sun Mar 26 2023 07:57:12 GMT-0700 (Pacific Daylight Time)","506631","1","3","","null","","","","observe","","img/3to2/1.png","null","184","1249","0.5","0.5","3","1","",""
"animation","87","142640","0.0-5.0-2.41","63f791c69ca73d3460eeb2d9","bdp_cybrbll","Sun Mar 26 2023 07:57:12 GMT-0700 (Pacific Daylight Time)","506631","1","3","","","","","","","","","","184","","","","3","1","[{""stimulus"":""img/3to1/1.png"",""time"":100},{""stimulus"":""img/3to1/2.png"",""time"":199},{""stimulus"":""img/3to1/3.png"",""time"":297},{""stimulus"":""img/3to1/4.png"",""time"":396},{""stimulus"":""img/3to1/5.png"",""time"":496},{""stimulus"":""img/3to1/6.png"",""time"":595},{""stimulus"":""img/3to1/7.png"",""time"":693},{""stimulus"":""img/3to1/8.png"",""time"":794},{""stimulus"":""img/3to1/9.png"",""time"":891},{""stimulus"":""img/3to1/10.png"",""time"":991},{""stimulus"":""img/3to1/11.png"",""time"":1090},{""stimulus"":""img/3to1/12.png"",""time"":1188}]","[]"
"image-keyboard-response","88","143132","0.0-5.0-1.42","63f791c69ca73d3460eeb2d9","bdp_cybrbll","Sun Mar 26 2023 07:57:12 GMT-0700 (Pacific Daylight Time)","506631","1","3","","null","","","","observe","","img/1to3/1.png","null","183","489","0.5","0.5","1","3","",""
"animation","89","144420","0.0-5.0-2.42","63f791c69ca73d3460eeb2d9","bdp_cybrbll","Sun Mar 26 2023 07:57:12 GMT-0700 (Pacific Daylight Time)","506631","1","3","","","","","","","","","","183","","","","1","3","[{""stimulus"":""img/1to3/1.png"",""time"":101},{""stimulus"":""img/1to3/2.png"",""time"":199},{""stimulus"":""img/1to3/3.png"",""time"":298},{""stimulus"":""img/1to3/4.png"",""time"":397},{""stimulus"":""img/1to3/5.png"",""time"":497},{""stimulus"":""img/1to3/6.png"",""time"":596},{""stimulus"":""img/1to3/7.png"",""time"":694},{""stimulus"":""img/1to3/8.png"",""time"":793},{""stimulus"":""img/1to3/9.png"",""time"":893},{""stimulus"":""img/1to3/10.png"",""time"":991},{""stimulus"":""img/1to3/11.png"",""time"":1091},{""stimulus"":""img/1to3/12.png"",""time"":1189}]","[]"
"image-keyboard-response","90","145221","0.0-5.0-1.43","63f791c69ca73d3460eeb2d9","bdp_cybrbll","Sun Mar 26 2023 07:57:12 GMT-0700 (Pacific Daylight Time)","506631","1","3","","null","","","","observe","","img/3to2/1.png","null","182","800","0.5","0.5","3","1","",""
"animation","91","146509","0.0-5.0-2.43","63f791c69ca73d3460eeb2d9","bdp_cybrbll","Sun Mar 26 2023 07:57:12 GMT-0700 (Pacific Daylight Time)","506631","1","3","","","","","","","","","","182","","","","3","1","[{""stimulus"":""img/3to1/1.png"",""time"":100},{""stimulus"":""img/3to1/2.png"",""time"":199},{""stimulus"":""img/3to1/3.png"",""time"":298},{""stimulus"":""img/3to1/4.png"",""time"":397},{""stimulus"":""img/3to1/5.png"",""time"":496},{""stimulus"":""img/3to1/6.png"",""time"":594},{""stimulus"":""img/3to1/7.png"",""time"":694},{""stimulus"":""img/3to1/8.png"",""time"":792},{""stimulus"":""img/3to1/9.png"",""time"":892},{""stimulus"":""img/3to1/10.png"",""time"":991},{""stimulus"":""img/3to1/11.png"",""time"":1090},{""stimulus"":""img/3to1/12.png"",""time"":1189}]","[]"
"image-keyboard-response","92","147347","0.0-5.0-1.44","63f791c69ca73d3460eeb2d9","bdp_cybrbll","Sun Mar 26 2023 07:57:12 GMT-0700 (Pacific Daylight Time)","506631","1","3","","null","","","","observe","","img/1to3/1.png","null","181","836","0.5","0.5","1","2","",""
"animation","93","148636","0.0-5.0-2.44","63f791c69ca73d3460eeb2d9","bdp_cybrbll","Sun Mar 26 2023 07:57:12 GMT-0700 (Pacific Daylight Time)","506631","1","3","","","","","","","","","","181","","","","1","2","[{""stimulus"":""img/1to2/1.png"",""time"":101},{""stimulus"":""img/1to2/2.png"",""time"":199},{""stimulus"":""img/1to2/3.png"",""time"":298},{""stimulus"":""img/1to2/4.png"",""time"":398},{""stimulus"":""img/1to2/5.png"",""time"":496},{""stimulus"":""img/1to2/6.png"",""time"":596},{""stimulus"":""img/1to2/7.png"",""time"":695},{""stimulus"":""img/1to2/8.png"",""time"":794},{""stimulus"":""img/1to2/9.png"",""time"":893},{""stimulus"":""img/1to2/10.png"",""time"":992},{""stimulus"":""img/1to2/11.png"",""time"":1090},{""stimulus"":""img/1to2/12.png"",""time"":1189}]","[]"
"image-keyboard-response","94","152367","0.0-5.0-1.45","63f791c69ca73d3460eeb2d9","bdp_cybrbll","Sun Mar 26 2023 07:57:12 GMT-0700 (Pacific Daylight Time)","506631","1","3","","3730","","","","choice","","img/2to1/1.png","2","180","425","0.5","0.5","2","3","",""
"animation","95","153655","0.0-5.0-2.45","63f791c69ca73d3460eeb2d9","bdp_cybrbll","Sun Mar 26 2023 07:57:12 GMT-0700 (Pacific Daylight Time)","506631","1","3","","","","","","","","","","180","","","","2","3","[{""stimulus"":""img/2to3/1.png"",""time"":99},{""stimulus"":""img/2to3/2.png"",""time"":198},{""stimulus"":""img/2to3/3.png"",""time"":312},{""stimulus"":""img/2to3/4.png"",""time"":396},{""stimulus"":""img/2to3/5.png"",""time"":495},{""stimulus"":""img/2to3/6.png"",""time"":595},{""stimulus"":""img/2to3/7.png"",""time"":693},{""stimulus"":""img/2to3/8.png"",""time"":792},{""stimulus"":""img/2to3/9.png"",""time"":891},{""stimulus"":""img/2to3/10.png"",""time"":990},{""stimulus"":""img/2to3/11.png"",""time"":1090},{""stimulus"":""img/2to3/12.png"",""time"":1189}]","[]"
"image-keyboard-response","96","155129","0.0-5.0-1.46","63f791c69ca73d3460eeb2d9","bdp_cybrbll","Sun Mar 26 2023 07:57:12 GMT-0700 (Pacific Daylight Time)","506631","1","3","","null","","","","observe","","img/3to2/1.png","null","179","1472","0.5","0.5","3","2","",""
"animation","97","156417","0.0-5.0-2.46","63f791c69ca73d3460eeb2d9","bdp_cybrbll","Sun Mar 26 2023 07:57:12 GMT-0700 (Pacific Daylight Time)","506631","1","3","","","","","","","","","","179","","","","3","2","[{""stimulus"":""img/3to2/1.png"",""time"":101},{""stimulus"":""img/3to2/2.png"",""time"":199},{""stimulus"":""img/3to2/3.png"",""time"":299},{""stimulus"":""img/3to2/4.png"",""time"":398},{""stimulus"":""img/3to2/5.png"",""time"":496},{""stimulus"":""img/3to2/6.png"",""time"":595},{""stimulus"":""img/3to2/7.png"",""time"":694},{""stimulus"":""img/3to2/8.png"",""time"":793},{""stimulus"":""img/3to2/9.png"",""time"":892},{""stimulus"":""img/3to2/10.png"",""time"":991},{""stimulus"":""img/3to2/11.png"",""time"":1091},{""stimulus"":""img/3to2/12.png"",""time"":1190}]","[]"
"image-keyboard-response","98","157591","0.0-5.0-1.47","63f791c69ca73d3460eeb2d9","bdp_cybrbll","Sun Mar 26 2023 07:57:12 GMT-0700 (Pacific Daylight Time)","506631","1","3","","1173","","","","choice","","img/2to1/1.png","1","178","693","0.5","0.5","2","1","",""
"animation","99","158879","0.0-5.0-2.47","63f791c69ca73d3460eeb2d9","bdp_cybrbll","Sun Mar 26 2023 07:57:12 GMT-0700 (Pacific Daylight Time)","506631","1","3","","","","","","","","","","178","","","","2","1","[{""stimulus"":""img/2to1/1.png"",""time"":100},{""stimulus"":""img/2to1/2.png"",""time"":199},{""stimulus"":""img/2to1/3.png"",""time"":297},{""stimulus"":""img/2to1/4.png"",""time"":396},{""stimulus"":""img/2to1/5.png"",""time"":496},{""stimulus"":""img/2to1/6.png"",""time"":595},{""stimulus"":""img/2to1/7.png"",""time"":694},{""stimulus"":""img/2to1/8.png"",""time"":792},{""stimulus"":""img/2to1/9.png"",""time"":891},{""stimulus"":""img/2to1/10.png"",""time"":992},{""stimulus"":""img/2to1/11.png"",""time"":1090},{""stimulus"":""img/2to1/12.png"",""time"":1188}]","[]"
"image-keyboard-response","100","159624","0.0-5.0-1.48","63f791c69ca73d3460eeb2d9","bdp_cybrbll","Sun Mar 26 2023 07:57:12 GMT-0700 (Pacific Daylight Time)","506631","1","3","","null","","","","observe","","img/1to3/1.png","null","177","744","0.5","0.5","1","2","",""
"animation","101","160913","0.0-5.0-2.48","63f791c69ca73d3460eeb2d9","bdp_cybrbll","Sun Mar 26 2023 07:57:12 GMT-0700 (Pacific Daylight Time)","506631","1","3","","","","","","","","","","177","","","","1","2","[{""stimulus"":""img/1to2/1.png"",""time"":100},{""stimulus"":""img/1to2/2.png"",""time"":198},{""stimulus"":""img/1to2/3.png"",""time"":298},{""stimulus"":""img/1to2/4.png"",""time"":396},{""stimulus"":""img/1to2/5.png"",""time"":495},{""stimulus"":""img/1to2/6.png"",""time"":595},{""stimulus"":""img/1to2/7.png"",""time"":694},{""stimulus"":""img/1to2/8.png"",""time"":793},{""stimulus"":""img/1to2/9.png"",""time"":891},{""stimulus"":""img/1to2/10.png"",""time"":991},{""stimulus"":""img/1to2/11.png"",""time"":1090},{""stimulus"":""img/1to2/12.png"",""time"":1188}]","[]"
"image-keyboard-response","102","161367","0.0-5.0-1.49","63f791c69ca73d3460eeb2d9","bdp_cybrbll","Sun Mar 26 2023 07:57:12 GMT-0700 (Pacific Daylight Time)","506631","1","3","","453","","","","choice","","img/2to1/1.png","1","176","472","0.5","0.5","2","1","",""
"animation","103","162656","0.0-5.0-2.49","63f791c69ca73d3460eeb2d9","bdp_cybrbll","Sun Mar 26 2023 07:57:12 GMT-0700 (Pacific Daylight Time)","506631","1","3","","","","","","","","","","176","","","","2","1","[{""stimulus"":""img/2to1/1.png"",""time"":99},{""stimulus"":""img/2to1/2.png"",""time"":198},{""stimulus"":""img/2to1/3.png"",""time"":297},{""stimulus"":""img/2to1/4.png"",""time"":397},{""stimulus"":""img/2to1/5.png"",""time"":496},{""stimulus"":""img/2to1/6.png"",""time"":595},{""stimulus"":""img/2to1/7.png"",""time"":693},{""stimulus"":""img/2to1/8.png"",""time"":793},{""stimulus"":""img/2to1/9.png"",""time"":891},{""stimulus"":""img/2to1/10.png"",""time"":991},{""stimulus"":""img/2to1/11.png"",""time"":1090},{""stimulus"":""img/2to1/12.png"",""time"":1189}]","[]"
"image-keyboard-response","104","163024","0.0-5.0-1.50","63f791c69ca73d3460eeb2d9","bdp_cybrbll","Sun Mar 26 2023 07:57:12 GMT-0700 (Pacific Daylight Time)","506631","1","3","","null","","","","observe","","img/1to3/1.png","null","175","367","0.5","0.5","1","2","",""
"animation","105","164312","0.0-5.0-2.50","63f791c69ca73d3460eeb2d9","bdp_cybrbll","Sun Mar 26 2023 07:57:12 GMT-0700 (Pacific Daylight Time)","506631","1","3","","","","","","","","","","175","","","","1","2","[{""stimulus"":""img/1to2/1.png"",""time"":101},{""stimulus"":""img/1to2/2.png"",""time"":200},{""stimulus"":""img/1to2/3.png"",""time"":298},{""stimulus"":""img/1to2/4.png"",""time"":397},{""stimulus"":""img/1to2/5.png"",""time"":496},{""stimulus"":""img/1to2/6.png"",""time"":595},{""stimulus"":""img/1to2/7.png"",""time"":695},{""stimulus"":""img/1to2/8.png"",""time"":794},{""stimulus"":""img/1to2/9.png"",""time"":892},{""stimulus"":""img/1to2/10.png"",""time"":991},{""stimulus"":""img/1to2/11.png"",""time"":1090},{""stimulus"":""img/1to2/12.png"",""time"":1189}]","[]"
"image-keyboard-response","106","165621","0.0-5.0-1.51","63f791c69ca73d3460eeb2d9","bdp_cybrbll","Sun Mar 26 2023 07:57:12 GMT-0700 (Pacific Daylight Time)","506631","1","3","","1308","","","","choice","","img/2to1/1.png","2","174","514","0.5","0.5","2","3","",""
"animation","107","166909","0.0-5.0-2.51","63f791c69ca73d3460eeb2d9","bdp_cybrbll","Sun Mar 26 2023 07:57:12 GMT-0700 (Pacific Daylight Time)","506631","1","3","","","","","","","","","","174","","","","2","3","[{""stimulus"":""img/2to3/1.png"",""time"":101},{""stimulus"":""img/2to3/2.png"",""time"":199},{""stimulus"":""img/2to3/3.png"",""time"":298},{""stimulus"":""img/2to3/4.png"",""time"":397},{""stimulus"":""img/2to3/5.png"",""time"":496},{""stimulus"":""img/2to3/6.png"",""time"":596},{""stimulus"":""img/2to3/7.png"",""time"":695},{""stimulus"":""img/2to3/8.png"",""time"":794},{""stimulus"":""img/2to3/9.png"",""time"":892},{""stimulus"":""img/2to3/10.png"",""time"":992},{""stimulus"":""img/2to3/11.png"",""time"":1091},{""stimulus"":""img/2to3/12.png"",""time"":1190}]","[]"
"image-keyboard-response","108","167427","0.0-5.0-1.52","63f791c69ca73d3460eeb2d9","bdp_cybrbll","Sun Mar 26 2023 07:57:12 GMT-0700 (Pacific Daylight Time)","506631","1","3","","null","","","","observe","","img/3to2/1.png","null","173","517","0.5","0.5","3","1","",""
"animation","109","168715","0.0-5.0-2.52","63f791c69ca73d3460eeb2d9","bdp_cybrbll","Sun Mar 26 2023 07:57:12 GMT-0700 (Pacific Daylight Time)","506631","1","3","","","","","","","","","","173","","","","3","1","[{""stimulus"":""img/3to1/1.png"",""time"":101},{""stimulus"":""img/3to1/2.png"",""time"":199},{""stimulus"":""img/3to1/3.png"",""time"":298},{""stimulus"":""img/3to1/4.png"",""time"":398},{""stimulus"":""img/3to1/5.png"",""time"":497},{""stimulus"":""img/3to1/6.png"",""time"":595},{""stimulus"":""img/3to1/7.png"",""time"":694},{""stimulus"":""img/3to1/8.png"",""time"":793},{""stimulus"":""img/3to1/9.png"",""time"":893},{""stimulus"":""img/3to1/10.png"",""time"":991},{""stimulus"":""img/3to1/11.png"",""time"":1091},{""stimulus"":""img/3to1/12.png"",""time"":1190}]","[]"
"image-keyboard-response","110","169216","0.0-5.0-1.53","63f791c69ca73d3460eeb2d9","bdp_cybrbll","Sun Mar 26 2023 07:57:12 GMT-0700 (Pacific Daylight Time)","506631","1","3","","null","","","","observe","","img/1to3/1.png","null","172","500","0.5","0.5","1","3","",""
"animation","111","170504","0.0-5.0-2.53","63f791c69ca73d3460eeb2d9","bdp_cybrbll","Sun Mar 26 2023 07:57:12 GMT-0700 (Pacific Daylight Time)","506631","1","3","","","","","","","","","","172","","","","1","3","[{""stimulus"":""img/1to3/1.png"",""time"":100},{""stimulus"":""img/1to3/2.png"",""time"":199},{""stimulus"":""img/1to3/3.png"",""time"":297},{""stimulus"":""img/1to3/4.png"",""time"":397},{""stimulus"":""img/1to3/5.png"",""time"":496},{""stimulus"":""img/1to3/6.png"",""time"":594},{""stimulus"":""img/1to3/7.png"",""time"":693},{""stimulus"":""img/1to3/8.png"",""time"":793},{""stimulus"":""img/1to3/9.png"",""time"":891},{""stimulus"":""img/1to3/10.png"",""time"":991},{""stimulus"":""img/1to3/11.png"",""time"":1090},{""stimulus"":""img/1to3/12.png"",""time"":1189}]","[]"
"image-keyboard-response","112","171222","0.0-5.0-1.54","63f791c69ca73d3460eeb2d9","bdp_cybrbll","Sun Mar 26 2023 07:57:12 GMT-0700 (Pacific Daylight Time)","506631","1","3","","null","","","","observe","","img/3to2/1.png","null","171","716","0.5","0.5","3","2","",""
"animation","113","172510","0.0-5.0-2.54","63f791c69ca73d3460eeb2d9","bdp_cybrbll","Sun Mar 26 2023 07:57:12 GMT-0700 (Pacific Daylight Time)","506631","1","3","","","","","","","","","","171","","","","3","2","[{""stimulus"":""img/3to2/1.png"",""time"":100},{""stimulus"":""img/3to2/2.png"",""time"":200},{""stimulus"":""img/3to2/3.png"",""time"":298},{""stimulus"":""img/3to2/4.png"",""time"":397},{""stimulus"":""img/3to2/5.png"",""time"":496},{""stimulus"":""img/3to2/6.png"",""time"":595},{""stimulus"":""img/3to2/7.png"",""time"":694},{""stimulus"":""img/3to2/8.png"",""time"":793},{""stimulus"":""img/3to2/9.png"",""time"":892},{""stimulus"":""img/3to2/10.png"",""time"":991},{""stimulus"":""img/3to2/11.png"",""time"":1090},{""stimulus"":""img/3to2/12.png"",""time"":1189}]","[]"
"image-keyboard-response","114","174119","0.0-5.0-1.55","63f791c69ca73d3460eeb2d9","bdp_cybrbll","Sun Mar 26 2023 07:57:12 GMT-0700 (Pacific Daylight Time)","506631","1","3","","1608","","","","choice","","img/2to1/1.png","1","170","310","0.5","0.5","2","1","",""
"animation","115","175408","0.0-5.0-2.55","63f791c69ca73d3460eeb2d9","bdp_cybrbll","Sun Mar 26 2023 07:57:12 GMT-0700 (Pacific Daylight Time)","506631","1","3","","","","","","","","","","170","","","","2","1","[{""stimulus"":""img/2to1/1.png"",""time"":100},{""stimulus"":""img/2to1/2.png"",""time"":198},{""stimulus"":""img/2to1/3.png"",""time"":298},{""stimulus"":""img/2to1/4.png"",""time"":396},{""stimulus"":""img/2to1/5.png"",""time"":496},{""stimulus"":""img/2to1/6.png"",""time"":594},{""stimulus"":""img/2to1/7.png"",""time"":694},{""stimulus"":""img/2to1/8.png"",""time"":793},{""stimulus"":""img/2to1/9.png"",""time"":892},{""stimulus"":""img/2to1/10.png"",""time"":990},{""stimulus"":""img/2to1/11.png"",""time"":1089},{""stimulus"":""img/2to1/12.png"",""time"":1189}]","[]"
"image-keyboard-response","116","176799","0.0-5.0-1.56","63f791c69ca73d3460eeb2d9","bdp_cybrbll","Sun Mar 26 2023 07:57:12 GMT-0700 (Pacific Daylight Time)","506631","1","3","","null","","","","observe","","img/1to3/1.png","null","169","1390","0.5","0.5","1","2","",""
"animation","117","178087","0.0-5.0-2.56","63f791c69ca73d3460eeb2d9","bdp_cybrbll","Sun Mar 26 2023 07:57:12 GMT-0700 (Pacific Daylight Time)","506631","1","3","","","","","","","","","","169","","","","1","2","[{""stimulus"":""img/1to2/1.png"",""time"":101},{""stimulus"":""img/1to2/2.png"",""time"":200},{""stimulus"":""img/1to2/3.png"",""time"":299},{""stimulus"":""img/1to2/4.png"",""time"":397},{""stimulus"":""img/1to2/5.png"",""time"":496},{""stimulus"":""img/1to2/6.png"",""time"":595},{""stimulus"":""img/1to2/7.png"",""time"":695},{""stimulus"":""img/1to2/8.png"",""time"":794},{""stimulus"":""img/1to2/9.png"",""time"":892},{""stimulus"":""img/1to2/10.png"",""time"":992},{""stimulus"":""img/1to2/11.png"",""time"":1090},{""stimulus"":""img/1to2/12.png"",""time"":1190}]","[]"
"image-keyboard-response","118","179801","0.0-5.0-1.57","63f791c69ca73d3460eeb2d9","bdp_cybrbll","Sun Mar 26 2023 07:57:12 GMT-0700 (Pacific Daylight Time)","506631","1","3","","1713","","","","choice","","img/2to1/1.png","2","168","163","0.5","0.5","2","3","",""
"animation","119","181089","0.0-5.0-2.57","63f791c69ca73d3460eeb2d9","bdp_cybrbll","Sun Mar 26 2023 07:57:12 GMT-0700 (Pacific Daylight Time)","506631","1","3","","","","","","","","","","168","","","","2","3","[{""stimulus"":""img/2to3/1.png"",""time"":101},{""stimulus"":""img/2to3/2.png"",""time"":198},{""stimulus"":""img/2to3/3.png"",""time"":301},{""stimulus"":""img/2to3/4.png"",""time"":397},{""stimulus"":""img/2to3/5.png"",""time"":496},{""stimulus"":""img/2to3/6.png"",""time"":595},{""stimulus"":""img/2to3/7.png"",""time"":694},{""stimulus"":""img/2to3/8.png"",""time"":793},{""stimulus"":""img/2to3/9.png"",""time"":891},{""stimulus"":""img/2to3/10.png"",""time"":991},{""stimulus"":""img/2to3/11.png"",""time"":1090},{""stimulus"":""img/2to3/12.png"",""time"":1189}]","[]"
"image-keyboard-response","120","181499","0.0-5.0-1.58","63f791c69ca73d3460eeb2d9","bdp_cybrbll","Sun Mar 26 2023 07:57:12 GMT-0700 (Pacific Daylight Time)","506631","1","3","","null","","","","observe","","img/3to2/1.png","null","167","408","0.5","0.5","3","2","",""
"animation","121","182787","0.0-5.0-2.58","63f791c69ca73d3460eeb2d9","bdp_cybrbll","Sun Mar 26 2023 07:57:12 GMT-0700 (Pacific Daylight Time)","506631","1","3","","","","","","","","","","167","","","","3","2","[{""stimulus"":""img/3to2/1.png"",""time"":100},{""stimulus"":""img/3to2/2.png"",""time"":199},{""stimulus"":""img/3to2/3.png"",""time"":298},{""stimulus"":""img/3to2/4.png"",""time"":397},{""stimulus"":""img/3to2/5.png"",""time"":496},{""stimulus"":""img/3to2/6.png"",""time"":596},{""stimulus"":""img/3to2/7.png"",""time"":694},{""stimulus"":""img/3to2/8.png"",""time"":793},{""stimulus"":""img/3to2/9.png"",""time"":892},{""stimulus"":""img/3to2/10.png"",""time"":990},{""stimulus"":""img/3to2/11.png"",""time"":1090},{""stimulus"":""img/3to2/12.png"",""time"":1189}]","[]"
"image-keyboard-response","122","183444","0.0-5.0-1.59","63f791c69ca73d3460eeb2d9","bdp_cybrbll","Sun Mar 26 2023 07:57:12 GMT-0700 (Pacific Daylight Time)","506631","1","3","","656","","","","choice","","img/2to1/1.png","1","166","247","0.5","0.5","2","1","",""
"animation","123","184733","0.0-5.0-2.59","63f791c69ca73d3460eeb2d9","bdp_cybrbll","Sun Mar 26 2023 07:57:12 GMT-0700 (Pacific Daylight Time)","506631","1","3","","","","","","","","","","166","","","","2","1","[{""stimulus"":""img/2to1/1.png"",""time"":101},{""stimulus"":""img/2to1/2.png"",""time"":199},{""stimulus"":""img/2to1/3.png"",""time"":298},{""stimulus"":""img/2to1/4.png"",""time"":397},{""stimulus"":""img/2to1/5.png"",""time"":497},{""stimulus"":""img/2to1/6.png"",""time"":595},{""stimulus"":""img/2to1/7.png"",""time"":694},{""stimulus"":""img/2to1/8.png"",""time"":793},{""stimulus"":""img/2to1/9.png"",""time"":892},{""stimulus"":""img/2to1/10.png"",""time"":992},{""stimulus"":""img/2to1/11.png"",""time"":1090},{""stimulus"":""img/2to1/12.png"",""time"":1189}]","[]"
"image-keyboard-response","124","185167","0.0-5.0-1.60","63f791c69ca73d3460eeb2d9","bdp_cybrbll","Sun Mar 26 2023 07:57:12 GMT-0700 (Pacific Daylight Time)","506631","1","3","","null","","","","observe","","img/1to3/1.png","null","165","432","0.5","0.5","1","3","",""
"animation","125","186455","0.0-5.0-2.60","63f791c69ca73d3460eeb2d9","bdp_cybrbll","Sun Mar 26 2023 07:57:12 GMT-0700 (Pacific Daylight Time)","506631","1","3","","","","","","","","","","165","","","","1","3","[{""stimulus"":""img/1to3/1.png"",""time"":100},{""stimulus"":""img/1to3/2.png"",""time"":199},{""stimulus"":""img/1to3/3.png"",""time"":298},{""stimulus"":""img/1to3/4.png"",""time"":397},{""stimulus"":""img/1to3/5.png"",""time"":496},{""stimulus"":""img/1to3/6.png"",""time"":595},{""stimulus"":""img/1to3/7.png"",""time"":694},{""stimulus"":""img/1to3/8.png"",""time"":793},{""stimulus"":""img/1to3/9.png"",""time"":892},{""stimulus"":""img/1to3/10.png"",""time"":991},{""stimulus"":""img/1to3/11.png"",""time"":1090},{""stimulus"":""img/1to3/12.png"",""time"":1189}]","[]"
"image-keyboard-response","126","187165","0.0-5.0-1.61","63f791c69ca73d3460eeb2d9","bdp_cybrbll","Sun Mar 26 2023 07:57:12 GMT-0700 (Pacific Daylight Time)","506631","1","3","","null","","","","observe","","img/3to2/1.png","null","164","708","0.5","0.5","3","1","",""
"animation","127","188453","0.0-5.0-2.61","63f791c69ca73d3460eeb2d9","bdp_cybrbll","Sun Mar 26 2023 07:57:12 GMT-0700 (Pacific Daylight Time)","506631","1","3","","","","","","","","","","164","","","","3","1","[{""stimulus"":""img/3to1/1.png"",""time"":100},{""stimulus"":""img/3to1/2.png"",""time"":199},{""stimulus"":""img/3to1/3.png"",""time"":298},{""stimulus"":""img/3to1/4.png"",""time"":397},{""stimulus"":""img/3to1/5.png"",""time"":496},{""stimulus"":""img/3to1/6.png"",""time"":594},{""stimulus"":""img/3to1/7.png"",""time"":694},{""stimulus"":""img/3to1/8.png"",""time"":793},{""stimulus"":""img/3to1/9.png"",""time"":892},{""stimulus"":""img/3to1/10.png"",""time"":991},{""stimulus"":""img/3to1/11.png"",""time"":1090},{""stimulus"":""img/3to1/12.png"",""time"":1190}]","[]"
"image-keyboard-response","128","188760","0.0-5.0-1.62","63f791c69ca73d3460eeb2d9","bdp_cybrbll","Sun Mar 26 2023 07:57:12 GMT-0700 (Pacific Daylight Time)","506631","1","3","","null","","","","observe","","img/1to3/1.png","null","163","306","0.5","0.5","1","2","",""
"animation","129","190049","0.0-5.0-2.62","63f791c69ca73d3460eeb2d9","bdp_cybrbll","Sun Mar 26 2023 07:57:12 GMT-0700 (Pacific Daylight Time)","506631","1","3","","","","","","","","","","163","","","","1","2","[{""stimulus"":""img/1to2/1.png"",""time"":100},{""stimulus"":""img/1to2/2.png"",""time"":199},{""stimulus"":""img/1to2/3.png"",""time"":298},{""stimulus"":""img/1to2/4.png"",""time"":397},{""stimulus"":""img/1to2/5.png"",""time"":495},{""stimulus"":""img/1to2/6.png"",""time"":595},{""stimulus"":""img/1to2/7.png"",""time"":694},{""stimulus"":""img/1to2/8.png"",""time"":793},{""stimulus"":""img/1to2/9.png"",""time"":892},{""stimulus"":""img/1to2/10.png"",""time"":991},{""stimulus"":""img/1to2/11.png"",""time"":1089},{""stimulus"":""img/1to2/12.png"",""time"":1189}]","[]"
"image-keyboard-response","130","190586","0.0-5.0-1.63","63f791c69ca73d3460eeb2d9","bdp_cybrbll","Sun Mar 26 2023 07:57:12 GMT-0700 (Pacific Daylight Time)","506631","1","3","","537","","","","choice","","img/2to1/1.png","2","162","987","0.5","0.5","2","3","",""
"animation","131","191875","0.0-5.0-2.63","63f791c69ca73d3460eeb2d9","bdp_cybrbll","Sun Mar 26 2023 07:57:12 GMT-0700 (Pacific Daylight Time)","506631","1","3","","","","","","","","","","162","","","","2","3","[{""stimulus"":""img/2to3/1.png"",""time"":100},{""stimulus"":""img/2to3/2.png"",""time"":198},{""stimulus"":""img/2to3/3.png"",""time"":298},{""stimulus"":""img/2to3/4.png"",""time"":397},{""stimulus"":""img/2to3/5.png"",""time"":496},{""stimulus"":""img/2to3/6.png"",""time"":596},{""stimulus"":""img/2to3/7.png"",""time"":694},{""stimulus"":""img/2to3/8.png"",""time"":793},{""stimulus"":""img/2to3/9.png"",""time"":892},{""stimulus"":""img/2to3/10.png"",""time"":991},{""stimulus"":""img/2to3/11.png"",""time"":1090},{""stimulus"":""img/2to3/12.png"",""time"":1189}]","[]"
"image-keyboard-response","132","192250","0.0-5.0-1.64","63f791c69ca73d3460eeb2d9","bdp_cybrbll","Sun Mar 26 2023 07:57:12 GMT-0700 (Pacific Daylight Time)","506631","1","3","","null","","","","observe","","img/3to2/1.png","null","161","373","0.5","0.5","3","2","",""
"animation","133","193539","0.0-5.0-2.64","63f791c69ca73d3460eeb2d9","bdp_cybrbll","Sun Mar 26 2023 07:57:12 GMT-0700 (Pacific Daylight Time)","506631","1","3","","","","","","","","","","161","","","","3","2","[{""stimulus"":""img/3to2/1.png"",""time"":100},{""stimulus"":""img/3to2/2.png"",""time"":199},{""stimulus"":""img/3to2/3.png"",""time"":298},{""stimulus"":""img/3to2/4.png"",""time"":396},{""stimulus"":""img/3to2/5.png"",""time"":495},{""stimulus"":""img/3to2/6.png"",""time"":595},{""stimulus"":""img/3to2/7.png"",""time"":694},{""stimulus"":""img/3to2/8.png"",""time"":792},{""stimulus"":""img/3to2/9.png"",""time"":892},{""stimulus"":""img/3to2/10.png"",""time"":991},{""stimulus"":""img/3to2/11.png"",""time"":1089},{""stimulus"":""img/3to2/12.png"",""time"":1189}]","[]"
"image-keyboard-response","134","195362","0.0-5.0-1.65","63f791c69ca73d3460eeb2d9","bdp_cybrbll","Sun Mar 26 2023 07:57:12 GMT-0700 (Pacific Daylight Time)","506631","1","3","","1823","","","","choice","","img/2to1/1.png","2","160","243","0.5","0.5","2","3","",""
"animation","135","196651","0.0-5.0-2.65","63f791c69ca73d3460eeb2d9","bdp_cybrbll","Sun Mar 26 2023 07:57:12 GMT-0700 (Pacific Daylight Time)","506631","1","3","","","","","","","","","","160","","","","2","3","[{""stimulus"":""img/2to3/1.png"",""time"":101},{""stimulus"":""img/2to3/2.png"",""time"":199},{""stimulus"":""img/2to3/3.png"",""time"":298},{""stimulus"":""img/2to3/4.png"",""time"":397},{""stimulus"":""img/2to3/5.png"",""time"":496},{""stimulus"":""img/2to3/6.png"",""time"":596},{""stimulus"":""img/2to3/7.png"",""time"":695},{""stimulus"":""img/2to3/8.png"",""time"":793},{""stimulus"":""img/2to3/9.png"",""time"":893},{""stimulus"":""img/2to3/10.png"",""time"":991},{""stimulus"":""img/2to3/11.png"",""time"":1091},{""stimulus"":""img/2to3/12.png"",""time"":1189}]","[]"
"image-keyboard-response","136","197333","0.0-5.0-1.66","63f791c69ca73d3460eeb2d9","bdp_cybrbll","Sun Mar 26 2023 07:57:12 GMT-0700 (Pacific Daylight Time)","506631","1","3","","null","","","","observe","","img/3to2/1.png","null","159","680","0.5","0.5","3","1","",""
"animation","137","198622","0.0-5.0-2.66","63f791c69ca73d3460eeb2d9","bdp_cybrbll","Sun Mar 26 2023 07:57:12 GMT-0700 (Pacific Daylight Time)","506631","1","3","","","","","","","","","","159","","","","3","1","[{""stimulus"":""img/3to1/1.png"",""time"":100},{""stimulus"":""img/3to1/2.png"",""time"":199},{""stimulus"":""img/3to1/3.png"",""time"":298},{""stimulus"":""img/3to1/4.png"",""time"":396},{""stimulus"":""img/3to1/5.png"",""time"":496},{""stimulus"":""img/3to1/6.png"",""time"":595},{""stimulus"":""img/3to1/7.png"",""time"":694},{""stimulus"":""img/3to1/8.png"",""time"":793},{""stimulus"":""img/3to1/9.png"",""time"":891},{""stimulus"":""img/3to1/10.png"",""time"":991},{""stimulus"":""img/3to1/11.png"",""time"":1089},{""stimulus"":""img/3to1/12.png"",""time"":1190}]","[]"
"image-keyboard-response","138","199015","0.0-5.0-1.67","63f791c69ca73d3460eeb2d9","bdp_cybrbll","Sun Mar 26 2023 07:57:12 GMT-0700 (Pacific Daylight Time)","506631","1","3","","null","","","","observe","","img/1to3/1.png","null","158","392","0.5","0.5","1","3","",""
"animation","139","200303","0.0-5.0-2.67","63f791c69ca73d3460eeb2d9","bdp_cybrbll","Sun Mar 26 2023 07:57:12 GMT-0700 (Pacific Daylight Time)","506631","1","3","","","","","","","","","","158","","","","1","3","[{""stimulus"":""img/1to3/1.png"",""time"":101},{""stimulus"":""img/1to3/2.png"",""time"":200},{""stimulus"":""img/1to3/3.png"",""time"":298},{""stimulus"":""img/1to3/4.png"",""time"":398},{""stimulus"":""img/1to3/5.png"",""time"":497},{""stimulus"":""img/1to3/6.png"",""time"":596},{""stimulus"":""img/1to3/7.png"",""time"":695},{""stimulus"":""img/1to3/8.png"",""time"":793},{""stimulus"":""img/1to3/9.png"",""time"":892},{""stimulus"":""img/1to3/10.png"",""time"":991},{""stimulus"":""img/1to3/11.png"",""time"":1090},{""stimulus"":""img/1to3/12.png"",""time"":1190}]","[]"
"image-keyboard-response","140","200483","0.0-5.0-1.68","63f791c69ca73d3460eeb2d9","bdp_cybrbll","Sun Mar 26 2023 07:57:12 GMT-0700 (Pacific Daylight Time)","506631","1","3","","null","","","","observe","","img/3to2/1.png","null","157","178","0.5","0.5","3","1","",""
"animation","141","201771","0.0-5.0-2.68","63f791c69ca73d3460eeb2d9","bdp_cybrbll","Sun Mar 26 2023 07:57:12 GMT-0700 (Pacific Daylight Time)","506631","1","3","","","","","","","","","","157","","","","3","1","[{""stimulus"":""img/3to1/1.png"",""time"":100},{""stimulus"":""img/3to1/2.png"",""time"":199},{""stimulus"":""img/3to1/3.png"",""time"":298},{""stimulus"":""img/3to1/4.png"",""time"":397},{""stimulus"":""img/3to1/5.png"",""time"":496},{""stimulus"":""img/3to1/6.png"",""time"":595},{""stimulus"":""img/3to1/7.png"",""time"":695},{""stimulus"":""img/3to1/8.png"",""time"":793},{""stimulus"":""img/3to1/9.png"",""time"":892},{""stimulus"":""img/3to1/10.png"",""time"":991},{""stimulus"":""img/3to1/11.png"",""time"":1090},{""stimulus"":""img/3to1/12.png"",""time"":1190}]","[]"
"image-keyboard-response","142","201914","0.0-5.0-1.69","63f791c69ca73d3460eeb2d9","bdp_cybrbll","Sun Mar 26 2023 07:57:12 GMT-0700 (Pacific Daylight Time)","506631","1","3","","null","","","","observe","","img/1to3/1.png","null","156","142","0.5","0.5","1","3","",""
"animation","143","203202","0.0-5.0-2.69","63f791c69ca73d3460eeb2d9","bdp_cybrbll","Sun Mar 26 2023 07:57:12 GMT-0700 (Pacific Daylight Time)","506631","1","3","","","","","","","","","","156","","","","1","3","[{""stimulus"":""img/1to3/1.png"",""time"":100},{""stimulus"":""img/1to3/2.png"",""time"":200},{""stimulus"":""img/1to3/3.png"",""time"":299},{""stimulus"":""img/1to3/4.png"",""time"":397},{""stimulus"":""img/1to3/5.png"",""time"":497},{""stimulus"":""img/1to3/6.png"",""time"":596},{""stimulus"":""img/1to3/7.png"",""time"":694},{""stimulus"":""img/1to3/8.png"",""time"":794},{""stimulus"":""img/1to3/9.png"",""time"":893},{""stimulus"":""img/1to3/10.png"",""time"":991},{""stimulus"":""img/1to3/11.png"",""time"":1090},{""stimulus"":""img/1to3/12.png"",""time"":1190}]","[]"
"image-keyboard-response","144","204836","0.0-5.0-1.70","63f791c69ca73d3460eeb2d9","bdp_cybrbll","Sun Mar 26 2023 07:57:12 GMT-0700 (Pacific Daylight Time)","506631","1","3","","null","","","","observe","","img/3to2/1.png","null","155","1632","0.5","0.5","3","2","",""
"animation","145","206124","0.0-5.0-2.70","63f791c69ca73d3460eeb2d9","bdp_cybrbll","Sun Mar 26 2023 07:57:12 GMT-0700 (Pacific Daylight Time)","506631","1","3","","","","","","","","","","155","","","","3","2","[{""stimulus"":""img/3to2/1.png"",""time"":100},{""stimulus"":""img/3to2/2.png"",""time"":199},{""stimulus"":""img/3to2/3.png"",""time"":298},{""stimulus"":""img/3to2/4.png"",""time"":397},{""stimulus"":""img/3to2/5.png"",""time"":496},{""stimulus"":""img/3to2/6.png"",""time"":595},{""stimulus"":""img/3to2/7.png"",""time"":694},{""stimulus"":""img/3to2/8.png"",""time"":793},{""stimulus"":""img/3to2/9.png"",""time"":892},{""stimulus"":""img/3to2/10.png"",""time"":991},{""stimulus"":""img/3to2/11.png"",""time"":1090},{""stimulus"":""img/3to2/12.png"",""time"":1189}]","[]"
"image-keyboard-response","146","207194","0.0-5.0-1.71","63f791c69ca73d3460eeb2d9","bdp_cybrbll","Sun Mar 26 2023 07:57:12 GMT-0700 (Pacific Daylight Time)","506631","1","3","","1069","","","","choice","","img/2to1/1.png","1","154","230","0.5","0.5","2","1","",""
"animation","147","208483","0.0-5.0-2.71","63f791c69ca73d3460eeb2d9","bdp_cybrbll","Sun Mar 26 2023 07:57:12 GMT-0700 (Pacific Daylight Time)","506631","1","3","","","","","","","","","","154","","","","2","1","[{""stimulus"":""img/2to1/1.png"",""time"":100},{""stimulus"":""img/2to1/2.png"",""time"":199},{""stimulus"":""img/2to1/3.png"",""time"":299},{""stimulus"":""img/2to1/4.png"",""time"":397},{""stimulus"":""img/2to1/5.png"",""time"":497},{""stimulus"":""img/2to1/6.png"",""time"":595},{""stimulus"":""img/2to1/7.png"",""time"":694},{""stimulus"":""img/2to1/8.png"",""time"":793},{""stimulus"":""img/2to1/9.png"",""time"":892},{""stimulus"":""img/2to1/10.png"",""time"":992},{""stimulus"":""img/2to1/11.png"",""time"":1098},{""stimulus"":""img/2to1/12.png"",""time"":1189}]","[]"
"image-keyboard-response","148","210045","0.0-5.0-1.72","63f791c69ca73d3460eeb2d9","bdp_cybrbll","Sun Mar 26 2023 07:57:12 GMT-0700 (Pacific Daylight Time)","506631","1","3","","null","","","","observe","","img/1to3/1.png","null","153","1560","0.5","0.5","1","2","",""
"animation","149","211333","0.0-5.0-2.72","63f791c69ca73d3460eeb2d9","bdp_cybrbll","Sun Mar 26 2023 07:57:12 GMT-0700 (Pacific Daylight Time)","506631","1","3","","","","","","","","","","153","","","","1","2","[{""stimulus"":""img/1to2/1.png"",""time"":101},{""stimulus"":""img/1to2/2.png"",""time"":200},{""stimulus"":""img/1to2/3.png"",""time"":299},{""stimulus"":""img/1to2/4.png"",""time"":398},{""stimulus"":""img/1to2/5.png"",""time"":497},{""stimulus"":""img/1to2/6.png"",""time"":596},{""stimulus"":""img/1to2/7.png"",""time"":694},{""stimulus"":""img/1to2/8.png"",""time"":793},{""stimulus"":""img/1to2/9.png"",""time"":893},{""stimulus"":""img/1to2/10.png"",""time"":992},{""stimulus"":""img/1to2/11.png"",""time"":1090},{""stimulus"":""img/1to2/12.png"",""time"":1190}]","[]"
"image-keyboard-response","150","211638","0.0-5.0-1.73","63f791c69ca73d3460eeb2d9","bdp_cybrbll","Sun Mar 26 2023 07:57:12 GMT-0700 (Pacific Daylight Time)","506631","1","3","","304","","","","choice","","img/2to1/1.png","1","152","483","0.5","0.5","2","1","",""
"animation","151","212927","0.0-5.0-2.73","63f791c69ca73d3460eeb2d9","bdp_cybrbll","Sun Mar 26 2023 07:57:12 GMT-0700 (Pacific Daylight Time)","506631","1","3","","","","","","","","","","152","","","","2","1","[{""stimulus"":""img/2to1/1.png"",""time"":100},{""stimulus"":""img/2to1/2.png"",""time"":199},{""stimulus"":""img/2to1/3.png"",""time"":298},{""stimulus"":""img/2to1/4.png"",""time"":396},{""stimulus"":""img/2to1/5.png"",""time"":496},{""stimulus"":""img/2to1/6.png"",""time"":595},{""stimulus"":""img/2to1/7.png"",""time"":694},{""stimulus"":""img/2to1/8.png"",""time"":793},{""stimulus"":""img/2to1/9.png"",""time"":892},{""stimulus"":""img/2to1/10.png"",""time"":990},{""stimulus"":""img/2to1/11.png"",""time"":1090},{""stimulus"":""img/2to1/12.png"",""time"":1189}]","[]"
"image-keyboard-response","152","213527","0.0-5.0-1.74","63f791c69ca73d3460eeb2d9","bdp_cybrbll","Sun Mar 26 2023 07:57:12 GMT-0700 (Pacific Daylight Time)","506631","1","3","","null","","","","observe","","img/1to3/1.png","null","151","599","0.5","0.5","1","3","",""
"animation","153","214815","0.0-5.0-2.74","63f791c69ca73d3460eeb2d9","bdp_cybrbll","Sun Mar 26 2023 07:57:12 GMT-0700 (Pacific Daylight Time)","506631","1","3","","","","","","","","","","151","","","","1","3","[{""stimulus"":""img/1to3/1.png"",""time"":100},{""stimulus"":""img/1to3/2.png"",""time"":199},{""stimulus"":""img/1to3/3.png"",""time"":298},{""stimulus"":""img/1to3/4.png"",""time"":397},{""stimulus"":""img/1to3/5.png"",""time"":495},{""stimulus"":""img/1to3/6.png"",""time"":594},{""stimulus"":""img/1to3/7.png"",""time"":693},{""stimulus"":""img/1to3/8.png"",""time"":792},{""stimulus"":""img/1to3/9.png"",""time"":892},{""stimulus"":""img/1to3/10.png"",""time"":991},{""stimulus"":""img/1to3/11.png"",""time"":1089},{""stimulus"":""img/1to3/12.png"",""time"":1189}]","[]"
"image-keyboard-response","154","215031","0.0-5.0-1.75","63f791c69ca73d3460eeb2d9","bdp_cybrbll","Sun Mar 26 2023 07:57:12 GMT-0700 (Pacific Daylight Time)","506631","1","3","","null","","","","observe","","img/3to2/1.png","null","150","215","0.5","0.5","3","2","",""
"animation","155","216319","0.0-5.0-2.75","63f791c69ca73d3460eeb2d9","bdp_cybrbll","Sun Mar 26 2023 07:57:12 GMT-0700 (Pacific Daylight Time)","506631","1","3","","","","","","","","","","150","","","","3","2","[{""stimulus"":""img/3to2/1.png"",""time"":100},{""stimulus"":""img/3to2/2.png"",""time"":198},{""stimulus"":""img/3to2/3.png"",""time"":298},{""stimulus"":""img/3to2/4.png"",""time"":397},{""stimulus"":""img/3to2/5.png"",""time"":495},{""stimulus"":""img/3to2/6.png"",""time"":595},{""stimulus"":""img/3to2/7.png"",""time"":694},{""stimulus"":""img/3to2/8.png"",""time"":793},{""stimulus"":""img/3to2/9.png"",""time"":892},{""stimulus"":""img/3to2/10.png"",""time"":992},{""stimulus"":""img/3to2/11.png"",""time"":1090},{""stimulus"":""img/3to2/12.png"",""time"":1188}]","[]"
"image-keyboard-response","156","220536","0.0-5.0-1.76","63f791c69ca73d3460eeb2d9","bdp_cybrbll","Sun Mar 26 2023 07:57:12 GMT-0700 (Pacific Daylight Time)","506631","1","3","","4216","","","","choice","","img/2to1/1.png","1","149","940","0.5","0.1","2","1","",""
"animation","157","221826","0.0-5.0-2.76","63f791c69ca73d3460eeb2d9","bdp_cybrbll","Sun Mar 26 2023 07:57:12 GMT-0700 (Pacific Daylight Time)","506631","1","3","","","","","","","","","","149","","","","2","1","[{""stimulus"":""img/2to1/1.png"",""time"":100},{""stimulus"":""img/2to1/2.png"",""time"":198},{""stimulus"":""img/2to1/3.png"",""time"":298},{""stimulus"":""img/2to1/4.png"",""time"":396},{""stimulus"":""img/2to1/5.png"",""time"":496},{""stimulus"":""img/2to1/6.png"",""time"":596},{""stimulus"":""img/2to1/7.png"",""time"":694},{""stimulus"":""img/2to1/8.png"",""time"":793},{""stimulus"":""img/2to1/9.png"",""time"":892},{""stimulus"":""img/2to1/10.png"",""time"":990},{""stimulus"":""img/2to1/11.png"",""time"":1090},{""stimulus"":""img/2to1/12.png"",""time"":1189}]","[]"
"image-keyboard-response","158","222639","0.0-5.0-1.77","63f791c69ca73d3460eeb2d9","bdp_cybrbll","Sun Mar 26 2023 07:57:12 GMT-0700 (Pacific Daylight Time)","506631","1","3","","null","","","","observe","","img/1to3/1.png","null","148","811","0.5","0.1","1","2","",""
"animation","159","223927","0.0-5.0-2.77","63f791c69ca73d3460eeb2d9","bdp_cybrbll","Sun Mar 26 2023 07:57:12 GMT-0700 (Pacific Daylight Time)","506631","1","3","","","","","","","","","","148","","","","1","2","[{""stimulus"":""img/1to2/1.png"",""time"":101},{""stimulus"":""img/1to2/2.png"",""time"":199},{""stimulus"":""img/1to2/3.png"",""time"":298},{""stimulus"":""img/1to2/4.png"",""time"":401},{""stimulus"":""img/1to2/5.png"",""time"":497},{""stimulus"":""img/1to2/6.png"",""time"":596},{""stimulus"":""img/1to2/7.png"",""time"":695},{""stimulus"":""img/1to2/8.png"",""time"":793},{""stimulus"":""img/1to2/9.png"",""time"":892},{""stimulus"":""img/1to2/10.png"",""time"":992},{""stimulus"":""img/1to2/11.png"",""time"":1090},{""stimulus"":""img/1to2/12.png"",""time"":1190}]","[]"
"image-keyboard-response","160","225042","0.0-5.0-1.78","63f791c69ca73d3460eeb2d9","bdp_cybrbll","Sun Mar 26 2023 07:57:12 GMT-0700 (Pacific Daylight Time)","506631","1","3","","1114","","","","choice","","img/2to1/1.png","2","147","432","0.5","0.1","2","3","",""
"animation","161","226331","0.0-5.0-2.78","63f791c69ca73d3460eeb2d9","bdp_cybrbll","Sun Mar 26 2023 07:57:12 GMT-0700 (Pacific Daylight Time)","506631","1","3","","","","","","","","","","147","","","","2","3","[{""stimulus"":""img/2to3/1.png"",""time"":101},{""stimulus"":""img/2to3/2.png"",""time"":199},{""stimulus"":""img/2to3/3.png"",""time"":298},{""stimulus"":""img/2to3/4.png"",""time"":396},{""stimulus"":""img/2to3/5.png"",""time"":496},{""stimulus"":""img/2to3/6.png"",""time"":595},{""stimulus"":""img/2to3/7.png"",""time"":694},{""stimulus"":""img/2to3/8.png"",""time"":793},{""stimulus"":""img/2to3/9.png"",""time"":892},{""stimulus"":""img/2to3/10.png"",""time"":991},{""stimulus"":""img/2to3/11.png"",""time"":1090},{""stimulus"":""img/2to3/12.png"",""time"":1188}]","[]"
"image-keyboard-response","162","227340","0.0-5.0-1.79","63f791c69ca73d3460eeb2d9","bdp_cybrbll","Sun Mar 26 2023 07:57:12 GMT-0700 (Pacific Daylight Time)","506631","1","3","","null","","","","observe","","img/3to2/1.png","null","146","1008","0.5","0.1","3","1","",""
"animation","163","228629","0.0-5.0-2.79","63f791c69ca73d3460eeb2d9","bdp_cybrbll","Sun Mar 26 2023 07:57:12 GMT-0700 (Pacific Daylight Time)","506631","1","3","","","","","","","","","","146","","","","3","1","[{""stimulus"":""img/3to1/1.png"",""time"":99},{""stimulus"":""img/3to1/2.png"",""time"":198},{""stimulus"":""img/3to1/3.png"",""time"":298},{""stimulus"":""img/3to1/4.png"",""time"":397},{""stimulus"":""img/3to1/5.png"",""time"":495},{""stimulus"":""img/3to1/6.png"",""time"":595},{""stimulus"":""img/3to1/7.png"",""time"":693},{""stimulus"":""img/3to1/8.png"",""time"":793},{""stimulus"":""img/3to1/9.png"",""time"":892},{""stimulus"":""img/3to1/10.png"",""time"":991},{""stimulus"":""img/3to1/11.png"",""time"":1089},{""stimulus"":""img/3to1/12.png"",""time"":1189}]","[]"
"image-keyboard-response","164","229131","0.0-5.0-1.80","63f791c69ca73d3460eeb2d9","bdp_cybrbll","Sun Mar 26 2023 07:57:12 GMT-0700 (Pacific Daylight Time)","506631","1","3","","null","","","","observe","","img/1to3/1.png","null","145","501","0.5","0.1","1","2","",""
"animation","165","230419","0.0-5.0-2.80","63f791c69ca73d3460eeb2d9","bdp_cybrbll","Sun Mar 26 2023 07:57:12 GMT-0700 (Pacific Daylight Time)","506631","1","3","","","","","","","","","","145","","","","1","2","[{""stimulus"":""img/1to2/1.png"",""time"":100},{""stimulus"":""img/1to2/2.png"",""time"":199},{""stimulus"":""img/1to2/3.png"",""time"":298},{""stimulus"":""img/1to2/4.png"",""time"":397},{""stimulus"":""img/1to2/5.png"",""time"":496},{""stimulus"":""img/1to2/6.png"",""time"":595},{""stimulus"":""img/1to2/7.png"",""time"":695},{""stimulus"":""img/1to2/8.png"",""time"":793},{""stimulus"":""img/1to2/9.png"",""time"":892},{""stimulus"":""img/1to2/10.png"",""time"":990},{""stimulus"":""img/1to2/11.png"",""time"":1091},{""stimulus"":""img/1to2/12.png"",""time"":1189}]","[]"
"image-keyboard-response","166","232473","0.0-5.0-1.81","63f791c69ca73d3460eeb2d9","bdp_cybrbll","Sun Mar 26 2023 07:57:12 GMT-0700 (Pacific Daylight Time)","506631","1","3","","2053","","","","choice","","img/2to1/1.png","1","144","380","0.5","0.1","2","1","",""
"animation","167","233761","0.0-5.0-2.81","63f791c69ca73d3460eeb2d9","bdp_cybrbll","Sun Mar 26 2023 07:57:12 GMT-0700 (Pacific Daylight Time)","506631","1","3","","","","","","","","","","144","","","","2","1","[{""stimulus"":""img/2to1/1.png"",""time"":100},{""stimulus"":""img/2to1/2.png"",""time"":200},{""stimulus"":""img/2to1/3.png"",""time"":299},{""stimulus"":""img/2to1/4.png"",""time"":397},{""stimulus"":""img/2to1/5.png"",""time"":496},{""stimulus"":""img/2to1/6.png"",""time"":595},{""stimulus"":""img/2to1/7.png"",""time"":694},{""stimulus"":""img/2to1/8.png"",""time"":794},{""stimulus"":""img/2to1/9.png"",""time"":892},{""stimulus"":""img/2to1/10.png"",""time"":991},{""stimulus"":""img/2to1/11.png"",""time"":1090},{""stimulus"":""img/2to1/12.png"",""time"":1189}]","[]"
"image-keyboard-response","168","234231","0.0-5.0-1.82","63f791c69ca73d3460eeb2d9","bdp_cybrbll","Sun Mar 26 2023 07:57:12 GMT-0700 (Pacific Daylight Time)","506631","1","3","","null","","","","observe","","img/1to3/1.png","null","143","468","0.5","0.1","1","2","",""
"animation","169","235518","0.0-5.0-2.82","63f791c69ca73d3460eeb2d9","bdp_cybrbll","Sun Mar 26 2023 07:57:12 GMT-0700 (Pacific Daylight Time)","506631","1","3","","","","","","","","","","143","","","","1","2","[{""stimulus"":""img/1to2/1.png"",""time"":100},{""stimulus"":""img/1to2/2.png"",""time"":199},{""stimulus"":""img/1to2/3.png"",""time"":298},{""stimulus"":""img/1to2/4.png"",""time"":397},{""stimulus"":""img/1to2/5.png"",""time"":496},{""stimulus"":""img/1to2/6.png"",""time"":594},{""stimulus"":""img/1to2/7.png"",""time"":693},{""stimulus"":""img/1to2/8.png"",""time"":793},{""stimulus"":""img/1to2/9.png"",""time"":892},{""stimulus"":""img/1to2/10.png"",""time"":991},{""stimulus"":""img/1to2/11.png"",""time"":1090},{""stimulus"":""img/1to2/12.png"",""time"":1188}]","[]"
"image-keyboard-response","170","235717","0.0-5.0-1.83","63f791c69ca73d3460eeb2d9","bdp_cybrbll","Sun Mar 26 2023 07:57:12 GMT-0700 (Pacific Daylight Time)","506631","1","3","","198","","","","choice","","img/2to1/1.png","2","142","490","0.5","0.1","2","3","",""
"animation","171","237005","0.0-5.0-2.83","63f791c69ca73d3460eeb2d9","bdp_cybrbll","Sun Mar 26 2023 07:57:12 GMT-0700 (Pacific Daylight Time)","506631","1","3","","","","","","","","","","142","","","","2","3","[{""stimulus"":""img/2to3/1.png"",""time"":101},{""stimulus"":""img/2to3/2.png"",""time"":199},{""stimulus"":""img/2to3/3.png"",""time"":298},{""stimulus"":""img/2to3/4.png"",""time"":397},{""stimulus"":""img/2to3/5.png"",""time"":497},{""stimulus"":""img/2to3/6.png"",""time"":595},{""stimulus"":""img/2to3/7.png"",""time"":694},{""stimulus"":""img/2to3/8.png"",""time"":794},{""stimulus"":""img/2to3/9.png"",""time"":892},{""stimulus"":""img/2to3/10.png"",""time"":991},{""stimulus"":""img/2to3/11.png"",""time"":1090},{""stimulus"":""img/2to3/12.png"",""time"":1189}]","[]"
"image-keyboard-response","172","237296","0.0-5.0-1.84","63f791c69ca73d3460eeb2d9","bdp_cybrbll","Sun Mar 26 2023 07:57:12 GMT-0700 (Pacific Daylight Time)","506631","1","3","","null","","","","observe","","img/3to2/1.png","null","141","289","0.5","0.1","3","1","",""
"animation","173","238584","0.0-5.0-2.84","63f791c69ca73d3460eeb2d9","bdp_cybrbll","Sun Mar 26 2023 07:57:12 GMT-0700 (Pacific Daylight Time)","506631","1","3","","","","","","","","","","141","","","","3","1","[{""stimulus"":""img/3to1/1.png"",""time"":101},{""stimulus"":""img/3to1/2.png"",""time"":200},{""stimulus"":""img/3to1/3.png"",""time"":299},{""stimulus"":""img/3to1/4.png"",""time"":398},{""stimulus"":""img/3to1/5.png"",""time"":496},{""stimulus"":""img/3to1/6.png"",""time"":595},{""stimulus"":""img/3to1/7.png"",""time"":695},{""stimulus"":""img/3to1/8.png"",""time"":794},{""stimulus"":""img/3to1/9.png"",""time"":893},{""stimulus"":""img/3to1/10.png"",""time"":992},{""stimulus"":""img/3to1/11.png"",""time"":1090},{""stimulus"":""img/3to1/12.png"",""time"":1190}]","[]"
"image-keyboard-response","174","239049","0.0-5.0-1.85","63f791c69ca73d3460eeb2d9","bdp_cybrbll","Sun Mar 26 2023 07:57:12 GMT-0700 (Pacific Daylight Time)","506631","1","3","","null","","","","observe","","img/1to3/1.png","null","140","463","0.5","0.1","1","2","",""
"animation","175","240337","0.0-5.0-2.85","63f791c69ca73d3460eeb2d9","bdp_cybrbll","Sun Mar 26 2023 07:57:12 GMT-0700 (Pacific Daylight Time)","506631","1","3","","","","","","","","","","140","","","","1","2","[{""stimulus"":""img/1to2/1.png"",""time"":101},{""stimulus"":""img/1to2/2.png"",""time"":198},{""stimulus"":""img/1to2/3.png"",""time"":298},{""stimulus"":""img/1to2/4.png"",""time"":397},{""stimulus"":""img/1to2/5.png"",""time"":496},{""stimulus"":""img/1to2/6.png"",""time"":596},{""stimulus"":""img/1to2/7.png"",""time"":694},{""stimulus"":""img/1to2/8.png"",""time"":793},{""stimulus"":""img/1to2/9.png"",""time"":892},{""stimulus"":""img/1to2/10.png"",""time"":991},{""stimulus"":""img/1to2/11.png"",""time"":1090},{""stimulus"":""img/1to2/12.png"",""time"":1189}]","[]"
"image-keyboard-response","176","241024","0.0-5.0-1.86","63f791c69ca73d3460eeb2d9","bdp_cybrbll","Sun Mar 26 2023 07:57:12 GMT-0700 (Pacific Daylight Time)","506631","1","3","","686","","","","choice","","img/2to1/1.png","2","139","290","0.5","0.1","2","3","",""
"animation","177","242313","0.0-5.0-2.86","63f791c69ca73d3460eeb2d9","bdp_cybrbll","Sun Mar 26 2023 07:57:12 GMT-0700 (Pacific Daylight Time)","506631","1","3","","","","","","","","","","139","","","","2","3","[{""stimulus"":""img/2to3/1.png"",""time"":100},{""stimulus"":""img/2to3/2.png"",""time"":200},{""stimulus"":""img/2to3/3.png"",""time"":299},{""stimulus"":""img/2to3/4.png"",""time"":398},{""stimulus"":""img/2to3/5.png"",""time"":497},{""stimulus"":""img/2to3/6.png"",""time"":595},{""stimulus"":""img/2to3/7.png"",""time"":696},{""stimulus"":""img/2to3/8.png"",""time"":793},{""stimulus"":""img/2to3/9.png"",""time"":892},{""stimulus"":""img/2to3/10.png"",""time"":991},{""stimulus"":""img/2to3/11.png"",""time"":1092},{""stimulus"":""img/2to3/12.png"",""time"":1190}]","[]"
"image-keyboard-response","178","242753","0.0-5.0-1.87","63f791c69ca73d3460eeb2d9","bdp_cybrbll","Sun Mar 26 2023 07:57:12 GMT-0700 (Pacific Daylight Time)","506631","1","3","","null","","","","observe","","img/3to2/1.png","null","138","439","0.5","0.1","3","1","",""
"animation","179","244041","0.0-5.0-2.87","63f791c69ca73d3460eeb2d9","bdp_cybrbll","Sun Mar 26 2023 07:57:12 GMT-0700 (Pacific Daylight Time)","506631","1","3","","","","","","","","","","138","","","","3","1","[{""stimulus"":""img/3to1/1.png"",""time"":99},{""stimulus"":""img/3to1/2.png"",""time"":199},{""stimulus"":""img/3to1/3.png"",""time"":298},{""stimulus"":""img/3to1/4.png"",""time"":396},{""stimulus"":""img/3to1/5.png"",""time"":496},{""stimulus"":""img/3to1/6.png"",""time"":594},{""stimulus"":""img/3to1/7.png"",""time"":694},{""stimulus"":""img/3to1/8.png"",""time"":793},{""stimulus"":""img/3to1/9.png"",""time"":905},{""stimulus"":""img/3to1/10.png"",""time"":991},{""stimulus"":""img/3to1/11.png"",""time"":1090},{""stimulus"":""img/3to1/12.png"",""time"":1189}]","[]"
"image-keyboard-response","180","244310","0.0-5.0-1.88","63f791c69ca73d3460eeb2d9","bdp_cybrbll","Sun Mar 26 2023 07:57:12 GMT-0700 (Pacific Daylight Time)","506631","1","3","","null","","","","observe","","img/1to3/1.png","null","137","267","0.5","0.1","1","2","",""
"animation","181","245598","0.0-5.0-2.88","63f791c69ca73d3460eeb2d9","bdp_cybrbll","Sun Mar 26 2023 07:57:12 GMT-0700 (Pacific Daylight Time)","506631","1","3","","","","","","","","","","137","","","","1","2","[{""stimulus"":""img/1to2/1.png"",""time"":100},{""stimulus"":""img/1to2/2.png"",""time"":199},{""stimulus"":""img/1to2/3.png"",""time"":298},{""stimulus"":""img/1to2/4.png"",""time"":398},{""stimulus"":""img/1to2/5.png"",""time"":496},{""stimulus"":""img/1to2/6.png"",""time"":595},{""stimulus"":""img/1to2/7.png"",""time"":694},{""stimulus"":""img/1to2/8.png"",""time"":793},{""stimulus"":""img/1to2/9.png"",""time"":892},{""stimulus"":""img/1to2/10.png"",""time"":991},{""stimulus"":""img/1to2/11.png"",""time"":1090},{""stimulus"":""img/1to2/12.png"",""time"":1189}]","[]"
"image-keyboard-response","182","246414","0.0-5.0-1.89","63f791c69ca73d3460eeb2d9","bdp_cybrbll","Sun Mar 26 2023 07:57:12 GMT-0700 (Pacific Daylight Time)","506631","1","3","","815","","","","choice","","img/2to1/1.png","2","136","394","0.5","0.1","2","3","",""
"animation","183","247703","0.0-5.0-2.89","63f791c69ca73d3460eeb2d9","bdp_cybrbll","Sun Mar 26 2023 07:57:12 GMT-0700 (Pacific Daylight Time)","506631","1","3","","","","","","","","","","136","","","","2","3","[{""stimulus"":""img/2to3/1.png"",""time"":100},{""stimulus"":""img/2to3/2.png"",""time"":200},{""stimulus"":""img/2to3/3.png"",""time"":299},{""stimulus"":""img/2to3/4.png"",""time"":398},{""stimulus"":""img/2to3/5.png"",""time"":497},{""stimulus"":""img/2to3/6.png"",""time"":595},{""stimulus"":""img/2to3/7.png"",""time"":694},{""stimulus"":""img/2to3/8.png"",""time"":793},{""stimulus"":""img/2to3/9.png"",""time"":892},{""stimulus"":""img/2to3/10.png"",""time"":992},{""stimulus"":""img/2to3/11.png"",""time"":1090},{""stimulus"":""img/2to3/12.png"",""time"":1189}]","[]"
"image-keyboard-response","184","248040","0.0-5.0-1.90","63f791c69ca73d3460eeb2d9","bdp_cybrbll","Sun Mar 26 2023 07:57:12 GMT-0700 (Pacific Daylight Time)","506631","1","3","","null","","","","observe","","img/3to2/1.png","null","135","336","0.5","0.1","3","1","",""
"animation","185","249328","0.0-5.0-2.90","63f791c69ca73d3460eeb2d9","bdp_cybrbll","Sun Mar 26 2023 07:57:12 GMT-0700 (Pacific Daylight Time)","506631","1","3","","","","","","","","","","135","","","","3","1","[{""stimulus"":""img/3to1/1.png"",""time"":101},{""stimulus"":""img/3to1/2.png"",""time"":200},{""stimulus"":""img/3to1/3.png"",""time"":298},{""stimulus"":""img/3to1/4.png"",""time"":398},{""stimulus"":""img/3to1/5.png"",""time"":497},{""stimulus"":""img/3to1/6.png"",""time"":595},{""stimulus"":""img/3to1/7.png"",""time"":694},{""stimulus"":""img/3to1/8.png"",""time"":794},{""stimulus"":""img/3to1/9.png"",""time"":893},{""stimulus"":""img/3to1/10.png"",""time"":991},{""stimulus"":""img/3to1/11.png"",""time"":1090},{""stimulus"":""img/3to1/12.png"",""time"":1189}]","[]"
"image-keyboard-response","186","249720","0.0-5.0-1.91","63f791c69ca73d3460eeb2d9","bdp_cybrbll","Sun Mar 26 2023 07:57:12 GMT-0700 (Pacific Daylight Time)","506631","1","3","","null","","","","observe","","img/1to3/1.png","null","134","391","0.5","0.1","1","3","",""
"animation","187","251007","0.0-5.0-2.91","63f791c69ca73d3460eeb2d9","bdp_cybrbll","Sun Mar 26 2023 07:57:12 GMT-0700 (Pacific Daylight Time)","506631","1","3","","","","","","","","","","134","","","","1","3","[{""stimulus"":""img/1to3/1.png"",""time"":100},{""stimulus"":""img/1to3/2.png"",""time"":199},{""stimulus"":""img/1to3/3.png"",""time"":298},{""stimulus"":""img/1to3/4.png"",""time"":397},{""stimulus"":""img/1to3/5.png"",""time"":497},{""stimulus"":""img/1to3/6.png"",""time"":596},{""stimulus"":""img/1to3/7.png"",""time"":694},{""stimulus"":""img/1to3/8.png"",""time"":793},{""stimulus"":""img/1to3/9.png"",""time"":892},{""stimulus"":""img/1to3/10.png"",""time"":992},{""stimulus"":""img/1to3/11.png"",""time"":1090},{""stimulus"":""img/1to3/12.png"",""time"":1190}]","[]"
"image-keyboard-response","188","251656","0.0-5.0-1.92","63f791c69ca73d3460eeb2d9","bdp_cybrbll","Sun Mar 26 2023 07:57:12 GMT-0700 (Pacific Daylight Time)","506631","1","3","","null","","","","observe","","img/3to2/1.png","null","133","647","0.5","0.1","3","1","",""
"animation","189","252944","0.0-5.0-2.92","63f791c69ca73d3460eeb2d9","bdp_cybrbll","Sun Mar 26 2023 07:57:12 GMT-0700 (Pacific Daylight Time)","506631","1","3","","","","","","","","","","133","","","","3","1","[{""stimulus"":""img/3to1/1.png"",""time"":101},{""stimulus"":""img/3to1/2.png"",""time"":199},{""stimulus"":""img/3to1/3.png"",""time"":299},{""stimulus"":""img/3to1/4.png"",""time"":397},{""stimulus"":""img/3to1/5.png"",""time"":496},{""stimulus"":""img/3to1/6.png"",""time"":595},{""stimulus"":""img/3to1/7.png"",""time"":694},{""stimulus"":""img/3to1/8.png"",""time"":793},{""stimulus"":""img/3to1/9.png"",""time"":893},{""stimulus"":""img/3to1/10.png"",""time"":991},{""stimulus"":""img/3to1/11.png"",""time"":1090},{""stimulus"":""img/3to1/12.png"",""time"":1190}]","[]"
"image-keyboard-response","190","253733","0.0-5.0-1.93","63f791c69ca73d3460eeb2d9","bdp_cybrbll","Sun Mar 26 2023 07:57:12 GMT-0700 (Pacific Daylight Time)","506631","1","3","","null","","","","observe","","img/1to3/1.png","null","132","788","0.5","0.1","1","2","",""
