"event","trial","time","trialtype","subject_id","task","startTime","totalTime","fairPartner","unfairPartner","trial_type","trial_index","time_elapsed","internal_node_id","view_history","rt","success","stimulus","key_press","throwsLeft","rtDur","pFair","pUnfair","holder","receiver","animation_sequence","responses"
"focus","0","0","focusevent","63cff34d33a9948e3b0b28d6","bdp_cybrbll","Wed Mar 29 2023 03:11:26 GMT-0500 (Central Daylight Time)","465880","3","1","","","","","","","","","","","","","","","","",""
"focus","0","0","focusevent","63cff34d33a9948e3b0b28d6","bdp_cybrbll","Wed Mar 29 2023 03:11:26 GMT-0500 (Central Daylight Time)","465880","3","1","","","","","","","","","","","","","","","","",""
"","","","","63cff34d33a9948e3b0b28d6","bdp_cybrbll","Wed Mar 29 2023 03:11:26 GMT-0500 (Central Daylight Time)","465880","3","1","pavlovia","0","3","0.0-0.0","","","","","","","","","","","","",""
"","","","","63cff34d33a9948e3b0b28d6","bdp_cybrbll","Wed Mar 29 2023 03:11:26 GMT-0500 (Central Daylight Time)","465880","3","1","instructions","1","3204","0.0-1.0","[{""page_index"":0,""viewing_time"":3201}]","3201","","","","","","","","","","",""
"fullscreenenter","2","5191","fullscreenenter","63cff34d33a9948e3b0b28d6","bdp_cybrbll","Wed Mar 29 2023 03:11:26 GMT-0500 (Central Daylight Time)","465880","3","1","","","","","","","","","","","","","","","","",""
"","","","","63cff34d33a9948e3b0b28d6","bdp_cybrbll","Wed Mar 29 2023 03:11:26 GMT-0500 (Central Daylight Time)","465880","3","1","fullscreen","2","6178","0.0-2.0","","","true","","","","","","","","","",""
"","","","","63cff34d33a9948e3b0b28d6","bdp_cybrbll","Wed Mar 29 2023 03:11:26 GMT-0500 (Central Daylight Time)","465880","3","1","instructions","3","67816","0.0-4.0","[{""page_index"":0,""viewing_time"":61638}]","61638","","","","","","","","","","",""
"","","","choice","63cff34d33a9948e3b0b28d6","bdp_cybrbll","Wed Mar 29 2023 03:11:26 GMT-0500 (Central Daylight Time)","465880","3","1","image-keyboard-response","4","68992","0.0-5.0-1.0","","1175","","img/2to1/1.png","1","225","290","0.5","0.5","2","1","",""
"","","","","63cff34d33a9948e3b0b28d6","bdp_cybrbll","Wed Mar 29 2023 03:11:26 GMT-0500 (Central Daylight Time)","465880","3","1","animation","5","70282","0.0-5.0-2.0","","","","","","225","","","","2","1","[{""stimulus"":""img/2to1/1.png"",""time"":100},{""stimulus"":""img/2to1/2.png"",""time"":208},{""stimulus"":""img/2to1/3.png"",""time"":300},{""stimulus"":""img/2to1/4.png"",""time"":406},{""stimulus"":""img/2to1/5.png"",""time"":495},{""stimulus"":""img/2to1/6.png"",""time"":601},{""stimulus"":""img/2to1/7.png"",""time"":709},{""stimulus"":""img/2to1/8.png"",""time"":798},{""stimulus"":""img/2to1/9.png"",""time"":906},{""stimulus"":""img/2to1/10.png"",""time"":992},{""stimulus"":""img/2to1/11.png"",""time"":1090},{""stimulus"":""img/2to1/12.png"",""time"":1196}]","[]"
"","","","observe","63cff34d33a9948e3b0b28d6","bdp_cybrbll","Wed Mar 29 2023 03:11:26 GMT-0500 (Central Daylight Time)","465880","3","1","image-keyboard-response","6","70875","0.0-5.0-1.1","","null","","img/1to3/1.png","null","224","584","0.5","0.5","1","2","",""
"","","","","63cff34d33a9948e3b0b28d6","bdp_cybrbll","Wed Mar 29 2023 03:11:26 GMT-0500 (Central Daylight Time)","465880","3","1","animation","7","72163","0.0-5.0-2.1","","","","","","224","","","","1","2","[{""stimulus"":""img/1to2/1.png"",""time"":105},{""stimulus"":""img/1to2/2.png"",""time"":211},{""stimulus"":""img/1to2/3.png"",""time"":302},{""stimulus"":""img/1to2/4.png"",""time"":399},{""stimulus"":""img/1to2/5.png"",""time"":499},{""stimulus"":""img/1to2/6.png"",""time"":606},{""stimulus"":""img/1to2/7.png"",""time"":696},{""stimulus"":""img/1to2/8.png"",""time"":804},{""stimulus"":""img/1to2/9.png"",""time"":895},{""stimulus"":""img/1to2/10.png"",""time"":1001},{""stimulus"":""img/1to2/11.png"",""time"":1095},{""stimulus"":""img/1to2/12.png"",""time"":1203}]","[]"
"","","","choice","63cff34d33a9948e3b0b28d6","bdp_cybrbll","Wed Mar 29 2023 03:11:26 GMT-0500 (Central Daylight Time)","465880","3","1","image-keyboard-response","8","72697","0.0-5.0-1.2","","533","","img/2to1/1.png","2","223","310","0.5","0.5","2","3","",""
"","","","","63cff34d33a9948e3b0b28d6","bdp_cybrbll","Wed Mar 29 2023 03:11:26 GMT-0500 (Central Daylight Time)","465880","3","1","animation","9","73997","0.0-5.0-2.2","","","","","","223","","","","2","3","[{""stimulus"":""img/2to3/1.png"",""time"":109},{""stimulus"":""img/2to3/2.png"",""time"":203},{""stimulus"":""img/2to3/3.png"",""time"":310},{""stimulus"":""img/2to3/4.png"",""time"":400},{""stimulus"":""img/2to3/5.png"",""time"":507},{""stimulus"":""img/2to3/6.png"",""time"":598},{""stimulus"":""img/2to3/7.png"",""time"":704},{""stimulus"":""img/2to3/8.png"",""time"":796},{""stimulus"":""img/2to3/9.png"",""time"":903},{""stimulus"":""img/2to3/10.png"",""time"":999},{""stimulus"":""img/2to3/11.png"",""time"":1102},{""stimulus"":""img/2to3/12.png"",""time"":1193}]","[]"
"","","","observe","63cff34d33a9948e3b0b28d6","bdp_cybrbll","Wed Mar 29 2023 03:11:26 GMT-0500 (Central Daylight Time)","465880","3","1","image-keyboard-response","10","74177","0.0-5.0-1.3","","null","","img/3to2/1.png","null","222","172","0.5","0.5","3","1","",""
"","","","","63cff34d33a9948e3b0b28d6","bdp_cybrbll","Wed Mar 29 2023 03:11:26 GMT-0500 (Central Daylight Time)","465880","3","1","animation","11","75476","0.0-5.0-2.3","","","","","","222","","","","3","1","[{""stimulus"":""img/3to1/1.png"",""time"":106},{""stimulus"":""img/3to1/2.png"",""time"":213},{""stimulus"":""img/3to1/3.png"",""time"":303},{""stimulus"":""img/3to1/4.png"",""time"":408},{""stimulus"":""img/3to1/5.png"",""time"":496},{""stimulus"":""img/3to1/6.png"",""time"":607},{""stimulus"":""img/3to1/7.png"",""time"":700},{""stimulus"":""img/3to1/8.png"",""time"":805},{""stimulus"":""img/3to1/9.png"",""time"":897},{""stimulus"":""img/3to1/10.png"",""time"":1012},{""stimulus"":""img/3to1/11.png"",""time"":1100},{""stimulus"":""img/3to1/12.png"",""time"":1189}]","[]"
"","","","observe","63cff34d33a9948e3b0b28d6","bdp_cybrbll","Wed Mar 29 2023 03:11:26 GMT-0500 (Central Daylight Time)","465880","3","1","image-keyboard-response","12","75998","0.0-5.0-1.4","","null","","img/1to3/1.png","null","221","515","0.5","0.5","1","3","",""
"","","","","63cff34d33a9948e3b0b28d6","bdp_cybrbll","Wed Mar 29 2023 03:11:26 GMT-0500 (Central Daylight Time)","465880","3","1","animation","13","77296","0.0-5.0-2.4","","","","","","221","","","","1","3","[{""stimulus"":""img/1to3/1.png"",""time"":104},{""stimulus"":""img/1to3/2.png"",""time"":213},{""stimulus"":""img/1to3/3.png"",""time"":305},{""stimulus"":""img/1to3/4.png"",""time"":397},{""stimulus"":""img/1to3/5.png"",""time"":506},{""stimulus"":""img/1to3/6.png"",""time"":595},{""stimulus"":""img/1to3/7.png"",""time"":702},{""stimulus"":""img/1to3/8.png"",""time"":807},{""stimulus"":""img/1to3/9.png"",""time"":899},{""stimulus"":""img/1to3/10.png"",""time"":992},{""stimulus"":""img/1to3/11.png"",""time"":1098},{""stimulus"":""img/1to3/12.png"",""time"":1190}]","[]"
"","","","observe","63cff34d33a9948e3b0b28d6","bdp_cybrbll","Wed Mar 29 2023 03:11:26 GMT-0500 (Central Daylight Time)","465880","3","1","image-keyboard-response","14","77860","0.0-5.0-1.5","","null","","img/3to2/1.png","null","220","549","0.5","0.5","3","1","",""
"","","","","63cff34d33a9948e3b0b28d6","bdp_cybrbll","Wed Mar 29 2023 03:11:26 GMT-0500 (Central Daylight Time)","465880","3","1","animation","15","79147","0.0-5.0-2.5","","","","","","220","","","","3","1","[{""stimulus"":""img/3to1/1.png"",""time"":113},{""stimulus"":""img/3to1/2.png"",""time"":201},{""stimulus"":""img/3to1/3.png"",""time"":308},{""stimulus"":""img/3to1/4.png"",""time"":398},{""stimulus"":""img/3to1/5.png"",""time"":496},{""stimulus"":""img/3to1/6.png"",""time"":596},{""stimulus"":""img/3to1/7.png"",""time"":705},{""stimulus"":""img/3to1/8.png"",""time"":797},{""stimulus"":""img/3to1/9.png"",""time"":907},{""stimulus"":""img/3to1/10.png"",""time"":993},{""stimulus"":""img/3to1/11.png"",""time"":1101},{""stimulus"":""img/3to1/12.png"",""time"":1193}]","[]"
"","","","observe","63cff34d33a9948e3b0b28d6","bdp_cybrbll","Wed Mar 29 2023 03:11:26 GMT-0500 (Central Daylight Time)","465880","3","1","image-keyboard-response","16","79679","0.0-5.0-1.6","","null","","img/1to3/1.png","null","219","527","0.5","0.5","1","3","",""
"","","","","63cff34d33a9948e3b0b28d6","bdp_cybrbll","Wed Mar 29 2023 03:11:26 GMT-0500 (Central Daylight Time)","465880","3","1","animation","17","80967","0.0-5.0-2.6","","","","","","219","","","","1","3","[{""stimulus"":""img/1to3/1.png"",""time"":108},{""stimulus"":""img/1to3/2.png"",""time"":213},{""stimulus"":""img/1to3/3.png"",""time"":305},{""stimulus"":""img/1to3/4.png"",""time"":398},{""stimulus"":""img/1to3/5.png"",""time"":501},{""stimulus"":""img/1to3/6.png"",""time"":607},{""stimulus"":""img/1to3/7.png"",""time"":695},{""stimulus"":""img/1to3/8.png"",""time"":793},{""stimulus"":""img/1to3/9.png"",""time"":900},{""stimulus"":""img/1to3/10.png"",""time"":1004},{""stimulus"":""img/1to3/11.png"",""time"":1091},{""stimulus"":""img/1to3/12.png"",""time"":1201}]","[]"
"","","","observe","63cff34d33a9948e3b0b28d6","bdp_cybrbll","Wed Mar 29 2023 03:11:26 GMT-0500 (Central Daylight Time)","465880","3","1","image-keyboard-response","18","81828","0.0-5.0-1.7","","null","","img/3to2/1.png","null","218","853","0.5","0.5","3","1","",""
"","","","","63cff34d33a9948e3b0b28d6","bdp_cybrbll","Wed Mar 29 2023 03:11:26 GMT-0500 (Central Daylight Time)","465880","3","1","animation","19","83116","0.0-5.0-2.7","","","","","","218","","","","3","1","[{""stimulus"":""img/3to1/1.png"",""time"":106},{""stimulus"":""img/3to1/2.png"",""time"":199},{""stimulus"":""img/3to1/3.png"",""time"":298},{""stimulus"":""img/3to1/4.png"",""time"":410},{""stimulus"":""img/3to1/5.png"",""time"":496},{""stimulus"":""img/3to1/6.png"",""time"":595},{""stimulus"":""img/3to1/7.png"",""time"":697},{""stimulus"":""img/3to1/8.png"",""time"":803},{""stimulus"":""img/3to1/9.png"",""time"":894},{""stimulus"":""img/3to1/10.png"",""time"":1000},{""stimulus"":""img/3to1/11.png"",""time"":1094},{""stimulus"":""img/3to1/12.png"",""time"":1203}]","[]"
"","","","observe","63cff34d33a9948e3b0b28d6","bdp_cybrbll","Wed Mar 29 2023 03:11:26 GMT-0500 (Central Daylight Time)","465880","3","1","image-keyboard-response","20","83288","0.0-5.0-1.8","","null","","img/1to3/1.png","null","217","162","0.5","0.5","1","3","",""
"","","","","63cff34d33a9948e3b0b28d6","bdp_cybrbll","Wed Mar 29 2023 03:11:26 GMT-0500 (Central Daylight Time)","465880","3","1","animation","21","84579","0.0-5.0-2.8","","","","","","217","","","","1","3","[{""stimulus"":""img/1to3/1.png"",""time"":107},{""stimulus"":""img/1to3/2.png"",""time"":200},{""stimulus"":""img/1to3/3.png"",""time"":306},{""stimulus"":""img/1to3/4.png"",""time"":397},{""stimulus"":""img/1to3/5.png"",""time"":502},{""stimulus"":""img/1to3/6.png"",""time"":608},{""stimulus"":""img/1to3/7.png"",""time"":699},{""stimulus"":""img/1to3/8.png"",""time"":806},{""stimulus"":""img/1to3/9.png"",""time"":896},{""stimulus"":""img/1to3/10.png"",""time"":991},{""stimulus"":""img/1to3/11.png"",""time"":1090},{""stimulus"":""img/1to3/12.png"",""time"":1199}]","[]"
"","","","observe","63cff34d33a9948e3b0b28d6","bdp_cybrbll","Wed Mar 29 2023 03:11:26 GMT-0500 (Central Daylight Time)","465880","3","1","image-keyboard-response","22","84896","0.0-5.0-1.9","","null","","img/3to2/1.png","null","216","313","0.5","0.5","3","1","",""
"","","","","63cff34d33a9948e3b0b28d6","bdp_cybrbll","Wed Mar 29 2023 03:11:26 GMT-0500 (Central Daylight Time)","465880","3","1","animation","23","86185","0.0-5.0-2.9","","","","","","216","","","","3","1","[{""stimulus"":""img/3to1/1.png"",""time"":115},{""stimulus"":""img/3to1/2.png"",""time"":214},{""stimulus"":""img/3to1/3.png"",""time"":308},{""stimulus"":""img/3to1/4.png"",""time"":399},{""stimulus"":""img/3to1/5.png"",""time"":507},{""stimulus"":""img/3to1/6.png"",""time"":599},{""stimulus"":""img/3to1/7.png"",""time"":707},{""stimulus"":""img/3to1/8.png"",""time"":798},{""stimulus"":""img/3to1/9.png"",""time"":905},{""stimulus"":""img/3to1/10.png"",""time"":995},{""stimulus"":""img/3to1/11.png"",""time"":1106},{""stimulus"":""img/3to1/12.png"",""time"":1197}]","[]"
"","","","observe","63cff34d33a9948e3b0b28d6","bdp_cybrbll","Wed Mar 29 2023 03:11:26 GMT-0500 (Central Daylight Time)","465880","3","1","image-keyboard-response","24","86680","0.0-5.0-1.10","","null","","img/1to3/1.png","null","215","490","0.5","0.5","1","3","",""
"","","","","63cff34d33a9948e3b0b28d6","bdp_cybrbll","Wed Mar 29 2023 03:11:26 GMT-0500 (Central Daylight Time)","465880","3","1","animation","25","87977","0.0-5.0-2.10","","","","","","215","","","","1","3","[{""stimulus"":""img/1to3/1.png"",""time"":117},{""stimulus"":""img/1to3/2.png"",""time"":203},{""stimulus"":""img/1to3/3.png"",""time"":308},{""stimulus"":""img/1to3/4.png"",""time"":399},{""stimulus"":""img/1to3/5.png"",""time"":506},{""stimulus"":""img/1to3/6.png"",""time"":596},{""stimulus"":""img/1to3/7.png"",""time"":704},{""stimulus"":""img/1to3/8.png"",""time"":794},{""stimulus"":""img/1to3/9.png"",""time"":903},{""stimulus"":""img/1to3/10.png"",""time"":994},{""stimulus"":""img/1to3/11.png"",""time"":1091},{""stimulus"":""img/1to3/12.png"",""time"":1198}]","[]"
"","","","observe","63cff34d33a9948e3b0b28d6","bdp_cybrbll","Wed Mar 29 2023 03:11:26 GMT-0500 (Central Daylight Time)","465880","3","1","image-keyboard-response","26","88145","0.0-5.0-1.11","","null","","img/3to2/1.png","null","214","163","0.5","0.5","3","2","",""
"","","","","63cff34d33a9948e3b0b28d6","bdp_cybrbll","Wed Mar 29 2023 03:11:26 GMT-0500 (Central Daylight Time)","465880","3","1","animation","27","89439","0.0-5.0-2.11","","","","","","214","","","","3","2","[{""stimulus"":""img/3to2/1.png"",""time"":106},{""stimulus"":""img/3to2/2.png"",""time"":212},{""stimulus"":""img/3to2/3.png"",""time"":303},{""stimulus"":""img/3to2/4.png"",""time"":409},{""stimulus"":""img/3to2/5.png"",""time"":498},{""stimulus"":""img/3to2/6.png"",""time"":607},{""stimulus"":""img/3to2/7.png"",""time"":697},{""stimulus"":""img/3to2/8.png"",""time"":806},{""stimulus"":""img/3to2/9.png"",""time"":893},{""stimulus"":""img/3to2/10.png"",""time"":1009},{""stimulus"":""img/3to2/11.png"",""time"":1098},{""stimulus"":""img/3to2/12.png"",""time"":1205}]","[]"
"","","","choice","63cff34d33a9948e3b0b28d6","bdp_cybrbll","Wed Mar 29 2023 03:11:26 GMT-0500 (Central Daylight Time)","465880","3","1","image-keyboard-response","28","89604","0.0-5.0-1.12","","164","","img/2to1/1.png","2","213","716","0.5","0.5","2","3","",""
"","","","","63cff34d33a9948e3b0b28d6","bdp_cybrbll","Wed Mar 29 2023 03:11:26 GMT-0500 (Central Daylight Time)","465880","3","1","animation","29","90906","0.0-5.0-2.12","","","","","","213","","","","2","3","[{""stimulus"":""img/2to3/1.png"",""time"":107},{""stimulus"":""img/2to3/2.png"",""time"":199},{""stimulus"":""img/2to3/3.png"",""time"":308},{""stimulus"":""img/2to3/4.png"",""time"":401},{""stimulus"":""img/2to3/5.png"",""time"":509},{""stimulus"":""img/2to3/6.png"",""time"":599},{""stimulus"":""img/2to3/7.png"",""time"":694},{""stimulus"":""img/2to3/8.png"",""time"":796},{""stimulus"":""img/2to3/9.png"",""time"":892},{""stimulus"":""img/2to3/10.png"",""time"":992},{""stimulus"":""img/2to3/11.png"",""time"":1090},{""stimulus"":""img/2to3/12.png"",""time"":1194}]","[]"
"","","","observe","63cff34d33a9948e3b0b28d6","bdp_cybrbll","Wed Mar 29 2023 03:11:26 GMT-0500 (Central Daylight Time)","465880","3","1","image-keyboard-response","30","91333","0.0-5.0-1.13","","null","","img/3to2/1.png","null","212","414","0.5","0.5","3","2","",""
"","","","","63cff34d33a9948e3b0b28d6","bdp_cybrbll","Wed Mar 29 2023 03:11:26 GMT-0500 (Central Daylight Time)","465880","3","1","animation","31","92628","0.0-5.0-2.13","","","","","","212","","","","3","2","[{""stimulus"":""img/3to2/1.png"",""time"":106},{""stimulus"":""img/3to2/2.png"",""time"":213},{""stimulus"":""img/3to2/3.png"",""time"":303},{""stimulus"":""img/3to2/4.png"",""time"":411},{""stimulus"":""img/3to2/5.png"",""time"":504},{""stimulus"":""img/3to2/6.png"",""time"":609},{""stimulus"":""img/3to2/7.png"",""time"":702},{""stimulus"":""img/3to2/8.png"",""time"":807},{""stimulus"":""img/3to2/9.png"",""time"":898},{""stimulus"":""img/3to2/10.png"",""time"":1004},{""stimulus"":""img/3to2/11.png"",""time"":1095},{""stimulus"":""img/3to2/12.png"",""time"":1190}]","[]"
"","","","choice","63cff34d33a9948e3b0b28d6","bdp_cybrbll","Wed Mar 29 2023 03:11:26 GMT-0500 (Central Daylight Time)","465880","3","1","image-keyboard-response","32","92722","0.0-5.0-1.14","","94","","img/2to1/1.png","2","211","259","0.5","0.5","2","3","",""
"","","","","63cff34d33a9948e3b0b28d6","bdp_cybrbll","Wed Mar 29 2023 03:11:26 GMT-0500 (Central Daylight Time)","465880","3","1","animation","33","94014","0.0-5.0-2.14","","","","","","211","","","","2","3","[{""stimulus"":""img/2to3/1.png"",""time"":105},{""stimulus"":""img/2to3/2.png"",""time"":213},{""stimulus"":""img/2to3/3.png"",""time"":300},{""stimulus"":""img/2to3/4.png"",""time"":397},{""stimulus"":""img/2to3/5.png"",""time"":499},{""stimulus"":""img/2to3/6.png"",""time"":596},{""stimulus"":""img/2to3/7.png"",""time"":697},{""stimulus"":""img/2to3/8.png"",""time"":805},{""stimulus"":""img/2to3/9.png"",""time"":895},{""stimulus"":""img/2to3/10.png"",""time"":1003},{""stimulus"":""img/2to3/11.png"",""time"":1095},{""stimulus"":""img/2to3/12.png"",""time"":1200}]","[]"
"","","","observe","63cff34d33a9948e3b0b28d6","bdp_cybrbll","Wed Mar 29 2023 03:11:26 GMT-0500 (Central Daylight Time)","465880","3","1","image-keyboard-response","34","94456","0.0-5.0-1.15","","null","","img/3to2/1.png","null","210","440","0.5","0.5","3","1","",""
"","","","","63cff34d33a9948e3b0b28d6","bdp_cybrbll","Wed Mar 29 2023 03:11:26 GMT-0500 (Central Daylight Time)","465880","3","1","animation","35","95749","0.0-5.0-2.15","","","","","","210","","","","3","1","[{""stimulus"":""img/3to1/1.png"",""time"":107},{""stimulus"":""img/3to1/2.png"",""time"":211},{""stimulus"":""img/3to1/3.png"",""time"":309},{""stimulus"":""img/3to1/4.png"",""time"":407},{""stimulus"":""img/3to1/5.png"",""time"":499},{""stimulus"":""img/3to1/6.png"",""time"":605},{""stimulus"":""img/3to1/7.png"",""time"":695},{""stimulus"":""img/3to1/8.png"",""time"":805},{""stimulus"":""img/3to1/9.png"",""time"":896},{""stimulus"":""img/3to1/10.png"",""time"":1003},{""stimulus"":""img/3to1/11.png"",""time"":1096},{""stimulus"":""img/3to1/12.png"",""time"":1189}]","[]"
"","","","observe","63cff34d33a9948e3b0b28d6","bdp_cybrbll","Wed Mar 29 2023 03:11:26 GMT-0500 (Central Daylight Time)","465880","3","1","image-keyboard-response","36","96040","0.0-5.0-1.16","","null","","img/1to3/1.png","null","209","283","0.5","0.5","1","3","",""
"","","","","63cff34d33a9948e3b0b28d6","bdp_cybrbll","Wed Mar 29 2023 03:11:26 GMT-0500 (Central Daylight Time)","465880","3","1","animation","37","97329","0.0-5.0-2.16","","","","","","209","","","","1","3","[{""stimulus"":""img/1to3/1.png"",""time"":106},{""stimulus"":""img/1to3/2.png"",""time"":213},{""stimulus"":""img/1to3/3.png"",""time"":304},{""stimulus"":""img/1to3/4.png"",""time"":412},{""stimulus"":""img/1to3/5.png"",""time"":503},{""stimulus"":""img/1to3/6.png"",""time"":595},{""stimulus"":""img/1to3/7.png"",""time"":699},{""stimulus"":""img/1to3/8.png"",""time"":807},{""stimulus"":""img/1to3/9.png"",""time"":892},{""stimulus"":""img/1to3/10.png"",""time"":1001},{""stimulus"":""img/1to3/11.png"",""time"":1100},{""stimulus"":""img/1to3/12.png"",""time"":1199}]","[]"
"","","","observe","63cff34d33a9948e3b0b28d6","bdp_cybrbll","Wed Mar 29 2023 03:11:26 GMT-0500 (Central Daylight Time)","465880","3","1","image-keyboard-response","38","98243","0.0-5.0-1.17","","null","","img/3to2/1.png","null","208","911","0.5","0.5","3","2","",""
"","","","","63cff34d33a9948e3b0b28d6","bdp_cybrbll","Wed Mar 29 2023 03:11:26 GMT-0500 (Central Daylight Time)","465880","3","1","animation","39","99531","0.0-5.0-2.17","","","","","","208","","","","3","2","[{""stimulus"":""img/3to2/1.png"",""time"":107},{""stimulus"":""img/3to2/2.png"",""time"":213},{""stimulus"":""img/3to2/3.png"",""time"":303},{""stimulus"":""img/3to2/4.png"",""time"":417},{""stimulus"":""img/3to2/5.png"",""time"":500},{""stimulus"":""img/3to2/6.png"",""time"":603},{""stimulus"":""img/3to2/7.png"",""time"":720},{""stimulus"":""img/3to2/8.png"",""time"":799},{""stimulus"":""img/3to2/9.png"",""time"":907},{""stimulus"":""img/3to2/10.png"",""time"":992},{""stimulus"":""img/3to2/11.png"",""time"":1103},{""stimulus"":""img/3to2/12.png"",""time"":1197}]","[]"
"","","","choice","63cff34d33a9948e3b0b28d6","bdp_cybrbll","Wed Mar 29 2023 03:11:26 GMT-0500 (Central Daylight Time)","465880","3","1","image-keyboard-response","40","99681","0.0-5.0-1.18","","150","","img/2to1/1.png","1","207","909","0.5","0.5","2","1","",""
"","","","","63cff34d33a9948e3b0b28d6","bdp_cybrbll","Wed Mar 29 2023 03:11:26 GMT-0500 (Central Daylight Time)","465880","3","1","animation","41","100969","0.0-5.0-2.18","","","","","","207","","","","2","1","[{""stimulus"":""img/2to1/1.png"",""time"":107},{""stimulus"":""img/2to1/2.png"",""time"":202},{""stimulus"":""img/2to1/3.png"",""time"":306},{""stimulus"":""img/2to1/4.png"",""time"":400},{""stimulus"":""img/2to1/5.png"",""time"":506},{""stimulus"":""img/2to1/6.png"",""time"":598},{""stimulus"":""img/2to1/7.png"",""time"":695},{""stimulus"":""img/2to1/8.png"",""time"":793},{""stimulus"":""img/2to1/9.png"",""time"":904},{""stimulus"":""img/2to1/10.png"",""time"":995},{""stimulus"":""img/2to1/11.png"",""time"":1101},{""stimulus"":""img/2to1/12.png"",""time"":1188}]","[]"
"","","","observe","63cff34d33a9948e3b0b28d6","bdp_cybrbll","Wed Mar 29 2023 03:11:26 GMT-0500 (Central Daylight Time)","465880","3","1","image-keyboard-response","42","101986","0.0-5.0-1.19","","null","","img/1to3/1.png","null","206","1004","0.5","0.5","1","2","",""
"","","","","63cff34d33a9948e3b0b28d6","bdp_cybrbll","Wed Mar 29 2023 03:11:26 GMT-0500 (Central Daylight Time)","465880","3","1","animation","43","103283","0.0-5.0-2.19","","","","","","206","","","","1","2","[{""stimulus"":""img/1to2/1.png"",""time"":106},{""stimulus"":""img/1to2/2.png"",""time"":215},{""stimulus"":""img/1to2/3.png"",""time"":304},{""stimulus"":""img/1to2/4.png"",""time"":411},{""stimulus"":""img/1to2/5.png"",""time"":503},{""stimulus"":""img/1to2/6.png"",""time"":608},{""stimulus"":""img/1to2/7.png"",""time"":698},{""stimulus"":""img/1to2/8.png"",""time"":804},{""stimulus"":""img/1to2/9.png"",""time"":900},{""stimulus"":""img/1to2/10.png"",""time"":1006},{""stimulus"":""img/1to2/11.png"",""time"":1098},{""stimulus"":""img/1to2/12.png"",""time"":1190}]","[]"
"","","","choice","63cff34d33a9948e3b0b28d6","bdp_cybrbll","Wed Mar 29 2023 03:11:26 GMT-0500 (Central Daylight Time)","465880","3","1","image-keyboard-response","44","103661","0.0-5.0-1.20","","377","","img/2to1/1.png","1","205","236","0.5","0.5","2","1","",""
"","","","","63cff34d33a9948e3b0b28d6","bdp_cybrbll","Wed Mar 29 2023 03:11:26 GMT-0500 (Central Daylight Time)","465880","3","1","animation","45","104956","0.0-5.0-2.20","","","","","","205","","","","2","1","[{""stimulus"":""img/2to1/1.png"",""time"":107},{""stimulus"":""img/2to1/2.png"",""time"":214},{""stimulus"":""img/2to1/3.png"",""time"":307},{""stimulus"":""img/2to1/4.png"",""time"":410},{""stimulus"":""img/2to1/5.png"",""time"":503},{""stimulus"":""img/2to1/6.png"",""time"":609},{""stimulus"":""img/2to1/7.png"",""time"":704},{""stimulus"":""img/2to1/8.png"",""time"":793},{""stimulus"":""img/2to1/9.png"",""time"":892},{""stimulus"":""img/2to1/10.png"",""time"":991},{""stimulus"":""img/2to1/11.png"",""time"":1098},{""stimulus"":""img/2to1/12.png"",""time"":1203}]","[]"
"","","","observe","63cff34d33a9948e3b0b28d6","bdp_cybrbll","Wed Mar 29 2023 03:11:26 GMT-0500 (Central Daylight Time)","465880","3","1","image-keyboard-response","46","105230","0.0-5.0-1.21","","null","","img/1to3/1.png","null","204","261","0.5","0.5","1","3","",""
"","","","","63cff34d33a9948e3b0b28d6","bdp_cybrbll","Wed Mar 29 2023 03:11:26 GMT-0500 (Central Daylight Time)","465880","3","1","animation","47","106523","0.0-5.0-2.21","","","","","","204","","","","1","3","[{""stimulus"":""img/1to3/1.png"",""time"":106},{""stimulus"":""img/1to3/2.png"",""time"":199},{""stimulus"":""img/1to3/3.png"",""time"":303},{""stimulus"":""img/1to3/4.png"",""time"":410},{""stimulus"":""img/1to3/5.png"",""time"":504},{""stimulus"":""img/1to3/6.png"",""time"":608},{""stimulus"":""img/1to3/7.png"",""time"":697},{""stimulus"":""img/1to3/8.png"",""time"":807},{""stimulus"":""img/1to3/9.png"",""time"":898},{""stimulus"":""img/1to3/10.png"",""time"":1011},{""stimulus"":""img/1to3/11.png"",""time"":1097},{""stimulus"":""img/1to3/12.png"",""time"":1204}]","[]"
"","","","observe","63cff34d33a9948e3b0b28d6","bdp_cybrbll","Wed Mar 29 2023 03:11:26 GMT-0500 (Central Daylight Time)","465880","3","1","image-keyboard-response","48","106918","0.0-5.0-1.22","","null","","img/3to2/1.png","null","203","391","0.5","0.5","3","1","",""
"","","","","63cff34d33a9948e3b0b28d6","bdp_cybrbll","Wed Mar 29 2023 03:11:26 GMT-0500 (Central Daylight Time)","465880","3","1","animation","49","108208","0.0-5.0-2.22","","","","","","203","","","","3","1","[{""stimulus"":""img/3to1/1.png"",""time"":111},{""stimulus"":""img/3to1/2.png"",""time"":199},{""stimulus"":""img/3to1/3.png"",""time"":306},{""stimulus"":""img/3to1/4.png"",""time"":398},{""stimulus"":""img/3to1/5.png"",""time"":496},{""stimulus"":""img/3to1/6.png"",""time"":596},{""stimulus"":""img/3to1/7.png"",""time"":704},{""stimulus"":""img/3to1/8.png"",""time"":799},{""stimulus"":""img/3to1/9.png"",""time"":892},{""stimulus"":""img/3to1/10.png"",""time"":991},{""stimulus"":""img/3to1/11.png"",""time"":1092},{""stimulus"":""img/3to1/12.png"",""time"":1201}]","[]"
"","","","observe","63cff34d33a9948e3b0b28d6","bdp_cybrbll","Wed Mar 29 2023 03:11:26 GMT-0500 (Central Daylight Time)","465880","3","1","image-keyboard-response","50","108599","0.0-5.0-1.23","","null","","img/1to3/1.png","null","202","388","0.5","0.5","1","2","",""
"","","","","63cff34d33a9948e3b0b28d6","bdp_cybrbll","Wed Mar 29 2023 03:11:26 GMT-0500 (Central Daylight Time)","465880","3","1","animation","51","109888","0.0-5.0-2.23","","","","","","202","","","","1","2","[{""stimulus"":""img/1to2/1.png"",""time"":113},{""stimulus"":""img/1to2/2.png"",""time"":208},{""stimulus"":""img/1to2/3.png"",""time"":311},{""stimulus"":""img/1to2/4.png"",""time"":406},{""stimulus"":""img/1to2/5.png"",""time"":508},{""stimulus"":""img/1to2/6.png"",""time"":601},{""stimulus"":""img/1to2/7.png"",""time"":705},{""stimulus"":""img/1to2/8.png"",""time"":799},{""stimulus"":""img/1to2/9.png"",""time"":903},{""stimulus"":""img/1to2/10.png"",""time"":995},{""stimulus"":""img/1to2/11.png"",""time"":1101},{""stimulus"":""img/1to2/12.png"",""time"":1191}]","[]"
"","","","choice","63cff34d33a9948e3b0b28d6","bdp_cybrbll","Wed Mar 29 2023 03:11:26 GMT-0500 (Central Daylight Time)","465880","3","1","image-keyboard-response","52","110362","0.0-5.0-1.24","","473","","img/2to1/1.png","1","201","616","0.5","0.5","2","1","",""
"","","","","63cff34d33a9948e3b0b28d6","bdp_cybrbll","Wed Mar 29 2023 03:11:26 GMT-0500 (Central Daylight Time)","465880","3","1","animation","53","111651","0.0-5.0-2.24","","","","","","201","","","","2","1","[{""stimulus"":""img/2to1/1.png"",""time"":111},{""stimulus"":""img/2to1/2.png"",""time"":205},{""stimulus"":""img/2to1/3.png"",""time"":310},{""stimulus"":""img/2to1/4.png"",""time"":401},{""stimulus"":""img/2to1/5.png"",""time"":511},{""stimulus"":""img/2to1/6.png"",""time"":594},{""stimulus"":""img/2to1/7.png"",""time"":707},{""stimulus"":""img/2to1/8.png"",""time"":806},{""stimulus"":""img/2to1/9.png"",""time"":892},{""stimulus"":""img/2to1/10.png"",""time"":994},{""stimulus"":""img/2to1/11.png"",""time"":1090},{""stimulus"":""img/2to1/12.png"",""time"":1196}]","[]"
"","","","observe","63cff34d33a9948e3b0b28d6","bdp_cybrbll","Wed Mar 29 2023 03:11:26 GMT-0500 (Central Daylight Time)","465880","3","1","image-keyboard-response","54","112277","0.0-5.0-1.25","","null","","img/1to3/1.png","null","200","618","0.5","0.5","1","3","",""
"","","","","63cff34d33a9948e3b0b28d6","bdp_cybrbll","Wed Mar 29 2023 03:11:26 GMT-0500 (Central Daylight Time)","465880","3","1","animation","55","113565","0.0-5.0-2.25","","","","","","200","","","","1","3","[{""stimulus"":""img/1to3/1.png"",""time"":106},{""stimulus"":""img/1to3/2.png"",""time"":198},{""stimulus"":""img/1to3/3.png"",""time"":297},{""stimulus"":""img/1to3/4.png"",""time"":397},{""stimulus"":""img/1to3/5.png"",""time"":504},{""stimulus"":""img/1to3/6.png"",""time"":596},{""stimulus"":""img/1to3/7.png"",""time"":694},{""stimulus"":""img/1to3/8.png"",""time"":793},{""stimulus"":""img/1to3/9.png"",""time"":899},{""stimulus"":""img/1to3/10.png"",""time"":995},{""stimulus"":""img/1to3/11.png"",""time"":1098},{""stimulus"":""img/1to3/12.png"",""time"":1189}]","[]"
"","","","observe","63cff34d33a9948e3b0b28d6","bdp_cybrbll","Wed Mar 29 2023 03:11:26 GMT-0500 (Central Daylight Time)","465880","3","1","image-keyboard-response","56","113969","0.0-5.0-1.26","","null","","img/3to2/1.png","null","199","388","0.5","0.5","3","2","",""
"","","","","63cff34d33a9948e3b0b28d6","bdp_cybrbll","Wed Mar 29 2023 03:11:26 GMT-0500 (Central Daylight Time)","465880","3","1","animation","57","115269","0.0-5.0-2.26","","","","","","199","","","","3","2","[{""stimulus"":""img/3to2/1.png"",""time"":102},{""stimulus"":""img/3to2/2.png"",""time"":208},{""stimulus"":""img/3to2/3.png"",""time"":312},{""stimulus"":""img/3to2/4.png"",""time"":399},{""stimulus"":""img/3to2/5.png"",""time"":510},{""stimulus"":""img/3to2/6.png"",""time"":602},{""stimulus"":""img/3to2/7.png"",""time"":707},{""stimulus"":""img/3to2/8.png"",""time"":793},{""stimulus"":""img/3to2/9.png"",""time"":902},{""stimulus"":""img/3to2/10.png"",""time"":993},{""stimulus"":""img/3to2/11.png"",""time"":1100},{""stimulus"":""img/3to2/12.png"",""time"":1191}]","[]"
"","","","choice","63cff34d33a9948e3b0b28d6","bdp_cybrbll","Wed Mar 29 2023 03:11:26 GMT-0500 (Central Daylight Time)","465880","3","1","image-keyboard-response","58","115621","0.0-5.0-1.27","","350","","img/2to1/1.png","2","198","630","0.5","0.5","2","3","",""
"","","","","63cff34d33a9948e3b0b28d6","bdp_cybrbll","Wed Mar 29 2023 03:11:26 GMT-0500 (Central Daylight Time)","465880","3","1","animation","59","116916","0.0-5.0-2.27","","","","","","198","","","","2","3","[{""stimulus"":""img/2to3/1.png"",""time"":107},{""stimulus"":""img/2to3/2.png"",""time"":213},{""stimulus"":""img/2to3/3.png"",""time"":303},{""stimulus"":""img/2to3/4.png"",""time"":409},{""stimulus"":""img/2to3/5.png"",""time"":501},{""stimulus"":""img/2to3/6.png"",""time"":605},{""stimulus"":""img/2to3/7.png"",""time"":695},{""stimulus"":""img/2to3/8.png"",""time"":793},{""stimulus"":""img/2to3/9.png"",""time"":896},{""stimulus"":""img/2to3/10.png"",""time"":993},{""stimulus"":""img/2to3/11.png"",""time"":1093},{""stimulus"":""img/2to3/12.png"",""time"":1190}]","[]"
"","","","observe","63cff34d33a9948e3b0b28d6","bdp_cybrbll","Wed Mar 29 2023 03:11:26 GMT-0500 (Central Daylight Time)","465880","3","1","image-keyboard-response","60","117219","0.0-5.0-1.28","","null","","img/3to2/1.png","null","197","286","0.5","0.5","3","2","",""
"","","","","63cff34d33a9948e3b0b28d6","bdp_cybrbll","Wed Mar 29 2023 03:11:26 GMT-0500 (Central Daylight Time)","465880","3","1","animation","61","118511","0.0-5.0-2.28","","","","","","197","","","","3","2","[{""stimulus"":""img/3to2/1.png"",""time"":107},{""stimulus"":""img/3to2/2.png"",""time"":214},{""stimulus"":""img/3to2/3.png"",""time"":306},{""stimulus"":""img/3to2/4.png"",""time"":412},{""stimulus"":""img/3to2/5.png"",""time"":496},{""stimulus"":""img/3to2/6.png"",""time"":613},{""stimulus"":""img/3to2/7.png"",""time"":701},{""stimulus"":""img/3to2/8.png"",""time"":807},{""stimulus"":""img/3to2/9.png"",""time"":900},{""stimulus"":""img/3to2/10.png"",""time"":1004},{""stimulus"":""img/3to2/11.png"",""time"":1099},{""stimulus"":""img/3to2/12.png"",""time"":1203}]","[]"
"","","","choice","63cff34d33a9948e3b0b28d6","bdp_cybrbll","Wed Mar 29 2023 03:11:26 GMT-0500 (Central Daylight Time)","465880","3","1","image-keyboard-response","62","118678","0.0-5.0-1.29","","165","","img/2to1/1.png","2","196","328","0.5","0.5","2","3","",""
"","","","","63cff34d33a9948e3b0b28d6","bdp_cybrbll","Wed Mar 29 2023 03:11:26 GMT-0500 (Central Daylight Time)","465880","3","1","animation","63","119969","0.0-5.0-2.29","","","","","","196","","","","2","3","[{""stimulus"":""img/2to3/1.png"",""time"":108},{""stimulus"":""img/2to3/2.png"",""time"":200},{""stimulus"":""img/2to3/3.png"",""time"":304},{""stimulus"":""img/2to3/4.png"",""time"":410},{""stimulus"":""img/2to3/5.png"",""time"":496},{""stimulus"":""img/2to3/6.png"",""time"":598},{""stimulus"":""img/2to3/7.png"",""time"":699},{""stimulus"":""img/2to3/8.png"",""time"":797},{""stimulus"":""img/2to3/9.png"",""time"":895},{""stimulus"":""img/2to3/10.png"",""time"":991},{""stimulus"":""img/2to3/11.png"",""time"":1089},{""stimulus"":""img/2to3/12.png"",""time"":1199}]","[]"
"","","","observe","63cff34d33a9948e3b0b28d6","bdp_cybrbll","Wed Mar 29 2023 03:11:26 GMT-0500 (Central Daylight Time)","465880","3","1","image-keyboard-response","64","120669","0.0-5.0-1.30","","null","","img/3to2/1.png","null","195","695","0.5","0.5","3","2","",""
"","","","","63cff34d33a9948e3b0b28d6","bdp_cybrbll","Wed Mar 29 2023 03:11:26 GMT-0500 (Central Daylight Time)","465880","3","1","animation","65","121957","0.0-5.0-2.30","","","","","","195","","","","3","2","[{""stimulus"":""img/3to2/1.png"",""time"":105},{""stimulus"":""img/3to2/2.png"",""time"":210},{""stimulus"":""img/3to2/3.png"",""time"":301},{""stimulus"":""img/3to2/4.png"",""time"":406},{""stimulus"":""img/3to2/5.png"",""time"":499},{""stimulus"":""img/3to2/6.png"",""time"":604},{""stimulus"":""img/3to2/7.png"",""time"":694},{""stimulus"":""img/3to2/8.png"",""time"":800},{""stimulus"":""img/3to2/9.png"",""time"":893},{""stimulus"":""img/3to2/10.png"",""time"":998},{""stimulus"":""img/3to2/11.png"",""time"":1091},{""stimulus"":""img/3to2/12.png"",""time"":1199}]","[]"
"","","","choice","63cff34d33a9948e3b0b28d6","bdp_cybrbll","Wed Mar 29 2023 03:11:26 GMT-0500 (Central Daylight Time)","465880","3","1","image-keyboard-response","66","122088","0.0-5.0-1.31","","130","","img/2to1/1.png","1","194","544","0.5","0.5","2","1","",""
"","","","","63cff34d33a9948e3b0b28d6","bdp_cybrbll","Wed Mar 29 2023 03:11:26 GMT-0500 (Central Daylight Time)","465880","3","1","animation","67","123386","0.0-5.0-2.31","","","","","","194","","","","2","1","[{""stimulus"":""img/2to1/1.png"",""time"":103},{""stimulus"":""img/2to1/2.png"",""time"":199},{""stimulus"":""img/2to1/3.png"",""time"":304},{""stimulus"":""img/2to1/4.png"",""time"":397},{""stimulus"":""img/2to1/5.png"",""time"":496},{""stimulus"":""img/2to1/6.png"",""time"":609},{""stimulus"":""img/2to1/7.png"",""time"":701},{""stimulus"":""img/2to1/8.png"",""time"":800},{""stimulus"":""img/2to1/9.png"",""time"":900},{""stimulus"":""img/2to1/10.png"",""time"":991},{""stimulus"":""img/2to1/11.png"",""time"":1100},{""stimulus"":""img/2to1/12.png"",""time"":1191}]","[]"
"","","","observe","63cff34d33a9948e3b0b28d6","bdp_cybrbll","Wed Mar 29 2023 03:11:26 GMT-0500 (Central Daylight Time)","465880","3","1","image-keyboard-response","68","124167","0.0-5.0-1.32","","null","","img/1to3/1.png","null","193","779","0.5","0.5","1","3","",""
"","","","","63cff34d33a9948e3b0b28d6","bdp_cybrbll","Wed Mar 29 2023 03:11:26 GMT-0500 (Central Daylight Time)","465880","3","1","animation","69","125463","0.0-5.0-2.32","","","","","","193","","","","1","3","[{""stimulus"":""img/1to3/1.png"",""time"":105},{""stimulus"":""img/1to3/2.png"",""time"":200},{""stimulus"":""img/1to3/3.png"",""time"":305},{""stimulus"":""img/1to3/4.png"",""time"":410},{""stimulus"":""img/1to3/5.png"",""time"":496},{""stimulus"":""img/1to3/6.png"",""time"":610},{""stimulus"":""img/1to3/7.png"",""time"":694},{""stimulus"":""img/1to3/8.png"",""time"":808},{""stimulus"":""img/1to3/9.png"",""time"":902},{""stimulus"":""img/1to3/10.png"",""time"":992},{""stimulus"":""img/1to3/11.png"",""time"":1100},{""stimulus"":""img/1to3/12.png"",""time"":1204}]","[]"
"","","","observe","63cff34d33a9948e3b0b28d6","bdp_cybrbll","Wed Mar 29 2023 03:11:26 GMT-0500 (Central Daylight Time)","465880","3","1","image-keyboard-response","70","126345","0.0-5.0-1.33","","null","","img/3to2/1.png","null","192","881","0.5","0.5","3","1","",""
"","","","","63cff34d33a9948e3b0b28d6","bdp_cybrbll","Wed Mar 29 2023 03:11:26 GMT-0500 (Central Daylight Time)","465880","3","1","animation","71","127634","0.0-5.0-2.33","","","","","","192","","","","3","1","[{""stimulus"":""img/3to1/1.png"",""time"":108},{""stimulus"":""img/3to1/2.png"",""time"":212},{""stimulus"":""img/3to1/3.png"",""time"":303},{""stimulus"":""img/3to1/4.png"",""time"":410},{""stimulus"":""img/3to1/5.png"",""time"":496},{""stimulus"":""img/3to1/6.png"",""time"":613},{""stimulus"":""img/3to1/7.png"",""time"":701},{""stimulus"":""img/3to1/8.png"",""time"":806},{""stimulus"":""img/3to1/9.png"",""time"":898},{""stimulus"":""img/3to1/10.png"",""time"":991},{""stimulus"":""img/3to1/11.png"",""time"":1095},{""stimulus"":""img/3to1/12.png"",""time"":1191}]","[]"
"","","","observe","63cff34d33a9948e3b0b28d6","bdp_cybrbll","Wed Mar 29 2023 03:11:26 GMT-0500 (Central Daylight Time)","465880","3","1","image-keyboard-response","72","127988","0.0-5.0-1.34","","null","","img/1to3/1.png","null","191","343","0.5","0.5","1","2","",""
"","","","","63cff34d33a9948e3b0b28d6","bdp_cybrbll","Wed Mar 29 2023 03:11:26 GMT-0500 (Central Daylight Time)","465880","3","1","animation","73","129284","0.0-5.0-2.34","","","","","","191","","","","1","2","[{""stimulus"":""img/1to2/1.png"",""time"":105},{""stimulus"":""img/1to2/2.png"",""time"":212},{""stimulus"":""img/1to2/3.png"",""time"":303},{""stimulus"":""img/1to2/4.png"",""time"":410},{""stimulus"":""img/1to2/5.png"",""time"":496},{""stimulus"":""img/1to2/6.png"",""time"":608},{""stimulus"":""img/1to2/7.png"",""time"":698},{""stimulus"":""img/1to2/8.png"",""time"":804},{""stimulus"":""img/1to2/9.png"",""time"":892},{""stimulus"":""img/1to2/10.png"",""time"":1006},{""stimulus"":""img/1to2/11.png"",""time"":1096},{""stimulus"":""img/1to2/12.png"",""time"":1209}]","[]"
"","","","choice","63cff34d33a9948e3b0b28d6","bdp_cybrbll","Wed Mar 29 2023 03:11:26 GMT-0500 (Central Daylight Time)","465880","3","1","image-keyboard-response","74","129728","0.0-5.0-1.35","","443","","img/2to1/1.png","2","190","764","0.5","0.5","2","3","",""
"","","","","63cff34d33a9948e3b0b28d6","bdp_cybrbll","Wed Mar 29 2023 03:11:26 GMT-0500 (Central Daylight Time)","465880","3","1","animation","75","131020","0.0-5.0-2.35","","","","","","190","","","","2","3","[{""stimulus"":""img/2to3/1.png"",""time"":111},{""stimulus"":""img/2to3/2.png"",""time"":215},{""stimulus"":""img/2to3/3.png"",""time"":298},{""stimulus"":""img/2to3/4.png"",""time"":397},{""stimulus"":""img/2to3/5.png"",""time"":506},{""stimulus"":""img/2to3/6.png"",""time"":595},{""stimulus"":""img/2to3/7.png"",""time"":695},{""stimulus"":""img/2to3/8.png"",""time"":793},{""stimulus"":""img/2to3/9.png"",""time"":892},{""stimulus"":""img/2to3/10.png"",""time"":995},{""stimulus"":""img/2to3/11.png"",""time"":1094},{""stimulus"":""img/2to3/12.png"",""time"":1189}]","[]"
"","","","observe","63cff34d33a9948e3b0b28d6","bdp_cybrbll","Wed Mar 29 2023 03:11:26 GMT-0500 (Central Daylight Time)","465880","3","1","image-keyboard-response","76","131983","0.0-5.0-1.36","","null","","img/3to2/1.png","null","189","953","0.5","0.5","3","2","",""
"","","","","63cff34d33a9948e3b0b28d6","bdp_cybrbll","Wed Mar 29 2023 03:11:26 GMT-0500 (Central Daylight Time)","465880","3","1","animation","77","133271","0.0-5.0-2.36","","","","","","189","","","","3","2","[{""stimulus"":""img/3to2/1.png"",""time"":106},{""stimulus"":""img/3to2/2.png"",""time"":199},{""stimulus"":""img/3to2/3.png"",""time"":304},{""stimulus"":""img/3to2/4.png"",""time"":397},{""stimulus"":""img/3to2/5.png"",""time"":502},{""stimulus"":""img/3to2/6.png"",""time"":608},{""stimulus"":""img/3to2/7.png"",""time"":694},{""stimulus"":""img/3to2/8.png"",""time"":803},{""stimulus"":""img/3to2/9.png"",""time"":892},{""stimulus"":""img/3to2/10.png"",""time"":1001},{""stimulus"":""img/3to2/11.png"",""time"":1093},{""stimulus"":""img/3to2/12.png"",""time"":1203}]","[]"
"","","","choice","63cff34d33a9948e3b0b28d6","bdp_cybrbll","Wed Mar 29 2023 03:11:26 GMT-0500 (Central Daylight Time)","465880","3","1","image-keyboard-response","78","133541","0.0-5.0-1.37","","270","","img/2to1/1.png","1","188","576","0.5","0.5","2","1","",""
"","","","","63cff34d33a9948e3b0b28d6","bdp_cybrbll","Wed Mar 29 2023 03:11:26 GMT-0500 (Central Daylight Time)","465880","3","1","animation","79","134838","0.0-5.0-2.37","","","","","","188","","","","2","1","[{""stimulus"":""img/2to1/1.png"",""time"":115},{""stimulus"":""img/2to1/2.png"",""time"":213},{""stimulus"":""img/2to1/3.png"",""time"":313},{""stimulus"":""img/2to1/4.png"",""time"":404},{""stimulus"":""img/2to1/5.png"",""time"":510},{""stimulus"":""img/2to1/6.png"",""time"":605},{""stimulus"":""img/2to1/7.png"",""time"":698},{""stimulus"":""img/2to1/8.png"",""time"":807},{""stimulus"":""img/2to1/9.png"",""time"":898},{""stimulus"":""img/2to1/10.png"",""time"":1005},{""stimulus"":""img/2to1/11.png"",""time"":1097},{""stimulus"":""img/2to1/12.png"",""time"":1190}]","[]"
"","","","observe","63cff34d33a9948e3b0b28d6","bdp_cybrbll","Wed Mar 29 2023 03:11:26 GMT-0500 (Central Daylight Time)","465880","3","1","image-keyboard-response","80","135659","0.0-5.0-1.38","","null","","img/1to3/1.png","null","187","819","0.5","0.5","1","2","",""
"","","","","63cff34d33a9948e3b0b28d6","bdp_cybrbll","Wed Mar 29 2023 03:11:26 GMT-0500 (Central Daylight Time)","465880","3","1","animation","81","136951","0.0-5.0-2.38","","","","","","187","","","","1","2","[{""stimulus"":""img/1to2/1.png"",""time"":105},{""stimulus"":""img/1to2/2.png"",""time"":212},{""stimulus"":""img/1to2/3.png"",""time"":305},{""stimulus"":""img/1to2/4.png"",""time"":410},{""stimulus"":""img/1to2/5.png"",""time"":496},{""stimulus"":""img/1to2/6.png"",""time"":607},{""stimulus"":""img/1to2/7.png"",""time"":702},{""stimulus"":""img/1to2/8.png"",""time"":805},{""stimulus"":""img/1to2/9.png"",""time"":892},{""stimulus"":""img/1to2/10.png"",""time"":993},{""stimulus"":""img/1to2/11.png"",""time"":1096},{""stimulus"":""img/1to2/12.png"",""time"":1192}]","[]"
"","","","choice","63cff34d33a9948e3b0b28d6","bdp_cybrbll","Wed Mar 29 2023 03:11:26 GMT-0500 (Central Daylight Time)","465880","3","1","image-keyboard-response","82","137297","0.0-5.0-1.39","","345","","img/2to1/1.png","2","186","229","0.5","0.5","2","3","",""
"","","","","63cff34d33a9948e3b0b28d6","bdp_cybrbll","Wed Mar 29 2023 03:11:26 GMT-0500 (Central Daylight Time)","465880","3","1","animation","83","138597","0.0-5.0-2.39","","","","","","186","","","","2","3","[{""stimulus"":""img/2to3/1.png"",""time"":110},{""stimulus"":""img/2to3/2.png"",""time"":199},{""stimulus"":""img/2to3/3.png"",""time"":309},{""stimulus"":""img/2to3/4.png"",""time"":401},{""stimulus"":""img/2to3/5.png"",""time"":507},{""stimulus"":""img/2to3/6.png"",""time"":599},{""stimulus"":""img/2to3/7.png"",""time"":695},{""stimulus"":""img/2to3/8.png"",""time"":798},{""stimulus"":""img/2to3/9.png"",""time"":905},{""stimulus"":""img/2to3/10.png"",""time"":997},{""stimulus"":""img/2to3/11.png"",""time"":1102},{""stimulus"":""img/2to3/12.png"",""time"":1195}]","[]"
"","","","observe","63cff34d33a9948e3b0b28d6","bdp_cybrbll","Wed Mar 29 2023 03:11:26 GMT-0500 (Central Daylight Time)","465880","3","1","image-keyboard-response","84","139112","0.0-5.0-1.40","","null","","img/3to2/1.png","null","185","503","0.5","0.5","3","1","",""
"","","","","63cff34d33a9948e3b0b28d6","bdp_cybrbll","Wed Mar 29 2023 03:11:26 GMT-0500 (Central Daylight Time)","465880","3","1","animation","85","140412","0.0-5.0-2.40","","","","","","185","","","","3","1","[{""stimulus"":""img/3to1/1.png"",""time"":107},{""stimulus"":""img/3to1/2.png"",""time"":199},{""stimulus"":""img/3to1/3.png"",""time"":306},{""stimulus"":""img/3to1/4.png"",""time"":398},{""stimulus"":""img/3to1/5.png"",""time"":505},{""stimulus"":""img/3to1/6.png"",""time"":597},{""stimulus"":""img/3to1/7.png"",""time"":706},{""stimulus"":""img/3to1/8.png"",""time"":797},{""stimulus"":""img/3to1/9.png"",""time"":902},{""stimulus"":""img/3to1/10.png"",""time"":994},{""stimulus"":""img/3to1/11.png"",""time"":1100},{""stimulus"":""img/3to1/12.png"",""time"":1194}]","[]"
"","","","observe","63cff34d33a9948e3b0b28d6","bdp_cybrbll","Wed Mar 29 2023 03:11:26 GMT-0500 (Central Daylight Time)","465880","3","1","image-keyboard-response","86","140829","0.0-5.0-1.41","","null","","img/1to3/1.png","null","184","410","0.5","0.5","1","3","",""
"","","","","63cff34d33a9948e3b0b28d6","bdp_cybrbll","Wed Mar 29 2023 03:11:26 GMT-0500 (Central Daylight Time)","465880","3","1","animation","87","142119","0.0-5.0-2.41","","","","","","184","","","","1","3","[{""stimulus"":""img/1to3/1.png"",""time"":102},{""stimulus"":""img/1to3/2.png"",""time"":207},{""stimulus"":""img/1to3/3.png"",""time"":299},{""stimulus"":""img/1to3/4.png"",""time"":409},{""stimulus"":""img/1to3/5.png"",""time"":499},{""stimulus"":""img/1to3/6.png"",""time"":609},{""stimulus"":""img/1to3/7.png"",""time"":699},{""stimulus"":""img/1to3/8.png"",""time"":807},{""stimulus"":""img/1to3/9.png"",""time"":894},{""stimulus"":""img/1to3/10.png"",""time"":1003},{""stimulus"":""img/1to3/11.png"",""time"":1096},{""stimulus"":""img/1to3/12.png"",""time"":1190}]","[]"
"","","","observe","63cff34d33a9948e3b0b28d6","bdp_cybrbll","Wed Mar 29 2023 03:11:26 GMT-0500 (Central Daylight Time)","465880","3","1","image-keyboard-response","88","143035","0.0-5.0-1.42","","null","","img/3to2/1.png","null","183","911","0.5","0.5","3","2","",""
"","","","","63cff34d33a9948e3b0b28d6","bdp_cybrbll","Wed Mar 29 2023 03:11:26 GMT-0500 (Central Daylight Time)","465880","3","1","animation","89","144330","0.0-5.0-2.42","","","","","","183","","","","3","2","[{""stimulus"":""img/3to2/1.png"",""time"":110},{""stimulus"":""img/3to2/2.png"",""time"":200},{""stimulus"":""img/3to2/3.png"",""time"":309},{""stimulus"":""img/3to2/4.png"",""time"":410},{""stimulus"":""img/3to2/5.png"",""time"":509},{""stimulus"":""img/3to2/6.png"",""time"":596},{""stimulus"":""img/3to2/7.png"",""time"":704},{""stimulus"":""img/3to2/8.png"",""time"":793},{""stimulus"":""img/3to2/9.png"",""time"":900},{""stimulus"":""img/3to2/10.png"",""time"":992},{""stimulus"":""img/3to2/11.png"",""time"":1097},{""stimulus"":""img/3to2/12.png"",""time"":1189}]","[]"
"","","","choice","63cff34d33a9948e3b0b28d6","bdp_cybrbll","Wed Mar 29 2023 03:11:26 GMT-0500 (Central Daylight Time)","465880","3","1","image-keyboard-response","90","144695","0.0-5.0-1.43","","365","","img/2to1/1.png","1","182","359","0.5","0.5","2","1","",""
"","","","","63cff34d33a9948e3b0b28d6","bdp_cybrbll","Wed Mar 29 2023 03:11:26 GMT-0500 (Central Daylight Time)","465880","3","1","animation","91","145994","0.0-5.0-2.43","","","","","","182","","","","2","1","[{""stimulus"":""img/2to1/1.png"",""time"":109},{""stimulus"":""img/2to1/2.png"",""time"":200},{""stimulus"":""img/2to1/3.png"",""time"":313},{""stimulus"":""img/2to1/4.png"",""time"":398},{""stimulus"":""img/2to1/5.png"",""time"":508},{""stimulus"":""img/2to1/6.png"",""time"":597},{""stimulus"":""img/2to1/7.png"",""time"":704},{""stimulus"":""img/2to1/8.png"",""time"":793},{""stimulus"":""img/2to1/9.png"",""time"":903},{""stimulus"":""img/2to1/10.png"",""time"":995},{""stimulus"":""img/2to1/11.png"",""time"":1089},{""stimulus"":""img/2to1/12.png"",""time"":1189}]","[]"
"","","","observe","63cff34d33a9948e3b0b28d6","bdp_cybrbll","Wed Mar 29 2023 03:11:26 GMT-0500 (Central Daylight Time)","465880","3","1","image-keyboard-response","92","146774","0.0-5.0-1.44","","null","","img/1to3/1.png","null","181","776","0.5","0.5","1","2","",""
"","","","","63cff34d33a9948e3b0b28d6","bdp_cybrbll","Wed Mar 29 2023 03:11:26 GMT-0500 (Central Daylight Time)","465880","3","1","animation","93","148063","0.0-5.0-2.44","","","","","","181","","","","1","2","[{""stimulus"":""img/1to2/1.png"",""time"":107},{""stimulus"":""img/1to2/2.png"",""time"":213},{""stimulus"":""img/1to2/3.png"",""time"":298},{""stimulus"":""img/1to2/4.png"",""time"":398},{""stimulus"":""img/1to2/5.png"",""time"":506},{""stimulus"":""img/1to2/6.png"",""time"":595},{""stimulus"":""img/1to2/7.png"",""time"":705},{""stimulus"":""img/1to2/8.png"",""time"":794},{""stimulus"":""img/1to2/9.png"",""time"":900},{""stimulus"":""img/1to2/10.png"",""time"":992},{""stimulus"":""img/1to2/11.png"",""time"":1090},{""stimulus"":""img/1to2/12.png"",""time"":1191}]","[]"
"","","","choice","63cff34d33a9948e3b0b28d6","bdp_cybrbll","Wed Mar 29 2023 03:11:26 GMT-0500 (Central Daylight Time)","465880","3","1","image-keyboard-response","94","148552","0.0-5.0-1.45","","489","","img/2to1/1.png","1","180","388","0.5","0.5","2","1","",""
"","","","","63cff34d33a9948e3b0b28d6","bdp_cybrbll","Wed Mar 29 2023 03:11:26 GMT-0500 (Central Daylight Time)","465880","3","1","animation","95","149841","0.0-5.0-2.45","","","","","","180","","","","2","1","[{""stimulus"":""img/2to1/1.png"",""time"":113},{""stimulus"":""img/2to1/2.png"",""time"":205},{""stimulus"":""img/2to1/3.png"",""time"":311},{""stimulus"":""img/2to1/4.png"",""time"":405},{""stimulus"":""img/2to1/5.png"",""time"":496},{""stimulus"":""img/2to1/6.png"",""time"":600},{""stimulus"":""img/2to1/7.png"",""time"":707},{""stimulus"":""img/2to1/8.png"",""time"":800},{""stimulus"":""img/2to1/9.png"",""time"":906},{""stimulus"":""img/2to1/10.png"",""time"":998},{""stimulus"":""img/2to1/11.png"",""time"":1091},{""stimulus"":""img/2to1/12.png"",""time"":1196}]","[]"
"","","","observe","63cff34d33a9948e3b0b28d6","bdp_cybrbll","Wed Mar 29 2023 03:11:26 GMT-0500 (Central Daylight Time)","465880","3","1","image-keyboard-response","96","150633","0.0-5.0-1.46","","null","","img/1to3/1.png","null","179","788","0.5","0.5","1","2","",""
"","","","","63cff34d33a9948e3b0b28d6","bdp_cybrbll","Wed Mar 29 2023 03:11:26 GMT-0500 (Central Daylight Time)","465880","3","1","animation","97","151921","0.0-5.0-2.46","","","","","","179","","","","1","2","[{""stimulus"":""img/1to2/1.png"",""time"":112},{""stimulus"":""img/1to2/2.png"",""time"":213},{""stimulus"":""img/1to2/3.png"",""time"":304},{""stimulus"":""img/1to2/4.png"",""time"":396},{""stimulus"":""img/1to2/5.png"",""time"":502},{""stimulus"":""img/1to2/6.png"",""time"":595},{""stimulus"":""img/1to2/7.png"",""time"":701},{""stimulus"":""img/1to2/8.png"",""time"":808},{""stimulus"":""img/1to2/9.png"",""time"":896},{""stimulus"":""img/1to2/10.png"",""time"":1002},{""stimulus"":""img/1to2/11.png"",""time"":1093},{""stimulus"":""img/1to2/12.png"",""time"":1199}]","[]"
"","","","choice","63cff34d33a9948e3b0b28d6","bdp_cybrbll","Wed Mar 29 2023 03:11:26 GMT-0500 (Central Daylight Time)","465880","3","1","image-keyboard-response","98","152257","0.0-5.0-1.47","","336","","img/2to1/1.png","2","178","196","0.5","0.5","2","3","",""
"","","","","63cff34d33a9948e3b0b28d6","bdp_cybrbll","Wed Mar 29 2023 03:11:26 GMT-0500 (Central Daylight Time)","465880","3","1","animation","99","153546","0.0-5.0-2.47","","","","","","178","","","","2","3","[{""stimulus"":""img/2to3/1.png"",""time"":106},{""stimulus"":""img/2to3/2.png"",""time"":199},{""stimulus"":""img/2to3/3.png"",""time"":305},{""stimulus"":""img/2to3/4.png"",""time"":412},{""stimulus"":""img/2to3/5.png"",""time"":504},{""stimulus"":""img/2to3/6.png"",""time"":610},{""stimulus"":""img/2to3/7.png"",""time"":703},{""stimulus"":""img/2to3/8.png"",""time"":794},{""stimulus"":""img/2to3/9.png"",""time"":901},{""stimulus"":""img/2to3/10.png"",""time"":991},{""stimulus"":""img/2to3/11.png"",""time"":1090},{""stimulus"":""img/2to3/12.png"",""time"":1196}]","[]"
"","","","observe","63cff34d33a9948e3b0b28d6","bdp_cybrbll","Wed Mar 29 2023 03:11:26 GMT-0500 (Central Daylight Time)","465880","3","1","image-keyboard-response","100","154148","0.0-5.0-1.48","","null","","img/3to2/1.png","null","177","597","0.5","0.5","3","1","",""
"","","","","63cff34d33a9948e3b0b28d6","bdp_cybrbll","Wed Mar 29 2023 03:11:26 GMT-0500 (Central Daylight Time)","465880","3","1","animation","101","155446","0.0-5.0-2.48","","","","","","177","","","","3","1","[{""stimulus"":""img/3to1/1.png"",""time"":110},{""stimulus"":""img/3to1/2.png"",""time"":200},{""stimulus"":""img/3to1/3.png"",""time"":309},{""stimulus"":""img/3to1/4.png"",""time"":397},{""stimulus"":""img/3to1/5.png"",""time"":503},{""stimulus"":""img/3to1/6.png"",""time"":597},{""stimulus"":""img/3to1/7.png"",""time"":704},{""stimulus"":""img/3to1/8.png"",""time"":798},{""stimulus"":""img/3to1/9.png"",""time"":895},{""stimulus"":""img/3to1/10.png"",""time"":991},{""stimulus"":""img/3to1/11.png"",""time"":1102},{""stimulus"":""img/3to1/12.png"",""time"":1193}]","[]"
"","","","observe","63cff34d33a9948e3b0b28d6","bdp_cybrbll","Wed Mar 29 2023 03:11:26 GMT-0500 (Central Daylight Time)","465880","3","1","image-keyboard-response","102","156570","0.0-5.0-1.49","","null","","img/1to3/1.png","null","176","1108","0.5","0.5","1","3","",""
"","","","","63cff34d33a9948e3b0b28d6","bdp_cybrbll","Wed Mar 29 2023 03:11:26 GMT-0500 (Central Daylight Time)","465880","3","1","animation","103","157866","0.0-5.0-2.49","","","","","","176","","","","1","3","[{""stimulus"":""img/1to3/1.png"",""time"":109},{""stimulus"":""img/1to3/2.png"",""time"":199},{""stimulus"":""img/1to3/3.png"",""time"":309},{""stimulus"":""img/1to3/4.png"",""time"":401},{""stimulus"":""img/1to3/5.png"",""time"":506},{""stimulus"":""img/1to3/6.png"",""time"":598},{""stimulus"":""img/1to3/7.png"",""time"":712},{""stimulus"":""img/1to3/8.png"",""time"":794},{""stimulus"":""img/1to3/9.png"",""time"":902},{""stimulus"":""img/1to3/10.png"",""time"":996},{""stimulus"":""img/1to3/11.png"",""time"":1099},{""stimulus"":""img/1to3/12.png"",""time"":1195}]","[]"
"","","","observe","63cff34d33a9948e3b0b28d6","bdp_cybrbll","Wed Mar 29 2023 03:11:26 GMT-0500 (Central Daylight Time)","465880","3","1","image-keyboard-response","104","158143","0.0-5.0-1.50","","null","","img/3to2/1.png","null","175","273","0.5","0.5","3","2","",""
"","","","","63cff34d33a9948e3b0b28d6","bdp_cybrbll","Wed Mar 29 2023 03:11:26 GMT-0500 (Central Daylight Time)","465880","3","1","animation","105","159439","0.0-5.0-2.50","","","","","","175","","","","3","2","[{""stimulus"":""img/3to2/1.png"",""time"":109},{""stimulus"":""img/3to2/2.png"",""time"":199},{""stimulus"":""img/3to2/3.png"",""time"":309},{""stimulus"":""img/3to2/4.png"",""time"":399},{""stimulus"":""img/3to2/5.png"",""time"":504},{""stimulus"":""img/3to2/6.png"",""time"":599},{""stimulus"":""img/3to2/7.png"",""time"":712},{""stimulus"":""img/3to2/8.png"",""time"":793},{""stimulus"":""img/3to2/9.png"",""time"":901},{""stimulus"":""img/3to2/10.png"",""time"":1011},{""stimulus"":""img/3to2/11.png"",""time"":1099},{""stimulus"":""img/3to2/12.png"",""time"":1204}]","[]"
"","","","choice","63cff34d33a9948e3b0b28d6","bdp_cybrbll","Wed Mar 29 2023 03:11:26 GMT-0500 (Central Daylight Time)","465880","3","1","image-keyboard-response","106","159677","0.0-5.0-1.51","","238","","img/2to1/1.png","2","174","1269","0.5","0.5","2","3","",""
"","","","","63cff34d33a9948e3b0b28d6","bdp_cybrbll","Wed Mar 29 2023 03:11:26 GMT-0500 (Central Daylight Time)","465880","3","1","animation","107","160966","0.0-5.0-2.51","","","","","","174","","","","2","3","[{""stimulus"":""img/2to3/1.png"",""time"":114},{""stimulus"":""img/2to3/2.png"",""time"":209},{""stimulus"":""img/2to3/3.png"",""time"":313},{""stimulus"":""img/2to3/4.png"",""time"":408},{""stimulus"":""img/2to3/5.png"",""time"":497},{""stimulus"":""img/2to3/6.png"",""time"":596},{""stimulus"":""img/2to3/7.png"",""time"":695},{""stimulus"":""img/2to3/8.png"",""time"":804},{""stimulus"":""img/2to3/9.png"",""time"":893},{""stimulus"":""img/2to3/10.png"",""time"":991},{""stimulus"":""img/2to3/11.png"",""time"":1096},{""stimulus"":""img/2to3/12.png"",""time"":1202}]","[]"
"","","","observe","63cff34d33a9948e3b0b28d6","bdp_cybrbll","Wed Mar 29 2023 03:11:26 GMT-0500 (Central Daylight Time)","465880","3","1","image-keyboard-response","108","161811","0.0-5.0-1.52","","null","","img/3to2/1.png","null","173","841","0.5","0.5","3","2","",""
"","","","","63cff34d33a9948e3b0b28d6","bdp_cybrbll","Wed Mar 29 2023 03:11:26 GMT-0500 (Central Daylight Time)","465880","3","1","animation","109","163105","0.0-5.0-2.52","","","","","","173","","","","3","2","[{""stimulus"":""img/3to2/1.png"",""time"":114},{""stimulus"":""img/3to2/2.png"",""time"":200},{""stimulus"":""img/3to2/3.png"",""time"":305},{""stimulus"":""img/3to2/4.png"",""time"":411},{""stimulus"":""img/3to2/5.png"",""time"":503},{""stimulus"":""img/3to2/6.png"",""time"":608},{""stimulus"":""img/3to2/7.png"",""time"":700},{""stimulus"":""img/3to2/8.png"",""time"":807},{""stimulus"":""img/3to2/9.png"",""time"":893},{""stimulus"":""img/3to2/10.png"",""time"":1003},{""stimulus"":""img/3to2/11.png"",""time"":1096},{""stimulus"":""img/3to2/12.png"",""time"":1190}]","[]"
"","","","choice","63cff34d33a9948e3b0b28d6","bdp_cybrbll","Wed Mar 29 2023 03:11:26 GMT-0500 (Central Daylight Time)","465880","3","1","image-keyboard-response","110","163497","0.0-5.0-1.53","","390","","img/2to1/1.png","1","172","197","0.5","0.5","2","1","",""
"","","","","63cff34d33a9948e3b0b28d6","bdp_cybrbll","Wed Mar 29 2023 03:11:26 GMT-0500 (Central Daylight Time)","465880","3","1","animation","111","164798","0.0-5.0-2.53","","","","","","172","","","","2","1","[{""stimulus"":""img/2to1/1.png"",""time"":114},{""stimulus"":""img/2to1/2.png"",""time"":203},{""stimulus"":""img/2to1/3.png"",""time"":298},{""stimulus"":""img/2to1/4.png"",""time"":402},{""stimulus"":""img/2to1/5.png"",""time"":495},{""stimulus"":""img/2to1/6.png"",""time"":606},{""stimulus"":""img/2to1/7.png"",""time"":707},{""stimulus"":""img/2to1/8.png"",""time"":798},{""stimulus"":""img/2to1/9.png"",""time"":894},{""stimulus"":""img/2to1/10.png"",""time"":997},{""stimulus"":""img/2to1/11.png"",""time"":1090},{""stimulus"":""img/2to1/12.png"",""time"":1188}]","[]"
"","","","observe","63cff34d33a9948e3b0b28d6","bdp_cybrbll","Wed Mar 29 2023 03:11:26 GMT-0500 (Central Daylight Time)","465880","3","1","image-keyboard-response","112","164965","0.0-5.0-1.54","","null","","img/1to3/1.png","null","171","159","0.5","0.5","1","2","",""
"","","","","63cff34d33a9948e3b0b28d6","bdp_cybrbll","Wed Mar 29 2023 03:11:26 GMT-0500 (Central Daylight Time)","465880","3","1","animation","113","166268","0.0-5.0-2.54","","","","","","171","","","","1","2","[{""stimulus"":""img/1to2/1.png"",""time"":106},{""stimulus"":""img/1to2/2.png"",""time"":199},{""stimulus"":""img/1to2/3.png"",""time"":307},{""stimulus"":""img/1to2/4.png"",""time"":398},{""stimulus"":""img/1to2/5.png"",""time"":502},{""stimulus"":""img/1to2/6.png"",""time"":598},{""stimulus"":""img/1to2/7.png"",""time"":703},{""stimulus"":""img/1to2/8.png"",""time"":797},{""stimulus"":""img/1to2/9.png"",""time"":905},{""stimulus"":""img/1to2/10.png"",""time"":996},{""stimulus"":""img/1to2/11.png"",""time"":1089},{""stimulus"":""img/1to2/12.png"",""time"":1189}]","[]"
"","","","choice","63cff34d33a9948e3b0b28d6","bdp_cybrbll","Wed Mar 29 2023 03:11:26 GMT-0500 (Central Daylight Time)","465880","3","1","image-keyboard-response","114","166571","0.0-5.0-1.55","","301","","img/2to1/1.png","1","170","249","0.5","0.5","2","1","",""
"","","","","63cff34d33a9948e3b0b28d6","bdp_cybrbll","Wed Mar 29 2023 03:11:26 GMT-0500 (Central Daylight Time)","465880","3","1","animation","115","167865","0.0-5.0-2.55","","","","","","170","","","","2","1","[{""stimulus"":""img/2to1/1.png"",""time"":105},{""stimulus"":""img/2to1/2.png"",""time"":210},{""stimulus"":""img/2to1/3.png"",""time"":302},{""stimulus"":""img/2to1/4.png"",""time"":412},{""stimulus"":""img/2to1/5.png"",""time"":501},{""stimulus"":""img/2to1/6.png"",""time"":599},{""stimulus"":""img/2to1/7.png"",""time"":702},{""stimulus"":""img/2to1/8.png"",""time"":806},{""stimulus"":""img/2to1/9.png"",""time"":892},{""stimulus"":""img/2to1/10.png"",""time"":1005},{""stimulus"":""img/2to1/11.png"",""time"":1095},{""stimulus"":""img/2to1/12.png"",""time"":1203}]","[]"
"","","","observe","63cff34d33a9948e3b0b28d6","bdp_cybrbll","Wed Mar 29 2023 03:11:26 GMT-0500 (Central Daylight Time)","465880","3","1","image-keyboard-response","116","168352","0.0-5.0-1.56","","null","","img/1to3/1.png","null","169","484","0.5","0.5","1","3","",""
"","","","","63cff34d33a9948e3b0b28d6","bdp_cybrbll","Wed Mar 29 2023 03:11:26 GMT-0500 (Central Daylight Time)","465880","3","1","animation","117","169652","0.0-5.0-2.56","","","","","","169","","","","1","3","[{""stimulus"":""img/1to3/1.png"",""time"":107},{""stimulus"":""img/1to3/2.png"",""time"":199},{""stimulus"":""img/1to3/3.png"",""time"":307},{""stimulus"":""img/1to3/4.png"",""time"":399},{""stimulus"":""img/1to3/5.png"",""time"":505},{""stimulus"":""img/1to3/6.png"",""time"":595},{""stimulus"":""img/1to3/7.png"",""time"":705},{""stimulus"":""img/1to3/8.png"",""time"":798},{""stimulus"":""img/1to3/9.png"",""time"":904},{""stimulus"":""img/1to3/10.png"",""time"":996},{""stimulus"":""img/1to3/11.png"",""time"":1095},{""stimulus"":""img/1to3/12.png"",""time"":1193}]","[]"
"","","","observe","63cff34d33a9948e3b0b28d6","bdp_cybrbll","Wed Mar 29 2023 03:11:26 GMT-0500 (Central Daylight Time)","465880","3","1","image-keyboard-response","118","170084","0.0-5.0-1.57","","null","","img/3to2/1.png","null","168","415","0.5","0.5","3","1","",""
"","","","","63cff34d33a9948e3b0b28d6","bdp_cybrbll","Wed Mar 29 2023 03:11:26 GMT-0500 (Central Daylight Time)","465880","3","1","animation","119","171379","0.0-5.0-2.57","","","","","","168","","","","3","1","[{""stimulus"":""img/3to1/1.png"",""time"":105},{""stimulus"":""img/3to1/2.png"",""time"":208},{""stimulus"":""img/3to1/3.png"",""time"":301},{""stimulus"":""img/3to1/4.png"",""time"":408},{""stimulus"":""img/3to1/5.png"",""time"":501},{""stimulus"":""img/3to1/6.png"",""time"":607},{""stimulus"":""img/3to1/7.png"",""time"":698},{""stimulus"":""img/3to1/8.png"",""time"":810},{""stimulus"":""img/3to1/9.png"",""time"":897},{""stimulus"":""img/3to1/10.png"",""time"":1008},{""stimulus"":""img/3to1/11.png"",""time"":1096},{""stimulus"":""img/3to1/12.png"",""time"":1205}]","[]"
"","","","observe","63cff34d33a9948e3b0b28d6","bdp_cybrbll","Wed Mar 29 2023 03:11:26 GMT-0500 (Central Daylight Time)","465880","3","1","image-keyboard-response","120","172366","0.0-5.0-1.58","","null","","img/1to3/1.png","null","167","979","0.5","0.5","1","3","",""
"","","","","63cff34d33a9948e3b0b28d6","bdp_cybrbll","Wed Mar 29 2023 03:11:26 GMT-0500 (Central Daylight Time)","465880","3","1","animation","121","173669","0.0-5.0-2.58","","","","","","167","","","","1","3","[{""stimulus"":""img/1to3/1.png"",""time"":109},{""stimulus"":""img/1to3/2.png"",""time"":199},{""stimulus"":""img/1to3/3.png"",""time"":298},{""stimulus"":""img/1to3/4.png"",""time"":411},{""stimulus"":""img/1to3/5.png"",""time"":503},{""stimulus"":""img/1to3/6.png"",""time"":610},{""stimulus"":""img/1to3/7.png"",""time"":701},{""stimulus"":""img/1to3/8.png"",""time"":795},{""stimulus"":""img/1to3/9.png"",""time"":903},{""stimulus"":""img/1to3/10.png"",""time"":993},{""stimulus"":""img/1to3/11.png"",""time"":1102},{""stimulus"":""img/1to3/12.png"",""time"":1193}]","[]"
"","","","observe","63cff34d33a9948e3b0b28d6","bdp_cybrbll","Wed Mar 29 2023 03:11:26 GMT-0500 (Central Daylight Time)","465880","3","1","image-keyboard-response","122","174082","0.0-5.0-1.59","","null","","img/3to2/1.png","null","166","410","0.5","0.5","3","1","",""
"","","","","63cff34d33a9948e3b0b28d6","bdp_cybrbll","Wed Mar 29 2023 03:11:26 GMT-0500 (Central Daylight Time)","465880","3","1","animation","123","175370","0.0-5.0-2.59","","","","","","166","","","","3","1","[{""stimulus"":""img/3to1/1.png"",""time"":106},{""stimulus"":""img/3to1/2.png"",""time"":212},{""stimulus"":""img/3to1/3.png"",""time"":301},{""stimulus"":""img/3to1/4.png"",""time"":397},{""stimulus"":""img/3to1/5.png"",""time"":499},{""stimulus"":""img/3to1/6.png"",""time"":608},{""stimulus"":""img/3to1/7.png"",""time"":698},{""stimulus"":""img/3to1/8.png"",""time"":804},{""stimulus"":""img/3to1/9.png"",""time"":894},{""stimulus"":""img/3to1/10.png"",""time"":999},{""stimulus"":""img/3to1/11.png"",""time"":1107},{""stimulus"":""img/3to1/12.png"",""time"":1199}]","[]"
"","","","observe","63cff34d33a9948e3b0b28d6","bdp_cybrbll","Wed Mar 29 2023 03:11:26 GMT-0500 (Central Daylight Time)","465880","3","1","image-keyboard-response","124","175955","0.0-5.0-1.60","","null","","img/1to3/1.png","null","165","581","0.5","0.5","1","2","",""
"","","","","63cff34d33a9948e3b0b28d6","bdp_cybrbll","Wed Mar 29 2023 03:11:26 GMT-0500 (Central Daylight Time)","465880","3","1","animation","125","177249","0.0-5.0-2.60","","","","","","165","","","","1","2","[{""stimulus"":""img/1to2/1.png"",""time"":107},{""stimulus"":""img/1to2/2.png"",""time"":213},{""stimulus"":""img/1to2/3.png"",""time"":306},{""stimulus"":""img/1to2/4.png"",""time"":399},{""stimulus"":""img/1to2/5.png"",""time"":505},{""stimulus"":""img/1to2/6.png"",""time"":598},{""stimulus"":""img/1to2/7.png"",""time"":698},{""stimulus"":""img/1to2/8.png"",""time"":795},{""stimulus"":""img/1to2/9.png"",""time"":892},{""stimulus"":""img/1to2/10.png"",""time"":992},{""stimulus"":""img/1to2/11.png"",""time"":1104},{""stimulus"":""img/1to2/12.png"",""time"":1205}]","[]"
"","","","choice","63cff34d33a9948e3b0b28d6","bdp_cybrbll","Wed Mar 29 2023 03:11:26 GMT-0500 (Central Daylight Time)","465880","3","1","image-keyboard-response","126","178262","0.0-5.0-1.61","","1012","","img/2to1/1.png","1","164","1137","0.5","0.5","2","1","",""
"","","","","63cff34d33a9948e3b0b28d6","bdp_cybrbll","Wed Mar 29 2023 03:11:26 GMT-0500 (Central Daylight Time)","465880","3","1","animation","127","179563","0.0-5.0-2.61","","","","","","164","","","","2","1","[{""stimulus"":""img/2to1/1.png"",""time"":103},{""stimulus"":""img/2to1/2.png"",""time"":211},{""stimulus"":""img/2to1/3.png"",""time"":305},{""stimulus"":""img/2to1/4.png"",""time"":397},{""stimulus"":""img/2to1/5.png"",""time"":498},{""stimulus"":""img/2to1/6.png"",""time"":597},{""stimulus"":""img/2to1/7.png"",""time"":694},{""stimulus"":""img/2to1/8.png"",""time"":794},{""stimulus"":""img/2to1/9.png"",""time"":901},{""stimulus"":""img/2to1/10.png"",""time"":996},{""stimulus"":""img/2to1/11.png"",""time"":1100},{""stimulus"":""img/2to1/12.png"",""time"":1193}]","[]"
"","","","observe","63cff34d33a9948e3b0b28d6","bdp_cybrbll","Wed Mar 29 2023 03:11:26 GMT-0500 (Central Daylight Time)","465880","3","1","image-keyboard-response","128","181037","0.0-5.0-1.62","","null","","img/1to3/1.png","null","163","1471","0.5","0.5","1","3","",""
"","","","","63cff34d33a9948e3b0b28d6","bdp_cybrbll","Wed Mar 29 2023 03:11:26 GMT-0500 (Central Daylight Time)","465880","3","1","animation","129","182328","0.0-5.0-2.62","","","","","","163","","","","1","3","[{""stimulus"":""img/1to3/1.png"",""time"":113},{""stimulus"":""img/1to3/2.png"",""time"":199},{""stimulus"":""img/1to3/3.png"",""time"":311},{""stimulus"":""img/1to3/4.png"",""time"":403},{""stimulus"":""img/1to3/5.png"",""time"":496},{""stimulus"":""img/1to3/6.png"",""time"":596},{""stimulus"":""img/1to3/7.png"",""time"":700},{""stimulus"":""img/1to3/8.png"",""time"":808},{""stimulus"":""img/1to3/9.png"",""time"":894},{""stimulus"":""img/1to3/10.png"",""time"":996},{""stimulus"":""img/1to3/11.png"",""time"":1091},{""stimulus"":""img/1to3/12.png"",""time"":1197}]","[]"
"","","","observe","63cff34d33a9948e3b0b28d6","bdp_cybrbll","Wed Mar 29 2023 03:11:26 GMT-0500 (Central Daylight Time)","465880","3","1","image-keyboard-response","130","182624","0.0-5.0-1.63","","null","","img/3to2/1.png","null","162","281","0.5","0.5","3","1","",""
"","","","","63cff34d33a9948e3b0b28d6","bdp_cybrbll","Wed Mar 29 2023 03:11:26 GMT-0500 (Central Daylight Time)","465880","3","1","animation","131","183911","0.0-5.0-2.63","","","","","","162","","","","3","1","[{""stimulus"":""img/3to1/1.png"",""time"":111},{""stimulus"":""img/3to1/2.png"",""time"":199},{""stimulus"":""img/3to1/3.png"",""time"":298},{""stimulus"":""img/3to1/4.png"",""time"":397},{""stimulus"":""img/3to1/5.png"",""time"":503},{""stimulus"":""img/3to1/6.png"",""time"":598},{""stimulus"":""img/3to1/7.png"",""time"":706},{""stimulus"":""img/3to1/8.png"",""time"":800},{""stimulus"":""img/3to1/9.png"",""time"":895},{""stimulus"":""img/3to1/10.png"",""time"":992},{""stimulus"":""img/3to1/11.png"",""time"":1101},{""stimulus"":""img/3to1/12.png"",""time"":1196}]","[]"
"","","","observe","63cff34d33a9948e3b0b28d6","bdp_cybrbll","Wed Mar 29 2023 03:11:26 GMT-0500 (Central Daylight Time)","465880","3","1","image-keyboard-response","132","185371","0.0-5.0-1.64","","null","","img/1to3/1.png","null","161","1458","0.5","0.5","1","3","",""
"","","","","63cff34d33a9948e3b0b28d6","bdp_cybrbll","Wed Mar 29 2023 03:11:26 GMT-0500 (Central Daylight Time)","465880","3","1","animation","133","186661","0.0-5.0-2.64","","","","","","161","","","","1","3","[{""stimulus"":""img/1to3/1.png"",""time"":110},{""stimulus"":""img/1to3/2.png"",""time"":204},{""stimulus"":""img/1to3/3.png"",""time"":299},{""stimulus"":""img/1to3/4.png"",""time"":409},{""stimulus"":""img/1to3/5.png"",""time"":503},{""stimulus"":""img/1to3/6.png"",""time"":596},{""stimulus"":""img/1to3/7.png"",""time"":694},{""stimulus"":""img/1to3/8.png"",""time"":795},{""stimulus"":""img/1to3/9.png"",""time"":903},{""stimulus"":""img/1to3/10.png"",""time"":994},{""stimulus"":""img/1to3/11.png"",""time"":1108},{""stimulus"":""img/1to3/12.png"",""time"":1196}]","[]"
"","","","observe","63cff34d33a9948e3b0b28d6","bdp_cybrbll","Wed Mar 29 2023 03:11:26 GMT-0500 (Central Daylight Time)","465880","3","1","image-keyboard-response","134","187254","0.0-5.0-1.65","","null","","img/3to2/1.png","null","160","585","0.5","0.5","3","2","",""
"","","","","63cff34d33a9948e3b0b28d6","bdp_cybrbll","Wed Mar 29 2023 03:11:26 GMT-0500 (Central Daylight Time)","465880","3","1","animation","135","188543","0.0-5.0-2.65","","","","","","160","","","","3","2","[{""stimulus"":""img/3to2/1.png"",""time"":109},{""stimulus"":""img/3to2/2.png"",""time"":204},{""stimulus"":""img/3to2/3.png"",""time"":315},{""stimulus"":""img/3to2/4.png"",""time"":403},{""stimulus"":""img/3to2/5.png"",""time"":498},{""stimulus"":""img/3to2/6.png"",""time"":600},{""stimulus"":""img/3to2/7.png"",""time"":698},{""stimulus"":""img/3to2/8.png"",""time"":807},{""stimulus"":""img/3to2/9.png"",""time"":904},{""stimulus"":""img/3to2/10.png"",""time"":993},{""stimulus"":""img/3to2/11.png"",""time"":1091},{""stimulus"":""img/3to2/12.png"",""time"":1196}]","[]"
"","","","choice","63cff34d33a9948e3b0b28d6","bdp_cybrbll","Wed Mar 29 2023 03:11:26 GMT-0500 (Central Daylight Time)","465880","3","1","image-keyboard-response","136","188972","0.0-5.0-1.66","","428","","img/2to1/1.png","2","159","582","0.5","0.5","2","3","",""
"","","","","63cff34d33a9948e3b0b28d6","bdp_cybrbll","Wed Mar 29 2023 03:11:26 GMT-0500 (Central Daylight Time)","465880","3","1","animation","137","190266","0.0-5.0-2.66","","","","","","159","","","","2","3","[{""stimulus"":""img/2to3/1.png"",""time"":100},{""stimulus"":""img/2to3/2.png"",""time"":199},{""stimulus"":""img/2to3/3.png"",""time"":300},{""stimulus"":""img/2to3/4.png"",""time"":397},{""stimulus"":""img/2to3/5.png"",""time"":515},{""stimulus"":""img/2to3/6.png"",""time"":601},{""stimulus"":""img/2to3/7.png"",""time"":694},{""stimulus"":""img/2to3/8.png"",""time"":793},{""stimulus"":""img/2to3/9.png"",""time"":893},{""stimulus"":""img/2to3/10.png"",""time"":1002},{""stimulus"":""img/2to3/11.png"",""time"":1094},{""stimulus"":""img/2to3/12.png"",""time"":1202}]","[]"
"","","","observe","63cff34d33a9948e3b0b28d6","bdp_cybrbll","Wed Mar 29 2023 03:11:26 GMT-0500 (Central Daylight Time)","465880","3","1","image-keyboard-response","138","190555","0.0-5.0-1.67","","null","","img/3to2/1.png","null","158","286","0.5","0.5","3","1","",""
"","","","","63cff34d33a9948e3b0b28d6","bdp_cybrbll","Wed Mar 29 2023 03:11:26 GMT-0500 (Central Daylight Time)","465880","3","1","animation","139","191845","0.0-5.0-2.67","","","","","","158","","","","3","1","[{""stimulus"":""img/3to1/1.png"",""time"":109},{""stimulus"":""img/3to1/2.png"",""time"":214},{""stimulus"":""img/3to1/3.png"",""time"":298},{""stimulus"":""img/3to1/4.png"",""time"":398},{""stimulus"":""img/3to1/5.png"",""time"":505},{""stimulus"":""img/3to1/6.png"",""time"":604},{""stimulus"":""img/3to1/7.png"",""time"":705},{""stimulus"":""img/3to1/8.png"",""time"":802},{""stimulus"":""img/3to1/9.png"",""time"":906},{""stimulus"":""img/3to1/10.png"",""time"":997},{""stimulus"":""img/3to1/11.png"",""time"":1103},{""stimulus"":""img/3to1/12.png"",""time"":1206}]","[]"
"","","","observe","63cff34d33a9948e3b0b28d6","bdp_cybrbll","Wed Mar 29 2023 03:11:26 GMT-0500 (Central Daylight Time)","465880","3","1","image-keyboard-response","140","192409","0.0-5.0-1.68","","null","","img/1to3/1.png","null","157","549","0.5","0.5","1","2","",""
"","","","","63cff34d33a9948e3b0b28d6","bdp_cybrbll","Wed Mar 29 2023 03:11:26 GMT-0500 (Central Daylight Time)","465880","3","1","animation","141","193697","0.0-5.0-2.68","","","","","","157","","","","1","2","[{""stimulus"":""img/1to2/1.png"",""time"":110},{""stimulus"":""img/1to2/2.png"",""time"":199},{""stimulus"":""img/1to2/3.png"",""time"":307},{""stimulus"":""img/1to2/4.png"",""time"":398},{""stimulus"":""img/1to2/5.png"",""time"":513},{""stimulus"":""img/1to2/6.png"",""time"":602},{""stimulus"":""img/1to2/7.png"",""time"":710},{""stimulus"":""img/1to2/8.png"",""time"":798},{""stimulus"":""img/1to2/9.png"",""time"":905},{""stimulus"":""img/1to2/10.png"",""time"":998},{""stimulus"":""img/1to2/11.png"",""time"":1105},{""stimulus"":""img/1to2/12.png"",""time"":1196}]","[]"
"","","","choice","63cff34d33a9948e3b0b28d6","bdp_cybrbll","Wed Mar 29 2023 03:11:26 GMT-0500 (Central Daylight Time)","465880","3","1","image-keyboard-response","142","194069","0.0-5.0-1.69","","371","","img/2to1/1.png","1","156","609","0.5","0.5","2","1","",""
"","","","","63cff34d33a9948e3b0b28d6","bdp_cybrbll","Wed Mar 29 2023 03:11:26 GMT-0500 (Central Daylight Time)","465880","3","1","animation","143","195358","0.0-5.0-2.69","","","","","","156","","","","2","1","[{""stimulus"":""img/2to1/1.png"",""time"":102},{""stimulus"":""img/2to1/2.png"",""time"":211},{""stimulus"":""img/2to1/3.png"",""time"":302},{""stimulus"":""img/2to1/4.png"",""time"":407},{""stimulus"":""img/2to1/5.png"",""time"":500},{""stimulus"":""img/2to1/6.png"",""time"":606},{""stimulus"":""img/2to1/7.png"",""time"":698},{""stimulus"":""img/2to1/8.png"",""time"":806},{""stimulus"":""img/2to1/9.png"",""time"":892},{""stimulus"":""img/2to1/10.png"",""time"":1004},{""stimulus"":""img/2to1/11.png"",""time"":1097},{""stimulus"":""img/2to1/12.png"",""time"":1202}]","[]"
"","","","observe","63cff34d33a9948e3b0b28d6","bdp_cybrbll","Wed Mar 29 2023 03:11:26 GMT-0500 (Central Daylight Time)","465880","3","1","image-keyboard-response","144","196547","0.0-5.0-1.70","","null","","img/1to3/1.png","null","155","1180","0.5","0.5","1","2","",""
"","","","","63cff34d33a9948e3b0b28d6","bdp_cybrbll","Wed Mar 29 2023 03:11:26 GMT-0500 (Central Daylight Time)","465880","3","1","animation","145","197846","0.0-5.0-2.70","","","","","","155","","","","1","2","[{""stimulus"":""img/1to2/1.png"",""time"":107},{""stimulus"":""img/1to2/2.png"",""time"":212},{""stimulus"":""img/1to2/3.png"",""time"":298},{""stimulus"":""img/1to2/4.png"",""time"":398},{""stimulus"":""img/1to2/5.png"",""time"":504},{""stimulus"":""img/1to2/6.png"",""time"":604},{""stimulus"":""img/1to2/7.png"",""time"":707},{""stimulus"":""img/1to2/8.png"",""time"":795},{""stimulus"":""img/1to2/9.png"",""time"":906},{""stimulus"":""img/1to2/10.png"",""time"":994},{""stimulus"":""img/1to2/11.png"",""time"":1090},{""stimulus"":""img/1to2/12.png"",""time"":1191}]","[]"
"","","","choice","63cff34d33a9948e3b0b28d6","bdp_cybrbll","Wed Mar 29 2023 03:11:26 GMT-0500 (Central Daylight Time)","465880","3","1","image-keyboard-response","146","198114","0.0-5.0-1.71","","268","","img/2to1/1.png","2","154","691","0.5","0.5","2","3","",""
"","","","","63cff34d33a9948e3b0b28d6","bdp_cybrbll","Wed Mar 29 2023 03:11:26 GMT-0500 (Central Daylight Time)","465880","3","1","animation","147","199415","0.0-5.0-2.71","","","","","","154","","","","2","3","[{""stimulus"":""img/2to3/1.png"",""time"":114},{""stimulus"":""img/2to3/2.png"",""time"":204},{""stimulus"":""img/2to3/3.png"",""time"":315},{""stimulus"":""img/2to3/4.png"",""time"":406},{""stimulus"":""img/2to3/5.png"",""time"":509},{""stimulus"":""img/2to3/6.png"",""time"":599},{""stimulus"":""img/2to3/7.png"",""time"":705},{""stimulus"":""img/2to3/8.png"",""time"":798},{""stimulus"":""img/2to3/9.png"",""time"":892},{""stimulus"":""img/2to3/10.png"",""time"":995},{""stimulus"":""img/2to3/11.png"",""time"":1102},{""stimulus"":""img/2to3/12.png"",""time"":1189}]","[]"
"","","","observe","63cff34d33a9948e3b0b28d6","bdp_cybrbll","Wed Mar 29 2023 03:11:26 GMT-0500 (Central Daylight Time)","465880","3","1","image-keyboard-response","148","200293","0.0-5.0-1.72","","null","","img/3to2/1.png","null","153","877","0.5","0.5","3","2","",""
"","","","","63cff34d33a9948e3b0b28d6","bdp_cybrbll","Wed Mar 29 2023 03:11:26 GMT-0500 (Central Daylight Time)","465880","3","1","animation","149","201583","0.0-5.0-2.72","","","","","","153","","","","3","2","[{""stimulus"":""img/3to2/1.png"",""time"":112},{""stimulus"":""img/3to2/2.png"",""time"":206},{""stimulus"":""img/3to2/3.png"",""time"":313},{""stimulus"":""img/3to2/4.png"",""time"":410},{""stimulus"":""img/3to2/5.png"",""time"":497},{""stimulus"":""img/3to2/6.png"",""time"":596},{""stimulus"":""img/3to2/7.png"",""time"":694},{""stimulus"":""img/3to2/8.png"",""time"":807},{""stimulus"":""img/3to2/9.png"",""time"":904},{""stimulus"":""img/3to2/10.png"",""time"":992},{""stimulus"":""img/3to2/11.png"",""time"":1090},{""stimulus"":""img/3to2/12.png"",""time"":1196}]","[]"
"","","","choice","63cff34d33a9948e3b0b28d6","bdp_cybrbll","Wed Mar 29 2023 03:11:26 GMT-0500 (Central Daylight Time)","465880","3","1","image-keyboard-response","150","201941","0.0-5.0-1.73","","357","","img/2to1/1.png","2","152","333","0.5","0.5","2","3","",""
"","","","","63cff34d33a9948e3b0b28d6","bdp_cybrbll","Wed Mar 29 2023 03:11:26 GMT-0500 (Central Daylight Time)","465880","3","1","animation","151","203243","0.0-5.0-2.73","","","","","","152","","","","2","3","[{""stimulus"":""img/2to3/1.png"",""time"":110},{""stimulus"":""img/2to3/2.png"",""time"":204},{""stimulus"":""img/2to3/3.png"",""time"":299},{""stimulus"":""img/2to3/4.png"",""time"":408},{""stimulus"":""img/2to3/5.png"",""time"":495},{""stimulus"":""img/2to3/6.png"",""time"":596},{""stimulus"":""img/2to3/7.png"",""time"":705},{""stimulus"":""img/2to3/8.png"",""time"":799},{""stimulus"":""img/2to3/9.png"",""time"":892},{""stimulus"":""img/2to3/10.png"",""time"":992},{""stimulus"":""img/2to3/11.png"",""time"":1097},{""stimulus"":""img/2to3/12.png"",""time"":1189}]","[]"
"","","","observe","63cff34d33a9948e3b0b28d6","bdp_cybrbll","Wed Mar 29 2023 03:11:26 GMT-0500 (Central Daylight Time)","465880","3","1","image-keyboard-response","152","204386","0.0-5.0-1.74","","null","","img/3to2/1.png","null","151","1130","0.5","0.5","3","1","",""
"","","","","63cff34d33a9948e3b0b28d6","bdp_cybrbll","Wed Mar 29 2023 03:11:26 GMT-0500 (Central Daylight Time)","465880","3","1","animation","153","205674","0.0-5.0-2.74","","","","","","151","","","","3","1","[{""stimulus"":""img/3to1/1.png"",""time"":110},{""stimulus"":""img/3to1/2.png"",""time"":201},{""stimulus"":""img/3to1/3.png"",""time"":299},{""stimulus"":""img/3to1/4.png"",""time"":409},{""stimulus"":""img/3to1/5.png"",""time"":504},{""stimulus"":""img/3to1/6.png"",""time"":595},{""stimulus"":""img/3to1/7.png"",""time"":709},{""stimulus"":""img/3to1/8.png"",""time"":793},{""stimulus"":""img/3to1/9.png"",""time"":905},{""stimulus"":""img/3to1/10.png"",""time"":1000},{""stimulus"":""img/3to1/11.png"",""time"":1096},{""stimulus"":""img/3to1/12.png"",""time"":1201}]","[]"
"","","","observe","63cff34d33a9948e3b0b28d6","bdp_cybrbll","Wed Mar 29 2023 03:11:26 GMT-0500 (Central Daylight Time)","465880","3","1","image-keyboard-response","154","207492","0.0-5.0-1.75","","null","","img/1to3/1.png","null","150","1805","0.5","0.5","1","3","",""
"","","","","63cff34d33a9948e3b0b28d6","bdp_cybrbll","Wed Mar 29 2023 03:11:26 GMT-0500 (Central Daylight Time)","465880","3","1","animation","155","208781","0.0-5.0-2.75","","","","","","150","","","","1","3","[{""stimulus"":""img/1to3/1.png"",""time"":109},{""stimulus"":""img/1to3/2.png"",""time"":202},{""stimulus"":""img/1to3/3.png"",""time"":310},{""stimulus"":""img/1to3/4.png"",""time"":398},{""stimulus"":""img/1to3/5.png"",""time"":507},{""stimulus"":""img/1to3/6.png"",""time"":598},{""stimulus"":""img/1to3/7.png"",""time"":712},{""stimulus"":""img/1to3/8.png"",""time"":797},{""stimulus"":""img/1to3/9.png"",""time"":909},{""stimulus"":""img/1to3/10.png"",""time"":1003},{""stimulus"":""img/1to3/11.png"",""time"":1108},{""stimulus"":""img/1to3/12.png"",""time"":1198}]","[]"
"","","","observe","63cff34d33a9948e3b0b28d6","bdp_cybrbll","Wed Mar 29 2023 03:11:26 GMT-0500 (Central Daylight Time)","465880","3","1","image-keyboard-response","156","209233","0.0-5.0-1.76","","null","","img/3to2/1.png","null","149","451","0.5","0.1","3","1","",""
"","","","","63cff34d33a9948e3b0b28d6","bdp_cybrbll","Wed Mar 29 2023 03:11:26 GMT-0500 (Central Daylight Time)","465880","3","1","animation","157","210521","0.0-5.0-2.76","","","","","","149","","","","3","1","[{""stimulus"":""img/3to1/1.png"",""time"":114},{""stimulus"":""img/3to1/2.png"",""time"":205},{""stimulus"":""img/3to1/3.png"",""time"":313},{""stimulus"":""img/3to1/4.png"",""time"":405},{""stimulus"":""img/3to1/5.png"",""time"":496},{""stimulus"":""img/3to1/6.png"",""time"":606},{""stimulus"":""img/3to1/7.png"",""time"":695},{""stimulus"":""img/3to1/8.png"",""time"":802},{""stimulus"":""img/3to1/9.png"",""time"":907},{""stimulus"":""img/3to1/10.png"",""time"":1000},{""stimulus"":""img/3to1/11.png"",""time"":1091},{""stimulus"":""img/3to1/12.png"",""time"":1203}]","[]"
"","","","observe","63cff34d33a9948e3b0b28d6","bdp_cybrbll","Wed Mar 29 2023 03:11:26 GMT-0500 (Central Daylight Time)","465880","3","1","image-keyboard-response","158","210940","0.0-5.0-1.77","","null","","img/1to3/1.png","null","148","409","0.5","0.1","1","3","",""
"","","","","63cff34d33a9948e3b0b28d6","bdp_cybrbll","Wed Mar 29 2023 03:11:26 GMT-0500 (Central Daylight Time)","465880","3","1","animation","159","212238","0.0-5.0-2.77","","","","","","148","","","","1","3","[{""stimulus"":""img/1to3/1.png"",""time"":114},{""stimulus"":""img/1to3/2.png"",""time"":199},{""stimulus"":""img/1to3/3.png"",""time"":298},{""stimulus"":""img/1to3/4.png"",""time"":400},{""stimulus"":""img/1to3/5.png"",""time"":506},{""stimulus"":""img/1to3/6.png"",""time"":595},{""stimulus"":""img/1to3/7.png"",""time"":706},{""stimulus"":""img/1to3/8.png"",""time"":796},{""stimulus"":""img/1to3/9.png"",""time"":901},{""stimulus"":""img/1to3/10.png"",""time"":993},{""stimulus"":""img/1to3/11.png"",""time"":1099},{""stimulus"":""img/1to3/12.png"",""time"":1189}]","[]"
"","","","observe","63cff34d33a9948e3b0b28d6","bdp_cybrbll","Wed Mar 29 2023 03:11:26 GMT-0500 (Central Daylight Time)","465880","3","1","image-keyboard-response","160","212439","0.0-5.0-1.78","","null","","img/3to2/1.png","null","147","188","0.5","0.1","3","2","",""
"","","","","63cff34d33a9948e3b0b28d6","bdp_cybrbll","Wed Mar 29 2023 03:11:26 GMT-0500 (Central Daylight Time)","465880","3","1","animation","161","213747","0.0-5.0-2.78","","","","","","147","","","","3","2","[{""stimulus"":""img/3to2/1.png"",""time"":108},{""stimulus"":""img/3to2/2.png"",""time"":214},{""stimulus"":""img/3to2/3.png"",""time"":305},{""stimulus"":""img/3to2/4.png"",""time"":411},{""stimulus"":""img/3to2/5.png"",""time"":496},{""stimulus"":""img/3to2/6.png"",""time"":610},{""stimulus"":""img/3to2/7.png"",""time"":702},{""stimulus"":""img/3to2/8.png"",""time"":804},{""stimulus"":""img/3to2/9.png"",""time"":893},{""stimulus"":""img/3to2/10.png"",""time"":1002},{""stimulus"":""img/3to2/11.png"",""time"":1101},{""stimulus"":""img/3to2/12.png"",""time"":1193}]","[]"
"","","","choice","63cff34d33a9948e3b0b28d6","bdp_cybrbll","Wed Mar 29 2023 03:11:26 GMT-0500 (Central Daylight Time)","465880","3","1","image-keyboard-response","162","214130","0.0-5.0-1.79","","382","","img/2to1/1.png","2","146","385","0.5","0.1","2","3","",""
"","","","","63cff34d33a9948e3b0b28d6","bdp_cybrbll","Wed Mar 29 2023 03:11:26 GMT-0500 (Central Daylight Time)","465880","3","1","animation","163","215429","0.0-5.0-2.79","","","","","","146","","","","2","3","[{""stimulus"":""img/2to3/1.png"",""time"":114},{""stimulus"":""img/2to3/2.png"",""time"":198},{""stimulus"":""img/2to3/3.png"",""time"":311},{""stimulus"":""img/2to3/4.png"",""time"":403},{""stimulus"":""img/2to3/5.png"",""time"":495},{""stimulus"":""img/2to3/6.png"",""time"":604},{""stimulus"":""img/2to3/7.png"",""time"":708},{""stimulus"":""img/2to3/8.png"",""time"":792},{""stimulus"":""img/2to3/9.png"",""time"":904},{""stimulus"":""img/2to3/10.png"",""time"":995},{""stimulus"":""img/2to3/11.png"",""time"":1089},{""stimulus"":""img/2to3/12.png"",""time"":1202}]","[]"
"","","","observe","63cff34d33a9948e3b0b28d6","bdp_cybrbll","Wed Mar 29 2023 03:11:26 GMT-0500 (Central Daylight Time)","465880","3","1","image-keyboard-response","164","216574","0.0-5.0-1.80","","null","","img/3to2/1.png","null","145","1131","0.5","0.1","3","1","",""
"","","","","63cff34d33a9948e3b0b28d6","bdp_cybrbll","Wed Mar 29 2023 03:11:26 GMT-0500 (Central Daylight Time)","465880","3","1","animation","165","217872","0.0-5.0-2.80","","","","","","145","","","","3","1","[{""stimulus"":""img/3to1/1.png"",""time"":106},{""stimulus"":""img/3to1/2.png"",""time"":213},{""stimulus"":""img/3to1/3.png"",""time"":304},{""stimulus"":""img/3to1/4.png"",""time"":414},{""stimulus"":""img/3to1/5.png"",""time"":502},{""stimulus"":""img/3to1/6.png"",""time"":609},{""stimulus"":""img/3to1/7.png"",""time"":703},{""stimulus"":""img/3to1/8.png"",""time"":798},{""stimulus"":""img/3to1/9.png"",""time"":893},{""stimulus"":""img/3to1/10.png"",""time"":992},{""stimulus"":""img/3to1/11.png"",""time"":1100},{""stimulus"":""img/3to1/12.png"",""time"":1190}]","[]"
"","","","observe","63cff34d33a9948e3b0b28d6","bdp_cybrbll","Wed Mar 29 2023 03:11:26 GMT-0500 (Central Daylight Time)","465880","3","1","image-keyboard-response","166","218783","0.0-5.0-1.81","","null","","img/1to3/1.png","null","144","906","0.5","0.1","1","3","",""
"","","","","63cff34d33a9948e3b0b28d6","bdp_cybrbll","Wed Mar 29 2023 03:11:26 GMT-0500 (Central Daylight Time)","465880","3","1","animation","167","220075","0.0-5.0-2.81","","","","","","144","","","","1","3","[{""stimulus"":""img/1to3/1.png"",""time"":106},{""stimulus"":""img/1to3/2.png"",""time"":215},{""stimulus"":""img/1to3/3.png"",""time"":306},{""stimulus"":""img/1to3/4.png"",""time"":412},{""stimulus"":""img/1to3/5.png"",""time"":498},{""stimulus"":""img/1to3/6.png"",""time"":595},{""stimulus"":""img/1to3/7.png"",""time"":704},{""stimulus"":""img/1to3/8.png"",""time"":793},{""stimulus"":""img/1to3/9.png"",""time"":900},{""stimulus"":""img/1to3/10.png"",""time"":1006},{""stimulus"":""img/1to3/11.png"",""time"":1097},{""stimulus"":""img/1to3/12.png"",""time"":1189}]","[]"
"","","","observe","63cff34d33a9948e3b0b28d6","bdp_cybrbll","Wed Mar 29 2023 03:11:26 GMT-0500 (Central Daylight Time)","465880","3","1","image-keyboard-response","168","220409","0.0-5.0-1.82","","null","","img/3to2/1.png","null","143","328","0.5","0.1","3","2","",""
"","","","","63cff34d33a9948e3b0b28d6","bdp_cybrbll","Wed Mar 29 2023 03:11:26 GMT-0500 (Central Daylight Time)","465880","3","1","animation","169","221709","0.0-5.0-2.82","","","","","","143","","","","3","2","[{""stimulus"":""img/3to2/1.png"",""time"":107},{""stimulus"":""img/3to2/2.png"",""time"":201},{""stimulus"":""img/3to2/3.png"",""time"":306},{""stimulus"":""img/3to2/4.png"",""time"":399},{""stimulus"":""img/3to2/5.png"",""time"":495},{""stimulus"":""img/3to2/6.png"",""time"":595},{""stimulus"":""img/3to2/7.png"",""time"":694},{""stimulus"":""img/3to2/8.png"",""time"":792},{""stimulus"":""img/3to2/9.png"",""time"":904},{""stimulus"":""img/3to2/10.png"",""time"":994},{""stimulus"":""img/3to2/11.png"",""time"":1100},{""stimulus"":""img/3to2/12.png"",""time"":1196}]","[]"
"","","","choice","63cff34d33a9948e3b0b28d6","bdp_cybrbll","Wed Mar 29 2023 03:11:26 GMT-0500 (Central Daylight Time)","465880","3","1","image-keyboard-response","170","222064","0.0-5.0-1.83","","354","","img/2to1/1.png","2","142","199","0.5","0.1","2","3","",""
"","","","","63cff34d33a9948e3b0b28d6","bdp_cybrbll","Wed Mar 29 2023 03:11:26 GMT-0500 (Central Daylight Time)","465880","3","1","animation","171","223353","0.0-5.0-2.83","","","","","","142","","","","2","3","[{""stimulus"":""img/2to3/1.png"",""time"":105},{""stimulus"":""img/2to3/2.png"",""time"":209},{""stimulus"":""img/2to3/3.png"",""time"":300},{""stimulus"":""img/2to3/4.png"",""time"":405},{""stimulus"":""img/2to3/5.png"",""time"":498},{""stimulus"":""img/2to3/6.png"",""time"":604},{""stimulus"":""img/2to3/7.png"",""time"":696},{""stimulus"":""img/2to3/8.png"",""time"":793},{""stimulus"":""img/2to3/9.png"",""time"":893},{""stimulus"":""img/2to3/10.png"",""time"":992},{""stimulus"":""img/2to3/11.png"",""time"":1090},{""stimulus"":""img/2to3/12.png"",""time"":1201}]","[]"
"","","","observe","63cff34d33a9948e3b0b28d6","bdp_cybrbll","Wed Mar 29 2023 03:11:26 GMT-0500 (Central Daylight Time)","465880","3","1","image-keyboard-response","172","223707","0.0-5.0-1.84","","null","","img/3to2/1.png","null","141","350","0.5","0.1","3","1","",""
"","","","","63cff34d33a9948e3b0b28d6","bdp_cybrbll","Wed Mar 29 2023 03:11:26 GMT-0500 (Central Daylight Time)","465880","3","1","animation","173","225006","0.0-5.0-2.84","","","","","","141","","","","3","1","[{""stimulus"":""img/3to1/1.png"",""time"":107},{""stimulus"":""img/3to1/2.png"",""time"":213},{""stimulus"":""img/3to1/3.png"",""time"":306},{""stimulus"":""img/3to1/4.png"",""time"":398},{""stimulus"":""img/3to1/5.png"",""time"":506},{""stimulus"":""img/3to1/6.png"",""time"":598},{""stimulus"":""img/3to1/7.png"",""time"":696},{""stimulus"":""img/3to1/8.png"",""time"":795},{""stimulus"":""img/3to1/9.png"",""time"":901},{""stimulus"":""img/3to1/10.png"",""time"":991},{""stimulus"":""img/3to1/11.png"",""time"":1099},{""stimulus"":""img/3to1/12.png"",""time"":1189}]","[]"
"","","","observe","63cff34d33a9948e3b0b28d6","bdp_cybrbll","Wed Mar 29 2023 03:11:26 GMT-0500 (Central Daylight Time)","465880","3","1","image-keyboard-response","174","225276","0.0-5.0-1.85","","null","","img/1to3/1.png","null","140","268","0.5","0.1","1","3","",""
"","","","","63cff34d33a9948e3b0b28d6","bdp_cybrbll","Wed Mar 29 2023 03:11:26 GMT-0500 (Central Daylight Time)","465880","3","1","animation","175","226575","0.0-5.0-2.85","","","","","","140","","","","1","3","[{""stimulus"":""img/1to3/1.png"",""time"":107},{""stimulus"":""img/1to3/2.png"",""time"":212},{""stimulus"":""img/1to3/3.png"",""time"":297},{""stimulus"":""img/1to3/4.png"",""time"":412},{""stimulus"":""img/1to3/5.png"",""time"":503},{""stimulus"":""img/1to3/6.png"",""time"":596},{""stimulus"":""img/1to3/7.png"",""time"":705},{""stimulus"":""img/1to3/8.png"",""time"":799},{""stimulus"":""img/1to3/9.png"",""time"":893},{""stimulus"":""img/1to3/10.png"",""time"":996},{""stimulus"":""img/1to3/11.png"",""time"":1102},{""stimulus"":""img/1to3/12.png"",""time"":1195}]","[]"
"","","","observe","63cff34d33a9948e3b0b28d6","bdp_cybrbll","Wed Mar 29 2023 03:11:26 GMT-0500 (Central Daylight Time)","465880","3","1","image-keyboard-response","176","226777","0.0-5.0-1.86","","null","","img/3to2/1.png","null","139","185","0.5","0.1","3","1","",""
"","","","","63cff34d33a9948e3b0b28d6","bdp_cybrbll","Wed Mar 29 2023 03:11:26 GMT-0500 (Central Daylight Time)","465880","3","1","animation","177","228065","0.0-5.0-2.86","","","","","","139","","","","3","1","[{""stimulus"":""img/3to1/1.png"",""time"":106},{""stimulus"":""img/3to1/2.png"",""time"":199},{""stimulus"":""img/3to1/3.png"",""time"":297},{""stimulus"":""img/3to1/4.png"",""time"":411},{""stimulus"":""img/3to1/5.png"",""time"":497},{""stimulus"":""img/3to1/6.png"",""time"":598},{""stimulus"":""img/3to1/7.png"",""time"":706},{""stimulus"":""img/3to1/8.png"",""time"":794},{""stimulus"":""img/3to1/9.png"",""time"":892},{""stimulus"":""img/3to1/10.png"",""time"":994},{""stimulus"":""img/3to1/11.png"",""time"":1099},{""stimulus"":""img/3to1/12.png"",""time"":1192}]","[]"
"","","","observe","63cff34d33a9948e3b0b28d6","bdp_cybrbll","Wed Mar 29 2023 03:11:26 GMT-0500 (Central Daylight Time)","465880","3","1","image-keyboard-response","178","228348","0.0-5.0-1.87","","null","","img/1to3/1.png","null","138","269","0.5","0.1","1","3","",""
"","","","","63cff34d33a9948e3b0b28d6","bdp_cybrbll","Wed Mar 29 2023 03:11:26 GMT-0500 (Central Daylight Time)","465880","3","1","animation","179","229645","0.0-5.0-2.87","","","","","","138","","","","1","3","[{""stimulus"":""img/1to3/1.png"",""time"":107},{""stimulus"":""img/1to3/2.png"",""time"":212},{""stimulus"":""img/1to3/3.png"",""time"":303},{""stimulus"":""img/1to3/4.png"",""time"":397},{""stimulus"":""img/1to3/5.png"",""time"":496},{""stimulus"":""img/1to3/6.png"",""time"":607},{""stimulus"":""img/1to3/7.png"",""time"":693},{""stimulus"":""img/1to3/8.png"",""time"":793},{""stimulus"":""img/1to3/9.png"",""time"":901},{""stimulus"":""img/1to3/10.png"",""time"":997},{""stimulus"":""img/1to3/11.png"",""time"":1101},{""stimulus"":""img/1to3/12.png"",""time"":1189}]","[]"
"","","","observe","63cff34d33a9948e3b0b28d6","bdp_cybrbll","Wed Mar 29 2023 03:11:26 GMT-0500 (Central Daylight Time)","465880","3","1","image-keyboard-response","180","230389","0.0-5.0-1.88","","null","","img/3to2/1.png","null","137","736","0.5","0.1","3","1","",""
"","","","","63cff34d33a9948e3b0b28d6","bdp_cybrbll","Wed Mar 29 2023 03:11:26 GMT-0500 (Central Daylight Time)","465880","3","1","animation","181","231686","0.0-5.0-2.88","","","","","","137","","","","3","1","[{""stimulus"":""img/3to1/1.png"",""time"":107},{""stimulus"":""img/3to1/2.png"",""time"":202},{""stimulus"":""img/3to1/3.png"",""time"":304},{""stimulus"":""img/3to1/4.png"",""time"":411},{""stimulus"":""img/3to1/5.png"",""time"":496},{""stimulus"":""img/3to1/6.png"",""time"":609},{""stimulus"":""img/3to1/7.png"",""time"":702},{""stimulus"":""img/3to1/8.png"",""time"":793},{""stimulus"":""img/3to1/9.png"",""time"":898},{""stimulus"":""img/3to1/10.png"",""time"":991},{""stimulus"":""img/3to1/11.png"",""time"":1098},{""stimulus"":""img/3to1/12.png"",""time"":1190}]","[]"
"","","","observe","63cff34d33a9948e3b0b28d6","bdp_cybrbll","Wed Mar 29 2023 03:11:26 GMT-0500 (Central Daylight Time)","465880","3","1","image-keyboard-response","182","232006","0.0-5.0-1.89","","null","","img/1to3/1.png","null","136","317","0.5","0.1","1","3","",""
"","","","","63cff34d33a9948e3b0b28d6","bdp_cybrbll","Wed Mar 29 2023 03:11:26 GMT-0500 (Central Daylight Time)","465880","3","1","animation","183","233294","0.0-5.0-2.89","","","","","","136","","","","1","3","[{""stimulus"":""img/1to3/1.png"",""time"":107},{""stimulus"":""img/1to3/2.png"",""time"":209},{""stimulus"":""img/1to3/3.png"",""time"":302},{""stimulus"":""img/1to3/4.png"",""time"":410},{""stimulus"":""img/1to3/5.png"",""time"":496},{""stimulus"":""img/1to3/6.png"",""time"":596},{""stimulus"":""img/1to3/7.png"",""time"":700},{""stimulus"":""img/1to3/8.png"",""time"":808},{""stimulus"":""img/1to3/9.png"",""time"":900},{""stimulus"":""img/1to3/10.png"",""time"":993},{""stimulus"":""img/1to3/11.png"",""time"":1097},{""stimulus"":""img/1to3/12.png"",""time"":1190}]","[]"
"","","","observe","63cff34d33a9948e3b0b28d6","bdp_cybrbll","Wed Mar 29 2023 03:11:26 GMT-0500 (Central Daylight Time)","465880","3","1","image-keyboard-response","184","233583","0.0-5.0-1.90","","null","","img/3to2/1.png","null","135","265","0.5","0.1","3","2","",""
"","","","","63cff34d33a9948e3b0b28d6","bdp_cybrbll","Wed Mar 29 2023 03:11:26 GMT-0500 (Central Daylight Time)","465880","3","1","animation","185","234885","0.0-5.0-2.90","","","","","","135","","","","3","2","[{""stimulus"":""img/3to2/1.png"",""time"":117},{""stimulus"":""img/3to2/2.png"",""time"":204},{""stimulus"":""img/3to2/3.png"",""time"":300},{""stimulus"":""img/3to2/4.png"",""time"":405},{""stimulus"":""img/3to2/5.png"",""time"":496},{""stimulus"":""img/3to2/6.png"",""time"":594},{""stimulus"":""img/3to2/7.png"",""time"":696},{""stimulus"":""img/3to2/8.png"",""time"":794},{""stimulus"":""img/3to2/9.png"",""time"":892},{""stimulus"":""img/3to2/10.png"",""time"":997},{""stimulus"":""img/3to2/11.png"",""time"":1090},{""stimulus"":""img/3to2/12.png"",""time"":1196}]","[]"
"","","","choice","63cff34d33a9948e3b0b28d6","bdp_cybrbll","Wed Mar 29 2023 03:11:26 GMT-0500 (Central Daylight Time)","465880","3","1","image-keyboard-response","186","235048","0.0-5.0-1.91","","163","","img/2to1/1.png","2","134","603","0.5","0.1","2","3","",""
"","","","","63cff34d33a9948e3b0b28d6","bdp_cybrbll","Wed Mar 29 2023 03:11:26 GMT-0500 (Central Daylight Time)","465880","3","1","animation","187","236348","0.0-5.0-2.91","","","","","","134","","","","2","3","[{""stimulus"":""img/2to3/1.png"",""time"":112},{""stimulus"":""img/2to3/2.png"",""time"":202},{""stimulus"":""img/2to3/3.png"",""time"":310},{""stimulus"":""img/2to3/4.png"",""time"":406},{""stimulus"":""img/2to3/5.png"",""time"":509},{""stimulus"":""img/2to3/6.png"",""time"":595},{""stimulus"":""img/2to3/7.png"",""time"":708},{""stimulus"":""img/2to3/8.png"",""time"":802},{""stimulus"":""img/2to3/9.png"",""time"":904},{""stimulus"":""img/2to3/10.png"",""time"":996},{""stimulus"":""img/2to3/11.png"",""time"":1101},{""stimulus"":""img/2to3/12.png"",""time"":1194}]","[]"
"","","","observe","63cff34d33a9948e3b0b28d6","bdp_cybrbll","Wed Mar 29 2023 03:11:26 GMT-0500 (Central Daylight Time)","465880","3","1","image-keyboard-response","188","236771","0.0-5.0-1.92","","null","","img/3to2/1.png","null","133","416","0.5","0.1","3","1","",""
"","","","","63cff34d33a9948e3b0b28d6","bdp_cybrbll","Wed Mar 29 2023 03:11:26 GMT-0500 (Central Daylight Time)","465880","3","1","animation","189","238066","0.0-5.0-2.92","","","","","","133","","","","3","1","[{""stimulus"":""img/3to1/1.png"",""time"":106},{""stimulus"":""img/3to1/2.png"",""time"":200},{""stimulus"":""img/3to1/3.png"",""time"":298},{""stimulus"":""img/3to1/4.png"",""time"":400},{""stimulus"":""img/3to1/5.png"",""time"":509},{""stimulus"":""img/3to1/6.png"",""time"":607},{""stimulus"":""img/3to1/7.png"",""time"":694},{""stimulus"":""img/3to1/8.png"",""time"":808},{""stimulus"":""img/3to1/9.png"",""time"":892},{""stimulus"":""img/3to1/10.png"",""time"":1004},{""stimulus"":""img/3to1/11.png"",""time"":1097},{""stimulus"":""img/3to1/12.png"",""time"":1204}]","[]"
