"trial_type","trial_index","time_elapsed","internal_node_id","subject_id","task","startTime","totalTime","fairPartner","unfairPartner","view_history","rt","event","trial","time","trialtype","success","stimulus","key_press","throwsLeft","rtDur","pFair","pUnfair","holder","receiver","animation_sequence","responses"
"pavlovia","0","2","0.0-0.0","63d007388da4ef5b301762f9","bdp_cybrbll","Mon Mar 27 2023 08:25:33 GMT-0700 (Pacific Daylight Time)","407735","1","3","","","","","","","","","","","","","","","","",""
"instructions","1","3679","0.0-1.0","63d007388da4ef5b301762f9","bdp_cybrbll","Mon Mar 27 2023 08:25:33 GMT-0700 (Pacific Daylight Time)","407735","1","3","[{""page_index"":0,""viewing_time"":3677}]","3677","","","","","","","","","","","","","","",""
"","","","","63d007388da4ef5b301762f9","bdp_cybrbll","Mon Mar 27 2023 08:25:33 GMT-0700 (Pacific Daylight Time)","407735","1","3","","","fullscreenenter","2","5649","fullscreenenter","","","","","","","","","","",""
"fullscreen","2","6636","0.0-2.0","63d007388da4ef5b301762f9","bdp_cybrbll","Mon Mar 27 2023 08:25:33 GMT-0700 (Pacific Daylight Time)","407735","1","3","","","","","","","true","","","","","","","","","",""
"instructions","3","16490","0.0-4.0","63d007388da4ef5b301762f9","bdp_cybrbll","Mon Mar 27 2023 08:25:33 GMT-0700 (Pacific Daylight Time)","407735","1","3","[{""page_index"":0,""viewing_time"":9854}]","9854","","","","","","","","","","","","","","",""
"image-keyboard-response","4","17667","0.0-5.0-1.0","63d007388da4ef5b301762f9","bdp_cybrbll","Mon Mar 27 2023 08:25:33 GMT-0700 (Pacific Daylight Time)","407735","1","3","","1175","","","","choice","","img/2to1/1.png","2","225","253","0.5","0.5","2","3","",""
"animation","5","18968","0.0-5.0-2.0","63d007388da4ef5b301762f9","bdp_cybrbll","Mon Mar 27 2023 08:25:33 GMT-0700 (Pacific Daylight Time)","407735","1","3","","","","","","","","","","225","","","","2","3","[{""stimulus"":""img/2to3/1.png"",""time"":109},{""stimulus"":""img/2to3/2.png"",""time"":199},{""stimulus"":""img/2to3/3.png"",""time"":313},{""stimulus"":""img/2to3/4.png"",""time"":407},{""stimulus"":""img/2to3/5.png"",""time"":502},{""stimulus"":""img/2to3/6.png"",""time"":597},{""stimulus"":""img/2to3/7.png"",""time"":708},{""stimulus"":""img/2to3/8.png"",""time"":800},{""stimulus"":""img/2to3/9.png"",""time"":894},{""stimulus"":""img/2to3/10.png"",""time"":1004},{""stimulus"":""img/2to3/11.png"",""time"":1098},{""stimulus"":""img/2to3/12.png"",""time"":1192}]","[]"
"image-keyboard-response","6","19704","0.0-5.0-1.1","63d007388da4ef5b301762f9","bdp_cybrbll","Mon Mar 27 2023 08:25:33 GMT-0700 (Pacific Daylight Time)","407735","1","3","","null","","","","observe","","img/3to2/1.png","null","224","727","0.5","0.5","3","1","",""
"animation","7","20992","0.0-5.0-2.1","63d007388da4ef5b301762f9","bdp_cybrbll","Mon Mar 27 2023 08:25:33 GMT-0700 (Pacific Daylight Time)","407735","1","3","","","","","","","","","","224","","","","3","1","[{""stimulus"":""img/3to1/1.png"",""time"":109},{""stimulus"":""img/3to1/2.png"",""time"":198},{""stimulus"":""img/3to1/3.png"",""time"":297},{""stimulus"":""img/3to1/4.png"",""time"":396},{""stimulus"":""img/3to1/5.png"",""time"":496},{""stimulus"":""img/3to1/6.png"",""time"":609},{""stimulus"":""img/3to1/7.png"",""time"":693},{""stimulus"":""img/3to1/8.png"",""time"":792},{""stimulus"":""img/3to1/9.png"",""time"":893},{""stimulus"":""img/3to1/10.png"",""time"":992},{""stimulus"":""img/3to1/11.png"",""time"":1090},{""stimulus"":""img/3to1/12.png"",""time"":1189}]","[]"
"image-keyboard-response","8","21446","0.0-5.0-1.2","63d007388da4ef5b301762f9","bdp_cybrbll","Mon Mar 27 2023 08:25:33 GMT-0700 (Pacific Daylight Time)","407735","1","3","","null","","","","observe","","img/1to3/1.png","null","223","453","0.5","0.5","1","3","",""
"animation","9","22734","0.0-5.0-2.2","63d007388da4ef5b301762f9","bdp_cybrbll","Mon Mar 27 2023 08:25:33 GMT-0700 (Pacific Daylight Time)","407735","1","3","","","","","","","","","","223","","","","1","3","[{""stimulus"":""img/1to3/1.png"",""time"":100},{""stimulus"":""img/1to3/2.png"",""time"":199},{""stimulus"":""img/1to3/3.png"",""time"":298},{""stimulus"":""img/1to3/4.png"",""time"":396},{""stimulus"":""img/1to3/5.png"",""time"":496},{""stimulus"":""img/1to3/6.png"",""time"":595},{""stimulus"":""img/1to3/7.png"",""time"":693},{""stimulus"":""img/1to3/8.png"",""time"":793},{""stimulus"":""img/1to3/9.png"",""time"":892},{""stimulus"":""img/1to3/10.png"",""time"":991},{""stimulus"":""img/1to3/11.png"",""time"":1090},{""stimulus"":""img/1to3/12.png"",""time"":1190}]","[]"
"image-keyboard-response","10","23091","0.0-5.0-1.3","63d007388da4ef5b301762f9","bdp_cybrbll","Mon Mar 27 2023 08:25:33 GMT-0700 (Pacific Daylight Time)","407735","1","3","","null","","","","observe","","img/3to2/1.png","null","222","355","0.5","0.5","3","2","",""
"animation","11","24379","0.0-5.0-2.3","63d007388da4ef5b301762f9","bdp_cybrbll","Mon Mar 27 2023 08:25:33 GMT-0700 (Pacific Daylight Time)","407735","1","3","","","","","","","","","","222","","","","3","2","[{""stimulus"":""img/3to2/1.png"",""time"":99},{""stimulus"":""img/3to2/2.png"",""time"":199},{""stimulus"":""img/3to2/3.png"",""time"":298},{""stimulus"":""img/3to2/4.png"",""time"":397},{""stimulus"":""img/3to2/5.png"",""time"":496},{""stimulus"":""img/3to2/6.png"",""time"":595},{""stimulus"":""img/3to2/7.png"",""time"":694},{""stimulus"":""img/3to2/8.png"",""time"":794},{""stimulus"":""img/3to2/9.png"",""time"":893},{""stimulus"":""img/3to2/10.png"",""time"":991},{""stimulus"":""img/3to2/11.png"",""time"":1089},{""stimulus"":""img/3to2/12.png"",""time"":1189}]","[]"
"image-keyboard-response","12","24415","0.0-5.0-1.4","63d007388da4ef5b301762f9","bdp_cybrbll","Mon Mar 27 2023 08:25:33 GMT-0700 (Pacific Daylight Time)","407735","1","3","","36","","","","choice","","img/2to1/1.png","1","221","1869","0.5","0.5","2","1","",""
"animation","13","25703","0.0-5.0-2.4","63d007388da4ef5b301762f9","bdp_cybrbll","Mon Mar 27 2023 08:25:33 GMT-0700 (Pacific Daylight Time)","407735","1","3","","","","","","","","","","221","","","","2","1","[{""stimulus"":""img/2to1/1.png"",""time"":99},{""stimulus"":""img/2to1/2.png"",""time"":199},{""stimulus"":""img/2to1/3.png"",""time"":299},{""stimulus"":""img/2to1/4.png"",""time"":397},{""stimulus"":""img/2to1/5.png"",""time"":495},{""stimulus"":""img/2to1/6.png"",""time"":596},{""stimulus"":""img/2to1/7.png"",""time"":694},{""stimulus"":""img/2to1/8.png"",""time"":800},{""stimulus"":""img/2to1/9.png"",""time"":892},{""stimulus"":""img/2to1/10.png"",""time"":992},{""stimulus"":""img/2to1/11.png"",""time"":1090},{""stimulus"":""img/2to1/12.png"",""time"":1189}]","[]"
"image-keyboard-response","14","26123","0.0-5.0-1.5","63d007388da4ef5b301762f9","bdp_cybrbll","Mon Mar 27 2023 08:25:33 GMT-0700 (Pacific Daylight Time)","407735","1","3","","null","","","","observe","","img/1to3/1.png","null","220","418","0.5","0.5","1","3","",""
"animation","15","27411","0.0-5.0-2.5","63d007388da4ef5b301762f9","bdp_cybrbll","Mon Mar 27 2023 08:25:33 GMT-0700 (Pacific Daylight Time)","407735","1","3","","","","","","","","","","220","","","","1","3","[{""stimulus"":""img/1to3/1.png"",""time"":100},{""stimulus"":""img/1to3/2.png"",""time"":199},{""stimulus"":""img/1to3/3.png"",""time"":298},{""stimulus"":""img/1to3/4.png"",""time"":396},{""stimulus"":""img/1to3/5.png"",""time"":496},{""stimulus"":""img/1to3/6.png"",""time"":596},{""stimulus"":""img/1to3/7.png"",""time"":696},{""stimulus"":""img/1to3/8.png"",""time"":793},{""stimulus"":""img/1to3/9.png"",""time"":892},{""stimulus"":""img/1to3/10.png"",""time"":990},{""stimulus"":""img/1to3/11.png"",""time"":1089},{""stimulus"":""img/1to3/12.png"",""time"":1188}]","[]"
"image-keyboard-response","16","27627","0.0-5.0-1.6","63d007388da4ef5b301762f9","bdp_cybrbll","Mon Mar 27 2023 08:25:33 GMT-0700 (Pacific Daylight Time)","407735","1","3","","null","","","","observe","","img/3to2/1.png","null","219","215","0.5","0.5","3","2","",""
"animation","17","28915","0.0-5.0-2.6","63d007388da4ef5b301762f9","bdp_cybrbll","Mon Mar 27 2023 08:25:33 GMT-0700 (Pacific Daylight Time)","407735","1","3","","","","","","","","","","219","","","","3","2","[{""stimulus"":""img/3to2/1.png"",""time"":101},{""stimulus"":""img/3to2/2.png"",""time"":199},{""stimulus"":""img/3to2/3.png"",""time"":297},{""stimulus"":""img/3to2/4.png"",""time"":397},{""stimulus"":""img/3to2/5.png"",""time"":496},{""stimulus"":""img/3to2/6.png"",""time"":595},{""stimulus"":""img/3to2/7.png"",""time"":694},{""stimulus"":""img/3to2/8.png"",""time"":793},{""stimulus"":""img/3to2/9.png"",""time"":892},{""stimulus"":""img/3to2/10.png"",""time"":995},{""stimulus"":""img/3to2/11.png"",""time"":1090},{""stimulus"":""img/3to2/12.png"",""time"":1188}]","[]"
"image-keyboard-response","18","29401","0.0-5.0-1.7","63d007388da4ef5b301762f9","bdp_cybrbll","Mon Mar 27 2023 08:25:33 GMT-0700 (Pacific Daylight Time)","407735","1","3","","486","","","","choice","","img/2to1/1.png","1","218","392","0.5","0.5","2","1","",""
"animation","19","30689","0.0-5.0-2.7","63d007388da4ef5b301762f9","bdp_cybrbll","Mon Mar 27 2023 08:25:33 GMT-0700 (Pacific Daylight Time)","407735","1","3","","","","","","","","","","218","","","","2","1","[{""stimulus"":""img/2to1/1.png"",""time"":100},{""stimulus"":""img/2to1/2.png"",""time"":198},{""stimulus"":""img/2to1/3.png"",""time"":298},{""stimulus"":""img/2to1/4.png"",""time"":397},{""stimulus"":""img/2to1/5.png"",""time"":496},{""stimulus"":""img/2to1/6.png"",""time"":595},{""stimulus"":""img/2to1/7.png"",""time"":694},{""stimulus"":""img/2to1/8.png"",""time"":793},{""stimulus"":""img/2to1/9.png"",""time"":891},{""stimulus"":""img/2to1/10.png"",""time"":990},{""stimulus"":""img/2to1/11.png"",""time"":1090},{""stimulus"":""img/2to1/12.png"",""time"":1189}]","[]"
"image-keyboard-response","20","31085","0.0-5.0-1.8","63d007388da4ef5b301762f9","bdp_cybrbll","Mon Mar 27 2023 08:25:33 GMT-0700 (Pacific Daylight Time)","407735","1","3","","null","","","","observe","","img/1to3/1.png","null","217","386","0.5","0.5","1","2","",""
"animation","21","32372","0.0-5.0-2.8","63d007388da4ef5b301762f9","bdp_cybrbll","Mon Mar 27 2023 08:25:33 GMT-0700 (Pacific Daylight Time)","407735","1","3","","","","","","","","","","217","","","","1","2","[{""stimulus"":""img/1to2/1.png"",""time"":99},{""stimulus"":""img/1to2/2.png"",""time"":199},{""stimulus"":""img/1to2/3.png"",""time"":298},{""stimulus"":""img/1to2/4.png"",""time"":398},{""stimulus"":""img/1to2/5.png"",""time"":497},{""stimulus"":""img/1to2/6.png"",""time"":595},{""stimulus"":""img/1to2/7.png"",""time"":694},{""stimulus"":""img/1to2/8.png"",""time"":793},{""stimulus"":""img/1to2/9.png"",""time"":891},{""stimulus"":""img/1to2/10.png"",""time"":991},{""stimulus"":""img/1to2/11.png"",""time"":1090},{""stimulus"":""img/1to2/12.png"",""time"":1189}]","[]"
"image-keyboard-response","22","32475","0.0-5.0-1.9","63d007388da4ef5b301762f9","bdp_cybrbll","Mon Mar 27 2023 08:25:33 GMT-0700 (Pacific Daylight Time)","407735","1","3","","103","","","","choice","","img/2to1/1.png","1","216","409","0.5","0.5","2","1","",""
"animation","23","33763","0.0-5.0-2.9","63d007388da4ef5b301762f9","bdp_cybrbll","Mon Mar 27 2023 08:25:33 GMT-0700 (Pacific Daylight Time)","407735","1","3","","","","","","","","","","216","","","","2","1","[{""stimulus"":""img/2to1/1.png"",""time"":100},{""stimulus"":""img/2to1/2.png"",""time"":200},{""stimulus"":""img/2to1/3.png"",""time"":299},{""stimulus"":""img/2to1/4.png"",""time"":397},{""stimulus"":""img/2to1/5.png"",""time"":496},{""stimulus"":""img/2to1/6.png"",""time"":596},{""stimulus"":""img/2to1/7.png"",""time"":695},{""stimulus"":""img/2to1/8.png"",""time"":794},{""stimulus"":""img/2to1/9.png"",""time"":893},{""stimulus"":""img/2to1/10.png"",""time"":991},{""stimulus"":""img/2to1/11.png"",""time"":1090},{""stimulus"":""img/2to1/12.png"",""time"":1189}]","[]"
"image-keyboard-response","24","34006","0.0-5.0-1.10","63d007388da4ef5b301762f9","bdp_cybrbll","Mon Mar 27 2023 08:25:33 GMT-0700 (Pacific Daylight Time)","407735","1","3","","null","","","","observe","","img/1to3/1.png","null","215","243","0.5","0.5","1","3","",""
"animation","25","35294","0.0-5.0-2.10","63d007388da4ef5b301762f9","bdp_cybrbll","Mon Mar 27 2023 08:25:33 GMT-0700 (Pacific Daylight Time)","407735","1","3","","","","","","","","","","215","","","","1","3","[{""stimulus"":""img/1to3/1.png"",""time"":114},{""stimulus"":""img/1to3/2.png"",""time"":199},{""stimulus"":""img/1to3/3.png"",""time"":298},{""stimulus"":""img/1to3/4.png"",""time"":398},{""stimulus"":""img/1to3/5.png"",""time"":496},{""stimulus"":""img/1to3/6.png"",""time"":595},{""stimulus"":""img/1to3/7.png"",""time"":694},{""stimulus"":""img/1to3/8.png"",""time"":793},{""stimulus"":""img/1to3/9.png"",""time"":892},{""stimulus"":""img/1to3/10.png"",""time"":991},{""stimulus"":""img/1to3/11.png"",""time"":1091},{""stimulus"":""img/1to3/12.png"",""time"":1189}]","[]"
"image-keyboard-response","26","36459","0.0-5.0-1.11","63d007388da4ef5b301762f9","bdp_cybrbll","Mon Mar 27 2023 08:25:33 GMT-0700 (Pacific Daylight Time)","407735","1","3","","null","","","","observe","","img/3to2/1.png","null","214","1163","0.5","0.5","3","1","",""
"animation","27","37748","0.0-5.0-2.11","63d007388da4ef5b301762f9","bdp_cybrbll","Mon Mar 27 2023 08:25:33 GMT-0700 (Pacific Daylight Time)","407735","1","3","","","","","","","","","","214","","","","3","1","[{""stimulus"":""img/3to1/1.png"",""time"":100},{""stimulus"":""img/3to1/2.png"",""time"":199},{""stimulus"":""img/3to1/3.png"",""time"":298},{""stimulus"":""img/3to1/4.png"",""time"":397},{""stimulus"":""img/3to1/5.png"",""time"":496},{""stimulus"":""img/3to1/6.png"",""time"":595},{""stimulus"":""img/3to1/7.png"",""time"":693},{""stimulus"":""img/3to1/8.png"",""time"":793},{""stimulus"":""img/3to1/9.png"",""time"":892},{""stimulus"":""img/3to1/10.png"",""time"":992},{""stimulus"":""img/3to1/11.png"",""time"":1090},{""stimulus"":""img/3to1/12.png"",""time"":1189}]","[]"
"image-keyboard-response","28","38193","0.0-5.0-1.12","63d007388da4ef5b301762f9","bdp_cybrbll","Mon Mar 27 2023 08:25:33 GMT-0700 (Pacific Daylight Time)","407735","1","3","","null","","","","observe","","img/1to3/1.png","null","213","444","0.5","0.5","1","2","",""
"animation","29","39481","0.0-5.0-2.12","63d007388da4ef5b301762f9","bdp_cybrbll","Mon Mar 27 2023 08:25:33 GMT-0700 (Pacific Daylight Time)","407735","1","3","","","","","","","","","","213","","","","1","2","[{""stimulus"":""img/1to2/1.png"",""time"":100},{""stimulus"":""img/1to2/2.png"",""time"":199},{""stimulus"":""img/1to2/3.png"",""time"":298},{""stimulus"":""img/1to2/4.png"",""time"":398},{""stimulus"":""img/1to2/5.png"",""time"":496},{""stimulus"":""img/1to2/6.png"",""time"":595},{""stimulus"":""img/1to2/7.png"",""time"":694},{""stimulus"":""img/1to2/8.png"",""time"":794},{""stimulus"":""img/1to2/9.png"",""time"":892},{""stimulus"":""img/1to2/10.png"",""time"":991},{""stimulus"":""img/1to2/11.png"",""time"":1090},{""stimulus"":""img/1to2/12.png"",""time"":1189}]","[]"
"image-keyboard-response","30","39548","0.0-5.0-1.13","63d007388da4ef5b301762f9","bdp_cybrbll","Mon Mar 27 2023 08:25:33 GMT-0700 (Pacific Daylight Time)","407735","1","3","","67","","","","choice","","img/2to1/1.png","1","212","484","0.5","0.5","2","1","",""
"animation","31","40835","0.0-5.0-2.13","63d007388da4ef5b301762f9","bdp_cybrbll","Mon Mar 27 2023 08:25:33 GMT-0700 (Pacific Daylight Time)","407735","1","3","","","","","","","","","","212","","","","2","1","[{""stimulus"":""img/2to1/1.png"",""time"":100},{""stimulus"":""img/2to1/2.png"",""time"":198},{""stimulus"":""img/2to1/3.png"",""time"":312},{""stimulus"":""img/2to1/4.png"",""time"":397},{""stimulus"":""img/2to1/5.png"",""time"":496},{""stimulus"":""img/2to1/6.png"",""time"":595},{""stimulus"":""img/2to1/7.png"",""time"":693},{""stimulus"":""img/2to1/8.png"",""time"":793},{""stimulus"":""img/2to1/9.png"",""time"":893},{""stimulus"":""img/2to1/10.png"",""time"":991},{""stimulus"":""img/2to1/11.png"",""time"":1089},{""stimulus"":""img/2to1/12.png"",""time"":1189}]","[]"
"image-keyboard-response","32","41810","0.0-5.0-1.14","63d007388da4ef5b301762f9","bdp_cybrbll","Mon Mar 27 2023 08:25:33 GMT-0700 (Pacific Daylight Time)","407735","1","3","","null","","","","observe","","img/1to3/1.png","null","211","974","0.5","0.5","1","2","",""
"animation","33","43099","0.0-5.0-2.14","63d007388da4ef5b301762f9","bdp_cybrbll","Mon Mar 27 2023 08:25:33 GMT-0700 (Pacific Daylight Time)","407735","1","3","","","","","","","","","","211","","","","1","2","[{""stimulus"":""img/1to2/1.png"",""time"":100},{""stimulus"":""img/1to2/2.png"",""time"":199},{""stimulus"":""img/1to2/3.png"",""time"":298},{""stimulus"":""img/1to2/4.png"",""time"":397},{""stimulus"":""img/1to2/5.png"",""time"":496},{""stimulus"":""img/1to2/6.png"",""time"":595},{""stimulus"":""img/1to2/7.png"",""time"":694},{""stimulus"":""img/1to2/8.png"",""time"":793},{""stimulus"":""img/1to2/9.png"",""time"":893},{""stimulus"":""img/1to2/10.png"",""time"":991},{""stimulus"":""img/1to2/11.png"",""time"":1090},{""stimulus"":""img/1to2/12.png"",""time"":1189}]","[]"
"image-keyboard-response","34","43172","0.0-5.0-1.15","63d007388da4ef5b301762f9","bdp_cybrbll","Mon Mar 27 2023 08:25:33 GMT-0700 (Pacific Daylight Time)","407735","1","3","","73","","","","choice","","img/2to1/1.png","1","210","191","0.5","0.5","2","1","",""
"animation","35","44460","0.0-5.0-2.15","63d007388da4ef5b301762f9","bdp_cybrbll","Mon Mar 27 2023 08:25:33 GMT-0700 (Pacific Daylight Time)","407735","1","3","","","","","","","","","","210","","","","2","1","[{""stimulus"":""img/2to1/1.png"",""time"":100},{""stimulus"":""img/2to1/2.png"",""time"":199},{""stimulus"":""img/2to1/3.png"",""time"":299},{""stimulus"":""img/2to1/4.png"",""time"":397},{""stimulus"":""img/2to1/5.png"",""time"":496},{""stimulus"":""img/2to1/6.png"",""time"":595},{""stimulus"":""img/2to1/7.png"",""time"":694},{""stimulus"":""img/2to1/8.png"",""time"":793},{""stimulus"":""img/2to1/9.png"",""time"":892},{""stimulus"":""img/2to1/10.png"",""time"":991},{""stimulus"":""img/2to1/11.png"",""time"":1091},{""stimulus"":""img/2to1/12.png"",""time"":1190}]","[]"
"image-keyboard-response","36","44659","0.0-5.0-1.16","63d007388da4ef5b301762f9","bdp_cybrbll","Mon Mar 27 2023 08:25:33 GMT-0700 (Pacific Daylight Time)","407735","1","3","","null","","","","observe","","img/1to3/1.png","null","209","199","0.5","0.5","1","2","",""
"animation","37","45947","0.0-5.0-2.16","63d007388da4ef5b301762f9","bdp_cybrbll","Mon Mar 27 2023 08:25:33 GMT-0700 (Pacific Daylight Time)","407735","1","3","","","","","","","","","","209","","","","1","2","[{""stimulus"":""img/1to2/1.png"",""time"":100},{""stimulus"":""img/1to2/2.png"",""time"":198},{""stimulus"":""img/1to2/3.png"",""time"":298},{""stimulus"":""img/1to2/4.png"",""time"":402},{""stimulus"":""img/1to2/5.png"",""time"":495},{""stimulus"":""img/1to2/6.png"",""time"":595},{""stimulus"":""img/1to2/7.png"",""time"":693},{""stimulus"":""img/1to2/8.png"",""time"":792},{""stimulus"":""img/1to2/9.png"",""time"":892},{""stimulus"":""img/1to2/10.png"",""time"":990},{""stimulus"":""img/1to2/11.png"",""time"":1089},{""stimulus"":""img/1to2/12.png"",""time"":1189}]","[]"
"image-keyboard-response","38","46158","0.0-5.0-1.17","63d007388da4ef5b301762f9","bdp_cybrbll","Mon Mar 27 2023 08:25:33 GMT-0700 (Pacific Daylight Time)","407735","1","3","","211","","","","choice","","img/2to1/1.png","2","208","616","0.5","0.5","2","3","",""
"animation","39","47447","0.0-5.0-2.17","63d007388da4ef5b301762f9","bdp_cybrbll","Mon Mar 27 2023 08:25:33 GMT-0700 (Pacific Daylight Time)","407735","1","3","","","","","","","","","","208","","","","2","3","[{""stimulus"":""img/2to3/1.png"",""time"":101},{""stimulus"":""img/2to3/2.png"",""time"":199},{""stimulus"":""img/2to3/3.png"",""time"":298},{""stimulus"":""img/2to3/4.png"",""time"":397},{""stimulus"":""img/2to3/5.png"",""time"":496},{""stimulus"":""img/2to3/6.png"",""time"":595},{""stimulus"":""img/2to3/7.png"",""time"":694},{""stimulus"":""img/2to3/8.png"",""time"":793},{""stimulus"":""img/2to3/9.png"",""time"":892},{""stimulus"":""img/2to3/10.png"",""time"":1003},{""stimulus"":""img/2to3/11.png"",""time"":1090},{""stimulus"":""img/2to3/12.png"",""time"":1190}]","[]"
"image-keyboard-response","40","47706","0.0-5.0-1.18","63d007388da4ef5b301762f9","bdp_cybrbll","Mon Mar 27 2023 08:25:33 GMT-0700 (Pacific Daylight Time)","407735","1","3","","null","","","","observe","","img/3to2/1.png","null","207","258","0.5","0.5","3","2","",""
"animation","41","48994","0.0-5.0-2.18","63d007388da4ef5b301762f9","bdp_cybrbll","Mon Mar 27 2023 08:25:33 GMT-0700 (Pacific Daylight Time)","407735","1","3","","","","","","","","","","207","","","","3","2","[{""stimulus"":""img/3to2/1.png"",""time"":100},{""stimulus"":""img/3to2/2.png"",""time"":199},{""stimulus"":""img/3to2/3.png"",""time"":298},{""stimulus"":""img/3to2/4.png"",""time"":396},{""stimulus"":""img/3to2/5.png"",""time"":495},{""stimulus"":""img/3to2/6.png"",""time"":594},{""stimulus"":""img/3to2/7.png"",""time"":694},{""stimulus"":""img/3to2/8.png"",""time"":792},{""stimulus"":""img/3to2/9.png"",""time"":892},{""stimulus"":""img/3to2/10.png"",""time"":991},{""stimulus"":""img/3to2/11.png"",""time"":1089},{""stimulus"":""img/3to2/12.png"",""time"":1188}]","[]"
"image-keyboard-response","42","49137","0.0-5.0-1.19","63d007388da4ef5b301762f9","bdp_cybrbll","Mon Mar 27 2023 08:25:33 GMT-0700 (Pacific Daylight Time)","407735","1","3","","143","","","","choice","","img/2to1/1.png","1","206","197","0.5","0.5","2","1","",""
"animation","43","50425","0.0-5.0-2.19","63d007388da4ef5b301762f9","bdp_cybrbll","Mon Mar 27 2023 08:25:33 GMT-0700 (Pacific Daylight Time)","407735","1","3","","","","","","","","","","206","","","","2","1","[{""stimulus"":""img/2to1/1.png"",""time"":101},{""stimulus"":""img/2to1/2.png"",""time"":200},{""stimulus"":""img/2to1/3.png"",""time"":299},{""stimulus"":""img/2to1/4.png"",""time"":397},{""stimulus"":""img/2to1/5.png"",""time"":497},{""stimulus"":""img/2to1/6.png"",""time"":595},{""stimulus"":""img/2to1/7.png"",""time"":694},{""stimulus"":""img/2to1/8.png"",""time"":793},{""stimulus"":""img/2to1/9.png"",""time"":892},{""stimulus"":""img/2to1/10.png"",""time"":991},{""stimulus"":""img/2to1/11.png"",""time"":1091},{""stimulus"":""img/2to1/12.png"",""time"":1189}]","[]"
"image-keyboard-response","44","50932","0.0-5.0-1.20","63d007388da4ef5b301762f9","bdp_cybrbll","Mon Mar 27 2023 08:25:33 GMT-0700 (Pacific Daylight Time)","407735","1","3","","null","","","","observe","","img/1to3/1.png","null","205","506","0.5","0.5","1","2","",""
"animation","45","52220","0.0-5.0-2.20","63d007388da4ef5b301762f9","bdp_cybrbll","Mon Mar 27 2023 08:25:33 GMT-0700 (Pacific Daylight Time)","407735","1","3","","","","","","","","","","205","","","","1","2","[{""stimulus"":""img/1to2/1.png"",""time"":101},{""stimulus"":""img/1to2/2.png"",""time"":199},{""stimulus"":""img/1to2/3.png"",""time"":298},{""stimulus"":""img/1to2/4.png"",""time"":398},{""stimulus"":""img/1to2/5.png"",""time"":497},{""stimulus"":""img/1to2/6.png"",""time"":595},{""stimulus"":""img/1to2/7.png"",""time"":695},{""stimulus"":""img/1to2/8.png"",""time"":794},{""stimulus"":""img/1to2/9.png"",""time"":892},{""stimulus"":""img/1to2/10.png"",""time"":991},{""stimulus"":""img/1to2/11.png"",""time"":1090},{""stimulus"":""img/1to2/12.png"",""time"":1190}]","[]"
"image-keyboard-response","46","52456","0.0-5.0-1.21","63d007388da4ef5b301762f9","bdp_cybrbll","Mon Mar 27 2023 08:25:33 GMT-0700 (Pacific Daylight Time)","407735","1","3","","236","","","","choice","","img/2to1/1.png","1","204","532","0.5","0.5","2","1","",""
"animation","47","53744","0.0-5.0-2.21","63d007388da4ef5b301762f9","bdp_cybrbll","Mon Mar 27 2023 08:25:33 GMT-0700 (Pacific Daylight Time)","407735","1","3","","","","","","","","","","204","","","","2","1","[{""stimulus"":""img/2to1/1.png"",""time"":100},{""stimulus"":""img/2to1/2.png"",""time"":200},{""stimulus"":""img/2to1/3.png"",""time"":298},{""stimulus"":""img/2to1/4.png"",""time"":397},{""stimulus"":""img/2to1/5.png"",""time"":496},{""stimulus"":""img/2to1/6.png"",""time"":596},{""stimulus"":""img/2to1/7.png"",""time"":694},{""stimulus"":""img/2to1/8.png"",""time"":794},{""stimulus"":""img/2to1/9.png"",""time"":892},{""stimulus"":""img/2to1/10.png"",""time"":992},{""stimulus"":""img/2to1/11.png"",""time"":1090},{""stimulus"":""img/2to1/12.png"",""time"":1190}]","[]"
"image-keyboard-response","48","54451","0.0-5.0-1.22","63d007388da4ef5b301762f9","bdp_cybrbll","Mon Mar 27 2023 08:25:33 GMT-0700 (Pacific Daylight Time)","407735","1","3","","null","","","","observe","","img/1to3/1.png","null","203","706","0.5","0.5","1","2","",""
"animation","49","55740","0.0-5.0-2.22","63d007388da4ef5b301762f9","bdp_cybrbll","Mon Mar 27 2023 08:25:33 GMT-0700 (Pacific Daylight Time)","407735","1","3","","","","","","","","","","203","","","","1","2","[{""stimulus"":""img/1to2/1.png"",""time"":100},{""stimulus"":""img/1to2/2.png"",""time"":199},{""stimulus"":""img/1to2/3.png"",""time"":298},{""stimulus"":""img/1to2/4.png"",""time"":397},{""stimulus"":""img/1to2/5.png"",""time"":496},{""stimulus"":""img/1to2/6.png"",""time"":595},{""stimulus"":""img/1to2/7.png"",""time"":694},{""stimulus"":""img/1to2/8.png"",""time"":793},{""stimulus"":""img/1to2/9.png"",""time"":892},{""stimulus"":""img/1to2/10.png"",""time"":991},{""stimulus"":""img/1to2/11.png"",""time"":1091},{""stimulus"":""img/1to2/12.png"",""time"":1189}]","[]"
"image-keyboard-response","50","55881","0.0-5.0-1.23","63d007388da4ef5b301762f9","bdp_cybrbll","Mon Mar 27 2023 08:25:33 GMT-0700 (Pacific Daylight Time)","407735","1","3","","141","","","","choice","","img/2to1/1.png","1","202","431","0.5","0.5","2","1","",""
"animation","51","57169","0.0-5.0-2.23","63d007388da4ef5b301762f9","bdp_cybrbll","Mon Mar 27 2023 08:25:33 GMT-0700 (Pacific Daylight Time)","407735","1","3","","","","","","","","","","202","","","","2","1","[{""stimulus"":""img/2to1/1.png"",""time"":100},{""stimulus"":""img/2to1/2.png"",""time"":198},{""stimulus"":""img/2to1/3.png"",""time"":297},{""stimulus"":""img/2to1/4.png"",""time"":397},{""stimulus"":""img/2to1/5.png"",""time"":496},{""stimulus"":""img/2to1/6.png"",""time"":595},{""stimulus"":""img/2to1/7.png"",""time"":694},{""stimulus"":""img/2to1/8.png"",""time"":793},{""stimulus"":""img/2to1/9.png"",""time"":892},{""stimulus"":""img/2to1/10.png"",""time"":992},{""stimulus"":""img/2to1/11.png"",""time"":1090},{""stimulus"":""img/2to1/12.png"",""time"":1190}]","[]"
"image-keyboard-response","52","57413","0.0-5.0-1.24","63d007388da4ef5b301762f9","bdp_cybrbll","Mon Mar 27 2023 08:25:33 GMT-0700 (Pacific Daylight Time)","407735","1","3","","null","","","","observe","","img/1to3/1.png","null","201","243","0.5","0.5","1","2","",""
"animation","53","58702","0.0-5.0-2.24","63d007388da4ef5b301762f9","bdp_cybrbll","Mon Mar 27 2023 08:25:33 GMT-0700 (Pacific Daylight Time)","407735","1","3","","","","","","","","","","201","","","","1","2","[{""stimulus"":""img/1to2/1.png"",""time"":100},{""stimulus"":""img/1to2/2.png"",""time"":199},{""stimulus"":""img/1to2/3.png"",""time"":298},{""stimulus"":""img/1to2/4.png"",""time"":398},{""stimulus"":""img/1to2/5.png"",""time"":497},{""stimulus"":""img/1to2/6.png"",""time"":595},{""stimulus"":""img/1to2/7.png"",""time"":694},{""stimulus"":""img/1to2/8.png"",""time"":793},{""stimulus"":""img/1to2/9.png"",""time"":892},{""stimulus"":""img/1to2/10.png"",""time"":991},{""stimulus"":""img/1to2/11.png"",""time"":1091},{""stimulus"":""img/1to2/12.png"",""time"":1190}]","[]"
"image-keyboard-response","54","58718","0.0-5.0-1.25","63d007388da4ef5b301762f9","bdp_cybrbll","Mon Mar 27 2023 08:25:33 GMT-0700 (Pacific Daylight Time)","407735","1","3","","16","","","","choice","","img/2to1/1.png","2","200","273","0.5","0.5","2","3","",""
"animation","55","60005","0.0-5.0-2.25","63d007388da4ef5b301762f9","bdp_cybrbll","Mon Mar 27 2023 08:25:33 GMT-0700 (Pacific Daylight Time)","407735","1","3","","","","","","","","","","200","","","","2","3","[{""stimulus"":""img/2to3/1.png"",""time"":100},{""stimulus"":""img/2to3/2.png"",""time"":200},{""stimulus"":""img/2to3/3.png"",""time"":297},{""stimulus"":""img/2to3/4.png"",""time"":399},{""stimulus"":""img/2to3/5.png"",""time"":496},{""stimulus"":""img/2to3/6.png"",""time"":594},{""stimulus"":""img/2to3/7.png"",""time"":694},{""stimulus"":""img/2to3/8.png"",""time"":794},{""stimulus"":""img/2to3/9.png"",""time"":893},{""stimulus"":""img/2to3/10.png"",""time"":991},{""stimulus"":""img/2to3/11.png"",""time"":1090},{""stimulus"":""img/2to3/12.png"",""time"":1188}]","[]"
"image-keyboard-response","56","60242","0.0-5.0-1.26","63d007388da4ef5b301762f9","bdp_cybrbll","Mon Mar 27 2023 08:25:33 GMT-0700 (Pacific Daylight Time)","407735","1","3","","null","","","","observe","","img/3to2/1.png","null","199","235","0.5","0.5","3","2","",""
"animation","57","61530","0.0-5.0-2.26","63d007388da4ef5b301762f9","bdp_cybrbll","Mon Mar 27 2023 08:25:33 GMT-0700 (Pacific Daylight Time)","407735","1","3","","","","","","","","","","199","","","","3","2","[{""stimulus"":""img/3to2/1.png"",""time"":100},{""stimulus"":""img/3to2/2.png"",""time"":199},{""stimulus"":""img/3to2/3.png"",""time"":299},{""stimulus"":""img/3to2/4.png"",""time"":397},{""stimulus"":""img/3to2/5.png"",""time"":497},{""stimulus"":""img/3to2/6.png"",""time"":595},{""stimulus"":""img/3to2/7.png"",""time"":694},{""stimulus"":""img/3to2/8.png"",""time"":793},{""stimulus"":""img/3to2/9.png"",""time"":892},{""stimulus"":""img/3to2/10.png"",""time"":992},{""stimulus"":""img/3to2/11.png"",""time"":1090},{""stimulus"":""img/3to2/12.png"",""time"":1188}]","[]"
"image-keyboard-response","58","61762","0.0-5.0-1.27","63d007388da4ef5b301762f9","bdp_cybrbll","Mon Mar 27 2023 08:25:33 GMT-0700 (Pacific Daylight Time)","407735","1","3","","232","","","","choice","","img/2to1/1.png","2","198","463","0.5","0.5","2","3","",""
"animation","59","63050","0.0-5.0-2.27","63d007388da4ef5b301762f9","bdp_cybrbll","Mon Mar 27 2023 08:25:33 GMT-0700 (Pacific Daylight Time)","407735","1","3","","","","","","","","","","198","","","","2","3","[{""stimulus"":""img/2to3/1.png"",""time"":100},{""stimulus"":""img/2to3/2.png"",""time"":199},{""stimulus"":""img/2to3/3.png"",""time"":298},{""stimulus"":""img/2to3/4.png"",""time"":397},{""stimulus"":""img/2to3/5.png"",""time"":496},{""stimulus"":""img/2to3/6.png"",""time"":594},{""stimulus"":""img/2to3/7.png"",""time"":694},{""stimulus"":""img/2to3/8.png"",""time"":793},{""stimulus"":""img/2to3/9.png"",""time"":892},{""stimulus"":""img/2to3/10.png"",""time"":991},{""stimulus"":""img/2to3/11.png"",""time"":1089},{""stimulus"":""img/2to3/12.png"",""time"":1189}]","[]"
"image-keyboard-response","60","63550","0.0-5.0-1.28","63d007388da4ef5b301762f9","bdp_cybrbll","Mon Mar 27 2023 08:25:33 GMT-0700 (Pacific Daylight Time)","407735","1","3","","null","","","","observe","","img/3to2/1.png","null","197","499","0.5","0.5","3","1","",""
"animation","61","64838","0.0-5.0-2.28","63d007388da4ef5b301762f9","bdp_cybrbll","Mon Mar 27 2023 08:25:33 GMT-0700 (Pacific Daylight Time)","407735","1","3","","","","","","","","","","197","","","","3","1","[{""stimulus"":""img/3to1/1.png"",""time"":100},{""stimulus"":""img/3to1/2.png"",""time"":199},{""stimulus"":""img/3to1/3.png"",""time"":298},{""stimulus"":""img/3to1/4.png"",""time"":398},{""stimulus"":""img/3to1/5.png"",""time"":496},{""stimulus"":""img/3to1/6.png"",""time"":596},{""stimulus"":""img/3to1/7.png"",""time"":695},{""stimulus"":""img/3to1/8.png"",""time"":794},{""stimulus"":""img/3to1/9.png"",""time"":893},{""stimulus"":""img/3to1/10.png"",""time"":991},{""stimulus"":""img/3to1/11.png"",""time"":1091},{""stimulus"":""img/3to1/12.png"",""time"":1189}]","[]"
"image-keyboard-response","62","65211","0.0-5.0-1.29","63d007388da4ef5b301762f9","bdp_cybrbll","Mon Mar 27 2023 08:25:33 GMT-0700 (Pacific Daylight Time)","407735","1","3","","null","","","","observe","","img/1to3/1.png","null","196","372","0.5","0.5","1","2","",""
"animation","63","66499","0.0-5.0-2.29","63d007388da4ef5b301762f9","bdp_cybrbll","Mon Mar 27 2023 08:25:33 GMT-0700 (Pacific Daylight Time)","407735","1","3","","","","","","","","","","196","","","","1","2","[{""stimulus"":""img/1to2/1.png"",""time"":100},{""stimulus"":""img/1to2/2.png"",""time"":198},{""stimulus"":""img/1to2/3.png"",""time"":298},{""stimulus"":""img/1to2/4.png"",""time"":397},{""stimulus"":""img/1to2/5.png"",""time"":495},{""stimulus"":""img/1to2/6.png"",""time"":595},{""stimulus"":""img/1to2/7.png"",""time"":694},{""stimulus"":""img/1to2/8.png"",""time"":792},{""stimulus"":""img/1to2/9.png"",""time"":892},{""stimulus"":""img/1to2/10.png"",""time"":991},{""stimulus"":""img/1to2/11.png"",""time"":1090},{""stimulus"":""img/1to2/12.png"",""time"":1189}]","[]"
"image-keyboard-response","64","66647","0.0-5.0-1.30","63d007388da4ef5b301762f9","bdp_cybrbll","Mon Mar 27 2023 08:25:33 GMT-0700 (Pacific Daylight Time)","407735","1","3","","148","","","","choice","","img/2to1/1.png","2","195","1324","0.5","0.5","2","3","",""
"animation","65","67934","0.0-5.0-2.30","63d007388da4ef5b301762f9","bdp_cybrbll","Mon Mar 27 2023 08:25:33 GMT-0700 (Pacific Daylight Time)","407735","1","3","","","","","","","","","","195","","","","2","3","[{""stimulus"":""img/2to3/1.png"",""time"":99},{""stimulus"":""img/2to3/2.png"",""time"":198},{""stimulus"":""img/2to3/3.png"",""time"":297},{""stimulus"":""img/2to3/4.png"",""time"":397},{""stimulus"":""img/2to3/5.png"",""time"":496},{""stimulus"":""img/2to3/6.png"",""time"":594},{""stimulus"":""img/2to3/7.png"",""time"":693},{""stimulus"":""img/2to3/8.png"",""time"":793},{""stimulus"":""img/2to3/9.png"",""time"":892},{""stimulus"":""img/2to3/10.png"",""time"":991},{""stimulus"":""img/2to3/11.png"",""time"":1090},{""stimulus"":""img/2to3/12.png"",""time"":1189}]","[]"
"image-keyboard-response","66","68349","0.0-5.0-1.31","63d007388da4ef5b301762f9","bdp_cybrbll","Mon Mar 27 2023 08:25:33 GMT-0700 (Pacific Daylight Time)","407735","1","3","","null","","","","observe","","img/3to2/1.png","null","194","414","0.5","0.5","3","1","",""
"animation","67","69637","0.0-5.0-2.31","63d007388da4ef5b301762f9","bdp_cybrbll","Mon Mar 27 2023 08:25:33 GMT-0700 (Pacific Daylight Time)","407735","1","3","","","","","","","","","","194","","","","3","1","[{""stimulus"":""img/3to1/1.png"",""time"":100},{""stimulus"":""img/3to1/2.png"",""time"":200},{""stimulus"":""img/3to1/3.png"",""time"":299},{""stimulus"":""img/3to1/4.png"",""time"":398},{""stimulus"":""img/3to1/5.png"",""time"":497},{""stimulus"":""img/3to1/6.png"",""time"":596},{""stimulus"":""img/3to1/7.png"",""time"":694},{""stimulus"":""img/3to1/8.png"",""time"":793},{""stimulus"":""img/3to1/9.png"",""time"":892},{""stimulus"":""img/3to1/10.png"",""time"":991},{""stimulus"":""img/3to1/11.png"",""time"":1090},{""stimulus"":""img/3to1/12.png"",""time"":1189}]","[]"
"image-keyboard-response","68","69922","0.0-5.0-1.32","63d007388da4ef5b301762f9","bdp_cybrbll","Mon Mar 27 2023 08:25:33 GMT-0700 (Pacific Daylight Time)","407735","1","3","","null","","","","observe","","img/1to3/1.png","null","193","283","0.5","0.5","1","3","",""
"animation","69","71209","0.0-5.0-2.32","63d007388da4ef5b301762f9","bdp_cybrbll","Mon Mar 27 2023 08:25:33 GMT-0700 (Pacific Daylight Time)","407735","1","3","","","","","","","","","","193","","","","1","3","[{""stimulus"":""img/1to3/1.png"",""time"":99},{""stimulus"":""img/1to3/2.png"",""time"":199},{""stimulus"":""img/1to3/3.png"",""time"":298},{""stimulus"":""img/1to3/4.png"",""time"":397},{""stimulus"":""img/1to3/5.png"",""time"":495},{""stimulus"":""img/1to3/6.png"",""time"":595},{""stimulus"":""img/1to3/7.png"",""time"":694},{""stimulus"":""img/1to3/8.png"",""time"":808},{""stimulus"":""img/1to3/9.png"",""time"":892},{""stimulus"":""img/1to3/10.png"",""time"":991},{""stimulus"":""img/1to3/11.png"",""time"":1104},{""stimulus"":""img/1to3/12.png"",""time"":1189}]","[]"
"image-keyboard-response","70","71633","0.0-5.0-1.33","63d007388da4ef5b301762f9","bdp_cybrbll","Mon Mar 27 2023 08:25:33 GMT-0700 (Pacific Daylight Time)","407735","1","3","","null","","","","observe","","img/3to2/1.png","null","192","422","0.5","0.5","3","1","",""
"animation","71","72920","0.0-5.0-2.33","63d007388da4ef5b301762f9","bdp_cybrbll","Mon Mar 27 2023 08:25:33 GMT-0700 (Pacific Daylight Time)","407735","1","3","","","","","","","","","","192","","","","3","1","[{""stimulus"":""img/3to1/1.png"",""time"":99},{""stimulus"":""img/3to1/2.png"",""time"":199},{""stimulus"":""img/3to1/3.png"",""time"":297},{""stimulus"":""img/3to1/4.png"",""time"":397},{""stimulus"":""img/3to1/5.png"",""time"":496},{""stimulus"":""img/3to1/6.png"",""time"":596},{""stimulus"":""img/3to1/7.png"",""time"":694},{""stimulus"":""img/3to1/8.png"",""time"":793},{""stimulus"":""img/3to1/9.png"",""time"":892},{""stimulus"":""img/3to1/10.png"",""time"":991},{""stimulus"":""img/3to1/11.png"",""time"":1089},{""stimulus"":""img/3to1/12.png"",""time"":1188}]","[]"
"image-keyboard-response","72","73083","0.0-5.0-1.34","63d007388da4ef5b301762f9","bdp_cybrbll","Mon Mar 27 2023 08:25:33 GMT-0700 (Pacific Daylight Time)","407735","1","3","","null","","","","observe","","img/1to3/1.png","null","191","162","0.5","0.5","1","3","",""
"animation","73","74371","0.0-5.0-2.34","63d007388da4ef5b301762f9","bdp_cybrbll","Mon Mar 27 2023 08:25:33 GMT-0700 (Pacific Daylight Time)","407735","1","3","","","","","","","","","","191","","","","1","3","[{""stimulus"":""img/1to3/1.png"",""time"":100},{""stimulus"":""img/1to3/2.png"",""time"":199},{""stimulus"":""img/1to3/3.png"",""time"":298},{""stimulus"":""img/1to3/4.png"",""time"":397},{""stimulus"":""img/1to3/5.png"",""time"":496},{""stimulus"":""img/1to3/6.png"",""time"":595},{""stimulus"":""img/1to3/7.png"",""time"":694},{""stimulus"":""img/1to3/8.png"",""time"":793},{""stimulus"":""img/1to3/9.png"",""time"":892},{""stimulus"":""img/1to3/10.png"",""time"":991},{""stimulus"":""img/1to3/11.png"",""time"":1091},{""stimulus"":""img/1to3/12.png"",""time"":1189}]","[]"
"image-keyboard-response","74","74792","0.0-5.0-1.35","63d007388da4ef5b301762f9","bdp_cybrbll","Mon Mar 27 2023 08:25:33 GMT-0700 (Pacific Daylight Time)","407735","1","3","","null","","","","observe","","img/3to2/1.png","null","190","420","0.5","0.5","3","1","",""
"animation","75","76080","0.0-5.0-2.35","63d007388da4ef5b301762f9","bdp_cybrbll","Mon Mar 27 2023 08:25:33 GMT-0700 (Pacific Daylight Time)","407735","1","3","","","","","","","","","","190","","","","3","1","[{""stimulus"":""img/3to1/1.png"",""time"":100},{""stimulus"":""img/3to1/2.png"",""time"":200},{""stimulus"":""img/3to1/3.png"",""time"":298},{""stimulus"":""img/3to1/4.png"",""time"":404},{""stimulus"":""img/3to1/5.png"",""time"":496},{""stimulus"":""img/3to1/6.png"",""time"":595},{""stimulus"":""img/3to1/7.png"",""time"":693},{""stimulus"":""img/3to1/8.png"",""time"":794},{""stimulus"":""img/3to1/9.png"",""time"":891},{""stimulus"":""img/3to1/10.png"",""time"":991},{""stimulus"":""img/3to1/11.png"",""time"":1090},{""stimulus"":""img/3to1/12.png"",""time"":1190}]","[]"
"image-keyboard-response","76","76664","0.0-5.0-1.36","63d007388da4ef5b301762f9","bdp_cybrbll","Mon Mar 27 2023 08:25:33 GMT-0700 (Pacific Daylight Time)","407735","1","3","","null","","","","observe","","img/1to3/1.png","null","189","584","0.5","0.5","1","2","",""
"animation","77","77952","0.0-5.0-2.36","63d007388da4ef5b301762f9","bdp_cybrbll","Mon Mar 27 2023 08:25:33 GMT-0700 (Pacific Daylight Time)","407735","1","3","","","","","","","","","","189","","","","1","2","[{""stimulus"":""img/1to2/1.png"",""time"":100},{""stimulus"":""img/1to2/2.png"",""time"":199},{""stimulus"":""img/1to2/3.png"",""time"":297},{""stimulus"":""img/1to2/4.png"",""time"":397},{""stimulus"":""img/1to2/5.png"",""time"":495},{""stimulus"":""img/1to2/6.png"",""time"":594},{""stimulus"":""img/1to2/7.png"",""time"":694},{""stimulus"":""img/1to2/8.png"",""time"":793},{""stimulus"":""img/1to2/9.png"",""time"":892},{""stimulus"":""img/1to2/10.png"",""time"":991},{""stimulus"":""img/1to2/11.png"",""time"":1090},{""stimulus"":""img/1to2/12.png"",""time"":1189}]","[]"
"image-keyboard-response","78","78096","0.0-5.0-1.37","63d007388da4ef5b301762f9","bdp_cybrbll","Mon Mar 27 2023 08:25:33 GMT-0700 (Pacific Daylight Time)","407735","1","3","","143","","","","choice","","img/2to1/1.png","2","188","265","0.5","0.5","2","3","",""
"animation","79","79385","0.0-5.0-2.37","63d007388da4ef5b301762f9","bdp_cybrbll","Mon Mar 27 2023 08:25:33 GMT-0700 (Pacific Daylight Time)","407735","1","3","","","","","","","","","","188","","","","2","3","[{""stimulus"":""img/2to3/1.png"",""time"":99},{""stimulus"":""img/2to3/2.png"",""time"":198},{""stimulus"":""img/2to3/3.png"",""time"":297},{""stimulus"":""img/2to3/4.png"",""time"":396},{""stimulus"":""img/2to3/5.png"",""time"":496},{""stimulus"":""img/2to3/6.png"",""time"":594},{""stimulus"":""img/2to3/7.png"",""time"":693},{""stimulus"":""img/2to3/8.png"",""time"":793},{""stimulus"":""img/2to3/9.png"",""time"":892},{""stimulus"":""img/2to3/10.png"",""time"":990},{""stimulus"":""img/2to3/11.png"",""time"":1090},{""stimulus"":""img/2to3/12.png"",""time"":1188}]","[]"
"image-keyboard-response","80","79799","0.0-5.0-1.38","63d007388da4ef5b301762f9","bdp_cybrbll","Mon Mar 27 2023 08:25:33 GMT-0700 (Pacific Daylight Time)","407735","1","3","","null","","","","observe","","img/3to2/1.png","null","187","414","0.5","0.5","3","2","",""
"animation","81","81088","0.0-5.0-2.38","63d007388da4ef5b301762f9","bdp_cybrbll","Mon Mar 27 2023 08:25:33 GMT-0700 (Pacific Daylight Time)","407735","1","3","","","","","","","","","","187","","","","3","2","[{""stimulus"":""img/3to2/1.png"",""time"":100},{""stimulus"":""img/3to2/2.png"",""time"":199},{""stimulus"":""img/3to2/3.png"",""time"":299},{""stimulus"":""img/3to2/4.png"",""time"":397},{""stimulus"":""img/3to2/5.png"",""time"":497},{""stimulus"":""img/3to2/6.png"",""time"":596},{""stimulus"":""img/3to2/7.png"",""time"":695},{""stimulus"":""img/3to2/8.png"",""time"":794},{""stimulus"":""img/3to2/9.png"",""time"":892},{""stimulus"":""img/3to2/10.png"",""time"":991},{""stimulus"":""img/3to2/11.png"",""time"":1090},{""stimulus"":""img/3to2/12.png"",""time"":1189}]","[]"
"image-keyboard-response","82","81162","0.0-5.0-1.39","63d007388da4ef5b301762f9","bdp_cybrbll","Mon Mar 27 2023 08:25:33 GMT-0700 (Pacific Daylight Time)","407735","1","3","","73","","","","choice","","img/2to1/1.png","1","186","499","0.5","0.5","2","1","",""
"animation","83","82450","0.0-5.0-2.39","63d007388da4ef5b301762f9","bdp_cybrbll","Mon Mar 27 2023 08:25:33 GMT-0700 (Pacific Daylight Time)","407735","1","3","","","","","","","","","","186","","","","2","1","[{""stimulus"":""img/2to1/1.png"",""time"":99},{""stimulus"":""img/2to1/2.png"",""time"":198},{""stimulus"":""img/2to1/3.png"",""time"":297},{""stimulus"":""img/2to1/4.png"",""time"":396},{""stimulus"":""img/2to1/5.png"",""time"":496},{""stimulus"":""img/2to1/6.png"",""time"":595},{""stimulus"":""img/2to1/7.png"",""time"":694},{""stimulus"":""img/2to1/8.png"",""time"":793},{""stimulus"":""img/2to1/9.png"",""time"":891},{""stimulus"":""img/2to1/10.png"",""time"":990},{""stimulus"":""img/2to1/11.png"",""time"":1090},{""stimulus"":""img/2to1/12.png"",""time"":1188}]","[]"
"image-keyboard-response","84","82863","0.0-5.0-1.40","63d007388da4ef5b301762f9","bdp_cybrbll","Mon Mar 27 2023 08:25:33 GMT-0700 (Pacific Daylight Time)","407735","1","3","","null","","","","observe","","img/1to3/1.png","null","185","413","0.5","0.5","1","2","",""
"animation","85","84151","0.0-5.0-2.40","63d007388da4ef5b301762f9","bdp_cybrbll","Mon Mar 27 2023 08:25:33 GMT-0700 (Pacific Daylight Time)","407735","1","3","","","","","","","","","","185","","","","1","2","[{""stimulus"":""img/1to2/1.png"",""time"":100},{""stimulus"":""img/1to2/2.png"",""time"":199},{""stimulus"":""img/1to2/3.png"",""time"":303},{""stimulus"":""img/1to2/4.png"",""time"":397},{""stimulus"":""img/1to2/5.png"",""time"":497},{""stimulus"":""img/1to2/6.png"",""time"":595},{""stimulus"":""img/1to2/7.png"",""time"":694},{""stimulus"":""img/1to2/8.png"",""time"":793},{""stimulus"":""img/1to2/9.png"",""time"":892},{""stimulus"":""img/1to2/10.png"",""time"":990},{""stimulus"":""img/1to2/11.png"",""time"":1090},{""stimulus"":""img/1to2/12.png"",""time"":1189}]","[]"
"image-keyboard-response","86","84313","0.0-5.0-1.41","63d007388da4ef5b301762f9","bdp_cybrbll","Mon Mar 27 2023 08:25:33 GMT-0700 (Pacific Daylight Time)","407735","1","3","","162","","","","choice","","img/2to1/1.png","1","184","310","0.5","0.5","2","1","",""
"animation","87","85602","0.0-5.0-2.41","63d007388da4ef5b301762f9","bdp_cybrbll","Mon Mar 27 2023 08:25:33 GMT-0700 (Pacific Daylight Time)","407735","1","3","","","","","","","","","","184","","","","2","1","[{""stimulus"":""img/2to1/1.png"",""time"":101},{""stimulus"":""img/2to1/2.png"",""time"":200},{""stimulus"":""img/2to1/3.png"",""time"":298},{""stimulus"":""img/2to1/4.png"",""time"":397},{""stimulus"":""img/2to1/5.png"",""time"":496},{""stimulus"":""img/2to1/6.png"",""time"":596},{""stimulus"":""img/2to1/7.png"",""time"":694},{""stimulus"":""img/2to1/8.png"",""time"":793},{""stimulus"":""img/2to1/9.png"",""time"":892},{""stimulus"":""img/2to1/10.png"",""time"":991},{""stimulus"":""img/2to1/11.png"",""time"":1091},{""stimulus"":""img/2to1/12.png"",""time"":1189}]","[]"
"image-keyboard-response","88","86243","0.0-5.0-1.42","63d007388da4ef5b301762f9","bdp_cybrbll","Mon Mar 27 2023 08:25:33 GMT-0700 (Pacific Daylight Time)","407735","1","3","","null","","","","observe","","img/1to3/1.png","null","183","640","0.5","0.5","1","2","",""
"animation","89","87530","0.0-5.0-2.42","63d007388da4ef5b301762f9","bdp_cybrbll","Mon Mar 27 2023 08:25:33 GMT-0700 (Pacific Daylight Time)","407735","1","3","","","","","","","","","","183","","","","1","2","[{""stimulus"":""img/1to2/1.png"",""time"":101},{""stimulus"":""img/1to2/2.png"",""time"":199},{""stimulus"":""img/1to2/3.png"",""time"":298},{""stimulus"":""img/1to2/4.png"",""time"":400},{""stimulus"":""img/1to2/5.png"",""time"":496},{""stimulus"":""img/1to2/6.png"",""time"":595},{""stimulus"":""img/1to2/7.png"",""time"":695},{""stimulus"":""img/1to2/8.png"",""time"":793},{""stimulus"":""img/1to2/9.png"",""time"":892},{""stimulus"":""img/1to2/10.png"",""time"":991},{""stimulus"":""img/1to2/11.png"",""time"":1090},{""stimulus"":""img/1to2/12.png"",""time"":1189}]","[]"
"image-keyboard-response","90","87754","0.0-5.0-1.43","63d007388da4ef5b301762f9","bdp_cybrbll","Mon Mar 27 2023 08:25:33 GMT-0700 (Pacific Daylight Time)","407735","1","3","","223","","","","choice","","img/2to1/1.png","1","182","878","0.5","0.5","2","1","",""
"animation","91","89042","0.0-5.0-2.43","63d007388da4ef5b301762f9","bdp_cybrbll","Mon Mar 27 2023 08:25:33 GMT-0700 (Pacific Daylight Time)","407735","1","3","","","","","","","","","","182","","","","2","1","[{""stimulus"":""img/2to1/1.png"",""time"":100},{""stimulus"":""img/2to1/2.png"",""time"":199},{""stimulus"":""img/2to1/3.png"",""time"":298},{""stimulus"":""img/2to1/4.png"",""time"":397},{""stimulus"":""img/2to1/5.png"",""time"":505},{""stimulus"":""img/2to1/6.png"",""time"":595},{""stimulus"":""img/2to1/7.png"",""time"":694},{""stimulus"":""img/2to1/8.png"",""time"":793},{""stimulus"":""img/2to1/9.png"",""time"":892},{""stimulus"":""img/2to1/10.png"",""time"":990},{""stimulus"":""img/2to1/11.png"",""time"":1090},{""stimulus"":""img/2to1/12.png"",""time"":1188}]","[]"
"image-keyboard-response","92","89351","0.0-5.0-1.44","63d007388da4ef5b301762f9","bdp_cybrbll","Mon Mar 27 2023 08:25:33 GMT-0700 (Pacific Daylight Time)","407735","1","3","","null","","","","observe","","img/1to3/1.png","null","181","308","0.5","0.5","1","3","",""
"animation","93","90639","0.0-5.0-2.44","63d007388da4ef5b301762f9","bdp_cybrbll","Mon Mar 27 2023 08:25:33 GMT-0700 (Pacific Daylight Time)","407735","1","3","","","","","","","","","","181","","","","1","3","[{""stimulus"":""img/1to3/1.png"",""time"":100},{""stimulus"":""img/1to3/2.png"",""time"":199},{""stimulus"":""img/1to3/3.png"",""time"":298},{""stimulus"":""img/1to3/4.png"",""time"":397},{""stimulus"":""img/1to3/5.png"",""time"":495},{""stimulus"":""img/1to3/6.png"",""time"":594},{""stimulus"":""img/1to3/7.png"",""time"":694},{""stimulus"":""img/1to3/8.png"",""time"":793},{""stimulus"":""img/1to3/9.png"",""time"":892},{""stimulus"":""img/1to3/10.png"",""time"":992},{""stimulus"":""img/1to3/11.png"",""time"":1090},{""stimulus"":""img/1to3/12.png"",""time"":1188}]","[]"
"image-keyboard-response","94","91040","0.0-5.0-1.45","63d007388da4ef5b301762f9","bdp_cybrbll","Mon Mar 27 2023 08:25:33 GMT-0700 (Pacific Daylight Time)","407735","1","3","","null","","","","observe","","img/3to2/1.png","null","180","401","0.5","0.5","3","2","",""
"animation","95","92329","0.0-5.0-2.45","63d007388da4ef5b301762f9","bdp_cybrbll","Mon Mar 27 2023 08:25:33 GMT-0700 (Pacific Daylight Time)","407735","1","3","","","","","","","","","","180","","","","3","2","[{""stimulus"":""img/3to2/1.png"",""time"":100},{""stimulus"":""img/3to2/2.png"",""time"":200},{""stimulus"":""img/3to2/3.png"",""time"":298},{""stimulus"":""img/3to2/4.png"",""time"":398},{""stimulus"":""img/3to2/5.png"",""time"":497},{""stimulus"":""img/3to2/6.png"",""time"":595},{""stimulus"":""img/3to2/7.png"",""time"":695},{""stimulus"":""img/3to2/8.png"",""time"":793},{""stimulus"":""img/3to2/9.png"",""time"":892},{""stimulus"":""img/3to2/10.png"",""time"":991},{""stimulus"":""img/3to2/11.png"",""time"":1090},{""stimulus"":""img/3to2/12.png"",""time"":1190}]","[]"
"image-keyboard-response","96","92502","0.0-5.0-1.46","63d007388da4ef5b301762f9","bdp_cybrbll","Mon Mar 27 2023 08:25:33 GMT-0700 (Pacific Daylight Time)","407735","1","3","","173","","","","choice","","img/2to1/1.png","2","179","290","0.5","0.5","2","3","",""
"animation","97","93790","0.0-5.0-2.46","63d007388da4ef5b301762f9","bdp_cybrbll","Mon Mar 27 2023 08:25:33 GMT-0700 (Pacific Daylight Time)","407735","1","3","","","","","","","","","","179","","","","2","3","[{""stimulus"":""img/2to3/1.png"",""time"":101},{""stimulus"":""img/2to3/2.png"",""time"":199},{""stimulus"":""img/2to3/3.png"",""time"":299},{""stimulus"":""img/2to3/4.png"",""time"":397},{""stimulus"":""img/2to3/5.png"",""time"":497},{""stimulus"":""img/2to3/6.png"",""time"":595},{""stimulus"":""img/2to3/7.png"",""time"":694},{""stimulus"":""img/2to3/8.png"",""time"":793},{""stimulus"":""img/2to3/9.png"",""time"":892},{""stimulus"":""img/2to3/10.png"",""time"":991},{""stimulus"":""img/2to3/11.png"",""time"":1090},{""stimulus"":""img/2to3/12.png"",""time"":1189}]","[]"
"image-keyboard-response","98","94363","0.0-5.0-1.47","63d007388da4ef5b301762f9","bdp_cybrbll","Mon Mar 27 2023 08:25:33 GMT-0700 (Pacific Daylight Time)","407735","1","3","","null","","","","observe","","img/3to2/1.png","null","178","571","0.5","0.5","3","2","",""
"animation","99","95651","0.0-5.0-2.47","63d007388da4ef5b301762f9","bdp_cybrbll","Mon Mar 27 2023 08:25:33 GMT-0700 (Pacific Daylight Time)","407735","1","3","","","","","","","","","","178","","","","3","2","[{""stimulus"":""img/3to2/1.png"",""time"":101},{""stimulus"":""img/3to2/2.png"",""time"":198},{""stimulus"":""img/3to2/3.png"",""time"":297},{""stimulus"":""img/3to2/4.png"",""time"":396},{""stimulus"":""img/3to2/5.png"",""time"":496},{""stimulus"":""img/3to2/6.png"",""time"":594},{""stimulus"":""img/3to2/7.png"",""time"":693},{""stimulus"":""img/3to2/8.png"",""time"":793},{""stimulus"":""img/3to2/9.png"",""time"":891},{""stimulus"":""img/3to2/10.png"",""time"":990},{""stimulus"":""img/3to2/11.png"",""time"":1090},{""stimulus"":""img/3to2/12.png"",""time"":1189}]","[]"
"image-keyboard-response","100","95658","0.0-5.0-1.48","63d007388da4ef5b301762f9","bdp_cybrbll","Mon Mar 27 2023 08:25:33 GMT-0700 (Pacific Daylight Time)","407735","1","3","","7","","","","choice","","img/2to1/1.png","2","177","302","0.5","0.5","2","3","",""
"animation","101","96946","0.0-5.0-2.48","63d007388da4ef5b301762f9","bdp_cybrbll","Mon Mar 27 2023 08:25:33 GMT-0700 (Pacific Daylight Time)","407735","1","3","","","","","","","","","","177","","","","2","3","[{""stimulus"":""img/2to3/1.png"",""time"":100},{""stimulus"":""img/2to3/2.png"",""time"":199},{""stimulus"":""img/2to3/3.png"",""time"":297},{""stimulus"":""img/2to3/4.png"",""time"":397},{""stimulus"":""img/2to3/5.png"",""time"":495},{""stimulus"":""img/2to3/6.png"",""time"":594},{""stimulus"":""img/2to3/7.png"",""time"":694},{""stimulus"":""img/2to3/8.png"",""time"":793},{""stimulus"":""img/2to3/9.png"",""time"":892},{""stimulus"":""img/2to3/10.png"",""time"":991},{""stimulus"":""img/2to3/11.png"",""time"":1090},{""stimulus"":""img/2to3/12.png"",""time"":1188}]","[]"
"image-keyboard-response","102","97270","0.0-5.0-1.49","63d007388da4ef5b301762f9","bdp_cybrbll","Mon Mar 27 2023 08:25:33 GMT-0700 (Pacific Daylight Time)","407735","1","3","","null","","","","observe","","img/3to2/1.png","null","176","324","0.5","0.5","3","2","",""
"animation","103","98558","0.0-5.0-2.49","63d007388da4ef5b301762f9","bdp_cybrbll","Mon Mar 27 2023 08:25:33 GMT-0700 (Pacific Daylight Time)","407735","1","3","","","","","","","","","","176","","","","3","2","[{""stimulus"":""img/3to2/1.png"",""time"":100},{""stimulus"":""img/3to2/2.png"",""time"":199},{""stimulus"":""img/3to2/3.png"",""time"":299},{""stimulus"":""img/3to2/4.png"",""time"":398},{""stimulus"":""img/3to2/5.png"",""time"":496},{""stimulus"":""img/3to2/6.png"",""time"":595},{""stimulus"":""img/3to2/7.png"",""time"":695},{""stimulus"":""img/3to2/8.png"",""time"":794},{""stimulus"":""img/3to2/9.png"",""time"":892},{""stimulus"":""img/3to2/10.png"",""time"":991},{""stimulus"":""img/3to2/11.png"",""time"":1091},{""stimulus"":""img/3to2/12.png"",""time"":1189}]","[]"
"image-keyboard-response","104","98619","0.0-5.0-1.50","63d007388da4ef5b301762f9","bdp_cybrbll","Mon Mar 27 2023 08:25:33 GMT-0700 (Pacific Daylight Time)","407735","1","3","","60","","","","choice","","img/2to1/1.png","1","175","1177","0.5","0.5","2","1","",""
"animation","105","99906","0.0-5.0-2.50","63d007388da4ef5b301762f9","bdp_cybrbll","Mon Mar 27 2023 08:25:33 GMT-0700 (Pacific Daylight Time)","407735","1","3","","","","","","","","","","175","","","","2","1","[{""stimulus"":""img/2to1/1.png"",""time"":100},{""stimulus"":""img/2to1/2.png"",""time"":199},{""stimulus"":""img/2to1/3.png"",""time"":297},{""stimulus"":""img/2to1/4.png"",""time"":397},{""stimulus"":""img/2to1/5.png"",""time"":496},{""stimulus"":""img/2to1/6.png"",""time"":595},{""stimulus"":""img/2to1/7.png"",""time"":694},{""stimulus"":""img/2to1/8.png"",""time"":793},{""stimulus"":""img/2to1/9.png"",""time"":892},{""stimulus"":""img/2to1/10.png"",""time"":991},{""stimulus"":""img/2to1/11.png"",""time"":1090},{""stimulus"":""img/2to1/12.png"",""time"":1190}]","[]"
"image-keyboard-response","106","100873","0.0-5.0-1.51","63d007388da4ef5b301762f9","bdp_cybrbll","Mon Mar 27 2023 08:25:33 GMT-0700 (Pacific Daylight Time)","407735","1","3","","null","","","","observe","","img/1to3/1.png","null","174","965","0.5","0.5","1","3","",""
"animation","107","102160","0.0-5.0-2.51","63d007388da4ef5b301762f9","bdp_cybrbll","Mon Mar 27 2023 08:25:33 GMT-0700 (Pacific Daylight Time)","407735","1","3","","","","","","","","","","174","","","","1","3","[{""stimulus"":""img/1to3/1.png"",""time"":100},{""stimulus"":""img/1to3/2.png"",""time"":198},{""stimulus"":""img/1to3/3.png"",""time"":298},{""stimulus"":""img/1to3/4.png"",""time"":397},{""stimulus"":""img/1to3/5.png"",""time"":496},{""stimulus"":""img/1to3/6.png"",""time"":595},{""stimulus"":""img/1to3/7.png"",""time"":694},{""stimulus"":""img/1to3/8.png"",""time"":794},{""stimulus"":""img/1to3/9.png"",""time"":892},{""stimulus"":""img/1to3/10.png"",""time"":991},{""stimulus"":""img/1to3/11.png"",""time"":1091},{""stimulus"":""img/1to3/12.png"",""time"":1190}]","[]"
"image-keyboard-response","108","103349","0.0-5.0-1.52","63d007388da4ef5b301762f9","bdp_cybrbll","Mon Mar 27 2023 08:25:33 GMT-0700 (Pacific Daylight Time)","407735","1","3","","null","","","","observe","","img/3to2/1.png","null","173","1188","0.5","0.5","3","2","",""
"animation","109","104637","0.0-5.0-2.52","63d007388da4ef5b301762f9","bdp_cybrbll","Mon Mar 27 2023 08:25:33 GMT-0700 (Pacific Daylight Time)","407735","1","3","","","","","","","","","","173","","","","3","2","[{""stimulus"":""img/3to2/1.png"",""time"":100},{""stimulus"":""img/3to2/2.png"",""time"":199},{""stimulus"":""img/3to2/3.png"",""time"":299},{""stimulus"":""img/3to2/4.png"",""time"":397},{""stimulus"":""img/3to2/5.png"",""time"":496},{""stimulus"":""img/3to2/6.png"",""time"":595},{""stimulus"":""img/3to2/7.png"",""time"":694},{""stimulus"":""img/3to2/8.png"",""time"":793},{""stimulus"":""img/3to2/9.png"",""time"":893},{""stimulus"":""img/3to2/10.png"",""time"":992},{""stimulus"":""img/3to2/11.png"",""time"":1090},{""stimulus"":""img/3to2/12.png"",""time"":1189}]","[]"
"image-keyboard-response","110","104871","0.0-5.0-1.53","63d007388da4ef5b301762f9","bdp_cybrbll","Mon Mar 27 2023 08:25:33 GMT-0700 (Pacific Daylight Time)","407735","1","3","","234","","","","choice","","img/2to1/1.png","2","172","734","0.5","0.5","2","3","",""
"animation","111","106160","0.0-5.0-2.53","63d007388da4ef5b301762f9","bdp_cybrbll","Mon Mar 27 2023 08:25:33 GMT-0700 (Pacific Daylight Time)","407735","1","3","","","","","","","","","","172","","","","2","3","[{""stimulus"":""img/2to3/1.png"",""time"":100},{""stimulus"":""img/2to3/2.png"",""time"":199},{""stimulus"":""img/2to3/3.png"",""time"":298},{""stimulus"":""img/2to3/4.png"",""time"":397},{""stimulus"":""img/2to3/5.png"",""time"":497},{""stimulus"":""img/2to3/6.png"",""time"":609},{""stimulus"":""img/2to3/7.png"",""time"":694},{""stimulus"":""img/2to3/8.png"",""time"":793},{""stimulus"":""img/2to3/9.png"",""time"":892},{""stimulus"":""img/2to3/10.png"",""time"":991},{""stimulus"":""img/2to3/11.png"",""time"":1090},{""stimulus"":""img/2to3/12.png"",""time"":1189}]","[]"
"image-keyboard-response","112","106617","0.0-5.0-1.54","63d007388da4ef5b301762f9","bdp_cybrbll","Mon Mar 27 2023 08:25:33 GMT-0700 (Pacific Daylight Time)","407735","1","3","","null","","","","observe","","img/3to2/1.png","null","171","456","0.5","0.5","3","2","",""
"animation","113","107917","0.0-5.0-2.54","63d007388da4ef5b301762f9","bdp_cybrbll","Mon Mar 27 2023 08:25:33 GMT-0700 (Pacific Daylight Time)","407735","1","3","","","","","","","","","","171","","","","3","2","[{""stimulus"":""img/3to2/1.png"",""time"":99},{""stimulus"":""img/3to2/2.png"",""time"":199},{""stimulus"":""img/3to2/3.png"",""time"":298},{""stimulus"":""img/3to2/4.png"",""time"":396},{""stimulus"":""img/3to2/5.png"",""time"":500},{""stimulus"":""img/3to2/6.png"",""time"":595},{""stimulus"":""img/3to2/7.png"",""time"":695},{""stimulus"":""img/3to2/8.png"",""time"":792},{""stimulus"":""img/3to2/9.png"",""time"":892},{""stimulus"":""img/3to2/10.png"",""time"":991},{""stimulus"":""img/3to2/11.png"",""time"":1091},{""stimulus"":""img/3to2/12.png"",""time"":1188}]","[]"
"image-keyboard-response","114","108006","0.0-5.0-1.55","63d007388da4ef5b301762f9","bdp_cybrbll","Mon Mar 27 2023 08:25:33 GMT-0700 (Pacific Daylight Time)","407735","1","3","","89","","","","choice","","img/2to1/1.png","1","170","480","0.5","0.5","2","1","",""
"animation","115","109293","0.0-5.0-2.55","63d007388da4ef5b301762f9","bdp_cybrbll","Mon Mar 27 2023 08:25:33 GMT-0700 (Pacific Daylight Time)","407735","1","3","","","","","","","","","","170","","","","2","1","[{""stimulus"":""img/2to1/1.png"",""time"":100},{""stimulus"":""img/2to1/2.png"",""time"":198},{""stimulus"":""img/2to1/3.png"",""time"":298},{""stimulus"":""img/2to1/4.png"",""time"":396},{""stimulus"":""img/2to1/5.png"",""time"":495},{""stimulus"":""img/2to1/6.png"",""time"":595},{""stimulus"":""img/2to1/7.png"",""time"":694},{""stimulus"":""img/2to1/8.png"",""time"":792},{""stimulus"":""img/2to1/9.png"",""time"":892},{""stimulus"":""img/2to1/10.png"",""time"":991},{""stimulus"":""img/2to1/11.png"",""time"":1090},{""stimulus"":""img/2to1/12.png"",""time"":1189}]","[]"
"image-keyboard-response","116","109559","0.0-5.0-1.56","63d007388da4ef5b301762f9","bdp_cybrbll","Mon Mar 27 2023 08:25:33 GMT-0700 (Pacific Daylight Time)","407735","1","3","","null","","","","observe","","img/1to3/1.png","null","169","265","0.5","0.5","1","3","",""
"animation","117","110847","0.0-5.0-2.56","63d007388da4ef5b301762f9","bdp_cybrbll","Mon Mar 27 2023 08:25:33 GMT-0700 (Pacific Daylight Time)","407735","1","3","","","","","","","","","","169","","","","1","3","[{""stimulus"":""img/1to3/1.png"",""time"":100},{""stimulus"":""img/1to3/2.png"",""time"":200},{""stimulus"":""img/1to3/3.png"",""time"":299},{""stimulus"":""img/1to3/4.png"",""time"":397},{""stimulus"":""img/1to3/5.png"",""time"":496},{""stimulus"":""img/1to3/6.png"",""time"":596},{""stimulus"":""img/1to3/7.png"",""time"":694},{""stimulus"":""img/1to3/8.png"",""time"":802},{""stimulus"":""img/1to3/9.png"",""time"":893},{""stimulus"":""img/1to3/10.png"",""time"":991},{""stimulus"":""img/1to3/11.png"",""time"":1091},{""stimulus"":""img/1to3/12.png"",""time"":1189}]","[]"
"image-keyboard-response","118","111349","0.0-5.0-1.57","63d007388da4ef5b301762f9","bdp_cybrbll","Mon Mar 27 2023 08:25:33 GMT-0700 (Pacific Daylight Time)","407735","1","3","","null","","","","observe","","img/3to2/1.png","null","168","500","0.5","0.5","3","1","",""
"animation","119","112636","0.0-5.0-2.57","63d007388da4ef5b301762f9","bdp_cybrbll","Mon Mar 27 2023 08:25:33 GMT-0700 (Pacific Daylight Time)","407735","1","3","","","","","","","","","","168","","","","3","1","[{""stimulus"":""img/3to1/1.png"",""time"":100},{""stimulus"":""img/3to1/2.png"",""time"":199},{""stimulus"":""img/3to1/3.png"",""time"":298},{""stimulus"":""img/3to1/4.png"",""time"":398},{""stimulus"":""img/3to1/5.png"",""time"":495},{""stimulus"":""img/3to1/6.png"",""time"":596},{""stimulus"":""img/3to1/7.png"",""time"":694},{""stimulus"":""img/3to1/8.png"",""time"":793},{""stimulus"":""img/3to1/9.png"",""time"":892},{""stimulus"":""img/3to1/10.png"",""time"":990},{""stimulus"":""img/3to1/11.png"",""time"":1090},{""stimulus"":""img/3to1/12.png"",""time"":1189}]","[]"
"image-keyboard-response","120","113011","0.0-5.0-1.58","63d007388da4ef5b301762f9","bdp_cybrbll","Mon Mar 27 2023 08:25:33 GMT-0700 (Pacific Daylight Time)","407735","1","3","","null","","","","observe","","img/1to3/1.png","null","167","373","0.5","0.5","1","3","",""
"animation","121","114299","0.0-5.0-2.58","63d007388da4ef5b301762f9","bdp_cybrbll","Mon Mar 27 2023 08:25:33 GMT-0700 (Pacific Daylight Time)","407735","1","3","","","","","","","","","","167","","","","1","3","[{""stimulus"":""img/1to3/1.png"",""time"":100},{""stimulus"":""img/1to3/2.png"",""time"":199},{""stimulus"":""img/1to3/3.png"",""time"":299},{""stimulus"":""img/1to3/4.png"",""time"":397},{""stimulus"":""img/1to3/5.png"",""time"":496},{""stimulus"":""img/1to3/6.png"",""time"":595},{""stimulus"":""img/1to3/7.png"",""time"":694},{""stimulus"":""img/1to3/8.png"",""time"":794},{""stimulus"":""img/1to3/9.png"",""time"":893},{""stimulus"":""img/1to3/10.png"",""time"":991},{""stimulus"":""img/1to3/11.png"",""time"":1090},{""stimulus"":""img/1to3/12.png"",""time"":1190}]","[]"
"image-keyboard-response","122","115085","0.0-5.0-1.59","63d007388da4ef5b301762f9","bdp_cybrbll","Mon Mar 27 2023 08:25:33 GMT-0700 (Pacific Daylight Time)","407735","1","3","","null","","","","observe","","img/3to2/1.png","null","166","785","0.5","0.5","3","2","",""
"animation","123","116373","0.0-5.0-2.59","63d007388da4ef5b301762f9","bdp_cybrbll","Mon Mar 27 2023 08:25:33 GMT-0700 (Pacific Daylight Time)","407735","1","3","","","","","","","","","","166","","","","3","2","[{""stimulus"":""img/3to2/1.png"",""time"":101},{""stimulus"":""img/3to2/2.png"",""time"":198},{""stimulus"":""img/3to2/3.png"",""time"":299},{""stimulus"":""img/3to2/4.png"",""time"":397},{""stimulus"":""img/3to2/5.png"",""time"":497},{""stimulus"":""img/3to2/6.png"",""time"":595},{""stimulus"":""img/3to2/7.png"",""time"":694},{""stimulus"":""img/3to2/8.png"",""time"":793},{""stimulus"":""img/3to2/9.png"",""time"":893},{""stimulus"":""img/3to2/10.png"",""time"":991},{""stimulus"":""img/3to2/11.png"",""time"":1089},{""stimulus"":""img/3to2/12.png"",""time"":1190}]","[]"
"image-keyboard-response","124","116554","0.0-5.0-1.60","63d007388da4ef5b301762f9","bdp_cybrbll","Mon Mar 27 2023 08:25:33 GMT-0700 (Pacific Daylight Time)","407735","1","3","","181","","","","choice","","img/2to1/1.png","1","165","811","0.5","0.5","2","1","",""
"animation","125","117843","0.0-5.0-2.60","63d007388da4ef5b301762f9","bdp_cybrbll","Mon Mar 27 2023 08:25:33 GMT-0700 (Pacific Daylight Time)","407735","1","3","","","","","","","","","","165","","","","2","1","[{""stimulus"":""img/2to1/1.png"",""time"":100},{""stimulus"":""img/2to1/2.png"",""time"":199},{""stimulus"":""img/2to1/3.png"",""time"":298},{""stimulus"":""img/2to1/4.png"",""time"":398},{""stimulus"":""img/2to1/5.png"",""time"":497},{""stimulus"":""img/2to1/6.png"",""time"":596},{""stimulus"":""img/2to1/7.png"",""time"":695},{""stimulus"":""img/2to1/8.png"",""time"":794},{""stimulus"":""img/2to1/9.png"",""time"":892},{""stimulus"":""img/2to1/10.png"",""time"":992},{""stimulus"":""img/2to1/11.png"",""time"":1090},{""stimulus"":""img/2to1/12.png"",""time"":1189}]","[]"
"image-keyboard-response","126","118199","0.0-5.0-1.61","63d007388da4ef5b301762f9","bdp_cybrbll","Mon Mar 27 2023 08:25:33 GMT-0700 (Pacific Daylight Time)","407735","1","3","","null","","","","observe","","img/1to3/1.png","null","164","354","0.5","0.5","1","3","",""
"animation","127","119486","0.0-5.0-2.61","63d007388da4ef5b301762f9","bdp_cybrbll","Mon Mar 27 2023 08:25:33 GMT-0700 (Pacific Daylight Time)","407735","1","3","","","","","","","","","","164","","","","1","3","[{""stimulus"":""img/1to3/1.png"",""time"":100},{""stimulus"":""img/1to3/2.png"",""time"":198},{""stimulus"":""img/1to3/3.png"",""time"":298},{""stimulus"":""img/1to3/4.png"",""time"":396},{""stimulus"":""img/1to3/5.png"",""time"":496},{""stimulus"":""img/1to3/6.png"",""time"":595},{""stimulus"":""img/1to3/7.png"",""time"":693},{""stimulus"":""img/1to3/8.png"",""time"":792},{""stimulus"":""img/1to3/9.png"",""time"":892},{""stimulus"":""img/1to3/10.png"",""time"":991},{""stimulus"":""img/1to3/11.png"",""time"":1089},{""stimulus"":""img/1to3/12.png"",""time"":1189}]","[]"
"image-keyboard-response","128","119901","0.0-5.0-1.62","63d007388da4ef5b301762f9","bdp_cybrbll","Mon Mar 27 2023 08:25:33 GMT-0700 (Pacific Daylight Time)","407735","1","3","","null","","","","observe","","img/3to2/1.png","null","163","414","0.5","0.5","3","1","",""
"animation","129","121189","0.0-5.0-2.62","63d007388da4ef5b301762f9","bdp_cybrbll","Mon Mar 27 2023 08:25:33 GMT-0700 (Pacific Daylight Time)","407735","1","3","","","","","","","","","","163","","","","3","1","[{""stimulus"":""img/3to1/1.png"",""time"":99},{""stimulus"":""img/3to1/2.png"",""time"":198},{""stimulus"":""img/3to1/3.png"",""time"":297},{""stimulus"":""img/3to1/4.png"",""time"":397},{""stimulus"":""img/3to1/5.png"",""time"":496},{""stimulus"":""img/3to1/6.png"",""time"":594},{""stimulus"":""img/3to1/7.png"",""time"":694},{""stimulus"":""img/3to1/8.png"",""time"":793},{""stimulus"":""img/3to1/9.png"",""time"":891},{""stimulus"":""img/3to1/10.png"",""time"":990},{""stimulus"":""img/3to1/11.png"",""time"":1090},{""stimulus"":""img/3to1/12.png"",""time"":1189}]","[]"
"image-keyboard-response","130","121926","0.0-5.0-1.63","63d007388da4ef5b301762f9","bdp_cybrbll","Mon Mar 27 2023 08:25:33 GMT-0700 (Pacific Daylight Time)","407735","1","3","","null","","","","observe","","img/1to3/1.png","null","162","736","0.5","0.5","1","3","",""
"animation","131","123213","0.0-5.0-2.63","63d007388da4ef5b301762f9","bdp_cybrbll","Mon Mar 27 2023 08:25:33 GMT-0700 (Pacific Daylight Time)","407735","1","3","","","","","","","","","","162","","","","1","3","[{""stimulus"":""img/1to3/1.png"",""time"":99},{""stimulus"":""img/1to3/2.png"",""time"":198},{""stimulus"":""img/1to3/3.png"",""time"":298},{""stimulus"":""img/1to3/4.png"",""time"":397},{""stimulus"":""img/1to3/5.png"",""time"":495},{""stimulus"":""img/1to3/6.png"",""time"":594},{""stimulus"":""img/1to3/7.png"",""time"":693},{""stimulus"":""img/1to3/8.png"",""time"":794},{""stimulus"":""img/1to3/9.png"",""time"":892},{""stimulus"":""img/1to3/10.png"",""time"":991},{""stimulus"":""img/1to3/11.png"",""time"":1089},{""stimulus"":""img/1to3/12.png"",""time"":1189}]","[]"
"image-keyboard-response","132","124686","0.0-5.0-1.64","63d007388da4ef5b301762f9","bdp_cybrbll","Mon Mar 27 2023 08:25:33 GMT-0700 (Pacific Daylight Time)","407735","1","3","","null","","","","observe","","img/3to2/1.png","null","161","1472","0.5","0.5","3","2","",""
"animation","133","125974","0.0-5.0-2.64","63d007388da4ef5b301762f9","bdp_cybrbll","Mon Mar 27 2023 08:25:33 GMT-0700 (Pacific Daylight Time)","407735","1","3","","","","","","","","","","161","","","","3","2","[{""stimulus"":""img/3to2/1.png"",""time"":101},{""stimulus"":""img/3to2/2.png"",""time"":199},{""stimulus"":""img/3to2/3.png"",""time"":299},{""stimulus"":""img/3to2/4.png"",""time"":397},{""stimulus"":""img/3to2/5.png"",""time"":498},{""stimulus"":""img/3to2/6.png"",""time"":595},{""stimulus"":""img/3to2/7.png"",""time"":695},{""stimulus"":""img/3to2/8.png"",""time"":794},{""stimulus"":""img/3to2/9.png"",""time"":892},{""stimulus"":""img/3to2/10.png"",""time"":991},{""stimulus"":""img/3to2/11.png"",""time"":1090},{""stimulus"":""img/3to2/12.png"",""time"":1189}]","[]"
"image-keyboard-response","134","126110","0.0-5.0-1.65","63d007388da4ef5b301762f9","bdp_cybrbll","Mon Mar 27 2023 08:25:33 GMT-0700 (Pacific Daylight Time)","407735","1","3","","136","","","","choice","","img/2to1/1.png","2","160","579","0.5","0.5","2","3","",""
"animation","135","127398","0.0-5.0-2.65","63d007388da4ef5b301762f9","bdp_cybrbll","Mon Mar 27 2023 08:25:33 GMT-0700 (Pacific Daylight Time)","407735","1","3","","","","","","","","","","160","","","","2","3","[{""stimulus"":""img/2to3/1.png"",""time"":100},{""stimulus"":""img/2to3/2.png"",""time"":199},{""stimulus"":""img/2to3/3.png"",""time"":298},{""stimulus"":""img/2to3/4.png"",""time"":396},{""stimulus"":""img/2to3/5.png"",""time"":496},{""stimulus"":""img/2to3/6.png"",""time"":595},{""stimulus"":""img/2to3/7.png"",""time"":694},{""stimulus"":""img/2to3/8.png"",""time"":792},{""stimulus"":""img/2to3/9.png"",""time"":891},{""stimulus"":""img/2to3/10.png"",""time"":991},{""stimulus"":""img/2to3/11.png"",""time"":1090},{""stimulus"":""img/2to3/12.png"",""time"":1188}]","[]"
"image-keyboard-response","136","127779","0.0-5.0-1.66","63d007388da4ef5b301762f9","bdp_cybrbll","Mon Mar 27 2023 08:25:33 GMT-0700 (Pacific Daylight Time)","407735","1","3","","null","","","","observe","","img/3to2/1.png","null","159","379","0.5","0.5","3","2","",""
"animation","137","129067","0.0-5.0-2.66","63d007388da4ef5b301762f9","bdp_cybrbll","Mon Mar 27 2023 08:25:33 GMT-0700 (Pacific Daylight Time)","407735","1","3","","","","","","","","","","159","","","","3","2","[{""stimulus"":""img/3to2/1.png"",""time"":100},{""stimulus"":""img/3to2/2.png"",""time"":199},{""stimulus"":""img/3to2/3.png"",""time"":298},{""stimulus"":""img/3to2/4.png"",""time"":397},{""stimulus"":""img/3to2/5.png"",""time"":495},{""stimulus"":""img/3to2/6.png"",""time"":595},{""stimulus"":""img/3to2/7.png"",""time"":694},{""stimulus"":""img/3to2/8.png"",""time"":794},{""stimulus"":""img/3to2/9.png"",""time"":891},{""stimulus"":""img/3to2/10.png"",""time"":990},{""stimulus"":""img/3to2/11.png"",""time"":1089},{""stimulus"":""img/3to2/12.png"",""time"":1189}]","[]"
"image-keyboard-response","138","129155","0.0-5.0-1.67","63d007388da4ef5b301762f9","bdp_cybrbll","Mon Mar 27 2023 08:25:33 GMT-0700 (Pacific Daylight Time)","407735","1","3","","88","","","","choice","","img/2to1/1.png","1","158","530","0.5","0.5","2","1","",""
"animation","139","130442","0.0-5.0-2.67","63d007388da4ef5b301762f9","bdp_cybrbll","Mon Mar 27 2023 08:25:33 GMT-0700 (Pacific Daylight Time)","407735","1","3","","","","","","","","","","158","","","","2","1","[{""stimulus"":""img/2to1/1.png"",""time"":100},{""stimulus"":""img/2to1/2.png"",""time"":199},{""stimulus"":""img/2to1/3.png"",""time"":297},{""stimulus"":""img/2to1/4.png"",""time"":397},{""stimulus"":""img/2to1/5.png"",""time"":496},{""stimulus"":""img/2to1/6.png"",""time"":594},{""stimulus"":""img/2to1/7.png"",""time"":693},{""stimulus"":""img/2to1/8.png"",""time"":793},{""stimulus"":""img/2to1/9.png"",""time"":892},{""stimulus"":""img/2to1/10.png"",""time"":990},{""stimulus"":""img/2to1/11.png"",""time"":1091},{""stimulus"":""img/2to1/12.png"",""time"":1189}]","[]"
"image-keyboard-response","140","130621","0.0-5.0-1.68","63d007388da4ef5b301762f9","bdp_cybrbll","Mon Mar 27 2023 08:25:33 GMT-0700 (Pacific Daylight Time)","407735","1","3","","null","","","","observe","","img/1to3/1.png","null","157","177","0.5","0.5","1","2","",""
"animation","141","131909","0.0-5.0-2.68","63d007388da4ef5b301762f9","bdp_cybrbll","Mon Mar 27 2023 08:25:33 GMT-0700 (Pacific Daylight Time)","407735","1","3","","","","","","","","","","157","","","","1","2","[{""stimulus"":""img/1to2/1.png"",""time"":100},{""stimulus"":""img/1to2/2.png"",""time"":199},{""stimulus"":""img/1to2/3.png"",""time"":299},{""stimulus"":""img/1to2/4.png"",""time"":397},{""stimulus"":""img/1to2/5.png"",""time"":497},{""stimulus"":""img/1to2/6.png"",""time"":596},{""stimulus"":""img/1to2/7.png"",""time"":694},{""stimulus"":""img/1to2/8.png"",""time"":793},{""stimulus"":""img/1to2/9.png"",""time"":892},{""stimulus"":""img/1to2/10.png"",""time"":998},{""stimulus"":""img/1to2/11.png"",""time"":1090},{""stimulus"":""img/1to2/12.png"",""time"":1189}]","[]"
"image-keyboard-response","142","133112","0.0-5.0-1.69","63d007388da4ef5b301762f9","bdp_cybrbll","Mon Mar 27 2023 08:25:33 GMT-0700 (Pacific Daylight Time)","407735","1","3","","1203","","","","choice","","img/2to1/1.png","2","156","265","0.5","0.5","2","3","",""
"animation","143","134400","0.0-5.0-2.69","63d007388da4ef5b301762f9","bdp_cybrbll","Mon Mar 27 2023 08:25:33 GMT-0700 (Pacific Daylight Time)","407735","1","3","","","","","","","","","","156","","","","2","3","[{""stimulus"":""img/2to3/1.png"",""time"":100},{""stimulus"":""img/2to3/2.png"",""time"":199},{""stimulus"":""img/2to3/3.png"",""time"":298},{""stimulus"":""img/2to3/4.png"",""time"":398},{""stimulus"":""img/2to3/5.png"",""time"":497},{""stimulus"":""img/2to3/6.png"",""time"":600},{""stimulus"":""img/2to3/7.png"",""time"":694},{""stimulus"":""img/2to3/8.png"",""time"":793},{""stimulus"":""img/2to3/9.png"",""time"":893},{""stimulus"":""img/2to3/10.png"",""time"":992},{""stimulus"":""img/2to3/11.png"",""time"":1091},{""stimulus"":""img/2to3/12.png"",""time"":1189}]","[]"
"image-keyboard-response","144","134626","0.0-5.0-1.70","63d007388da4ef5b301762f9","bdp_cybrbll","Mon Mar 27 2023 08:25:33 GMT-0700 (Pacific Daylight Time)","407735","1","3","","null","","","","observe","","img/3to2/1.png","null","155","224","0.5","0.5","3","2","",""
"animation","145","135913","0.0-5.0-2.70","63d007388da4ef5b301762f9","bdp_cybrbll","Mon Mar 27 2023 08:25:33 GMT-0700 (Pacific Daylight Time)","407735","1","3","","","","","","","","","","155","","","","3","2","[{""stimulus"":""img/3to2/1.png"",""time"":100},{""stimulus"":""img/3to2/2.png"",""time"":200},{""stimulus"":""img/3to2/3.png"",""time"":298},{""stimulus"":""img/3to2/4.png"",""time"":399},{""stimulus"":""img/3to2/5.png"",""time"":496},{""stimulus"":""img/3to2/6.png"",""time"":595},{""stimulus"":""img/3to2/7.png"",""time"":694},{""stimulus"":""img/3to2/8.png"",""time"":792},{""stimulus"":""img/3to2/9.png"",""time"":892},{""stimulus"":""img/3to2/10.png"",""time"":990},{""stimulus"":""img/3to2/11.png"",""time"":1091},{""stimulus"":""img/3to2/12.png"",""time"":1188}]","[]"
"image-keyboard-response","146","136084","0.0-5.0-1.71","63d007388da4ef5b301762f9","bdp_cybrbll","Mon Mar 27 2023 08:25:33 GMT-0700 (Pacific Daylight Time)","407735","1","3","","170","","","","choice","","img/2to1/1.png","1","154","526","0.5","0.5","2","1","",""
"animation","147","137372","0.0-5.0-2.71","63d007388da4ef5b301762f9","bdp_cybrbll","Mon Mar 27 2023 08:25:33 GMT-0700 (Pacific Daylight Time)","407735","1","3","","","","","","","","","","154","","","","2","1","[{""stimulus"":""img/2to1/1.png"",""time"":100},{""stimulus"":""img/2to1/2.png"",""time"":199},{""stimulus"":""img/2to1/3.png"",""time"":299},{""stimulus"":""img/2to1/4.png"",""time"":397},{""stimulus"":""img/2to1/5.png"",""time"":496},{""stimulus"":""img/2to1/6.png"",""time"":595},{""stimulus"":""img/2to1/7.png"",""time"":693},{""stimulus"":""img/2to1/8.png"",""time"":792},{""stimulus"":""img/2to1/9.png"",""time"":891},{""stimulus"":""img/2to1/10.png"",""time"":991},{""stimulus"":""img/2to1/11.png"",""time"":1090},{""stimulus"":""img/2to1/12.png"",""time"":1189}]","[]"
"image-keyboard-response","148","138000","0.0-5.0-1.72","63d007388da4ef5b301762f9","bdp_cybrbll","Mon Mar 27 2023 08:25:33 GMT-0700 (Pacific Daylight Time)","407735","1","3","","null","","","","observe","","img/1to3/1.png","null","153","627","0.5","0.5","1","2","",""
"animation","149","139288","0.0-5.0-2.72","63d007388da4ef5b301762f9","bdp_cybrbll","Mon Mar 27 2023 08:25:33 GMT-0700 (Pacific Daylight Time)","407735","1","3","","","","","","","","","","153","","","","1","2","[{""stimulus"":""img/1to2/1.png"",""time"":99},{""stimulus"":""img/1to2/2.png"",""time"":200},{""stimulus"":""img/1to2/3.png"",""time"":298},{""stimulus"":""img/1to2/4.png"",""time"":397},{""stimulus"":""img/1to2/5.png"",""time"":495},{""stimulus"":""img/1to2/6.png"",""time"":595},{""stimulus"":""img/1to2/7.png"",""time"":694},{""stimulus"":""img/1to2/8.png"",""time"":793},{""stimulus"":""img/1to2/9.png"",""time"":892},{""stimulus"":""img/1to2/10.png"",""time"":991},{""stimulus"":""img/1to2/11.png"",""time"":1090},{""stimulus"":""img/1to2/12.png"",""time"":1189}]","[]"
"image-keyboard-response","150","139517","0.0-5.0-1.73","63d007388da4ef5b301762f9","bdp_cybrbll","Mon Mar 27 2023 08:25:33 GMT-0700 (Pacific Daylight Time)","407735","1","3","","229","","","","choice","","img/2to1/1.png","1","152","350","0.5","0.5","2","1","",""
"animation","151","140806","0.0-5.0-2.73","63d007388da4ef5b301762f9","bdp_cybrbll","Mon Mar 27 2023 08:25:33 GMT-0700 (Pacific Daylight Time)","407735","1","3","","","","","","","","","","152","","","","2","1","[{""stimulus"":""img/2to1/1.png"",""time"":104},{""stimulus"":""img/2to1/2.png"",""time"":199},{""stimulus"":""img/2to1/3.png"",""time"":297},{""stimulus"":""img/2to1/4.png"",""time"":398},{""stimulus"":""img/2to1/5.png"",""time"":496},{""stimulus"":""img/2to1/6.png"",""time"":595},{""stimulus"":""img/2to1/7.png"",""time"":693},{""stimulus"":""img/2to1/8.png"",""time"":793},{""stimulus"":""img/2to1/9.png"",""time"":891},{""stimulus"":""img/2to1/10.png"",""time"":990},{""stimulus"":""img/2to1/11.png"",""time"":1090},{""stimulus"":""img/2to1/12.png"",""time"":1188}]","[]"
"image-keyboard-response","152","141140","0.0-5.0-1.74","63d007388da4ef5b301762f9","bdp_cybrbll","Mon Mar 27 2023 08:25:33 GMT-0700 (Pacific Daylight Time)","407735","1","3","","null","","","","observe","","img/1to3/1.png","null","151","333","0.5","0.5","1","3","",""
"animation","153","142428","0.0-5.0-2.74","63d007388da4ef5b301762f9","bdp_cybrbll","Mon Mar 27 2023 08:25:33 GMT-0700 (Pacific Daylight Time)","407735","1","3","","","","","","","","","","151","","","","1","3","[{""stimulus"":""img/1to3/1.png"",""time"":100},{""stimulus"":""img/1to3/2.png"",""time"":199},{""stimulus"":""img/1to3/3.png"",""time"":299},{""stimulus"":""img/1to3/4.png"",""time"":398},{""stimulus"":""img/1to3/5.png"",""time"":496},{""stimulus"":""img/1to3/6.png"",""time"":595},{""stimulus"":""img/1to3/7.png"",""time"":694},{""stimulus"":""img/1to3/8.png"",""time"":794},{""stimulus"":""img/1to3/9.png"",""time"":891},{""stimulus"":""img/1to3/10.png"",""time"":992},{""stimulus"":""img/1to3/11.png"",""time"":1089},{""stimulus"":""img/1to3/12.png"",""time"":1189}]","[]"
"image-keyboard-response","154","142727","0.0-5.0-1.75","63d007388da4ef5b301762f9","bdp_cybrbll","Mon Mar 27 2023 08:25:33 GMT-0700 (Pacific Daylight Time)","407735","1","3","","null","","","","observe","","img/3to2/1.png","null","150","298","0.5","0.5","3","2","",""
"animation","155","144015","0.0-5.0-2.75","63d007388da4ef5b301762f9","bdp_cybrbll","Mon Mar 27 2023 08:25:33 GMT-0700 (Pacific Daylight Time)","407735","1","3","","","","","","","","","","150","","","","3","2","[{""stimulus"":""img/3to2/1.png"",""time"":100},{""stimulus"":""img/3to2/2.png"",""time"":199},{""stimulus"":""img/3to2/3.png"",""time"":298},{""stimulus"":""img/3to2/4.png"",""time"":397},{""stimulus"":""img/3to2/5.png"",""time"":495},{""stimulus"":""img/3to2/6.png"",""time"":595},{""stimulus"":""img/3to2/7.png"",""time"":694},{""stimulus"":""img/3to2/8.png"",""time"":792},{""stimulus"":""img/3to2/9.png"",""time"":892},{""stimulus"":""img/3to2/10.png"",""time"":991},{""stimulus"":""img/3to2/11.png"",""time"":1091},{""stimulus"":""img/3to2/12.png"",""time"":1189}]","[]"
"image-keyboard-response","156","144164","0.0-5.0-1.76","63d007388da4ef5b301762f9","bdp_cybrbll","Mon Mar 27 2023 08:25:33 GMT-0700 (Pacific Daylight Time)","407735","1","3","","148","","","","choice","","img/2to1/1.png","1","149","335","0.5","0.1","2","1","",""
"animation","157","145453","0.0-5.0-2.76","63d007388da4ef5b301762f9","bdp_cybrbll","Mon Mar 27 2023 08:25:33 GMT-0700 (Pacific Daylight Time)","407735","1","3","","","","","","","","","","149","","","","2","1","[{""stimulus"":""img/2to1/1.png"",""time"":99},{""stimulus"":""img/2to1/2.png"",""time"":198},{""stimulus"":""img/2to1/3.png"",""time"":298},{""stimulus"":""img/2to1/4.png"",""time"":397},{""stimulus"":""img/2to1/5.png"",""time"":495},{""stimulus"":""img/2to1/6.png"",""time"":595},{""stimulus"":""img/2to1/7.png"",""time"":694},{""stimulus"":""img/2to1/8.png"",""time"":792},{""stimulus"":""img/2to1/9.png"",""time"":893},{""stimulus"":""img/2to1/10.png"",""time"":991},{""stimulus"":""img/2to1/11.png"",""time"":1090},{""stimulus"":""img/2to1/12.png"",""time"":1189}]","[]"
"image-keyboard-response","158","146186","0.0-5.0-1.77","63d007388da4ef5b301762f9","bdp_cybrbll","Mon Mar 27 2023 08:25:33 GMT-0700 (Pacific Daylight Time)","407735","1","3","","null","","","","observe","","img/1to3/1.png","null","148","732","0.5","0.1","1","3","",""
"animation","159","147474","0.0-5.0-2.77","63d007388da4ef5b301762f9","bdp_cybrbll","Mon Mar 27 2023 08:25:33 GMT-0700 (Pacific Daylight Time)","407735","1","3","","","","","","","","","","148","","","","1","3","[{""stimulus"":""img/1to3/1.png"",""time"":100},{""stimulus"":""img/1to3/2.png"",""time"":199},{""stimulus"":""img/1to3/3.png"",""time"":297},{""stimulus"":""img/1to3/4.png"",""time"":397},{""stimulus"":""img/1to3/5.png"",""time"":509},{""stimulus"":""img/1to3/6.png"",""time"":596},{""stimulus"":""img/1to3/7.png"",""time"":694},{""stimulus"":""img/1to3/8.png"",""time"":793},{""stimulus"":""img/1to3/9.png"",""time"":892},{""stimulus"":""img/1to3/10.png"",""time"":991},{""stimulus"":""img/1to3/11.png"",""time"":1089},{""stimulus"":""img/1to3/12.png"",""time"":1189}]","[]"
"image-keyboard-response","160","148007","0.0-5.0-1.78","63d007388da4ef5b301762f9","bdp_cybrbll","Mon Mar 27 2023 08:25:33 GMT-0700 (Pacific Daylight Time)","407735","1","3","","null","","","","observe","","img/3to2/1.png","null","147","533","0.5","0.1","3","1","",""
"animation","161","149295","0.0-5.0-2.78","63d007388da4ef5b301762f9","bdp_cybrbll","Mon Mar 27 2023 08:25:33 GMT-0700 (Pacific Daylight Time)","407735","1","3","","","","","","","","","","147","","","","3","1","[{""stimulus"":""img/3to1/1.png"",""time"":101},{""stimulus"":""img/3to1/2.png"",""time"":199},{""stimulus"":""img/3to1/3.png"",""time"":298},{""stimulus"":""img/3to1/4.png"",""time"":397},{""stimulus"":""img/3to1/5.png"",""time"":496},{""stimulus"":""img/3to1/6.png"",""time"":598},{""stimulus"":""img/3to1/7.png"",""time"":694},{""stimulus"":""img/3to1/8.png"",""time"":792},{""stimulus"":""img/3to1/9.png"",""time"":892},{""stimulus"":""img/3to1/10.png"",""time"":991},{""stimulus"":""img/3to1/11.png"",""time"":1090},{""stimulus"":""img/3to1/12.png"",""time"":1188}]","[]"
"image-keyboard-response","162","149756","0.0-5.0-1.79","63d007388da4ef5b301762f9","bdp_cybrbll","Mon Mar 27 2023 08:25:33 GMT-0700 (Pacific Daylight Time)","407735","1","3","","null","","","","observe","","img/1to3/1.png","null","146","459","0.5","0.1","1","3","",""
"animation","163","151044","0.0-5.0-2.79","63d007388da4ef5b301762f9","bdp_cybrbll","Mon Mar 27 2023 08:25:33 GMT-0700 (Pacific Daylight Time)","407735","1","3","","","","","","","","","","146","","","","1","3","[{""stimulus"":""img/1to3/1.png"",""time"":100},{""stimulus"":""img/1to3/2.png"",""time"":199},{""stimulus"":""img/1to3/3.png"",""time"":298},{""stimulus"":""img/1to3/4.png"",""time"":397},{""stimulus"":""img/1to3/5.png"",""time"":496},{""stimulus"":""img/1to3/6.png"",""time"":594},{""stimulus"":""img/1to3/7.png"",""time"":693},{""stimulus"":""img/1to3/8.png"",""time"":793},{""stimulus"":""img/1to3/9.png"",""time"":892},{""stimulus"":""img/1to3/10.png"",""time"":991},{""stimulus"":""img/1to3/11.png"",""time"":1090},{""stimulus"":""img/1to3/12.png"",""time"":1188}]","[]"
"image-keyboard-response","164","151648","0.0-5.0-1.80","63d007388da4ef5b301762f9","bdp_cybrbll","Mon Mar 27 2023 08:25:33 GMT-0700 (Pacific Daylight Time)","407735","1","3","","null","","","","observe","","img/3to2/1.png","null","145","603","0.5","0.1","3","1","",""
"animation","165","152935","0.0-5.0-2.80","63d007388da4ef5b301762f9","bdp_cybrbll","Mon Mar 27 2023 08:25:33 GMT-0700 (Pacific Daylight Time)","407735","1","3","","","","","","","","","","145","","","","3","1","[{""stimulus"":""img/3to1/1.png"",""time"":100},{""stimulus"":""img/3to1/2.png"",""time"":199},{""stimulus"":""img/3to1/3.png"",""time"":298},{""stimulus"":""img/3to1/4.png"",""time"":397},{""stimulus"":""img/3to1/5.png"",""time"":496},{""stimulus"":""img/3to1/6.png"",""time"":595},{""stimulus"":""img/3to1/7.png"",""time"":694},{""stimulus"":""img/3to1/8.png"",""time"":792},{""stimulus"":""img/3to1/9.png"",""time"":891},{""stimulus"":""img/3to1/10.png"",""time"":990},{""stimulus"":""img/3to1/11.png"",""time"":1090},{""stimulus"":""img/3to1/12.png"",""time"":1188}]","[]"
"image-keyboard-response","166","153095","0.0-5.0-1.81","63d007388da4ef5b301762f9","bdp_cybrbll","Mon Mar 27 2023 08:25:33 GMT-0700 (Pacific Daylight Time)","407735","1","3","","null","","","","observe","","img/1to3/1.png","null","144","159","0.5","0.1","1","2","",""
"animation","167","154382","0.0-5.0-2.81","63d007388da4ef5b301762f9","bdp_cybrbll","Mon Mar 27 2023 08:25:33 GMT-0700 (Pacific Daylight Time)","407735","1","3","","","","","","","","","","144","","","","1","2","[{""stimulus"":""img/1to2/1.png"",""time"":100},{""stimulus"":""img/1to2/2.png"",""time"":198},{""stimulus"":""img/1to2/3.png"",""time"":297},{""stimulus"":""img/1to2/4.png"",""time"":397},{""stimulus"":""img/1to2/5.png"",""time"":496},{""stimulus"":""img/1to2/6.png"",""time"":603},{""stimulus"":""img/1to2/7.png"",""time"":693},{""stimulus"":""img/1to2/8.png"",""time"":793},{""stimulus"":""img/1to2/9.png"",""time"":891},{""stimulus"":""img/1to2/10.png"",""time"":991},{""stimulus"":""img/1to2/11.png"",""time"":1090},{""stimulus"":""img/1to2/12.png"",""time"":1190}]","[]"
"image-keyboard-response","168","154601","0.0-5.0-1.82","63d007388da4ef5b301762f9","bdp_cybrbll","Mon Mar 27 2023 08:25:33 GMT-0700 (Pacific Daylight Time)","407735","1","3","","219","","","","choice","","img/2to1/1.png","1","143","367","0.5","0.1","2","1","",""
"animation","169","155890","0.0-5.0-2.82","63d007388da4ef5b301762f9","bdp_cybrbll","Mon Mar 27 2023 08:25:33 GMT-0700 (Pacific Daylight Time)","407735","1","3","","","","","","","","","","143","","","","2","1","[{""stimulus"":""img/2to1/1.png"",""time"":99},{""stimulus"":""img/2to1/2.png"",""time"":198},{""stimulus"":""img/2to1/3.png"",""time"":298},{""stimulus"":""img/2to1/4.png"",""time"":396},{""stimulus"":""img/2to1/5.png"",""time"":495},{""stimulus"":""img/2to1/6.png"",""time"":594},{""stimulus"":""img/2to1/7.png"",""time"":694},{""stimulus"":""img/2to1/8.png"",""time"":792},{""stimulus"":""img/2to1/9.png"",""time"":891},{""stimulus"":""img/2to1/10.png"",""time"":990},{""stimulus"":""img/2to1/11.png"",""time"":1090},{""stimulus"":""img/2to1/12.png"",""time"":1188}]","[]"
"image-keyboard-response","170","156133","0.0-5.0-1.83","63d007388da4ef5b301762f9","bdp_cybrbll","Mon Mar 27 2023 08:25:33 GMT-0700 (Pacific Daylight Time)","407735","1","3","","null","","","","observe","","img/1to3/1.png","null","142","242","0.5","0.1","1","3","",""
"animation","171","157421","0.0-5.0-2.83","63d007388da4ef5b301762f9","bdp_cybrbll","Mon Mar 27 2023 08:25:33 GMT-0700 (Pacific Daylight Time)","407735","1","3","","","","","","","","","","142","","","","1","3","[{""stimulus"":""img/1to3/1.png"",""time"":100},{""stimulus"":""img/1to3/2.png"",""time"":199},{""stimulus"":""img/1to3/3.png"",""time"":298},{""stimulus"":""img/1to3/4.png"",""time"":398},{""stimulus"":""img/1to3/5.png"",""time"":496},{""stimulus"":""img/1to3/6.png"",""time"":595},{""stimulus"":""img/1to3/7.png"",""time"":694},{""stimulus"":""img/1to3/8.png"",""time"":793},{""stimulus"":""img/1to3/9.png"",""time"":893},{""stimulus"":""img/1to3/10.png"",""time"":991},{""stimulus"":""img/1to3/11.png"",""time"":1091},{""stimulus"":""img/1to3/12.png"",""time"":1189}]","[]"
"image-keyboard-response","172","158319","0.0-5.0-1.84","63d007388da4ef5b301762f9","bdp_cybrbll","Mon Mar 27 2023 08:25:33 GMT-0700 (Pacific Daylight Time)","407735","1","3","","null","","","","observe","","img/3to2/1.png","null","141","897","0.5","0.1","3","1","",""
"animation","173","159607","0.0-5.0-2.84","63d007388da4ef5b301762f9","bdp_cybrbll","Mon Mar 27 2023 08:25:33 GMT-0700 (Pacific Daylight Time)","407735","1","3","","","","","","","","","","141","","","","3","1","[{""stimulus"":""img/3to1/1.png"",""time"":112},{""stimulus"":""img/3to1/2.png"",""time"":199},{""stimulus"":""img/3to1/3.png"",""time"":298},{""stimulus"":""img/3to1/4.png"",""time"":398},{""stimulus"":""img/3to1/5.png"",""time"":497},{""stimulus"":""img/3to1/6.png"",""time"":595},{""stimulus"":""img/3to1/7.png"",""time"":695},{""stimulus"":""img/3to1/8.png"",""time"":794},{""stimulus"":""img/3to1/9.png"",""time"":892},{""stimulus"":""img/3to1/10.png"",""time"":998},{""stimulus"":""img/3to1/11.png"",""time"":1090},{""stimulus"":""img/3to1/12.png"",""time"":1189}]","[]"
"image-keyboard-response","174","160227","0.0-5.0-1.85","63d007388da4ef5b301762f9","bdp_cybrbll","Mon Mar 27 2023 08:25:33 GMT-0700 (Pacific Daylight Time)","407735","1","3","","null","","","","observe","","img/1to3/1.png","null","140","619","0.5","0.1","1","3","",""
"animation","175","161514","0.0-5.0-2.85","63d007388da4ef5b301762f9","bdp_cybrbll","Mon Mar 27 2023 08:25:33 GMT-0700 (Pacific Daylight Time)","407735","1","3","","","","","","","","","","140","","","","1","3","[{""stimulus"":""img/1to3/1.png"",""time"":100},{""stimulus"":""img/1to3/2.png"",""time"":198},{""stimulus"":""img/1to3/3.png"",""time"":297},{""stimulus"":""img/1to3/4.png"",""time"":397},{""stimulus"":""img/1to3/5.png"",""time"":496},{""stimulus"":""img/1to3/6.png"",""time"":595},{""stimulus"":""img/1to3/7.png"",""time"":694},{""stimulus"":""img/1to3/8.png"",""time"":793},{""stimulus"":""img/1to3/9.png"",""time"":892},{""stimulus"":""img/1to3/10.png"",""time"":991},{""stimulus"":""img/1to3/11.png"",""time"":1089},{""stimulus"":""img/1to3/12.png"",""time"":1189}]","[]"
"image-keyboard-response","176","162784","0.0-5.0-1.86","63d007388da4ef5b301762f9","bdp_cybrbll","Mon Mar 27 2023 08:25:33 GMT-0700 (Pacific Daylight Time)","407735","1","3","","null","","","","observe","","img/3to2/1.png","null","139","1269","0.5","0.1","3","1","",""
"animation","177","164072","0.0-5.0-2.86","63d007388da4ef5b301762f9","bdp_cybrbll","Mon Mar 27 2023 08:25:33 GMT-0700 (Pacific Daylight Time)","407735","1","3","","","","","","","","","","139","","","","3","1","[{""stimulus"":""img/3to1/1.png"",""time"":100},{""stimulus"":""img/3to1/2.png"",""time"":198},{""stimulus"":""img/3to1/3.png"",""time"":297},{""stimulus"":""img/3to1/4.png"",""time"":396},{""stimulus"":""img/3to1/5.png"",""time"":497},{""stimulus"":""img/3to1/6.png"",""time"":594},{""stimulus"":""img/3to1/7.png"",""time"":693},{""stimulus"":""img/3to1/8.png"",""time"":793},{""stimulus"":""img/3to1/9.png"",""time"":892},{""stimulus"":""img/3to1/10.png"",""time"":991},{""stimulus"":""img/3to1/11.png"",""time"":1089},{""stimulus"":""img/3to1/12.png"",""time"":1188}]","[]"
"image-keyboard-response","178","164270","0.0-5.0-1.87","63d007388da4ef5b301762f9","bdp_cybrbll","Mon Mar 27 2023 08:25:33 GMT-0700 (Pacific Daylight Time)","407735","1","3","","null","","","","observe","","img/1to3/1.png","null","138","196","0.5","0.1","1","2","",""
"animation","179","165559","0.0-5.0-2.87","63d007388da4ef5b301762f9","bdp_cybrbll","Mon Mar 27 2023 08:25:33 GMT-0700 (Pacific Daylight Time)","407735","1","3","","","","","","","","","","138","","","","1","2","[{""stimulus"":""img/1to2/1.png"",""time"":100},{""stimulus"":""img/1to2/2.png"",""time"":199},{""stimulus"":""img/1to2/3.png"",""time"":298},{""stimulus"":""img/1to2/4.png"",""time"":397},{""stimulus"":""img/1to2/5.png"",""time"":500},{""stimulus"":""img/1to2/6.png"",""time"":595},{""stimulus"":""img/1to2/7.png"",""time"":693},{""stimulus"":""img/1to2/8.png"",""time"":793},{""stimulus"":""img/1to2/9.png"",""time"":894},{""stimulus"":""img/1to2/10.png"",""time"":991},{""stimulus"":""img/1to2/11.png"",""time"":1090},{""stimulus"":""img/1to2/12.png"",""time"":1189}]","[]"
"image-keyboard-response","180","165715","0.0-5.0-1.88","63d007388da4ef5b301762f9","bdp_cybrbll","Mon Mar 27 2023 08:25:33 GMT-0700 (Pacific Daylight Time)","407735","1","3","","156","","","","choice","","img/2to1/1.png","1","137","333","0.5","0.1","2","1","",""
"animation","181","167003","0.0-5.0-2.88","63d007388da4ef5b301762f9","bdp_cybrbll","Mon Mar 27 2023 08:25:33 GMT-0700 (Pacific Daylight Time)","407735","1","3","","","","","","","","","","137","","","","2","1","[{""stimulus"":""img/2to1/1.png"",""time"":100},{""stimulus"":""img/2to1/2.png"",""time"":198},{""stimulus"":""img/2to1/3.png"",""time"":297},{""stimulus"":""img/2to1/4.png"",""time"":397},{""stimulus"":""img/2to1/5.png"",""time"":496},{""stimulus"":""img/2to1/6.png"",""time"":594},{""stimulus"":""img/2to1/7.png"",""time"":693},{""stimulus"":""img/2to1/8.png"",""time"":792},{""stimulus"":""img/2to1/9.png"",""time"":893},{""stimulus"":""img/2to1/10.png"",""time"":991},{""stimulus"":""img/2to1/11.png"",""time"":1089},{""stimulus"":""img/2to1/12.png"",""time"":1189}]","[]"
"image-keyboard-response","182","167672","0.0-5.0-1.89","63d007388da4ef5b301762f9","bdp_cybrbll","Mon Mar 27 2023 08:25:33 GMT-0700 (Pacific Daylight Time)","407735","1","3","","null","","","","observe","","img/1to3/1.png","null","136","668","0.5","0.1","1","3","",""
"animation","183","168961","0.0-5.0-2.89","63d007388da4ef5b301762f9","bdp_cybrbll","Mon Mar 27 2023 08:25:33 GMT-0700 (Pacific Daylight Time)","407735","1","3","","","","","","","","","","136","","","","1","3","[{""stimulus"":""img/1to3/1.png"",""time"":100},{""stimulus"":""img/1to3/2.png"",""time"":199},{""stimulus"":""img/1to3/3.png"",""time"":297},{""stimulus"":""img/1to3/4.png"",""time"":397},{""stimulus"":""img/1to3/5.png"",""time"":496},{""stimulus"":""img/1to3/6.png"",""time"":594},{""stimulus"":""img/1to3/7.png"",""time"":694},{""stimulus"":""img/1to3/8.png"",""time"":792},{""stimulus"":""img/1to3/9.png"",""time"":892},{""stimulus"":""img/1to3/10.png"",""time"":992},{""stimulus"":""img/1to3/11.png"",""time"":1091},{""stimulus"":""img/1to3/12.png"",""time"":1190}]","[]"
"image-keyboard-response","184","169318","0.0-5.0-1.90","63d007388da4ef5b301762f9","bdp_cybrbll","Mon Mar 27 2023 08:25:33 GMT-0700 (Pacific Daylight Time)","407735","1","3","","null","","","","observe","","img/3to2/1.png","null","135","356","0.5","0.1","3","1","",""
"animation","185","170606","0.0-5.0-2.90","63d007388da4ef5b301762f9","bdp_cybrbll","Mon Mar 27 2023 08:25:33 GMT-0700 (Pacific Daylight Time)","407735","1","3","","","","","","","","","","135","","","","3","1","[{""stimulus"":""img/3to1/1.png"",""time"":100},{""stimulus"":""img/3to1/2.png"",""time"":199},{""stimulus"":""img/3to1/3.png"",""time"":298},{""stimulus"":""img/3to1/4.png"",""time"":397},{""stimulus"":""img/3to1/5.png"",""time"":496},{""stimulus"":""img/3to1/6.png"",""time"":596},{""stimulus"":""img/3to1/7.png"",""time"":694},{""stimulus"":""img/3to1/8.png"",""time"":793},{""stimulus"":""img/3to1/9.png"",""time"":893},{""stimulus"":""img/3to1/10.png"",""time"":991},{""stimulus"":""img/3to1/11.png"",""time"":1090},{""stimulus"":""img/3to1/12.png"",""time"":1189}]","[]"
"image-keyboard-response","186","170950","0.0-5.0-1.91","63d007388da4ef5b301762f9","bdp_cybrbll","Mon Mar 27 2023 08:25:33 GMT-0700 (Pacific Daylight Time)","407735","1","3","","null","","","","observe","","img/1to3/1.png","null","134","343","0.5","0.1","1","2","",""
"animation","187","172238","0.0-5.0-2.91","63d007388da4ef5b301762f9","bdp_cybrbll","Mon Mar 27 2023 08:25:33 GMT-0700 (Pacific Daylight Time)","407735","1","3","","","","","","","","","","134","","","","1","2","[{""stimulus"":""img/1to2/1.png"",""time"":100},{""stimulus"":""img/1to2/2.png"",""time"":199},{""stimulus"":""img/1to2/3.png"",""time"":298},{""stimulus"":""img/1to2/4.png"",""time"":397},{""stimulus"":""img/1to2/5.png"",""time"":496},{""stimulus"":""img/1to2/6.png"",""time"":595},{""stimulus"":""img/1to2/7.png"",""time"":694},{""stimulus"":""img/1to2/8.png"",""time"":793},{""stimulus"":""img/1to2/9.png"",""time"":892},{""stimulus"":""img/1to2/10.png"",""time"":991},{""stimulus"":""img/1to2/11.png"",""time"":1090},{""stimulus"":""img/1to2/12.png"",""time"":1189}]","[]"
"image-keyboard-response","188","172467","0.0-5.0-1.92","63d007388da4ef5b301762f9","bdp_cybrbll","Mon Mar 27 2023 08:25:33 GMT-0700 (Pacific Daylight Time)","407735","1","3","","229","","","","choice","","img/2to1/1.png","2","133","726","0.5","0.1","2","3","",""
"animation","189","173764","0.0-5.0-2.92","63d007388da4ef5b301762f9","bdp_cybrbll","Mon Mar 27 2023 08:25:33 GMT-0700 (Pacific Daylight Time)","407735","1","3","","","","","","","","","","133","","","","2","3","[{""stimulus"":""img/2to3/1.png"",""time"":100},{""stimulus"":""img/2to3/2.png"",""time"":198},{""stimulus"":""img/2to3/3.png"",""time"":299},{""stimulus"":""img/2to3/4.png"",""time"":398},{""stimulus"":""img/2to3/5.png"",""time"":496},{""stimulus"":""img/2to3/6.png"",""time"":595},{""stimulus"":""img/2to3/7.png"",""time"":694},{""stimulus"":""img/2to3/8.png"",""time"":794},{""stimulus"":""img/2to3/9.png"",""time"":892},{""stimulus"":""img/2to3/10.png"",""time"":992},{""stimulus"":""img/2to3/11.png"",""time"":1090},{""stimulus"":""img/2to3/12.png"",""time"":1189}]","[]"
"image-keyboard-response","190","173976","0.0-5.0-1.93","63d007388da4ef5b301762f9","bdp_cybrbll","Mon Mar 27 2023 08:25:33 GMT-0700 (Pacific Daylight Time)","407735","1","3","","null","","","","observe","","img/3to2/1.png","null","132","211","0.5","0.1","3","1","",""
