"trial_type","trial_index","time_elapsed","internal_node_id","subject_id","task","startTime","totalTime","fairPartner","unfairPartner","view_history","rt","event","trial","time","trialtype","success","stimulus","key_press","throwsLeft","rtDur","pFair","pUnfair","holder","receiver","animation_sequence","responses"
"pavlovia","0","7","0.0-0.0","63dc7b5bf451a34177b66c66","bdp_cybrbll","Sat Mar 25 2023 02:51:54 GMT-0400 (Eastern Daylight Time)","523054","3","1","","","","","","","","","","","","","","","","",""
"instructions","1","15475","0.0-1.0","63dc7b5bf451a34177b66c66","bdp_cybrbll","Sat Mar 25 2023 02:51:54 GMT-0400 (Eastern Daylight Time)","523054","3","1","[{""page_index"":0,""viewing_time"":15467}]","15467","","","","","","","","","","","","","","",""
"","","","","63dc7b5bf451a34177b66c66","bdp_cybrbll","Sat Mar 25 2023 02:51:54 GMT-0400 (Eastern Daylight Time)","523054","3","1","","","fullscreenenter","2","21400","fullscreenenter","","","","","","","","","","",""
"fullscreen","2","22365","0.0-2.0","63dc7b5bf451a34177b66c66","bdp_cybrbll","Sat Mar 25 2023 02:51:54 GMT-0400 (Eastern Daylight Time)","523054","3","1","","","","","","","true","","","","","","","","","",""
"instructions","3","121487","0.0-4.0","63dc7b5bf451a34177b66c66","bdp_cybrbll","Sat Mar 25 2023 02:51:54 GMT-0400 (Eastern Daylight Time)","523054","3","1","[{""page_index"":0,""viewing_time"":99120}]","99120","","","","","","","","","","","","","","",""
"image-keyboard-response","4","123091","0.0-5.0-1.0","63dc7b5bf451a34177b66c66","bdp_cybrbll","Sat Mar 25 2023 02:51:54 GMT-0400 (Eastern Daylight Time)","523054","3","1","","1600","","","","choice","","img/2to1/1.png","2","225","449","0.5","0.5","2","3","",""
"animation","5","124385","0.0-5.0-2.0","63dc7b5bf451a34177b66c66","bdp_cybrbll","Sat Mar 25 2023 02:51:54 GMT-0400 (Eastern Daylight Time)","523054","3","1","","","","","","","","","","225","","","","2","3","[{""stimulus"":""img/2to3/1.png"",""time"":111},{""stimulus"":""img/2to3/2.png"",""time"":211},{""stimulus"":""img/2to3/3.png"",""time"":311},{""stimulus"":""img/2to3/4.png"",""time"":411},{""stimulus"":""img/2to3/5.png"",""time"":511},{""stimulus"":""img/2to3/6.png"",""time"":595},{""stimulus"":""img/2to3/7.png"",""time"":709},{""stimulus"":""img/2to3/8.png"",""time"":795},{""stimulus"":""img/2to3/9.png"",""time"":894},{""stimulus"":""img/2to3/10.png"",""time"":994},{""stimulus"":""img/2to3/11.png"",""time"":1094},{""stimulus"":""img/2to3/12.png"",""time"":1193}]","[]"
"image-keyboard-response","6","124657","0.0-5.0-1.1","63dc7b5bf451a34177b66c66","bdp_cybrbll","Sat Mar 25 2023 02:51:54 GMT-0400 (Eastern Daylight Time)","523054","3","1","","null","","","","observe","","img/3to2/1.png","null","224","265","0.5","0.5","3","2","",""
"animation","7","125953","0.0-5.0-2.1","63dc7b5bf451a34177b66c66","bdp_cybrbll","Sat Mar 25 2023 02:51:54 GMT-0400 (Eastern Daylight Time)","523054","3","1","","","","","","","","","","224","","","","3","2","[{""stimulus"":""img/3to2/1.png"",""time"":110},{""stimulus"":""img/3to2/2.png"",""time"":205},{""stimulus"":""img/3to2/3.png"",""time"":309},{""stimulus"":""img/3to2/4.png"",""time"":411},{""stimulus"":""img/3to2/5.png"",""time"":511},{""stimulus"":""img/3to2/6.png"",""time"":596},{""stimulus"":""img/3to2/7.png"",""time"":709},{""stimulus"":""img/3to2/8.png"",""time"":795},{""stimulus"":""img/3to2/9.png"",""time"":894},{""stimulus"":""img/3to2/10.png"",""time"":994},{""stimulus"":""img/3to2/11.png"",""time"":1093},{""stimulus"":""img/3to2/12.png"",""time"":1193}]","[]"
"image-keyboard-response","8","126412","0.0-5.0-1.2","63dc7b5bf451a34177b66c66","bdp_cybrbll","Sat Mar 25 2023 02:51:54 GMT-0400 (Eastern Daylight Time)","523054","3","1","","457","","","","choice","","img/2to1/1.png","1","223","345","0.5","0.5","2","1","",""
"animation","9","127703","0.0-5.0-2.2","63dc7b5bf451a34177b66c66","bdp_cybrbll","Sat Mar 25 2023 02:51:54 GMT-0400 (Eastern Daylight Time)","523054","3","1","","","","","","","","","","223","","","","2","1","[{""stimulus"":""img/2to1/1.png"",""time"":103},{""stimulus"":""img/2to1/2.png"",""time"":214},{""stimulus"":""img/2to1/3.png"",""time"":309},{""stimulus"":""img/2to1/4.png"",""time"":398},{""stimulus"":""img/2to1/5.png"",""time"":509},{""stimulus"":""img/2to1/6.png"",""time"":597},{""stimulus"":""img/2to1/7.png"",""time"":693},{""stimulus"":""img/2to1/8.png"",""time"":797},{""stimulus"":""img/2to1/9.png"",""time"":900},{""stimulus"":""img/2to1/10.png"",""time"":995},{""stimulus"":""img/2to1/11.png"",""time"":1098},{""stimulus"":""img/2to1/12.png"",""time"":1196}]","[]"
"image-keyboard-response","10","128173","0.0-5.0-1.3","63dc7b5bf451a34177b66c66","bdp_cybrbll","Sat Mar 25 2023 02:51:54 GMT-0400 (Eastern Daylight Time)","523054","3","1","","null","","","","observe","","img/1to3/1.png","null","222","468","0.5","0.5","1","2","",""
"animation","11","129465","0.0-5.0-2.3","63dc7b5bf451a34177b66c66","bdp_cybrbll","Sat Mar 25 2023 02:51:54 GMT-0400 (Eastern Daylight Time)","523054","3","1","","","","","","","","","","222","","","","1","2","[{""stimulus"":""img/1to2/1.png"",""time"":110},{""stimulus"":""img/1to2/2.png"",""time"":205},{""stimulus"":""img/1to2/3.png"",""time"":299},{""stimulus"":""img/1to2/4.png"",""time"":403},{""stimulus"":""img/1to2/5.png"",""time"":499},{""stimulus"":""img/1to2/6.png"",""time"":603},{""stimulus"":""img/1to2/7.png"",""time"":699},{""stimulus"":""img/1to2/8.png"",""time"":802},{""stimulus"":""img/1to2/9.png"",""time"":898},{""stimulus"":""img/1to2/10.png"",""time"":1001},{""stimulus"":""img/1to2/11.png"",""time"":1097},{""stimulus"":""img/1to2/12.png"",""time"":1193}]","[]"
"image-keyboard-response","12","129731","0.0-5.0-1.4","63dc7b5bf451a34177b66c66","bdp_cybrbll","Sat Mar 25 2023 02:51:54 GMT-0400 (Eastern Daylight Time)","523054","3","1","","265","","","","choice","","img/2to1/1.png","2","221","506","0.5","0.5","2","3","",""
"animation","13","131019","0.0-5.0-2.4","63dc7b5bf451a34177b66c66","bdp_cybrbll","Sat Mar 25 2023 02:51:54 GMT-0400 (Eastern Daylight Time)","523054","3","1","","","","","","","","","","221","","","","2","3","[{""stimulus"":""img/2to3/1.png"",""time"":111},{""stimulus"":""img/2to3/2.png"",""time"":199},{""stimulus"":""img/2to3/3.png"",""time"":310},{""stimulus"":""img/2to3/4.png"",""time"":406},{""stimulus"":""img/2to3/5.png"",""time"":506},{""stimulus"":""img/2to3/6.png"",""time"":606},{""stimulus"":""img/2to3/7.png"",""time"":706},{""stimulus"":""img/2to3/8.png"",""time"":806},{""stimulus"":""img/2to3/9.png"",""time"":906},{""stimulus"":""img/2to3/10.png"",""time"":1006},{""stimulus"":""img/2to3/11.png"",""time"":1098},{""stimulus"":""img/2to3/12.png"",""time"":1194}]","[]"
"image-keyboard-response","14","131284","0.0-5.0-1.5","63dc7b5bf451a34177b66c66","bdp_cybrbll","Sat Mar 25 2023 02:51:54 GMT-0400 (Eastern Daylight Time)","523054","3","1","","null","","","","observe","","img/3to2/1.png","null","220","252","0.5","0.5","3","2","",""
"animation","15","132594","0.0-5.0-2.5","63dc7b5bf451a34177b66c66","bdp_cybrbll","Sat Mar 25 2023 02:51:54 GMT-0400 (Eastern Daylight Time)","523054","3","1","","","","","","","","","","220","","","","3","2","[{""stimulus"":""img/3to2/1.png"",""time"":110},{""stimulus"":""img/3to2/2.png"",""time"":204},{""stimulus"":""img/3to2/3.png"",""time"":302},{""stimulus"":""img/3to2/4.png"",""time"":397},{""stimulus"":""img/3to2/5.png"",""time"":500},{""stimulus"":""img/3to2/6.png"",""time"":602},{""stimulus"":""img/3to2/7.png"",""time"":702},{""stimulus"":""img/3to2/8.png"",""time"":801},{""stimulus"":""img/3to2/9.png"",""time"":902},{""stimulus"":""img/3to2/10.png"",""time"":1001},{""stimulus"":""img/3to2/11.png"",""time"":1101},{""stimulus"":""img/3to2/12.png"",""time"":1201}]","[]"
"image-keyboard-response","16","132661","0.0-5.0-1.6","63dc7b5bf451a34177b66c66","bdp_cybrbll","Sat Mar 25 2023 02:51:54 GMT-0400 (Eastern Daylight Time)","523054","3","1","","66","","","","choice","","img/2to1/1.png","1","219","1189","0.5","0.5","2","1","",""
"animation","17","133950","0.0-5.0-2.6","63dc7b5bf451a34177b66c66","bdp_cybrbll","Sat Mar 25 2023 02:51:54 GMT-0400 (Eastern Daylight Time)","523054","3","1","","","","","","","","","","219","","","","2","1","[{""stimulus"":""img/2to1/1.png"",""time"":106},{""stimulus"":""img/2to1/2.png"",""time"":214},{""stimulus"":""img/2to1/3.png"",""time"":309},{""stimulus"":""img/2to1/4.png"",""time"":406},{""stimulus"":""img/2to1/5.png"",""time"":506},{""stimulus"":""img/2to1/6.png"",""time"":606},{""stimulus"":""img/2to1/7.png"",""time"":706},{""stimulus"":""img/2to1/8.png"",""time"":806},{""stimulus"":""img/2to1/9.png"",""time"":905},{""stimulus"":""img/2to1/10.png"",""time"":1005},{""stimulus"":""img/2to1/11.png"",""time"":1090},{""stimulus"":""img/2to1/12.png"",""time"":1188}]","[]"
"image-keyboard-response","18","134667","0.0-5.0-1.7","63dc7b5bf451a34177b66c66","bdp_cybrbll","Sat Mar 25 2023 02:51:54 GMT-0400 (Eastern Daylight Time)","523054","3","1","","null","","","","observe","","img/1to3/1.png","null","218","706","0.5","0.5","1","2","",""
"animation","19","135965","0.0-5.0-2.7","63dc7b5bf451a34177b66c66","bdp_cybrbll","Sat Mar 25 2023 02:51:54 GMT-0400 (Eastern Daylight Time)","523054","3","1","","","","","","","","","","218","","","","1","2","[{""stimulus"":""img/1to2/1.png"",""time"":109},{""stimulus"":""img/1to2/2.png"",""time"":200},{""stimulus"":""img/1to2/3.png"",""time"":299},{""stimulus"":""img/1to2/4.png"",""time"":398},{""stimulus"":""img/1to2/5.png"",""time"":498},{""stimulus"":""img/1to2/6.png"",""time"":598},{""stimulus"":""img/1to2/7.png"",""time"":698},{""stimulus"":""img/1to2/8.png"",""time"":798},{""stimulus"":""img/1to2/9.png"",""time"":897},{""stimulus"":""img/1to2/10.png"",""time"":997},{""stimulus"":""img/1to2/11.png"",""time"":1097},{""stimulus"":""img/1to2/12.png"",""time"":1197}]","[]"
"image-keyboard-response","20","136737","0.0-5.0-1.8","63dc7b5bf451a34177b66c66","bdp_cybrbll","Sat Mar 25 2023 02:51:54 GMT-0400 (Eastern Daylight Time)","523054","3","1","","770","","","","choice","","img/2to1/1.png","2","217","1562","0.5","0.5","2","3","",""
"animation","21","138029","0.0-5.0-2.8","63dc7b5bf451a34177b66c66","bdp_cybrbll","Sat Mar 25 2023 02:51:54 GMT-0400 (Eastern Daylight Time)","523054","3","1","","","","","","","","","","217","","","","2","3","[{""stimulus"":""img/2to3/1.png"",""time"":111},{""stimulus"":""img/2to3/2.png"",""time"":203},{""stimulus"":""img/2to3/3.png"",""time"":313},{""stimulus"":""img/2to3/4.png"",""time"":410},{""stimulus"":""img/2to3/5.png"",""time"":510},{""stimulus"":""img/2to3/6.png"",""time"":595},{""stimulus"":""img/2to3/7.png"",""time"":709},{""stimulus"":""img/2to3/8.png"",""time"":794},{""stimulus"":""img/2to3/9.png"",""time"":894},{""stimulus"":""img/2to3/10.png"",""time"":993},{""stimulus"":""img/2to3/11.png"",""time"":1093},{""stimulus"":""img/2to3/12.png"",""time"":1193}]","[]"
"image-keyboard-response","22","138528","0.0-5.0-1.9","63dc7b5bf451a34177b66c66","bdp_cybrbll","Sat Mar 25 2023 02:51:54 GMT-0400 (Eastern Daylight Time)","523054","3","1","","null","","","","observe","","img/3to2/1.png","null","216","488","0.5","0.5","3","1","",""
"animation","23","139820","0.0-5.0-2.9","63dc7b5bf451a34177b66c66","bdp_cybrbll","Sat Mar 25 2023 02:51:54 GMT-0400 (Eastern Daylight Time)","523054","3","1","","","","","","","","","","216","","","","3","1","[{""stimulus"":""img/3to1/1.png"",""time"":110},{""stimulus"":""img/3to1/2.png"",""time"":210},{""stimulus"":""img/3to1/3.png"",""time"":310},{""stimulus"":""img/3to1/4.png"",""time"":409},{""stimulus"":""img/3to1/5.png"",""time"":509},{""stimulus"":""img/3to1/6.png"",""time"":609},{""stimulus"":""img/3to1/7.png"",""time"":709},{""stimulus"":""img/3to1/8.png"",""time"":793},{""stimulus"":""img/3to1/9.png"",""time"":893},{""stimulus"":""img/3to1/10.png"",""time"":992},{""stimulus"":""img/3to1/11.png"",""time"":1092},{""stimulus"":""img/3to1/12.png"",""time"":1192}]","[]"
"image-keyboard-response","24","140102","0.0-5.0-1.10","63dc7b5bf451a34177b66c66","bdp_cybrbll","Sat Mar 25 2023 02:51:54 GMT-0400 (Eastern Daylight Time)","523054","3","1","","null","","","","observe","","img/1to3/1.png","null","215","269","0.5","0.5","1","2","",""
"animation","25","141393","0.0-5.0-2.10","63dc7b5bf451a34177b66c66","bdp_cybrbll","Sat Mar 25 2023 02:51:54 GMT-0400 (Eastern Daylight Time)","523054","3","1","","","","","","","","","","215","","","","1","2","[{""stimulus"":""img/1to2/1.png"",""time"":110},{""stimulus"":""img/1to2/2.png"",""time"":201},{""stimulus"":""img/1to2/3.png"",""time"":312},{""stimulus"":""img/1to2/4.png"",""time"":408},{""stimulus"":""img/1to2/5.png"",""time"":508},{""stimulus"":""img/1to2/6.png"",""time"":608},{""stimulus"":""img/1to2/7.png"",""time"":708},{""stimulus"":""img/1to2/8.png"",""time"":793},{""stimulus"":""img/1to2/9.png"",""time"":892},{""stimulus"":""img/1to2/10.png"",""time"":991},{""stimulus"":""img/1to2/11.png"",""time"":1091},{""stimulus"":""img/1to2/12.png"",""time"":1191}]","[]"
"image-keyboard-response","26","141602","0.0-5.0-1.11","63dc7b5bf451a34177b66c66","bdp_cybrbll","Sat Mar 25 2023 02:51:54 GMT-0400 (Eastern Daylight Time)","523054","3","1","","209","","","","choice","","img/2to1/1.png","2","214","189","0.5","0.5","2","3","",""
"animation","27","142891","0.0-5.0-2.11","63dc7b5bf451a34177b66c66","bdp_cybrbll","Sat Mar 25 2023 02:51:54 GMT-0400 (Eastern Daylight Time)","523054","3","1","","","","","","","","","","214","","","","2","3","[{""stimulus"":""img/2to3/1.png"",""time"":111},{""stimulus"":""img/2to3/2.png"",""time"":200},{""stimulus"":""img/2to3/3.png"",""time"":311},{""stimulus"":""img/2to3/4.png"",""time"":406},{""stimulus"":""img/2to3/5.png"",""time"":502},{""stimulus"":""img/2to3/6.png"",""time"":605},{""stimulus"":""img/2to3/7.png"",""time"":706},{""stimulus"":""img/2to3/8.png"",""time"":805},{""stimulus"":""img/2to3/9.png"",""time"":906},{""stimulus"":""img/2to3/10.png"",""time"":1006},{""stimulus"":""img/2to3/11.png"",""time"":1090},{""stimulus"":""img/2to3/12.png"",""time"":1189}]","[]"
"image-keyboard-response","28","143202","0.0-5.0-1.12","63dc7b5bf451a34177b66c66","bdp_cybrbll","Sat Mar 25 2023 02:51:54 GMT-0400 (Eastern Daylight Time)","523054","3","1","","null","","","","observe","","img/3to2/1.png","null","213","303","0.5","0.5","3","1","",""
"animation","29","144490","0.0-5.0-2.12","63dc7b5bf451a34177b66c66","bdp_cybrbll","Sat Mar 25 2023 02:51:54 GMT-0400 (Eastern Daylight Time)","523054","3","1","","","","","","","","","","213","","","","3","1","[{""stimulus"":""img/3to1/1.png"",""time"":110},{""stimulus"":""img/3to1/2.png"",""time"":213},{""stimulus"":""img/3to1/3.png"",""time"":309},{""stimulus"":""img/3to1/4.png"",""time"":406},{""stimulus"":""img/3to1/5.png"",""time"":505},{""stimulus"":""img/3to1/6.png"",""time"":605},{""stimulus"":""img/3to1/7.png"",""time"":705},{""stimulus"":""img/3to1/8.png"",""time"":805},{""stimulus"":""img/3to1/9.png"",""time"":905},{""stimulus"":""img/3to1/10.png"",""time"":1005},{""stimulus"":""img/3to1/11.png"",""time"":1105},{""stimulus"":""img/3to1/12.png"",""time"":1189}]","[]"
"image-keyboard-response","30","145160","0.0-5.0-1.13","63dc7b5bf451a34177b66c66","bdp_cybrbll","Sat Mar 25 2023 02:51:54 GMT-0400 (Eastern Daylight Time)","523054","3","1","","null","","","","observe","","img/1to3/1.png","null","212","668","0.5","0.5","1","3","",""
"animation","31","146463","0.0-5.0-2.13","63dc7b5bf451a34177b66c66","bdp_cybrbll","Sat Mar 25 2023 02:51:54 GMT-0400 (Eastern Daylight Time)","523054","3","1","","","","","","","","","","212","","","","1","3","[{""stimulus"":""img/1to3/1.png"",""time"":103},{""stimulus"":""img/1to3/2.png"",""time"":213},{""stimulus"":""img/1to3/3.png"",""time"":309},{""stimulus"":""img/1to3/4.png"",""time"":404},{""stimulus"":""img/1to3/5.png"",""time"":504},{""stimulus"":""img/1to3/6.png"",""time"":604},{""stimulus"":""img/1to3/7.png"",""time"":704},{""stimulus"":""img/1to3/8.png"",""time"":804},{""stimulus"":""img/1to3/9.png"",""time"":904},{""stimulus"":""img/1to3/10.png"",""time"":1004},{""stimulus"":""img/1to3/11.png"",""time"":1103},{""stimulus"":""img/1to3/12.png"",""time"":1203}]","[]"
"image-keyboard-response","32","146855","0.0-5.0-1.14","63dc7b5bf451a34177b66c66","bdp_cybrbll","Sat Mar 25 2023 02:51:54 GMT-0400 (Eastern Daylight Time)","523054","3","1","","null","","","","observe","","img/3to2/1.png","null","211","388","0.5","0.5","3","1","",""
"animation","33","148153","0.0-5.0-2.14","63dc7b5bf451a34177b66c66","bdp_cybrbll","Sat Mar 25 2023 02:51:54 GMT-0400 (Eastern Daylight Time)","523054","3","1","","","","","","","","","","211","","","","3","1","[{""stimulus"":""img/3to1/1.png"",""time"":110},{""stimulus"":""img/3to1/2.png"",""time"":213},{""stimulus"":""img/3to1/3.png"",""time"":300},{""stimulus"":""img/3to1/4.png"",""time"":399},{""stimulus"":""img/3to1/5.png"",""time"":507},{""stimulus"":""img/3to1/6.png"",""time"":602},{""stimulus"":""img/3to1/7.png"",""time"":698},{""stimulus"":""img/3to1/8.png"",""time"":799},{""stimulus"":""img/3to1/9.png"",""time"":898},{""stimulus"":""img/3to1/10.png"",""time"":998},{""stimulus"":""img/3to1/11.png"",""time"":1098},{""stimulus"":""img/3to1/12.png"",""time"":1198}]","[]"
"image-keyboard-response","34","148745","0.0-5.0-1.15","63dc7b5bf451a34177b66c66","bdp_cybrbll","Sat Mar 25 2023 02:51:54 GMT-0400 (Eastern Daylight Time)","523054","3","1","","null","","","","observe","","img/1to3/1.png","null","210","579","0.5","0.5","1","2","",""
"animation","35","150034","0.0-5.0-2.15","63dc7b5bf451a34177b66c66","bdp_cybrbll","Sat Mar 25 2023 02:51:54 GMT-0400 (Eastern Daylight Time)","523054","3","1","","","","","","","","","","210","","","","1","2","[{""stimulus"":""img/1to2/1.png"",""time"":109},{""stimulus"":""img/1to2/2.png"",""time"":198},{""stimulus"":""img/1to2/3.png"",""time"":309},{""stimulus"":""img/1to2/4.png"",""time"":406},{""stimulus"":""img/1to2/5.png"",""time"":506},{""stimulus"":""img/1to2/6.png"",""time"":606},{""stimulus"":""img/1to2/7.png"",""time"":706},{""stimulus"":""img/1to2/8.png"",""time"":805},{""stimulus"":""img/1to2/9.png"",""time"":905},{""stimulus"":""img/1to2/10.png"",""time"":1005},{""stimulus"":""img/1to2/11.png"",""time"":1098},{""stimulus"":""img/1to2/12.png"",""time"":1193}]","[]"
"image-keyboard-response","36","150757","0.0-5.0-1.16","63dc7b5bf451a34177b66c66","bdp_cybrbll","Sat Mar 25 2023 02:51:54 GMT-0400 (Eastern Daylight Time)","523054","3","1","","722","","","","choice","","img/2to1/1.png","2","209","242","0.5","0.5","2","3","",""
"animation","37","152049","0.0-5.0-2.16","63dc7b5bf451a34177b66c66","bdp_cybrbll","Sat Mar 25 2023 02:51:54 GMT-0400 (Eastern Daylight Time)","523054","3","1","","","","","","","","","","209","","","","2","3","[{""stimulus"":""img/2to3/1.png"",""time"":112},{""stimulus"":""img/2to3/2.png"",""time"":201},{""stimulus"":""img/2to3/3.png"",""time"":312},{""stimulus"":""img/2to3/4.png"",""time"":409},{""stimulus"":""img/2to3/5.png"",""time"":509},{""stimulus"":""img/2to3/6.png"",""time"":608},{""stimulus"":""img/2to3/7.png"",""time"":708},{""stimulus"":""img/2to3/8.png"",""time"":793},{""stimulus"":""img/2to3/9.png"",""time"":892},{""stimulus"":""img/2to3/10.png"",""time"":991},{""stimulus"":""img/2to3/11.png"",""time"":1091},{""stimulus"":""img/2to3/12.png"",""time"":1191}]","[]"
"image-keyboard-response","38","152563","0.0-5.0-1.17","63dc7b5bf451a34177b66c66","bdp_cybrbll","Sat Mar 25 2023 02:51:54 GMT-0400 (Eastern Daylight Time)","523054","3","1","","null","","","","observe","","img/3to2/1.png","null","208","498","0.5","0.5","3","1","",""
"animation","39","153864","0.0-5.0-2.17","63dc7b5bf451a34177b66c66","bdp_cybrbll","Sat Mar 25 2023 02:51:54 GMT-0400 (Eastern Daylight Time)","523054","3","1","","","","","","","","","","208","","","","3","1","[{""stimulus"":""img/3to1/1.png"",""time"":110},{""stimulus"":""img/3to1/2.png"",""time"":205},{""stimulus"":""img/3to1/3.png"",""time"":302},{""stimulus"":""img/3to1/4.png"",""time"":402},{""stimulus"":""img/3to1/5.png"",""time"":502},{""stimulus"":""img/3to1/6.png"",""time"":602},{""stimulus"":""img/3to1/7.png"",""time"":702},{""stimulus"":""img/3to1/8.png"",""time"":801},{""stimulus"":""img/3to1/9.png"",""time"":902},{""stimulus"":""img/3to1/10.png"",""time"":1001},{""stimulus"":""img/3to1/11.png"",""time"":1101},{""stimulus"":""img/3to1/12.png"",""time"":1201}]","[]"
"image-keyboard-response","40","154096","0.0-5.0-1.18","63dc7b5bf451a34177b66c66","bdp_cybrbll","Sat Mar 25 2023 02:51:54 GMT-0400 (Eastern Daylight Time)","523054","3","1","","null","","","","observe","","img/1to3/1.png","null","207","229","0.5","0.5","1","2","",""
"animation","41","155395","0.0-5.0-2.18","63dc7b5bf451a34177b66c66","bdp_cybrbll","Sat Mar 25 2023 02:51:54 GMT-0400 (Eastern Daylight Time)","523054","3","1","","","","","","","","","","207","","","","1","2","[{""stimulus"":""img/1to2/1.png"",""time"":109},{""stimulus"":""img/1to2/2.png"",""time"":212},{""stimulus"":""img/1to2/3.png"",""time"":300},{""stimulus"":""img/1to2/4.png"",""time"":400},{""stimulus"":""img/1to2/5.png"",""time"":499},{""stimulus"":""img/1to2/6.png"",""time"":600},{""stimulus"":""img/1to2/7.png"",""time"":700},{""stimulus"":""img/1to2/8.png"",""time"":799},{""stimulus"":""img/1to2/9.png"",""time"":899},{""stimulus"":""img/1to2/10.png"",""time"":999},{""stimulus"":""img/1to2/11.png"",""time"":1099},{""stimulus"":""img/1to2/12.png"",""time"":1199}]","[]"
"image-keyboard-response","42","155713","0.0-5.0-1.19","63dc7b5bf451a34177b66c66","bdp_cybrbll","Sat Mar 25 2023 02:51:54 GMT-0400 (Eastern Daylight Time)","523054","3","1","","317","","","","choice","","img/2to1/1.png","2","206","1257","0.5","0.5","2","3","",""
"animation","43","157010","0.0-5.0-2.19","63dc7b5bf451a34177b66c66","bdp_cybrbll","Sat Mar 25 2023 02:51:54 GMT-0400 (Eastern Daylight Time)","523054","3","1","","","","","","","","","","206","","","","2","3","[{""stimulus"":""img/2to3/1.png"",""time"":104},{""stimulus"":""img/2to3/2.png"",""time"":207},{""stimulus"":""img/2to3/3.png"",""time"":302},{""stimulus"":""img/2to3/4.png"",""time"":398},{""stimulus"":""img/2to3/5.png"",""time"":497},{""stimulus"":""img/2to3/6.png"",""time"":598},{""stimulus"":""img/2to3/7.png"",""time"":697},{""stimulus"":""img/2to3/8.png"",""time"":797},{""stimulus"":""img/2to3/9.png"",""time"":898},{""stimulus"":""img/2to3/10.png"",""time"":997},{""stimulus"":""img/2to3/11.png"",""time"":1098},{""stimulus"":""img/2to3/12.png"",""time"":1197}]","[]"
"image-keyboard-response","44","157306","0.0-5.0-1.20","63dc7b5bf451a34177b66c66","bdp_cybrbll","Sat Mar 25 2023 02:51:54 GMT-0400 (Eastern Daylight Time)","523054","3","1","","null","","","","observe","","img/3to2/1.png","null","205","280","0.5","0.5","3","2","",""
"animation","45","158593","0.0-5.0-2.20","63dc7b5bf451a34177b66c66","bdp_cybrbll","Sat Mar 25 2023 02:51:54 GMT-0400 (Eastern Daylight Time)","523054","3","1","","","","","","","","","","205","","","","3","2","[{""stimulus"":""img/3to2/1.png"",""time"":110},{""stimulus"":""img/3to2/2.png"",""time"":212},{""stimulus"":""img/3to2/3.png"",""time"":307},{""stimulus"":""img/3to2/4.png"",""time"":404},{""stimulus"":""img/3to2/5.png"",""time"":504},{""stimulus"":""img/3to2/6.png"",""time"":604},{""stimulus"":""img/3to2/7.png"",""time"":704},{""stimulus"":""img/3to2/8.png"",""time"":804},{""stimulus"":""img/3to2/9.png"",""time"":904},{""stimulus"":""img/3to2/10.png"",""time"":1004},{""stimulus"":""img/3to2/11.png"",""time"":1103},{""stimulus"":""img/3to2/12.png"",""time"":1204}]","[]"
"image-keyboard-response","46","159011","0.0-5.0-1.21","63dc7b5bf451a34177b66c66","bdp_cybrbll","Sat Mar 25 2023 02:51:54 GMT-0400 (Eastern Daylight Time)","523054","3","1","","417","","","","choice","","img/2to1/1.png","1","204","609","0.5","0.5","2","1","",""
"animation","47","160307","0.0-5.0-2.21","63dc7b5bf451a34177b66c66","bdp_cybrbll","Sat Mar 25 2023 02:51:54 GMT-0400 (Eastern Daylight Time)","523054","3","1","","","","","","","","","","204","","","","2","1","[{""stimulus"":""img/2to1/1.png"",""time"":103},{""stimulus"":""img/2to1/2.png"",""time"":199},{""stimulus"":""img/2to1/3.png"",""time"":312},{""stimulus"":""img/2to1/4.png"",""time"":398},{""stimulus"":""img/2to1/5.png"",""time"":496},{""stimulus"":""img/2to1/6.png"",""time"":596},{""stimulus"":""img/2to1/7.png"",""time"":696},{""stimulus"":""img/2to1/8.png"",""time"":796},{""stimulus"":""img/2to1/9.png"",""time"":896},{""stimulus"":""img/2to1/10.png"",""time"":996},{""stimulus"":""img/2to1/11.png"",""time"":1096},{""stimulus"":""img/2to1/12.png"",""time"":1196}]","[]"
"image-keyboard-response","48","160587","0.0-5.0-1.22","63dc7b5bf451a34177b66c66","bdp_cybrbll","Sat Mar 25 2023 02:51:54 GMT-0400 (Eastern Daylight Time)","523054","3","1","","null","","","","observe","","img/1to3/1.png","null","203","276","0.5","0.5","1","3","",""
"animation","49","161889","0.0-5.0-2.22","63dc7b5bf451a34177b66c66","bdp_cybrbll","Sat Mar 25 2023 02:51:54 GMT-0400 (Eastern Daylight Time)","523054","3","1","","","","","","","","","","203","","","","1","3","[{""stimulus"":""img/1to3/1.png"",""time"":110},{""stimulus"":""img/1to3/2.png"",""time"":212},{""stimulus"":""img/1to3/3.png"",""time"":308},{""stimulus"":""img/1to3/4.png"",""time"":403},{""stimulus"":""img/1to3/5.png"",""time"":503},{""stimulus"":""img/1to3/6.png"",""time"":603},{""stimulus"":""img/1to3/7.png"",""time"":703},{""stimulus"":""img/1to3/8.png"",""time"":803},{""stimulus"":""img/1to3/9.png"",""time"":903},{""stimulus"":""img/1to3/10.png"",""time"":1003},{""stimulus"":""img/1to3/11.png"",""time"":1103},{""stimulus"":""img/1to3/12.png"",""time"":1202}]","[]"
"image-keyboard-response","50","162528","0.0-5.0-1.23","63dc7b5bf451a34177b66c66","bdp_cybrbll","Sat Mar 25 2023 02:51:54 GMT-0400 (Eastern Daylight Time)","523054","3","1","","null","","","","observe","","img/3to2/1.png","null","202","627","0.5","0.5","3","2","",""
"animation","51","163820","0.0-5.0-2.23","63dc7b5bf451a34177b66c66","bdp_cybrbll","Sat Mar 25 2023 02:51:54 GMT-0400 (Eastern Daylight Time)","523054","3","1","","","","","","","","","","202","","","","3","2","[{""stimulus"":""img/3to2/1.png"",""time"":110},{""stimulus"":""img/3to2/2.png"",""time"":203},{""stimulus"":""img/3to2/3.png"",""time"":298},{""stimulus"":""img/3to2/4.png"",""time"":409},{""stimulus"":""img/3to2/5.png"",""time"":510},{""stimulus"":""img/3to2/6.png"",""time"":595},{""stimulus"":""img/3to2/7.png"",""time"":709},{""stimulus"":""img/3to2/8.png"",""time"":794},{""stimulus"":""img/3to2/9.png"",""time"":893},{""stimulus"":""img/3to2/10.png"",""time"":993},{""stimulus"":""img/3to2/11.png"",""time"":1093},{""stimulus"":""img/3to2/12.png"",""time"":1193}]","[]"
"image-keyboard-response","52","163952","0.0-5.0-1.24","63dc7b5bf451a34177b66c66","bdp_cybrbll","Sat Mar 25 2023 02:51:54 GMT-0400 (Eastern Daylight Time)","523054","3","1","","130","","","","choice","","img/2to1/1.png","1","201","410","0.5","0.5","2","1","",""
"animation","53","165252","0.0-5.0-2.24","63dc7b5bf451a34177b66c66","bdp_cybrbll","Sat Mar 25 2023 02:51:54 GMT-0400 (Eastern Daylight Time)","523054","3","1","","","","","","","","","","201","","","","2","1","[{""stimulus"":""img/2to1/1.png"",""time"":103},{""stimulus"":""img/2to1/2.png"",""time"":210},{""stimulus"":""img/2to1/3.png"",""time"":305},{""stimulus"":""img/2to1/4.png"",""time"":401},{""stimulus"":""img/2to1/5.png"",""time"":501},{""stimulus"":""img/2to1/6.png"",""time"":601},{""stimulus"":""img/2to1/7.png"",""time"":701},{""stimulus"":""img/2to1/8.png"",""time"":801},{""stimulus"":""img/2to1/9.png"",""time"":901},{""stimulus"":""img/2to1/10.png"",""time"":1001},{""stimulus"":""img/2to1/11.png"",""time"":1101},{""stimulus"":""img/2to1/12.png"",""time"":1201}]","[]"
"image-keyboard-response","54","165751","0.0-5.0-1.25","63dc7b5bf451a34177b66c66","bdp_cybrbll","Sat Mar 25 2023 02:51:54 GMT-0400 (Eastern Daylight Time)","523054","3","1","","null","","","","observe","","img/1to3/1.png","null","200","483","0.5","0.5","1","3","",""
"animation","55","167050","0.0-5.0-2.25","63dc7b5bf451a34177b66c66","bdp_cybrbll","Sat Mar 25 2023 02:51:54 GMT-0400 (Eastern Daylight Time)","523054","3","1","","","","","","","","","","200","","","","1","3","[{""stimulus"":""img/1to3/1.png"",""time"":110},{""stimulus"":""img/1to3/2.png"",""time"":205},{""stimulus"":""img/1to3/3.png"",""time"":301},{""stimulus"":""img/1to3/4.png"",""time"":401},{""stimulus"":""img/1to3/5.png"",""time"":501},{""stimulus"":""img/1to3/6.png"",""time"":600},{""stimulus"":""img/1to3/7.png"",""time"":700},{""stimulus"":""img/1to3/8.png"",""time"":800},{""stimulus"":""img/1to3/9.png"",""time"":901},{""stimulus"":""img/1to3/10.png"",""time"":1000},{""stimulus"":""img/1to3/11.png"",""time"":1100},{""stimulus"":""img/1to3/12.png"",""time"":1200}]","[]"
"image-keyboard-response","56","167784","0.0-5.0-1.26","63dc7b5bf451a34177b66c66","bdp_cybrbll","Sat Mar 25 2023 02:51:54 GMT-0400 (Eastern Daylight Time)","523054","3","1","","null","","","","observe","","img/3to2/1.png","null","199","727","0.5","0.5","3","2","",""
"animation","57","169082","0.0-5.0-2.26","63dc7b5bf451a34177b66c66","bdp_cybrbll","Sat Mar 25 2023 02:51:54 GMT-0400 (Eastern Daylight Time)","523054","3","1","","","","","","","","","","199","","","","3","2","[{""stimulus"":""img/3to2/1.png"",""time"":109},{""stimulus"":""img/3to2/2.png"",""time"":213},{""stimulus"":""img/3to2/3.png"",""time"":300},{""stimulus"":""img/3to2/4.png"",""time"":399},{""stimulus"":""img/3to2/5.png"",""time"":499},{""stimulus"":""img/3to2/6.png"",""time"":599},{""stimulus"":""img/3to2/7.png"",""time"":699},{""stimulus"":""img/3to2/8.png"",""time"":799},{""stimulus"":""img/3to2/9.png"",""time"":899},{""stimulus"":""img/3to2/10.png"",""time"":998},{""stimulus"":""img/3to2/11.png"",""time"":1099},{""stimulus"":""img/3to2/12.png"",""time"":1198}]","[]"
"image-keyboard-response","58","169471","0.0-5.0-1.27","63dc7b5bf451a34177b66c66","bdp_cybrbll","Sat Mar 25 2023 02:51:54 GMT-0400 (Eastern Daylight Time)","523054","3","1","","388","","","","choice","","img/2to1/1.png","1","198","439","0.5","0.5","2","1","",""
"animation","59","170763","0.0-5.0-2.27","63dc7b5bf451a34177b66c66","bdp_cybrbll","Sat Mar 25 2023 02:51:54 GMT-0400 (Eastern Daylight Time)","523054","3","1","","","","","","","","","","198","","","","2","1","[{""stimulus"":""img/2to1/1.png"",""time"":111},{""stimulus"":""img/2to1/2.png"",""time"":203},{""stimulus"":""img/2to1/3.png"",""time"":314},{""stimulus"":""img/2to1/4.png"",""time"":410},{""stimulus"":""img/2to1/5.png"",""time"":510},{""stimulus"":""img/2to1/6.png"",""time"":595},{""stimulus"":""img/2to1/7.png"",""time"":709},{""stimulus"":""img/2to1/8.png"",""time"":794},{""stimulus"":""img/2to1/9.png"",""time"":895},{""stimulus"":""img/2to1/10.png"",""time"":993},{""stimulus"":""img/2to1/11.png"",""time"":1093},{""stimulus"":""img/2to1/12.png"",""time"":1193}]","[]"
"image-keyboard-response","60","172281","0.0-5.0-1.28","63dc7b5bf451a34177b66c66","bdp_cybrbll","Sat Mar 25 2023 02:51:54 GMT-0400 (Eastern Daylight Time)","523054","3","1","","null","","","","observe","","img/1to3/1.png","null","197","1509","0.5","0.5","1","3","",""
"animation","61","173577","0.0-5.0-2.28","63dc7b5bf451a34177b66c66","bdp_cybrbll","Sat Mar 25 2023 02:51:54 GMT-0400 (Eastern Daylight Time)","523054","3","1","","","","","","","","","","197","","","","1","3","[{""stimulus"":""img/1to3/1.png"",""time"":110},{""stimulus"":""img/1to3/2.png"",""time"":205},{""stimulus"":""img/1to3/3.png"",""time"":300},{""stimulus"":""img/1to3/4.png"",""time"":398},{""stimulus"":""img/1to3/5.png"",""time"":498},{""stimulus"":""img/1to3/6.png"",""time"":606},{""stimulus"":""img/1to3/7.png"",""time"":701},{""stimulus"":""img/1to3/8.png"",""time"":797},{""stimulus"":""img/1to3/9.png"",""time"":897},{""stimulus"":""img/1to3/10.png"",""time"":997},{""stimulus"":""img/1to3/11.png"",""time"":1097},{""stimulus"":""img/1to3/12.png"",""time"":1197}]","[]"
"image-keyboard-response","62","174138","0.0-5.0-1.29","63dc7b5bf451a34177b66c66","bdp_cybrbll","Sat Mar 25 2023 02:51:54 GMT-0400 (Eastern Daylight Time)","523054","3","1","","null","","","","observe","","img/3to2/1.png","null","196","550","0.5","0.5","3","1","",""
"animation","63","175426","0.0-5.0-2.29","63dc7b5bf451a34177b66c66","bdp_cybrbll","Sat Mar 25 2023 02:51:54 GMT-0400 (Eastern Daylight Time)","523054","3","1","","","","","","","","","","196","","","","3","1","[{""stimulus"":""img/3to1/1.png"",""time"":110},{""stimulus"":""img/3to1/2.png"",""time"":213},{""stimulus"":""img/3to1/3.png"",""time"":309},{""stimulus"":""img/3to1/4.png"",""time"":405},{""stimulus"":""img/3to1/5.png"",""time"":505},{""stimulus"":""img/3to1/6.png"",""time"":605},{""stimulus"":""img/3to1/7.png"",""time"":705},{""stimulus"":""img/3to1/8.png"",""time"":805},{""stimulus"":""img/3to1/9.png"",""time"":905},{""stimulus"":""img/3to1/10.png"",""time"":1005},{""stimulus"":""img/3to1/11.png"",""time"":1105},{""stimulus"":""img/3to1/12.png"",""time"":1205}]","[]"
"image-keyboard-response","64","175846","0.0-5.0-1.30","63dc7b5bf451a34177b66c66","bdp_cybrbll","Sat Mar 25 2023 02:51:54 GMT-0400 (Eastern Daylight Time)","523054","3","1","","null","","","","observe","","img/1to3/1.png","null","195","413","0.5","0.5","1","3","",""
"animation","65","177140","0.0-5.0-2.30","63dc7b5bf451a34177b66c66","bdp_cybrbll","Sat Mar 25 2023 02:51:54 GMT-0400 (Eastern Daylight Time)","523054","3","1","","","","","","","","","","195","","","","1","3","[{""stimulus"":""img/1to3/1.png"",""time"":110},{""stimulus"":""img/1to3/2.png"",""time"":205},{""stimulus"":""img/1to3/3.png"",""time"":300},{""stimulus"":""img/1to3/4.png"",""time"":411},{""stimulus"":""img/1to3/5.png"",""time"":497},{""stimulus"":""img/1to3/6.png"",""time"":595},{""stimulus"":""img/1to3/7.png"",""time"":695},{""stimulus"":""img/1to3/8.png"",""time"":796},{""stimulus"":""img/1to3/9.png"",""time"":895},{""stimulus"":""img/1to3/10.png"",""time"":995},{""stimulus"":""img/1to3/11.png"",""time"":1095},{""stimulus"":""img/1to3/12.png"",""time"":1195}]","[]"
"image-keyboard-response","66","177670","0.0-5.0-1.31","63dc7b5bf451a34177b66c66","bdp_cybrbll","Sat Mar 25 2023 02:51:54 GMT-0400 (Eastern Daylight Time)","523054","3","1","","null","","","","observe","","img/3to2/1.png","null","194","515","0.5","0.5","3","2","",""
"animation","67","178972","0.0-5.0-2.31","63dc7b5bf451a34177b66c66","bdp_cybrbll","Sat Mar 25 2023 02:51:54 GMT-0400 (Eastern Daylight Time)","523054","3","1","","","","","","","","","","194","","","","3","2","[{""stimulus"":""img/3to2/1.png"",""time"":111},{""stimulus"":""img/3to2/2.png"",""time"":206},{""stimulus"":""img/3to2/3.png"",""time"":303},{""stimulus"":""img/3to2/4.png"",""time"":403},{""stimulus"":""img/3to2/5.png"",""time"":503},{""stimulus"":""img/3to2/6.png"",""time"":603},{""stimulus"":""img/3to2/7.png"",""time"":703},{""stimulus"":""img/3to2/8.png"",""time"":803},{""stimulus"":""img/3to2/9.png"",""time"":903},{""stimulus"":""img/3to2/10.png"",""time"":1002},{""stimulus"":""img/3to2/11.png"",""time"":1102},{""stimulus"":""img/3to2/12.png"",""time"":1202}]","[]"
"image-keyboard-response","68","178997","0.0-5.0-1.32","63dc7b5bf451a34177b66c66","bdp_cybrbll","Sat Mar 25 2023 02:51:54 GMT-0400 (Eastern Daylight Time)","523054","3","1","","24","","","","choice","","img/2to1/1.png","1","193","413","0.5","0.5","2","1","",""
"animation","69","180287","0.0-5.0-2.32","63dc7b5bf451a34177b66c66","bdp_cybrbll","Sat Mar 25 2023 02:51:54 GMT-0400 (Eastern Daylight Time)","523054","3","1","","","","","","","","","","193","","","","2","1","[{""stimulus"":""img/2to1/1.png"",""time"":114},{""stimulus"":""img/2to1/2.png"",""time"":201},{""stimulus"":""img/2to1/3.png"",""time"":312},{""stimulus"":""img/2to1/4.png"",""time"":408},{""stimulus"":""img/2to1/5.png"",""time"":507},{""stimulus"":""img/2to1/6.png"",""time"":607},{""stimulus"":""img/2to1/7.png"",""time"":707},{""stimulus"":""img/2to1/8.png"",""time"":807},{""stimulus"":""img/2to1/9.png"",""time"":892},{""stimulus"":""img/2to1/10.png"",""time"":990},{""stimulus"":""img/2to1/11.png"",""time"":1090},{""stimulus"":""img/2to1/12.png"",""time"":1190}]","[]"
"image-keyboard-response","70","180614","0.0-5.0-1.33","63dc7b5bf451a34177b66c66","bdp_cybrbll","Sat Mar 25 2023 02:51:54 GMT-0400 (Eastern Daylight Time)","523054","3","1","","null","","","","observe","","img/1to3/1.png","null","192","317","0.5","0.5","1","3","",""
"animation","71","181915","0.0-5.0-2.33","63dc7b5bf451a34177b66c66","bdp_cybrbll","Sat Mar 25 2023 02:51:54 GMT-0400 (Eastern Daylight Time)","523054","3","1","","","","","","","","","","192","","","","1","3","[{""stimulus"":""img/1to3/1.png"",""time"":109},{""stimulus"":""img/1to3/2.png"",""time"":213},{""stimulus"":""img/1to3/3.png"",""time"":309},{""stimulus"":""img/1to3/4.png"",""time"":405},{""stimulus"":""img/1to3/5.png"",""time"":505},{""stimulus"":""img/1to3/6.png"",""time"":605},{""stimulus"":""img/1to3/7.png"",""time"":706},{""stimulus"":""img/1to3/8.png"",""time"":805},{""stimulus"":""img/1to3/9.png"",""time"":918},{""stimulus"":""img/1to3/10.png"",""time"":1018},{""stimulus"":""img/1to3/11.png"",""time"":1118},{""stimulus"":""img/1to3/12.png"",""time"":1202}]","[]"
"image-keyboard-response","72","182273","0.0-5.0-1.34","63dc7b5bf451a34177b66c66","bdp_cybrbll","Sat Mar 25 2023 02:51:54 GMT-0400 (Eastern Daylight Time)","523054","3","1","","null","","","","observe","","img/3to2/1.png","null","191","346","0.5","0.5","3","2","",""
"animation","73","183564","0.0-5.0-2.34","63dc7b5bf451a34177b66c66","bdp_cybrbll","Sat Mar 25 2023 02:51:54 GMT-0400 (Eastern Daylight Time)","523054","3","1","","","","","","","","","","191","","","","3","2","[{""stimulus"":""img/3to2/1.png"",""time"":109},{""stimulus"":""img/3to2/2.png"",""time"":200},{""stimulus"":""img/3to2/3.png"",""time"":311},{""stimulus"":""img/3to2/4.png"",""time"":408},{""stimulus"":""img/3to2/5.png"",""time"":508},{""stimulus"":""img/3to2/6.png"",""time"":608},{""stimulus"":""img/3to2/7.png"",""time"":708},{""stimulus"":""img/3to2/8.png"",""time"":807},{""stimulus"":""img/3to2/9.png"",""time"":892},{""stimulus"":""img/3to2/10.png"",""time"":991},{""stimulus"":""img/3to2/11.png"",""time"":1091},{""stimulus"":""img/3to2/12.png"",""time"":1190}]","[]"
"image-keyboard-response","74","183944","0.0-5.0-1.35","63dc7b5bf451a34177b66c66","bdp_cybrbll","Sat Mar 25 2023 02:51:54 GMT-0400 (Eastern Daylight Time)","523054","3","1","","378","","","","choice","","img/2to1/1.png","1","190","488","0.5","0.5","2","1","",""
"animation","75","185245","0.0-5.0-2.35","63dc7b5bf451a34177b66c66","bdp_cybrbll","Sat Mar 25 2023 02:51:54 GMT-0400 (Eastern Daylight Time)","523054","3","1","","","","","","","","","","190","","","","2","1","[{""stimulus"":""img/2to1/1.png"",""time"":105},{""stimulus"":""img/2to1/2.png"",""time"":212},{""stimulus"":""img/2to1/3.png"",""time"":306},{""stimulus"":""img/2to1/4.png"",""time"":403},{""stimulus"":""img/2to1/5.png"",""time"":503},{""stimulus"":""img/2to1/6.png"",""time"":603},{""stimulus"":""img/2to1/7.png"",""time"":702},{""stimulus"":""img/2to1/8.png"",""time"":802},{""stimulus"":""img/2to1/9.png"",""time"":902},{""stimulus"":""img/2to1/10.png"",""time"":1002},{""stimulus"":""img/2to1/11.png"",""time"":1102},{""stimulus"":""img/2to1/12.png"",""time"":1202}]","[]"
"image-keyboard-response","76","185964","0.0-5.0-1.36","63dc7b5bf451a34177b66c66","bdp_cybrbll","Sat Mar 25 2023 02:51:54 GMT-0400 (Eastern Daylight Time)","523054","3","1","","null","","","","observe","","img/1to3/1.png","null","189","703","0.5","0.5","1","2","",""
"animation","77","187260","0.0-5.0-2.36","63dc7b5bf451a34177b66c66","bdp_cybrbll","Sat Mar 25 2023 02:51:54 GMT-0400 (Eastern Daylight Time)","523054","3","1","","","","","","","","","","189","","","","1","2","[{""stimulus"":""img/1to2/1.png"",""time"":109},{""stimulus"":""img/1to2/2.png"",""time"":204},{""stimulus"":""img/1to2/3.png"",""time"":307},{""stimulus"":""img/1to2/4.png"",""time"":402},{""stimulus"":""img/1to2/5.png"",""time"":497},{""stimulus"":""img/1to2/6.png"",""time"":599},{""stimulus"":""img/1to2/7.png"",""time"":697},{""stimulus"":""img/1to2/8.png"",""time"":797},{""stimulus"":""img/1to2/9.png"",""time"":906},{""stimulus"":""img/1to2/10.png"",""time"":1001},{""stimulus"":""img/1to2/11.png"",""time"":1097},{""stimulus"":""img/1to2/12.png"",""time"":1197}]","[]"
"image-keyboard-response","78","187534","0.0-5.0-1.37","63dc7b5bf451a34177b66c66","bdp_cybrbll","Sat Mar 25 2023 02:51:54 GMT-0400 (Eastern Daylight Time)","523054","3","1","","272","","","","choice","","img/2to1/1.png","2","188","974","0.5","0.5","2","3","",""
"animation","79","188825","0.0-5.0-2.37","63dc7b5bf451a34177b66c66","bdp_cybrbll","Sat Mar 25 2023 02:51:54 GMT-0400 (Eastern Daylight Time)","523054","3","1","","","","","","","","","","188","","","","2","3","[{""stimulus"":""img/2to3/1.png"",""time"":111},{""stimulus"":""img/2to3/2.png"",""time"":202},{""stimulus"":""img/2to3/3.png"",""time"":313},{""stimulus"":""img/2to3/4.png"",""time"":411},{""stimulus"":""img/2to3/5.png"",""time"":509},{""stimulus"":""img/2to3/6.png"",""time"":605},{""stimulus"":""img/2to3/7.png"",""time"":708},{""stimulus"":""img/2to3/8.png"",""time"":793},{""stimulus"":""img/2to3/9.png"",""time"":892},{""stimulus"":""img/2to3/10.png"",""time"":992},{""stimulus"":""img/2to3/11.png"",""time"":1092},{""stimulus"":""img/2to3/12.png"",""time"":1192}]","[]"
"image-keyboard-response","80","189574","0.0-5.0-1.38","63dc7b5bf451a34177b66c66","bdp_cybrbll","Sat Mar 25 2023 02:51:54 GMT-0400 (Eastern Daylight Time)","523054","3","1","","null","","","","observe","","img/3to2/1.png","null","187","736","0.5","0.5","3","2","",""
"animation","81","190873","0.0-5.0-2.38","63dc7b5bf451a34177b66c66","bdp_cybrbll","Sat Mar 25 2023 02:51:54 GMT-0400 (Eastern Daylight Time)","523054","3","1","","","","","","","","","","187","","","","3","2","[{""stimulus"":""img/3to2/1.png"",""time"":110},{""stimulus"":""img/3to2/2.png"",""time"":205},{""stimulus"":""img/3to2/3.png"",""time"":301},{""stimulus"":""img/3to2/4.png"",""time"":408},{""stimulus"":""img/3to2/5.png"",""time"":510},{""stimulus"":""img/3to2/6.png"",""time"":605},{""stimulus"":""img/3to2/7.png"",""time"":700},{""stimulus"":""img/3to2/8.png"",""time"":801},{""stimulus"":""img/3to2/9.png"",""time"":900},{""stimulus"":""img/3to2/10.png"",""time"":1000},{""stimulus"":""img/3to2/11.png"",""time"":1100},{""stimulus"":""img/3to2/12.png"",""time"":1200}]","[]"
"image-keyboard-response","82","192429","0.0-5.0-1.39","63dc7b5bf451a34177b66c66","bdp_cybrbll","Sat Mar 25 2023 02:51:54 GMT-0400 (Eastern Daylight Time)","523054","3","1","","1555","","","","choice","","img/2to1/1.png","1","186","262","0.5","0.5","2","1","",""
"animation","83","193720","0.0-5.0-2.39","63dc7b5bf451a34177b66c66","bdp_cybrbll","Sat Mar 25 2023 02:51:54 GMT-0400 (Eastern Daylight Time)","523054","3","1","","","","","","","","","","186","","","","2","1","[{""stimulus"":""img/2to1/1.png"",""time"":110},{""stimulus"":""img/2to1/2.png"",""time"":201},{""stimulus"":""img/2to1/3.png"",""time"":312},{""stimulus"":""img/2to1/4.png"",""time"":410},{""stimulus"":""img/2to1/5.png"",""time"":509},{""stimulus"":""img/2to1/6.png"",""time"":609},{""stimulus"":""img/2to1/7.png"",""time"":709},{""stimulus"":""img/2to1/8.png"",""time"":794},{""stimulus"":""img/2to1/9.png"",""time"":893},{""stimulus"":""img/2to1/10.png"",""time"":992},{""stimulus"":""img/2to1/11.png"",""time"":1093},{""stimulus"":""img/2to1/12.png"",""time"":1192}]","[]"
"image-keyboard-response","84","194156","0.0-5.0-1.40","63dc7b5bf451a34177b66c66","bdp_cybrbll","Sat Mar 25 2023 02:51:54 GMT-0400 (Eastern Daylight Time)","523054","3","1","","null","","","","observe","","img/1to3/1.png","null","185","431","0.5","0.5","1","3","",""
"animation","85","195452","0.0-5.0-2.40","63dc7b5bf451a34177b66c66","bdp_cybrbll","Sat Mar 25 2023 02:51:54 GMT-0400 (Eastern Daylight Time)","523054","3","1","","","","","","","","","","185","","","","1","3","[{""stimulus"":""img/1to3/1.png"",""time"":110},{""stimulus"":""img/1to3/2.png"",""time"":204},{""stimulus"":""img/1to3/3.png"",""time"":300},{""stimulus"":""img/1to3/4.png"",""time"":397},{""stimulus"":""img/1to3/5.png"",""time"":508},{""stimulus"":""img/1to3/6.png"",""time"":603},{""stimulus"":""img/1to3/7.png"",""time"":706},{""stimulus"":""img/1to3/8.png"",""time"":799},{""stimulus"":""img/1to3/9.png"",""time"":896},{""stimulus"":""img/1to3/10.png"",""time"":996},{""stimulus"":""img/1to3/11.png"",""time"":1096},{""stimulus"":""img/1to3/12.png"",""time"":1196}]","[]"
"image-keyboard-response","86","196044","0.0-5.0-1.41","63dc7b5bf451a34177b66c66","bdp_cybrbll","Sat Mar 25 2023 02:51:54 GMT-0400 (Eastern Daylight Time)","523054","3","1","","null","","","","observe","","img/3to2/1.png","null","184","584","0.5","0.5","3","1","",""
"animation","87","197334","0.0-5.0-2.41","63dc7b5bf451a34177b66c66","bdp_cybrbll","Sat Mar 25 2023 02:51:54 GMT-0400 (Eastern Daylight Time)","523054","3","1","","","","","","","","","","184","","","","3","1","[{""stimulus"":""img/3to1/1.png"",""time"":109},{""stimulus"":""img/3to1/2.png"",""time"":199},{""stimulus"":""img/3to1/3.png"",""time"":310},{""stimulus"":""img/3to1/4.png"",""time"":406},{""stimulus"":""img/3to1/5.png"",""time"":506},{""stimulus"":""img/3to1/6.png"",""time"":607},{""stimulus"":""img/3to1/7.png"",""time"":706},{""stimulus"":""img/3to1/8.png"",""time"":806},{""stimulus"":""img/3to1/9.png"",""time"":891},{""stimulus"":""img/3to1/10.png"",""time"":1005},{""stimulus"":""img/3to1/11.png"",""time"":1090},{""stimulus"":""img/3to1/12.png"",""time"":1189}]","[]"
"image-keyboard-response","88","198582","0.0-5.0-1.42","63dc7b5bf451a34177b66c66","bdp_cybrbll","Sat Mar 25 2023 02:51:54 GMT-0400 (Eastern Daylight Time)","523054","3","1","","null","","","","observe","","img/1to3/1.png","null","183","1236","0.5","0.5","1","2","",""
"animation","89","199881","0.0-5.0-2.42","63dc7b5bf451a34177b66c66","bdp_cybrbll","Sat Mar 25 2023 02:51:54 GMT-0400 (Eastern Daylight Time)","523054","3","1","","","","","","","","","","183","","","","1","2","[{""stimulus"":""img/1to2/1.png"",""time"":109},{""stimulus"":""img/1to2/2.png"",""time"":204},{""stimulus"":""img/1to2/3.png"",""time"":299},{""stimulus"":""img/1to2/4.png"",""time"":400},{""stimulus"":""img/1to2/5.png"",""time"":499},{""stimulus"":""img/1to2/6.png"",""time"":599},{""stimulus"":""img/1to2/7.png"",""time"":699},{""stimulus"":""img/1to2/8.png"",""time"":799},{""stimulus"":""img/1to2/9.png"",""time"":899},{""stimulus"":""img/1to2/10.png"",""time"":999},{""stimulus"":""img/1to2/11.png"",""time"":1099},{""stimulus"":""img/1to2/12.png"",""time"":1198}]","[]"
"image-keyboard-response","90","200148","0.0-5.0-1.43","63dc7b5bf451a34177b66c66","bdp_cybrbll","Sat Mar 25 2023 02:51:54 GMT-0400 (Eastern Daylight Time)","523054","3","1","","265","","","","choice","","img/2to1/1.png","2","182","401","0.5","0.5","2","3","",""
"animation","91","201446","0.0-5.0-2.43","63dc7b5bf451a34177b66c66","bdp_cybrbll","Sat Mar 25 2023 02:51:54 GMT-0400 (Eastern Daylight Time)","523054","3","1","","","","","","","","","","182","","","","2","3","[{""stimulus"":""img/2to3/1.png"",""time"":108},{""stimulus"":""img/2to3/2.png"",""time"":203},{""stimulus"":""img/2to3/3.png"",""time"":299},{""stimulus"":""img/2to3/4.png"",""time"":399},{""stimulus"":""img/2to3/5.png"",""time"":499},{""stimulus"":""img/2to3/6.png"",""time"":599},{""stimulus"":""img/2to3/7.png"",""time"":699},{""stimulus"":""img/2to3/8.png"",""time"":799},{""stimulus"":""img/2to3/9.png"",""time"":899},{""stimulus"":""img/2to3/10.png"",""time"":999},{""stimulus"":""img/2to3/11.png"",""time"":1099},{""stimulus"":""img/2to3/12.png"",""time"":1199}]","[]"
"image-keyboard-response","92","202071","0.0-5.0-1.44","63dc7b5bf451a34177b66c66","bdp_cybrbll","Sat Mar 25 2023 02:51:54 GMT-0400 (Eastern Daylight Time)","523054","3","1","","null","","","","observe","","img/3to2/1.png","null","181","616","0.5","0.5","3","2","",""
"animation","93","203361","0.0-5.0-2.44","63dc7b5bf451a34177b66c66","bdp_cybrbll","Sat Mar 25 2023 02:51:54 GMT-0400 (Eastern Daylight Time)","523054","3","1","","","","","","","","","","181","","","","3","2","[{""stimulus"":""img/3to2/1.png"",""time"":110},{""stimulus"":""img/3to2/2.png"",""time"":200},{""stimulus"":""img/3to2/3.png"",""time"":311},{""stimulus"":""img/3to2/4.png"",""time"":408},{""stimulus"":""img/3to2/5.png"",""time"":508},{""stimulus"":""img/3to2/6.png"",""time"":608},{""stimulus"":""img/3to2/7.png"",""time"":708},{""stimulus"":""img/3to2/8.png"",""time"":807},{""stimulus"":""img/3to2/9.png"",""time"":892},{""stimulus"":""img/3to2/10.png"",""time"":1007},{""stimulus"":""img/3to2/11.png"",""time"":1091},{""stimulus"":""img/3to2/12.png"",""time"":1190}]","[]"
"image-keyboard-response","94","203419","0.0-5.0-1.45","63dc7b5bf451a34177b66c66","bdp_cybrbll","Sat Mar 25 2023 02:51:54 GMT-0400 (Eastern Daylight Time)","523054","3","1","","56","","","","choice","","img/2to1/1.png","1","180","192","0.5","0.5","2","1","",""
"animation","95","204710","0.0-5.0-2.45","63dc7b5bf451a34177b66c66","bdp_cybrbll","Sat Mar 25 2023 02:51:54 GMT-0400 (Eastern Daylight Time)","523054","3","1","","","","","","","","","","180","","","","2","1","[{""stimulus"":""img/2to1/1.png"",""time"":114},{""stimulus"":""img/2to1/2.png"",""time"":201},{""stimulus"":""img/2to1/3.png"",""time"":312},{""stimulus"":""img/2to1/4.png"",""time"":408},{""stimulus"":""img/2to1/5.png"",""time"":526},{""stimulus"":""img/2to1/6.png"",""time"":609},{""stimulus"":""img/2to1/7.png"",""time"":708},{""stimulus"":""img/2to1/8.png"",""time"":793},{""stimulus"":""img/2to1/9.png"",""time"":907},{""stimulus"":""img/2to1/10.png"",""time"":992},{""stimulus"":""img/2to1/11.png"",""time"":1091},{""stimulus"":""img/2to1/12.png"",""time"":1192}]","[]"
"image-keyboard-response","96","205693","0.0-5.0-1.46","63dc7b5bf451a34177b66c66","bdp_cybrbll","Sat Mar 25 2023 02:51:54 GMT-0400 (Eastern Daylight Time)","523054","3","1","","null","","","","observe","","img/1to3/1.png","null","179","979","0.5","0.5","1","2","",""
"animation","97","206991","0.0-5.0-2.46","63dc7b5bf451a34177b66c66","bdp_cybrbll","Sat Mar 25 2023 02:51:54 GMT-0400 (Eastern Daylight Time)","523054","3","1","","","","","","","","","","179","","","","1","2","[{""stimulus"":""img/1to2/1.png"",""time"":109},{""stimulus"":""img/1to2/2.png"",""time"":213},{""stimulus"":""img/1to2/3.png"",""time"":300},{""stimulus"":""img/1to2/4.png"",""time"":399},{""stimulus"":""img/1to2/5.png"",""time"":499},{""stimulus"":""img/1to2/6.png"",""time"":599},{""stimulus"":""img/1to2/7.png"",""time"":699},{""stimulus"":""img/1to2/8.png"",""time"":798},{""stimulus"":""img/1to2/9.png"",""time"":899},{""stimulus"":""img/1to2/10.png"",""time"":999},{""stimulus"":""img/1to2/11.png"",""time"":1098},{""stimulus"":""img/1to2/12.png"",""time"":1198}]","[]"
"image-keyboard-response","98","207115","0.0-5.0-1.47","63dc7b5bf451a34177b66c66","bdp_cybrbll","Sat Mar 25 2023 02:51:54 GMT-0400 (Eastern Daylight Time)","523054","3","1","","123","","","","choice","","img/2to1/1.png","2","178","256","0.5","0.5","2","3","",""
"animation","99","208406","0.0-5.0-2.47","63dc7b5bf451a34177b66c66","bdp_cybrbll","Sat Mar 25 2023 02:51:54 GMT-0400 (Eastern Daylight Time)","523054","3","1","","","","","","","","","","178","","","","2","3","[{""stimulus"":""img/2to3/1.png"",""time"":109},{""stimulus"":""img/2to3/2.png"",""time"":200},{""stimulus"":""img/2to3/3.png"",""time"":311},{""stimulus"":""img/2to3/4.png"",""time"":408},{""stimulus"":""img/2to3/5.png"",""time"":508},{""stimulus"":""img/2to3/6.png"",""time"":608},{""stimulus"":""img/2to3/7.png"",""time"":707},{""stimulus"":""img/2to3/8.png"",""time"":800},{""stimulus"":""img/2to3/9.png"",""time"":895},{""stimulus"":""img/2to3/10.png"",""time"":991},{""stimulus"":""img/2to3/11.png"",""time"":1091},{""stimulus"":""img/2to3/12.png"",""time"":1191}]","[]"
"image-keyboard-response","100","208858","0.0-5.0-1.48","63dc7b5bf451a34177b66c66","bdp_cybrbll","Sat Mar 25 2023 02:51:54 GMT-0400 (Eastern Daylight Time)","523054","3","1","","null","","","","observe","","img/3to2/1.png","null","177","445","0.5","0.5","3","2","",""
"animation","101","210154","0.0-5.0-2.48","63dc7b5bf451a34177b66c66","bdp_cybrbll","Sat Mar 25 2023 02:51:54 GMT-0400 (Eastern Daylight Time)","523054","3","1","","","","","","","","","","177","","","","3","2","[{""stimulus"":""img/3to2/1.png"",""time"":110},{""stimulus"":""img/3to2/2.png"",""time"":205},{""stimulus"":""img/3to2/3.png"",""time"":299},{""stimulus"":""img/3to2/4.png"",""time"":398},{""stimulus"":""img/3to2/5.png"",""time"":497},{""stimulus"":""img/3to2/6.png"",""time"":598},{""stimulus"":""img/3to2/7.png"",""time"":697},{""stimulus"":""img/3to2/8.png"",""time"":797},{""stimulus"":""img/3to2/9.png"",""time"":897},{""stimulus"":""img/3to2/10.png"",""time"":997},{""stimulus"":""img/3to2/11.png"",""time"":1097},{""stimulus"":""img/3to2/12.png"",""time"":1197}]","[]"
"image-keyboard-response","102","213107","0.0-5.0-1.49","63dc7b5bf451a34177b66c66","bdp_cybrbll","Sat Mar 25 2023 02:51:54 GMT-0400 (Eastern Daylight Time)","523054","3","1","","2952","","","","choice","","img/2to1/1.png","1","176","236","0.5","0.5","2","1","",""
"animation","103","214400","0.0-5.0-2.49","63dc7b5bf451a34177b66c66","bdp_cybrbll","Sat Mar 25 2023 02:51:54 GMT-0400 (Eastern Daylight Time)","523054","3","1","","","","","","","","","","176","","","","2","1","[{""stimulus"":""img/2to1/1.png"",""time"":103},{""stimulus"":""img/2to1/2.png"",""time"":213},{""stimulus"":""img/2to1/3.png"",""time"":311},{""stimulus"":""img/2to1/4.png"",""time"":411},{""stimulus"":""img/2to1/5.png"",""time"":511},{""stimulus"":""img/2to1/6.png"",""time"":595},{""stimulus"":""img/2to1/7.png"",""time"":694},{""stimulus"":""img/2to1/8.png"",""time"":794},{""stimulus"":""img/2to1/9.png"",""time"":894},{""stimulus"":""img/2to1/10.png"",""time"":994},{""stimulus"":""img/2to1/11.png"",""time"":1094},{""stimulus"":""img/2to1/12.png"",""time"":1194}]","[]"
"image-keyboard-response","104","215086","0.0-5.0-1.50","63dc7b5bf451a34177b66c66","bdp_cybrbll","Sat Mar 25 2023 02:51:54 GMT-0400 (Eastern Daylight Time)","523054","3","1","","null","","","","observe","","img/1to3/1.png","null","175","675","0.5","0.5","1","2","",""
"animation","105","216381","0.0-5.0-2.50","63dc7b5bf451a34177b66c66","bdp_cybrbll","Sat Mar 25 2023 02:51:54 GMT-0400 (Eastern Daylight Time)","523054","3","1","","","","","","","","","","175","","","","1","2","[{""stimulus"":""img/1to2/1.png"",""time"":110},{""stimulus"":""img/1to2/2.png"",""time"":205},{""stimulus"":""img/1to2/3.png"",""time"":300},{""stimulus"":""img/1to2/4.png"",""time"":412},{""stimulus"":""img/1to2/5.png"",""time"":497},{""stimulus"":""img/1to2/6.png"",""time"":596},{""stimulus"":""img/1to2/7.png"",""time"":696},{""stimulus"":""img/1to2/8.png"",""time"":796},{""stimulus"":""img/1to2/9.png"",""time"":897},{""stimulus"":""img/1to2/10.png"",""time"":996},{""stimulus"":""img/1to2/11.png"",""time"":1096},{""stimulus"":""img/1to2/12.png"",""time"":1196}]","[]"
"image-keyboard-response","106","216635","0.0-5.0-1.51","63dc7b5bf451a34177b66c66","bdp_cybrbll","Sat Mar 25 2023 02:51:54 GMT-0400 (Eastern Daylight Time)","523054","3","1","","253","","","","choice","","img/2to1/1.png","2","174","425","0.5","0.5","2","3","",""
"animation","107","217938","0.0-5.0-2.51","63dc7b5bf451a34177b66c66","bdp_cybrbll","Sat Mar 25 2023 02:51:54 GMT-0400 (Eastern Daylight Time)","523054","3","1","","","","","","","","","","174","","","","2","3","[{""stimulus"":""img/2to3/1.png"",""time"":114},{""stimulus"":""img/2to3/2.png"",""time"":205},{""stimulus"":""img/2to3/3.png"",""time"":300},{""stimulus"":""img/2to3/4.png"",""time"":410},{""stimulus"":""img/2to3/5.png"",""time"":496},{""stimulus"":""img/2to3/6.png"",""time"":595},{""stimulus"":""img/2to3/7.png"",""time"":695},{""stimulus"":""img/2to3/8.png"",""time"":795},{""stimulus"":""img/2to3/9.png"",""time"":895},{""stimulus"":""img/2to3/10.png"",""time"":994},{""stimulus"":""img/2to3/11.png"",""time"":1094},{""stimulus"":""img/2to3/12.png"",""time"":1194}]","[]"
"image-keyboard-response","108","218299","0.0-5.0-1.52","63dc7b5bf451a34177b66c66","bdp_cybrbll","Sat Mar 25 2023 02:51:54 GMT-0400 (Eastern Daylight Time)","523054","3","1","","null","","","","observe","","img/3to2/1.png","null","173","357","0.5","0.5","3","1","",""
"animation","109","219595","0.0-5.0-2.52","63dc7b5bf451a34177b66c66","bdp_cybrbll","Sat Mar 25 2023 02:51:54 GMT-0400 (Eastern Daylight Time)","523054","3","1","","","","","","","","","","173","","","","3","1","[{""stimulus"":""img/3to1/1.png"",""time"":109},{""stimulus"":""img/3to1/2.png"",""time"":205},{""stimulus"":""img/3to1/3.png"",""time"":300},{""stimulus"":""img/3to1/4.png"",""time"":412},{""stimulus"":""img/3to1/5.png"",""time"":497},{""stimulus"":""img/3to1/6.png"",""time"":596},{""stimulus"":""img/3to1/7.png"",""time"":697},{""stimulus"":""img/3to1/8.png"",""time"":796},{""stimulus"":""img/3to1/9.png"",""time"":896},{""stimulus"":""img/3to1/10.png"",""time"":996},{""stimulus"":""img/3to1/11.png"",""time"":1095},{""stimulus"":""img/3to1/12.png"",""time"":1195}]","[]"
"image-keyboard-response","110","220047","0.0-5.0-1.53","63dc7b5bf451a34177b66c66","bdp_cybrbll","Sat Mar 25 2023 02:51:54 GMT-0400 (Eastern Daylight Time)","523054","3","1","","null","","","","observe","","img/1to3/1.png","null","172","450","0.5","0.5","1","3","",""
"animation","111","221343","0.0-5.0-2.53","63dc7b5bf451a34177b66c66","bdp_cybrbll","Sat Mar 25 2023 02:51:54 GMT-0400 (Eastern Daylight Time)","523054","3","1","","","","","","","","","","172","","","","1","3","[{""stimulus"":""img/1to3/1.png"",""time"":110},{""stimulus"":""img/1to3/2.png"",""time"":205},{""stimulus"":""img/1to3/3.png"",""time"":300},{""stimulus"":""img/1to3/4.png"",""time"":397},{""stimulus"":""img/1to3/5.png"",""time"":509},{""stimulus"":""img/1to3/6.png"",""time"":597},{""stimulus"":""img/1to3/7.png"",""time"":697},{""stimulus"":""img/1to3/8.png"",""time"":797},{""stimulus"":""img/1to3/9.png"",""time"":897},{""stimulus"":""img/1to3/10.png"",""time"":997},{""stimulus"":""img/1to3/11.png"",""time"":1097},{""stimulus"":""img/1to3/12.png"",""time"":1197}]","[]"
"image-keyboard-response","112","221748","0.0-5.0-1.54","63dc7b5bf451a34177b66c66","bdp_cybrbll","Sat Mar 25 2023 02:51:54 GMT-0400 (Eastern Daylight Time)","523054","3","1","","null","","","","observe","","img/3to2/1.png","null","171","391","0.5","0.5","3","2","",""
"animation","113","223041","0.0-5.0-2.54","63dc7b5bf451a34177b66c66","bdp_cybrbll","Sat Mar 25 2023 02:51:54 GMT-0400 (Eastern Daylight Time)","523054","3","1","","","","","","","","","","171","","","","3","2","[{""stimulus"":""img/3to2/1.png"",""time"":110},{""stimulus"":""img/3to2/2.png"",""time"":204},{""stimulus"":""img/3to2/3.png"",""time"":299},{""stimulus"":""img/3to2/4.png"",""time"":410},{""stimulus"":""img/3to2/5.png"",""time"":511},{""stimulus"":""img/3to2/6.png"",""time"":595},{""stimulus"":""img/3to2/7.png"",""time"":694},{""stimulus"":""img/3to2/8.png"",""time"":794},{""stimulus"":""img/3to2/9.png"",""time"":895},{""stimulus"":""img/3to2/10.png"",""time"":994},{""stimulus"":""img/3to2/11.png"",""time"":1094},{""stimulus"":""img/3to2/12.png"",""time"":1194}]","[]"
"image-keyboard-response","114","223360","0.0-5.0-1.55","63dc7b5bf451a34177b66c66","bdp_cybrbll","Sat Mar 25 2023 02:51:54 GMT-0400 (Eastern Daylight Time)","523054","3","1","","318","","","","choice","","img/2to1/1.png","1","170","210","0.5","0.5","2","1","",""
"animation","115","224656","0.0-5.0-2.55","63dc7b5bf451a34177b66c66","bdp_cybrbll","Sat Mar 25 2023 02:51:54 GMT-0400 (Eastern Daylight Time)","523054","3","1","","","","","","","","","","170","","","","2","1","[{""stimulus"":""img/2to1/1.png"",""time"":103},{""stimulus"":""img/2to1/2.png"",""time"":206},{""stimulus"":""img/2to1/3.png"",""time"":302},{""stimulus"":""img/2to1/4.png"",""time"":398},{""stimulus"":""img/2to1/5.png"",""time"":498},{""stimulus"":""img/2to1/6.png"",""time"":597},{""stimulus"":""img/2to1/7.png"",""time"":697},{""stimulus"":""img/2to1/8.png"",""time"":798},{""stimulus"":""img/2to1/9.png"",""time"":898},{""stimulus"":""img/2to1/10.png"",""time"":997},{""stimulus"":""img/2to1/11.png"",""time"":1097},{""stimulus"":""img/2to1/12.png"",""time"":1197}]","[]"
"image-keyboard-response","116","224936","0.0-5.0-1.56","63dc7b5bf451a34177b66c66","bdp_cybrbll","Sat Mar 25 2023 02:51:54 GMT-0400 (Eastern Daylight Time)","523054","3","1","","null","","","","observe","","img/1to3/1.png","null","169","274","0.5","0.5","1","3","",""
"animation","117","226238","0.0-5.0-2.56","63dc7b5bf451a34177b66c66","bdp_cybrbll","Sat Mar 25 2023 02:51:54 GMT-0400 (Eastern Daylight Time)","523054","3","1","","","","","","","","","","169","","","","1","3","[{""stimulus"":""img/1to3/1.png"",""time"":110},{""stimulus"":""img/1to3/2.png"",""time"":213},{""stimulus"":""img/1to3/3.png"",""time"":308},{""stimulus"":""img/1to3/4.png"",""time"":403},{""stimulus"":""img/1to3/5.png"",""time"":504},{""stimulus"":""img/1to3/6.png"",""time"":603},{""stimulus"":""img/1to3/7.png"",""time"":703},{""stimulus"":""img/1to3/8.png"",""time"":803},{""stimulus"":""img/1to3/9.png"",""time"":903},{""stimulus"":""img/1to3/10.png"",""time"":1003},{""stimulus"":""img/1to3/11.png"",""time"":1103},{""stimulus"":""img/1to3/12.png"",""time"":1203}]","[]"
"image-keyboard-response","118","227315","0.0-5.0-1.57","63dc7b5bf451a34177b66c66","bdp_cybrbll","Sat Mar 25 2023 02:51:54 GMT-0400 (Eastern Daylight Time)","523054","3","1","","null","","","","observe","","img/3to2/1.png","null","168","1062","0.5","0.5","3","1","",""
"animation","119","228604","0.0-5.0-2.57","63dc7b5bf451a34177b66c66","bdp_cybrbll","Sat Mar 25 2023 02:51:54 GMT-0400 (Eastern Daylight Time)","523054","3","1","","","","","","","","","","168","","","","3","1","[{""stimulus"":""img/3to1/1.png"",""time"":109},{""stimulus"":""img/3to1/2.png"",""time"":212},{""stimulus"":""img/3to1/3.png"",""time"":307},{""stimulus"":""img/3to1/4.png"",""time"":404},{""stimulus"":""img/3to1/5.png"",""time"":504},{""stimulus"":""img/3to1/6.png"",""time"":604},{""stimulus"":""img/3to1/7.png"",""time"":704},{""stimulus"":""img/3to1/8.png"",""time"":805},{""stimulus"":""img/3to1/9.png"",""time"":904},{""stimulus"":""img/3to1/10.png"",""time"":1004},{""stimulus"":""img/3to1/11.png"",""time"":1104},{""stimulus"":""img/3to1/12.png"",""time"":1204}]","[]"
"image-keyboard-response","120","228976","0.0-5.0-1.58","63dc7b5bf451a34177b66c66","bdp_cybrbll","Sat Mar 25 2023 02:51:54 GMT-0400 (Eastern Daylight Time)","523054","3","1","","null","","","","observe","","img/1to3/1.png","null","167","363","0.5","0.5","1","3","",""
"animation","121","230268","0.0-5.0-2.58","63dc7b5bf451a34177b66c66","bdp_cybrbll","Sat Mar 25 2023 02:51:54 GMT-0400 (Eastern Daylight Time)","523054","3","1","","","","","","","","","","167","","","","1","3","[{""stimulus"":""img/1to3/1.png"",""time"":110},{""stimulus"":""img/1to3/2.png"",""time"":202},{""stimulus"":""img/1to3/3.png"",""time"":313},{""stimulus"":""img/1to3/4.png"",""time"":409},{""stimulus"":""img/1to3/5.png"",""time"":509},{""stimulus"":""img/1to3/6.png"",""time"":609},{""stimulus"":""img/1to3/7.png"",""time"":709},{""stimulus"":""img/1to3/8.png"",""time"":793},{""stimulus"":""img/1to3/9.png"",""time"":892},{""stimulus"":""img/1to3/10.png"",""time"":992},{""stimulus"":""img/1to3/11.png"",""time"":1092},{""stimulus"":""img/1to3/12.png"",""time"":1192}]","[]"
"image-keyboard-response","122","230641","0.0-5.0-1.59","63dc7b5bf451a34177b66c66","bdp_cybrbll","Sat Mar 25 2023 02:51:54 GMT-0400 (Eastern Daylight Time)","523054","3","1","","null","","","","observe","","img/3to2/1.png","null","166","363","0.5","0.5","3","2","",""
"animation","123","231932","0.0-5.0-2.59","63dc7b5bf451a34177b66c66","bdp_cybrbll","Sat Mar 25 2023 02:51:54 GMT-0400 (Eastern Daylight Time)","523054","3","1","","","","","","","","","","166","","","","3","2","[{""stimulus"":""img/3to2/1.png"",""time"":110},{""stimulus"":""img/3to2/2.png"",""time"":202},{""stimulus"":""img/3to2/3.png"",""time"":313},{""stimulus"":""img/3to2/4.png"",""time"":410},{""stimulus"":""img/3to2/5.png"",""time"":509},{""stimulus"":""img/3to2/6.png"",""time"":595},{""stimulus"":""img/3to2/7.png"",""time"":708},{""stimulus"":""img/3to2/8.png"",""time"":793},{""stimulus"":""img/3to2/9.png"",""time"":892},{""stimulus"":""img/3to2/10.png"",""time"":992},{""stimulus"":""img/3to2/11.png"",""time"":1092},{""stimulus"":""img/3to2/12.png"",""time"":1193}]","[]"
"image-keyboard-response","124","232781","0.0-5.0-1.60","63dc7b5bf451a34177b66c66","bdp_cybrbll","Sat Mar 25 2023 02:51:54 GMT-0400 (Eastern Daylight Time)","523054","3","1","","848","","","","choice","","img/2to1/1.png","1","165","202","0.5","0.5","2","1","",""
"animation","125","234079","0.0-5.0-2.60","63dc7b5bf451a34177b66c66","bdp_cybrbll","Sat Mar 25 2023 02:51:54 GMT-0400 (Eastern Daylight Time)","523054","3","1","","","","","","","","","","165","","","","2","1","[{""stimulus"":""img/2to1/1.png"",""time"":106},{""stimulus"":""img/2to1/2.png"",""time"":202},{""stimulus"":""img/2to1/3.png"",""time"":301},{""stimulus"":""img/2to1/4.png"",""time"":401},{""stimulus"":""img/2to1/5.png"",""time"":501},{""stimulus"":""img/2to1/6.png"",""time"":601},{""stimulus"":""img/2to1/7.png"",""time"":700},{""stimulus"":""img/2to1/8.png"",""time"":800},{""stimulus"":""img/2to1/9.png"",""time"":900},{""stimulus"":""img/2to1/10.png"",""time"":1000},{""stimulus"":""img/2to1/11.png"",""time"":1100},{""stimulus"":""img/2to1/12.png"",""time"":1196}]","[]"
"image-keyboard-response","126","234516","0.0-5.0-1.61","63dc7b5bf451a34177b66c66","bdp_cybrbll","Sat Mar 25 2023 02:51:54 GMT-0400 (Eastern Daylight Time)","523054","3","1","","null","","","","observe","","img/1to3/1.png","null","164","422","0.5","0.5","1","2","",""
"animation","127","235813","0.0-5.0-2.61","63dc7b5bf451a34177b66c66","bdp_cybrbll","Sat Mar 25 2023 02:51:54 GMT-0400 (Eastern Daylight Time)","523054","3","1","","","","","","","","","","164","","","","1","2","[{""stimulus"":""img/1to2/1.png"",""time"":110},{""stimulus"":""img/1to2/2.png"",""time"":205},{""stimulus"":""img/1to2/3.png"",""time"":300},{""stimulus"":""img/1to2/4.png"",""time"":411},{""stimulus"":""img/1to2/5.png"",""time"":497},{""stimulus"":""img/1to2/6.png"",""time"":597},{""stimulus"":""img/1to2/7.png"",""time"":696},{""stimulus"":""img/1to2/8.png"",""time"":796},{""stimulus"":""img/1to2/9.png"",""time"":896},{""stimulus"":""img/1to2/10.png"",""time"":996},{""stimulus"":""img/1to2/11.png"",""time"":1096},{""stimulus"":""img/1to2/12.png"",""time"":1195}]","[]"
"image-keyboard-response","128","236209","0.0-5.0-1.62","63dc7b5bf451a34177b66c66","bdp_cybrbll","Sat Mar 25 2023 02:51:54 GMT-0400 (Eastern Daylight Time)","523054","3","1","","395","","","","choice","","img/2to1/1.png","2","163","262","0.5","0.5","2","3","",""
"animation","129","237510","0.0-5.0-2.62","63dc7b5bf451a34177b66c66","bdp_cybrbll","Sat Mar 25 2023 02:51:54 GMT-0400 (Eastern Daylight Time)","523054","3","1","","","","","","","","","","163","","","","2","3","[{""stimulus"":""img/2to3/1.png"",""time"":104},{""stimulus"":""img/2to3/2.png"",""time"":210},{""stimulus"":""img/2to3/3.png"",""time"":305},{""stimulus"":""img/2to3/4.png"",""time"":403},{""stimulus"":""img/2to3/5.png"",""time"":503},{""stimulus"":""img/2to3/6.png"",""time"":602},{""stimulus"":""img/2to3/7.png"",""time"":702},{""stimulus"":""img/2to3/8.png"",""time"":803},{""stimulus"":""img/2to3/9.png"",""time"":902},{""stimulus"":""img/2to3/10.png"",""time"":1002},{""stimulus"":""img/2to3/11.png"",""time"":1102},{""stimulus"":""img/2to3/12.png"",""time"":1202}]","[]"
"image-keyboard-response","130","237837","0.0-5.0-1.63","63dc7b5bf451a34177b66c66","bdp_cybrbll","Sat Mar 25 2023 02:51:54 GMT-0400 (Eastern Daylight Time)","523054","3","1","","null","","","","observe","","img/3to2/1.png","null","162","321","0.5","0.5","3","2","",""
"animation","131","239125","0.0-5.0-2.63","63dc7b5bf451a34177b66c66","bdp_cybrbll","Sat Mar 25 2023 02:51:54 GMT-0400 (Eastern Daylight Time)","523054","3","1","","","","","","","","","","162","","","","3","2","[{""stimulus"":""img/3to2/1.png"",""time"":110},{""stimulus"":""img/3to2/2.png"",""time"":199},{""stimulus"":""img/3to2/3.png"",""time"":310},{""stimulus"":""img/3to2/4.png"",""time"":407},{""stimulus"":""img/3to2/5.png"",""time"":506},{""stimulus"":""img/3to2/6.png"",""time"":606},{""stimulus"":""img/3to2/7.png"",""time"":706},{""stimulus"":""img/3to2/8.png"",""time"":806},{""stimulus"":""img/3to2/9.png"",""time"":906},{""stimulus"":""img/3to2/10.png"",""time"":1006},{""stimulus"":""img/3to2/11.png"",""time"":1102},{""stimulus"":""img/3to2/12.png"",""time"":1189}]","[]"
"image-keyboard-response","132","241053","0.0-5.0-1.64","63dc7b5bf451a34177b66c66","bdp_cybrbll","Sat Mar 25 2023 02:51:54 GMT-0400 (Eastern Daylight Time)","523054","3","1","","1927","","","","choice","","img/2to1/1.png","1","161","215","0.5","0.5","2","1","",""
"animation","133","242356","0.0-5.0-2.64","63dc7b5bf451a34177b66c66","bdp_cybrbll","Sat Mar 25 2023 02:51:54 GMT-0400 (Eastern Daylight Time)","523054","3","1","","","","","","","","","","161","","","","2","1","[{""stimulus"":""img/2to1/1.png"",""time"":112},{""stimulus"":""img/2to1/2.png"",""time"":207},{""stimulus"":""img/2to1/3.png"",""time"":304},{""stimulus"":""img/2to1/4.png"",""time"":404},{""stimulus"":""img/2to1/5.png"",""time"":504},{""stimulus"":""img/2to1/6.png"",""time"":604},{""stimulus"":""img/2to1/7.png"",""time"":704},{""stimulus"":""img/2to1/8.png"",""time"":803},{""stimulus"":""img/2to1/9.png"",""time"":904},{""stimulus"":""img/2to1/10.png"",""time"":1003},{""stimulus"":""img/2to1/11.png"",""time"":1103},{""stimulus"":""img/2to1/12.png"",""time"":1203}]","[]"
"image-keyboard-response","134","242995","0.0-5.0-1.65","63dc7b5bf451a34177b66c66","bdp_cybrbll","Sat Mar 25 2023 02:51:54 GMT-0400 (Eastern Daylight Time)","523054","3","1","","null","","","","observe","","img/1to3/1.png","null","160","636","0.5","0.5","1","2","",""
"animation","135","244287","0.0-5.0-2.65","63dc7b5bf451a34177b66c66","bdp_cybrbll","Sat Mar 25 2023 02:51:54 GMT-0400 (Eastern Daylight Time)","523054","3","1","","","","","","","","","","160","","","","1","2","[{""stimulus"":""img/1to2/1.png"",""time"":110},{""stimulus"":""img/1to2/2.png"",""time"":202},{""stimulus"":""img/1to2/3.png"",""time"":313},{""stimulus"":""img/1to2/4.png"",""time"":410},{""stimulus"":""img/1to2/5.png"",""time"":510},{""stimulus"":""img/1to2/6.png"",""time"":610},{""stimulus"":""img/1to2/7.png"",""time"":694},{""stimulus"":""img/1to2/8.png"",""time"":793},{""stimulus"":""img/1to2/9.png"",""time"":894},{""stimulus"":""img/1to2/10.png"",""time"":995},{""stimulus"":""img/1to2/11.png"",""time"":1093},{""stimulus"":""img/1to2/12.png"",""time"":1192}]","[]"
"image-keyboard-response","136","244889","0.0-5.0-1.66","63dc7b5bf451a34177b66c66","bdp_cybrbll","Sat Mar 25 2023 02:51:54 GMT-0400 (Eastern Daylight Time)","523054","3","1","","601","","","","choice","","img/2to1/1.png","2","159","651","0.5","0.5","2","3","",""
"animation","137","246185","0.0-5.0-2.66","63dc7b5bf451a34177b66c66","bdp_cybrbll","Sat Mar 25 2023 02:51:54 GMT-0400 (Eastern Daylight Time)","523054","3","1","","","","","","","","","","159","","","","2","3","[{""stimulus"":""img/2to3/1.png"",""time"":103},{""stimulus"":""img/2to3/2.png"",""time"":214},{""stimulus"":""img/2to3/3.png"",""time"":313},{""stimulus"":""img/2to3/4.png"",""time"":397},{""stimulus"":""img/2to3/5.png"",""time"":496},{""stimulus"":""img/2to3/6.png"",""time"":596},{""stimulus"":""img/2to3/7.png"",""time"":696},{""stimulus"":""img/2to3/8.png"",""time"":796},{""stimulus"":""img/2to3/9.png"",""time"":896},{""stimulus"":""img/2to3/10.png"",""time"":996},{""stimulus"":""img/2to3/11.png"",""time"":1096},{""stimulus"":""img/2to3/12.png"",""time"":1196}]","[]"
"image-keyboard-response","138","246637","0.0-5.0-1.67","63dc7b5bf451a34177b66c66","bdp_cybrbll","Sat Mar 25 2023 02:51:54 GMT-0400 (Eastern Daylight Time)","523054","3","1","","null","","","","observe","","img/3to2/1.png","null","158","446","0.5","0.5","3","1","",""
"animation","139","247933","0.0-5.0-2.67","63dc7b5bf451a34177b66c66","bdp_cybrbll","Sat Mar 25 2023 02:51:54 GMT-0400 (Eastern Daylight Time)","523054","3","1","","","","","","","","","","158","","","","3","1","[{""stimulus"":""img/3to1/1.png"",""time"":110},{""stimulus"":""img/3to1/2.png"",""time"":214},{""stimulus"":""img/3to1/3.png"",""time"":301},{""stimulus"":""img/3to1/4.png"",""time"":398},{""stimulus"":""img/3to1/5.png"",""time"":497},{""stimulus"":""img/3to1/6.png"",""time"":597},{""stimulus"":""img/3to1/7.png"",""time"":697},{""stimulus"":""img/3to1/8.png"",""time"":797},{""stimulus"":""img/3to1/9.png"",""time"":898},{""stimulus"":""img/3to1/10.png"",""time"":997},{""stimulus"":""img/3to1/11.png"",""time"":1097},{""stimulus"":""img/3to1/12.png"",""time"":1197}]","[]"
"image-keyboard-response","140","248244","0.0-5.0-1.68","63dc7b5bf451a34177b66c66","bdp_cybrbll","Sat Mar 25 2023 02:51:54 GMT-0400 (Eastern Daylight Time)","523054","3","1","","null","","","","observe","","img/1to3/1.png","null","157","300","0.5","0.5","1","2","",""
"animation","141","249532","0.0-5.0-2.68","63dc7b5bf451a34177b66c66","bdp_cybrbll","Sat Mar 25 2023 02:51:54 GMT-0400 (Eastern Daylight Time)","523054","3","1","","","","","","","","","","157","","","","1","2","[{""stimulus"":""img/1to2/1.png"",""time"":110},{""stimulus"":""img/1to2/2.png"",""time"":213},{""stimulus"":""img/1to2/3.png"",""time"":308},{""stimulus"":""img/1to2/4.png"",""time"":406},{""stimulus"":""img/1to2/5.png"",""time"":506},{""stimulus"":""img/1to2/6.png"",""time"":605},{""stimulus"":""img/1to2/7.png"",""time"":705},{""stimulus"":""img/1to2/8.png"",""time"":805},{""stimulus"":""img/1to2/9.png"",""time"":905},{""stimulus"":""img/1to2/10.png"",""time"":1005},{""stimulus"":""img/1to2/11.png"",""time"":1105},{""stimulus"":""img/1to2/12.png"",""time"":1189}]","[]"
"image-keyboard-response","142","250194","0.0-5.0-1.69","63dc7b5bf451a34177b66c66","bdp_cybrbll","Sat Mar 25 2023 02:51:54 GMT-0400 (Eastern Daylight Time)","523054","3","1","","662","","","","choice","","img/2to1/1.png","2","156","335","0.5","0.5","2","3","",""
"animation","143","251496","0.0-5.0-2.69","63dc7b5bf451a34177b66c66","bdp_cybrbll","Sat Mar 25 2023 02:51:54 GMT-0400 (Eastern Daylight Time)","523054","3","1","","","","","","","","","","156","","","","2","3","[{""stimulus"":""img/2to3/1.png"",""time"":111},{""stimulus"":""img/2to3/2.png"",""time"":207},{""stimulus"":""img/2to3/3.png"",""time"":304},{""stimulus"":""img/2to3/4.png"",""time"":404},{""stimulus"":""img/2to3/5.png"",""time"":504},{""stimulus"":""img/2to3/6.png"",""time"":604},{""stimulus"":""img/2to3/7.png"",""time"":703},{""stimulus"":""img/2to3/8.png"",""time"":803},{""stimulus"":""img/2to3/9.png"",""time"":904},{""stimulus"":""img/2to3/10.png"",""time"":1003},{""stimulus"":""img/2to3/11.png"",""time"":1103},{""stimulus"":""img/2to3/12.png"",""time"":1203}]","[]"
"image-keyboard-response","144","251698","0.0-5.0-1.70","63dc7b5bf451a34177b66c66","bdp_cybrbll","Sat Mar 25 2023 02:51:54 GMT-0400 (Eastern Daylight Time)","523054","3","1","","null","","","","observe","","img/3to2/1.png","null","155","196","0.5","0.5","3","1","",""
"animation","145","252995","0.0-5.0-2.70","63dc7b5bf451a34177b66c66","bdp_cybrbll","Sat Mar 25 2023 02:51:54 GMT-0400 (Eastern Daylight Time)","523054","3","1","","","","","","","","","","155","","","","3","1","[{""stimulus"":""img/3to1/1.png"",""time"":110},{""stimulus"":""img/3to1/2.png"",""time"":205},{""stimulus"":""img/3to1/3.png"",""time"":308},{""stimulus"":""img/3to1/4.png"",""time"":403},{""stimulus"":""img/3to1/5.png"",""time"":498},{""stimulus"":""img/3to1/6.png"",""time"":599},{""stimulus"":""img/3to1/7.png"",""time"":698},{""stimulus"":""img/3to1/8.png"",""time"":798},{""stimulus"":""img/3to1/9.png"",""time"":898},{""stimulus"":""img/3to1/10.png"",""time"":998},{""stimulus"":""img/3to1/11.png"",""time"":1098},{""stimulus"":""img/3to1/12.png"",""time"":1197}]","[]"
"image-keyboard-response","146","253228","0.0-5.0-1.71","63dc7b5bf451a34177b66c66","bdp_cybrbll","Sat Mar 25 2023 02:51:54 GMT-0400 (Eastern Daylight Time)","523054","3","1","","null","","","","observe","","img/1to3/1.png","null","154","225","0.5","0.5","1","2","",""
"animation","147","254527","0.0-5.0-2.71","63dc7b5bf451a34177b66c66","bdp_cybrbll","Sat Mar 25 2023 02:51:54 GMT-0400 (Eastern Daylight Time)","523054","3","1","","","","","","","","","","154","","","","1","2","[{""stimulus"":""img/1to2/1.png"",""time"":110},{""stimulus"":""img/1to2/2.png"",""time"":205},{""stimulus"":""img/1to2/3.png"",""time"":300},{""stimulus"":""img/1to2/4.png"",""time"":400},{""stimulus"":""img/1to2/5.png"",""time"":500},{""stimulus"":""img/1to2/6.png"",""time"":596},{""stimulus"":""img/1to2/7.png"",""time"":698},{""stimulus"":""img/1to2/8.png"",""time"":800},{""stimulus"":""img/1to2/9.png"",""time"":900},{""stimulus"":""img/1to2/10.png"",""time"":1000},{""stimulus"":""img/1to2/11.png"",""time"":1099},{""stimulus"":""img/1to2/12.png"",""time"":1199}]","[]"
"image-keyboard-response","148","254863","0.0-5.0-1.72","63dc7b5bf451a34177b66c66","bdp_cybrbll","Sat Mar 25 2023 02:51:54 GMT-0400 (Eastern Daylight Time)","523054","3","1","","335","","","","choice","","img/2to1/1.png","2","153","215","0.5","0.5","2","3","",""
"animation","149","256158","0.0-5.0-2.72","63dc7b5bf451a34177b66c66","bdp_cybrbll","Sat Mar 25 2023 02:51:54 GMT-0400 (Eastern Daylight Time)","523054","3","1","","","","","","","","","","153","","","","2","3","[{""stimulus"":""img/2to3/1.png"",""time"":104},{""stimulus"":""img/2to3/2.png"",""time"":199},{""stimulus"":""img/2to3/3.png"",""time"":312},{""stimulus"":""img/2to3/4.png"",""time"":398},{""stimulus"":""img/2to3/5.png"",""time"":497},{""stimulus"":""img/2to3/6.png"",""time"":596},{""stimulus"":""img/2to3/7.png"",""time"":696},{""stimulus"":""img/2to3/8.png"",""time"":796},{""stimulus"":""img/2to3/9.png"",""time"":897},{""stimulus"":""img/2to3/10.png"",""time"":996},{""stimulus"":""img/2to3/11.png"",""time"":1096},{""stimulus"":""img/2to3/12.png"",""time"":1196}]","[]"
"image-keyboard-response","150","256391","0.0-5.0-1.73","63dc7b5bf451a34177b66c66","bdp_cybrbll","Sat Mar 25 2023 02:51:54 GMT-0400 (Eastern Daylight Time)","523054","3","1","","null","","","","observe","","img/3to2/1.png","null","152","228","0.5","0.5","3","1","",""
"animation","151","257690","0.0-5.0-2.73","63dc7b5bf451a34177b66c66","bdp_cybrbll","Sat Mar 25 2023 02:51:54 GMT-0400 (Eastern Daylight Time)","523054","3","1","","","","","","","","","","152","","","","3","1","[{""stimulus"":""img/3to1/1.png"",""time"":110},{""stimulus"":""img/3to1/2.png"",""time"":205},{""stimulus"":""img/3to1/3.png"",""time"":300},{""stimulus"":""img/3to1/4.png"",""time"":400},{""stimulus"":""img/3to1/5.png"",""time"":501},{""stimulus"":""img/3to1/6.png"",""time"":600},{""stimulus"":""img/3to1/7.png"",""time"":700},{""stimulus"":""img/3to1/8.png"",""time"":800},{""stimulus"":""img/3to1/9.png"",""time"":901},{""stimulus"":""img/3to1/10.png"",""time"":1000},{""stimulus"":""img/3to1/11.png"",""time"":1100},{""stimulus"":""img/3to1/12.png"",""time"":1200}]","[]"
"image-keyboard-response","152","257923","0.0-5.0-1.74","63dc7b5bf451a34177b66c66","bdp_cybrbll","Sat Mar 25 2023 02:51:54 GMT-0400 (Eastern Daylight Time)","523054","3","1","","null","","","","observe","","img/1to3/1.png","null","151","230","0.5","0.5","1","2","",""
"animation","153","259222","0.0-5.0-2.74","63dc7b5bf451a34177b66c66","bdp_cybrbll","Sat Mar 25 2023 02:51:54 GMT-0400 (Eastern Daylight Time)","523054","3","1","","","","","","","","","","151","","","","1","2","[{""stimulus"":""img/1to2/1.png"",""time"":110},{""stimulus"":""img/1to2/2.png"",""time"":205},{""stimulus"":""img/1to2/3.png"",""time"":301},{""stimulus"":""img/1to2/4.png"",""time"":400},{""stimulus"":""img/1to2/5.png"",""time"":500},{""stimulus"":""img/1to2/6.png"",""time"":600},{""stimulus"":""img/1to2/7.png"",""time"":700},{""stimulus"":""img/1to2/8.png"",""time"":800},{""stimulus"":""img/1to2/9.png"",""time"":900},{""stimulus"":""img/1to2/10.png"",""time"":1000},{""stimulus"":""img/1to2/11.png"",""time"":1100},{""stimulus"":""img/1to2/12.png"",""time"":1200}]","[]"
"image-keyboard-response","154","259571","0.0-5.0-1.75","63dc7b5bf451a34177b66c66","bdp_cybrbll","Sat Mar 25 2023 02:51:54 GMT-0400 (Eastern Daylight Time)","523054","3","1","","348","","","","choice","","img/2to1/1.png","2","150","549","0.5","0.5","2","3","",""
"animation","155","260871","0.0-5.0-2.75","63dc7b5bf451a34177b66c66","bdp_cybrbll","Sat Mar 25 2023 02:51:54 GMT-0400 (Eastern Daylight Time)","523054","3","1","","","","","","","","","","150","","","","2","3","[{""stimulus"":""img/2to3/1.png"",""time"":104},{""stimulus"":""img/2to3/2.png"",""time"":209},{""stimulus"":""img/2to3/3.png"",""time"":304},{""stimulus"":""img/2to3/4.png"",""time"":401},{""stimulus"":""img/2to3/5.png"",""time"":501},{""stimulus"":""img/2to3/6.png"",""time"":600},{""stimulus"":""img/2to3/7.png"",""time"":701},{""stimulus"":""img/2to3/8.png"",""time"":801},{""stimulus"":""img/2to3/9.png"",""time"":901},{""stimulus"":""img/2to3/10.png"",""time"":1000},{""stimulus"":""img/2to3/11.png"",""time"":1100},{""stimulus"":""img/2to3/12.png"",""time"":1200}]","[]"
"image-keyboard-response","156","261228","0.0-5.0-1.76","63dc7b5bf451a34177b66c66","bdp_cybrbll","Sat Mar 25 2023 02:51:54 GMT-0400 (Eastern Daylight Time)","523054","3","1","","null","","","","observe","","img/3to2/1.png","null","149","345","0.5","0.1","3","2","",""
"animation","157","262519","0.0-5.0-2.76","63dc7b5bf451a34177b66c66","bdp_cybrbll","Sat Mar 25 2023 02:51:54 GMT-0400 (Eastern Daylight Time)","523054","3","1","","","","","","","","","","149","","","","3","2","[{""stimulus"":""img/3to2/1.png"",""time"":110},{""stimulus"":""img/3to2/2.png"",""time"":201},{""stimulus"":""img/3to2/3.png"",""time"":304},{""stimulus"":""img/3to2/4.png"",""time"":407},{""stimulus"":""img/3to2/5.png"",""time"":508},{""stimulus"":""img/3to2/6.png"",""time"":601},{""stimulus"":""img/3to2/7.png"",""time"":695},{""stimulus"":""img/3to2/8.png"",""time"":806},{""stimulus"":""img/3to2/9.png"",""time"":892},{""stimulus"":""img/3to2/10.png"",""time"":990},{""stimulus"":""img/3to2/11.png"",""time"":1091},{""stimulus"":""img/3to2/12.png"",""time"":1192}]","[]"
"image-keyboard-response","158","262628","0.0-5.0-1.77","63dc7b5bf451a34177b66c66","bdp_cybrbll","Sat Mar 25 2023 02:51:54 GMT-0400 (Eastern Daylight Time)","523054","3","1","","108","","","","choice","","img/2to1/1.png","1","148","536","0.5","0.1","2","1","",""
"animation","159","263917","0.0-5.0-2.77","63dc7b5bf451a34177b66c66","bdp_cybrbll","Sat Mar 25 2023 02:51:54 GMT-0400 (Eastern Daylight Time)","523054","3","1","","","","","","","","","","148","","","","2","1","[{""stimulus"":""img/2to1/1.png"",""time"":110},{""stimulus"":""img/2to1/2.png"",""time"":200},{""stimulus"":""img/2to1/3.png"",""time"":311},{""stimulus"":""img/2to1/4.png"",""time"":407},{""stimulus"":""img/2to1/5.png"",""time"":507},{""stimulus"":""img/2to1/6.png"",""time"":607},{""stimulus"":""img/2to1/7.png"",""time"":707},{""stimulus"":""img/2to1/8.png"",""time"":807},{""stimulus"":""img/2to1/9.png"",""time"":907},{""stimulus"":""img/2to1/10.png"",""time"":992},{""stimulus"":""img/2to1/11.png"",""time"":1090},{""stimulus"":""img/2to1/12.png"",""time"":1191}]","[]"
"image-keyboard-response","160","264400","0.0-5.0-1.78","63dc7b5bf451a34177b66c66","bdp_cybrbll","Sat Mar 25 2023 02:51:54 GMT-0400 (Eastern Daylight Time)","523054","3","1","","null","","","","observe","","img/1to3/1.png","null","147","480","0.5","0.1","1","3","",""
"animation","161","265699","0.0-5.0-2.78","63dc7b5bf451a34177b66c66","bdp_cybrbll","Sat Mar 25 2023 02:51:54 GMT-0400 (Eastern Daylight Time)","523054","3","1","","","","","","","","","","147","","","","1","3","[{""stimulus"":""img/1to3/1.png"",""time"":110},{""stimulus"":""img/1to3/2.png"",""time"":205},{""stimulus"":""img/1to3/3.png"",""time"":300},{""stimulus"":""img/1to3/4.png"",""time"":400},{""stimulus"":""img/1to3/5.png"",""time"":500},{""stimulus"":""img/1to3/6.png"",""time"":600},{""stimulus"":""img/1to3/7.png"",""time"":700},{""stimulus"":""img/1to3/8.png"",""time"":800},{""stimulus"":""img/1to3/9.png"",""time"":901},{""stimulus"":""img/1to3/10.png"",""time"":1000},{""stimulus"":""img/1to3/11.png"",""time"":1100},{""stimulus"":""img/1to3/12.png"",""time"":1200}]","[]"
"image-keyboard-response","162","266260","0.0-5.0-1.79","63dc7b5bf451a34177b66c66","bdp_cybrbll","Sat Mar 25 2023 02:51:54 GMT-0400 (Eastern Daylight Time)","523054","3","1","","null","","","","observe","","img/3to2/1.png","null","146","548","0.5","0.1","3","1","",""
"animation","163","267548","0.0-5.0-2.79","63dc7b5bf451a34177b66c66","bdp_cybrbll","Sat Mar 25 2023 02:51:54 GMT-0400 (Eastern Daylight Time)","523054","3","1","","","","","","","","","","146","","","","3","1","[{""stimulus"":""img/3to1/1.png"",""time"":110},{""stimulus"":""img/3to1/2.png"",""time"":213},{""stimulus"":""img/3to1/3.png"",""time"":308},{""stimulus"":""img/3to1/4.png"",""time"":405},{""stimulus"":""img/3to1/5.png"",""time"":505},{""stimulus"":""img/3to1/6.png"",""time"":605},{""stimulus"":""img/3to1/7.png"",""time"":705},{""stimulus"":""img/3to1/8.png"",""time"":805},{""stimulus"":""img/3to1/9.png"",""time"":905},{""stimulus"":""img/3to1/10.png"",""time"":1005},{""stimulus"":""img/3to1/11.png"",""time"":1104},{""stimulus"":""img/3to1/12.png"",""time"":1204}]","[]"
"image-keyboard-response","164","268061","0.0-5.0-1.80","63dc7b5bf451a34177b66c66","bdp_cybrbll","Sat Mar 25 2023 02:51:54 GMT-0400 (Eastern Daylight Time)","523054","3","1","","null","","","","observe","","img/1to3/1.png","null","145","500","0.5","0.1","1","3","",""
"animation","165","269362","0.0-5.0-2.80","63dc7b5bf451a34177b66c66","bdp_cybrbll","Sat Mar 25 2023 02:51:54 GMT-0400 (Eastern Daylight Time)","523054","3","1","","","","","","","","","","145","","","","1","3","[{""stimulus"":""img/1to3/1.png"",""time"":111},{""stimulus"":""img/1to3/2.png"",""time"":205},{""stimulus"":""img/1to3/3.png"",""time"":306},{""stimulus"":""img/1to3/4.png"",""time"":401},{""stimulus"":""img/1to3/5.png"",""time"":502},{""stimulus"":""img/1to3/6.png"",""time"":602},{""stimulus"":""img/1to3/7.png"",""time"":702},{""stimulus"":""img/1to3/8.png"",""time"":802},{""stimulus"":""img/1to3/9.png"",""time"":902},{""stimulus"":""img/1to3/10.png"",""time"":1002},{""stimulus"":""img/1to3/11.png"",""time"":1101},{""stimulus"":""img/1to3/12.png"",""time"":1201}]","[]"
"image-keyboard-response","166","269720","0.0-5.0-1.81","63dc7b5bf451a34177b66c66","bdp_cybrbll","Sat Mar 25 2023 02:51:54 GMT-0400 (Eastern Daylight Time)","523054","3","1","","null","","","","observe","","img/3to2/1.png","null","144","343","0.5","0.1","3","2","",""
"animation","167","271013","0.0-5.0-2.81","63dc7b5bf451a34177b66c66","bdp_cybrbll","Sat Mar 25 2023 02:51:54 GMT-0400 (Eastern Daylight Time)","523054","3","1","","","","","","","","","","144","","","","3","2","[{""stimulus"":""img/3to2/1.png"",""time"":110},{""stimulus"":""img/3to2/2.png"",""time"":201},{""stimulus"":""img/3to2/3.png"",""time"":313},{""stimulus"":""img/3to2/4.png"",""time"":408},{""stimulus"":""img/3to2/5.png"",""time"":508},{""stimulus"":""img/3to2/6.png"",""time"":608},{""stimulus"":""img/3to2/7.png"",""time"":709},{""stimulus"":""img/3to2/8.png"",""time"":808},{""stimulus"":""img/3to2/9.png"",""time"":894},{""stimulus"":""img/3to2/10.png"",""time"":991},{""stimulus"":""img/3to2/11.png"",""time"":1102},{""stimulus"":""img/3to2/12.png"",""time"":1199}]","[]"
"image-keyboard-response","168","271401","0.0-5.0-1.82","63dc7b5bf451a34177b66c66","bdp_cybrbll","Sat Mar 25 2023 02:51:54 GMT-0400 (Eastern Daylight Time)","523054","3","1","","385","","","","choice","","img/2to1/1.png","1","143","518","0.5","0.1","2","1","",""
"animation","169","272692","0.0-5.0-2.82","63dc7b5bf451a34177b66c66","bdp_cybrbll","Sat Mar 25 2023 02:51:54 GMT-0400 (Eastern Daylight Time)","523054","3","1","","","","","","","","","","143","","","","2","1","[{""stimulus"":""img/2to1/1.png"",""time"":111},{""stimulus"":""img/2to1/2.png"",""time"":202},{""stimulus"":""img/2to1/3.png"",""time"":305},{""stimulus"":""img/2to1/4.png"",""time"":409},{""stimulus"":""img/2to1/5.png"",""time"":510},{""stimulus"":""img/2to1/6.png"",""time"":614},{""stimulus"":""img/2to1/7.png"",""time"":695},{""stimulus"":""img/2to1/8.png"",""time"":799},{""stimulus"":""img/2to1/9.png"",""time"":896},{""stimulus"":""img/2to1/10.png"",""time"":992},{""stimulus"":""img/2to1/11.png"",""time"":1092},{""stimulus"":""img/2to1/12.png"",""time"":1192}]","[]"
"image-keyboard-response","170","273269","0.0-5.0-1.83","63dc7b5bf451a34177b66c66","bdp_cybrbll","Sat Mar 25 2023 02:51:54 GMT-0400 (Eastern Daylight Time)","523054","3","1","","null","","","","observe","","img/1to3/1.png","null","142","563","0.5","0.1","1","3","",""
"animation","171","274557","0.0-5.0-2.83","63dc7b5bf451a34177b66c66","bdp_cybrbll","Sat Mar 25 2023 02:51:54 GMT-0400 (Eastern Daylight Time)","523054","3","1","","","","","","","","","","142","","","","1","3","[{""stimulus"":""img/1to3/1.png"",""time"":110},{""stimulus"":""img/1to3/2.png"",""time"":214},{""stimulus"":""img/1to3/3.png"",""time"":309},{""stimulus"":""img/1to3/4.png"",""time"":406},{""stimulus"":""img/1to3/5.png"",""time"":506},{""stimulus"":""img/1to3/6.png"",""time"":606},{""stimulus"":""img/1to3/7.png"",""time"":705},{""stimulus"":""img/1to3/8.png"",""time"":805},{""stimulus"":""img/1to3/9.png"",""time"":905},{""stimulus"":""img/1to3/10.png"",""time"":1005},{""stimulus"":""img/1to3/11.png"",""time"":1105},{""stimulus"":""img/1to3/12.png"",""time"":1189}]","[]"
"image-keyboard-response","172","274837","0.0-5.0-1.84","63dc7b5bf451a34177b66c66","bdp_cybrbll","Sat Mar 25 2023 02:51:54 GMT-0400 (Eastern Daylight Time)","523054","3","1","","null","","","","observe","","img/3to2/1.png","null","141","269","0.5","0.1","3","1","",""
"animation","173","276139","0.0-5.0-2.84","63dc7b5bf451a34177b66c66","bdp_cybrbll","Sat Mar 25 2023 02:51:54 GMT-0400 (Eastern Daylight Time)","523054","3","1","","","","","","","","","","141","","","","3","1","[{""stimulus"":""img/3to1/1.png"",""time"":110},{""stimulus"":""img/3to1/2.png"",""time"":205},{""stimulus"":""img/3to1/3.png"",""time"":303},{""stimulus"":""img/3to1/4.png"",""time"":403},{""stimulus"":""img/3to1/5.png"",""time"":503},{""stimulus"":""img/3to1/6.png"",""time"":603},{""stimulus"":""img/3to1/7.png"",""time"":703},{""stimulus"":""img/3to1/8.png"",""time"":803},{""stimulus"":""img/3to1/9.png"",""time"":903},{""stimulus"":""img/3to1/10.png"",""time"":1002},{""stimulus"":""img/3to1/11.png"",""time"":1102},{""stimulus"":""img/3to1/12.png"",""time"":1202}]","[]"
"image-keyboard-response","174","276481","0.0-5.0-1.85","63dc7b5bf451a34177b66c66","bdp_cybrbll","Sat Mar 25 2023 02:51:54 GMT-0400 (Eastern Daylight Time)","523054","3","1","","null","","","","observe","","img/1to3/1.png","null","140","326","0.5","0.1","1","3","",""
"animation","175","277770","0.0-5.0-2.85","63dc7b5bf451a34177b66c66","bdp_cybrbll","Sat Mar 25 2023 02:51:54 GMT-0400 (Eastern Daylight Time)","523054","3","1","","","","","","","","","","140","","","","1","3","[{""stimulus"":""img/1to3/1.png"",""time"":110},{""stimulus"":""img/1to3/2.png"",""time"":200},{""stimulus"":""img/1to3/3.png"",""time"":312},{""stimulus"":""img/1to3/4.png"",""time"":407},{""stimulus"":""img/1to3/5.png"",""time"":508},{""stimulus"":""img/1to3/6.png"",""time"":607},{""stimulus"":""img/1to3/7.png"",""time"":707},{""stimulus"":""img/1to3/8.png"",""time"":807},{""stimulus"":""img/1to3/9.png"",""time"":907},{""stimulus"":""img/1to3/10.png"",""time"":1007},{""stimulus"":""img/1to3/11.png"",""time"":1091},{""stimulus"":""img/1to3/12.png"",""time"":1190}]","[]"
"image-keyboard-response","176","278284","0.0-5.0-1.86","63dc7b5bf451a34177b66c66","bdp_cybrbll","Sat Mar 25 2023 02:51:54 GMT-0400 (Eastern Daylight Time)","523054","3","1","","null","","","","observe","","img/3to2/1.png","null","139","501","0.5","0.1","3","2","",""
"animation","177","279585","0.0-5.0-2.86","63dc7b5bf451a34177b66c66","bdp_cybrbll","Sat Mar 25 2023 02:51:54 GMT-0400 (Eastern Daylight Time)","523054","3","1","","","","","","","","","","139","","","","3","2","[{""stimulus"":""img/3to2/1.png"",""time"":109},{""stimulus"":""img/3to2/2.png"",""time"":204},{""stimulus"":""img/3to2/3.png"",""time"":302},{""stimulus"":""img/3to2/4.png"",""time"":402},{""stimulus"":""img/3to2/5.png"",""time"":501},{""stimulus"":""img/3to2/6.png"",""time"":601},{""stimulus"":""img/3to2/7.png"",""time"":701},{""stimulus"":""img/3to2/8.png"",""time"":801},{""stimulus"":""img/3to2/9.png"",""time"":901},{""stimulus"":""img/3to2/10.png"",""time"":1001},{""stimulus"":""img/3to2/11.png"",""time"":1101},{""stimulus"":""img/3to2/12.png"",""time"":1201}]","[]"
"image-keyboard-response","178","279730","0.0-5.0-1.87","63dc7b5bf451a34177b66c66","bdp_cybrbll","Sat Mar 25 2023 02:51:54 GMT-0400 (Eastern Daylight Time)","523054","3","1","","144","","","","choice","","img/2to1/1.png","1","138","264","0.5","0.1","2","1","",""
"animation","179","281018","0.0-5.0-2.87","63dc7b5bf451a34177b66c66","bdp_cybrbll","Sat Mar 25 2023 02:51:54 GMT-0400 (Eastern Daylight Time)","523054","3","1","","","","","","","","","","138","","","","2","1","[{""stimulus"":""img/2to1/1.png"",""time"":106},{""stimulus"":""img/2to1/2.png"",""time"":213},{""stimulus"":""img/2to1/3.png"",""time"":308},{""stimulus"":""img/2to1/4.png"",""time"":405},{""stimulus"":""img/2to1/5.png"",""time"":505},{""stimulus"":""img/2to1/6.png"",""time"":605},{""stimulus"":""img/2to1/7.png"",""time"":705},{""stimulus"":""img/2to1/8.png"",""time"":805},{""stimulus"":""img/2to1/9.png"",""time"":905},{""stimulus"":""img/2to1/10.png"",""time"":1005},{""stimulus"":""img/2to1/11.png"",""time"":1104},{""stimulus"":""img/2to1/12.png"",""time"":1205}]","[]"
"image-keyboard-response","180","281437","0.0-5.0-1.88","63dc7b5bf451a34177b66c66","bdp_cybrbll","Sat Mar 25 2023 02:51:54 GMT-0400 (Eastern Daylight Time)","523054","3","1","","null","","","","observe","","img/1to3/1.png","null","137","416","0.5","0.1","1","3","",""
"animation","181","282732","0.0-5.0-2.88","63dc7b5bf451a34177b66c66","bdp_cybrbll","Sat Mar 25 2023 02:51:54 GMT-0400 (Eastern Daylight Time)","523054","3","1","","","","","","","","","","137","","","","1","3","[{""stimulus"":""img/1to3/1.png"",""time"":110},{""stimulus"":""img/1to3/2.png"",""time"":205},{""stimulus"":""img/1to3/3.png"",""time"":300},{""stimulus"":""img/1to3/4.png"",""time"":411},{""stimulus"":""img/1to3/5.png"",""time"":496},{""stimulus"":""img/1to3/6.png"",""time"":595},{""stimulus"":""img/1to3/7.png"",""time"":695},{""stimulus"":""img/1to3/8.png"",""time"":795},{""stimulus"":""img/1to3/9.png"",""time"":895},{""stimulus"":""img/1to3/10.png"",""time"":995},{""stimulus"":""img/1to3/11.png"",""time"":1095},{""stimulus"":""img/1to3/12.png"",""time"":1195}]","[]"
"image-keyboard-response","182","283184","0.0-5.0-1.89","63dc7b5bf451a34177b66c66","bdp_cybrbll","Sat Mar 25 2023 02:51:54 GMT-0400 (Eastern Daylight Time)","523054","3","1","","null","","","","observe","","img/3to2/1.png","null","136","440","0.5","0.1","3","2","",""
"animation","183","284480","0.0-5.0-2.89","63dc7b5bf451a34177b66c66","bdp_cybrbll","Sat Mar 25 2023 02:51:54 GMT-0400 (Eastern Daylight Time)","523054","3","1","","","","","","","","","","136","","","","3","2","[{""stimulus"":""img/3to2/1.png"",""time"":110},{""stimulus"":""img/3to2/2.png"",""time"":212},{""stimulus"":""img/3to2/3.png"",""time"":299},{""stimulus"":""img/3to2/4.png"",""time"":398},{""stimulus"":""img/3to2/5.png"",""time"":498},{""stimulus"":""img/3to2/6.png"",""time"":597},{""stimulus"":""img/3to2/7.png"",""time"":697},{""stimulus"":""img/3to2/8.png"",""time"":804},{""stimulus"":""img/3to2/9.png"",""time"":907},{""stimulus"":""img/3to2/10.png"",""time"":1002},{""stimulus"":""img/3to2/11.png"",""time"":1097},{""stimulus"":""img/3to2/12.png"",""time"":1197}]","[]"
"image-keyboard-response","184","285248","0.0-5.0-1.90","63dc7b5bf451a34177b66c66","bdp_cybrbll","Sat Mar 25 2023 02:51:54 GMT-0400 (Eastern Daylight Time)","523054","3","1","","767","","","","choice","","img/2to1/1.png","1","135","285","0.5","0.1","2","1","",""
"animation","185","286545","0.0-5.0-2.90","63dc7b5bf451a34177b66c66","bdp_cybrbll","Sat Mar 25 2023 02:51:54 GMT-0400 (Eastern Daylight Time)","523054","3","1","","","","","","","","","","135","","","","2","1","[{""stimulus"":""img/2to1/1.png"",""time"":114},{""stimulus"":""img/2to1/2.png"",""time"":206},{""stimulus"":""img/2to1/3.png"",""time"":302},{""stimulus"":""img/2to1/4.png"",""time"":398},{""stimulus"":""img/2to1/5.png"",""time"":497},{""stimulus"":""img/2to1/6.png"",""time"":597},{""stimulus"":""img/2to1/7.png"",""time"":697},{""stimulus"":""img/2to1/8.png"",""time"":797},{""stimulus"":""img/2to1/9.png"",""time"":897},{""stimulus"":""img/2to1/10.png"",""time"":997},{""stimulus"":""img/2to1/11.png"",""time"":1097},{""stimulus"":""img/2to1/12.png"",""time"":1196}]","[]"
"image-keyboard-response","186","286993","0.0-5.0-1.91","63dc7b5bf451a34177b66c66","bdp_cybrbll","Sat Mar 25 2023 02:51:54 GMT-0400 (Eastern Daylight Time)","523054","3","1","","null","","","","observe","","img/1to3/1.png","null","134","442","0.5","0.1","1","3","",""
"animation","187","288293","0.0-5.0-2.91","63dc7b5bf451a34177b66c66","bdp_cybrbll","Sat Mar 25 2023 02:51:54 GMT-0400 (Eastern Daylight Time)","523054","3","1","","","","","","","","","","134","","","","1","3","[{""stimulus"":""img/1to3/1.png"",""time"":110},{""stimulus"":""img/1to3/2.png"",""time"":204},{""stimulus"":""img/1to3/3.png"",""time"":302},{""stimulus"":""img/1to3/4.png"",""time"":402},{""stimulus"":""img/1to3/5.png"",""time"":501},{""stimulus"":""img/1to3/6.png"",""time"":601},{""stimulus"":""img/1to3/7.png"",""time"":701},{""stimulus"":""img/1to3/8.png"",""time"":801},{""stimulus"":""img/1to3/9.png"",""time"":902},{""stimulus"":""img/1to3/10.png"",""time"":1001},{""stimulus"":""img/1to3/11.png"",""time"":1101},{""stimulus"":""img/1to3/12.png"",""time"":1201}]","[]"
"image-keyboard-response","188","288463","0.0-5.0-1.92","63dc7b5bf451a34177b66c66","bdp_cybrbll","Sat Mar 25 2023 02:51:54 GMT-0400 (Eastern Daylight Time)","523054","3","1","","null","","","","observe","","img/3to2/1.png","null","133","160","0.5","0.1","3","2","",""
"animation","189","289758","0.0-5.0-2.92","63dc7b5bf451a34177b66c66","bdp_cybrbll","Sat Mar 25 2023 02:51:54 GMT-0400 (Eastern Daylight Time)","523054","3","1","","","","","","","","","","133","","","","3","2","[{""stimulus"":""img/3to2/1.png"",""time"":109},{""stimulus"":""img/3to2/2.png"",""time"":204},{""stimulus"":""img/3to2/3.png"",""time"":299},{""stimulus"":""img/3to2/4.png"",""time"":411},{""stimulus"":""img/3to2/5.png"",""time"":497},{""stimulus"":""img/3to2/6.png"",""time"":596},{""stimulus"":""img/3to2/7.png"",""time"":695},{""stimulus"":""img/3to2/8.png"",""time"":795},{""stimulus"":""img/3to2/9.png"",""time"":895},{""stimulus"":""img/3to2/10.png"",""time"":995},{""stimulus"":""img/3to2/11.png"",""time"":1095},{""stimulus"":""img/3to2/12.png"",""time"":1195}]","[]"
"image-keyboard-response","190","290346","0.0-5.0-1.93","63dc7b5bf451a34177b66c66","bdp_cybrbll","Sat Mar 25 2023 02:51:54 GMT-0400 (Eastern Daylight Time)","523054","3","1","","587","","","","choice","","img/2to1/1.png","1","132","206","0.5","0.1","2","1","",""
