"trial_type","trial_index","time_elapsed","internal_node_id","subject_id","task","startTime","totalTime","fairPartner","unfairPartner","view_history","rt","event","trial","time","trialtype","success","stimulus","key_press","throwsLeft","rtDur","pFair","pUnfair","holder","receiver","animation_sequence","responses"
"pavlovia","0","4","0.0-0.0","5fe354a2e44df4fb4634bbc3","bdp_cybrbll","Wed Mar 29 2023 16:21:16 GMT-0400 (Eastern Daylight Time)","444394","1","3","","","","","","","","","","","","","","","","",""
"instructions","1","2846","0.0-1.0","5fe354a2e44df4fb4634bbc3","bdp_cybrbll","Wed Mar 29 2023 16:21:16 GMT-0400 (Eastern Daylight Time)","444394","1","3","[{""page_index"":0,""viewing_time"":2842}]","2842","","","","","","","","","","","","","","",""
"","","","","5fe354a2e44df4fb4634bbc3","bdp_cybrbll","Wed Mar 29 2023 16:21:16 GMT-0400 (Eastern Daylight Time)","444394","1","3","","","fullscreenenter","2","6739","fullscreenenter","","","","","","","","","","",""
"fullscreen","2","7738","0.0-2.0","5fe354a2e44df4fb4634bbc3","bdp_cybrbll","Wed Mar 29 2023 16:21:16 GMT-0400 (Eastern Daylight Time)","444394","1","3","","","","","","","true","","","","","","","","","",""
"instructions","3","36411","0.0-4.0","5fe354a2e44df4fb4634bbc3","bdp_cybrbll","Wed Mar 29 2023 16:21:16 GMT-0400 (Eastern Daylight Time)","444394","1","3","[{""page_index"":0,""viewing_time"":28670}]","28670","","","","","","","","","","","","","","",""
"image-keyboard-response","4","37390","0.0-5.0-1.0","5fe354a2e44df4fb4634bbc3","bdp_cybrbll","Wed Mar 29 2023 16:21:16 GMT-0400 (Eastern Daylight Time)","444394","1","3","","976","","","","choice","","img/2to1/1.png","1","225","484","0.5","0.5","2","1","",""
"animation","5","38685","0.0-5.0-2.0","5fe354a2e44df4fb4634bbc3","bdp_cybrbll","Wed Mar 29 2023 16:21:16 GMT-0400 (Eastern Daylight Time)","444394","1","3","","","","","","","","","","225","","","","2","1","[{""stimulus"":""img/2to1/1.png"",""time"":105},{""stimulus"":""img/2to1/2.png"",""time"":206},{""stimulus"":""img/2to1/3.png"",""time"":301},{""stimulus"":""img/2to1/4.png"",""time"":398},{""stimulus"":""img/2to1/5.png"",""time"":505},{""stimulus"":""img/2to1/6.png"",""time"":600},{""stimulus"":""img/2to1/7.png"",""time"":704},{""stimulus"":""img/2to1/8.png"",""time"":798},{""stimulus"":""img/2to1/9.png"",""time"":894},{""stimulus"":""img/2to1/10.png"",""time"":1001},{""stimulus"":""img/2to1/11.png"",""time"":1097},{""stimulus"":""img/2to1/12.png"",""time"":1198}]","[]"
"image-keyboard-response","6","39444","0.0-5.0-1.1","5fe354a2e44df4fb4634bbc3","bdp_cybrbll","Wed Mar 29 2023 16:21:16 GMT-0400 (Eastern Daylight Time)","444394","1","3","","null","","","","observe","","img/1to3/1.png","null","224","753","0.5","0.5","1","3","",""
"animation","7","40743","0.0-5.0-2.1","5fe354a2e44df4fb4634bbc3","bdp_cybrbll","Wed Mar 29 2023 16:21:16 GMT-0400 (Eastern Daylight Time)","444394","1","3","","","","","","","","","","224","","","","1","3","[{""stimulus"":""img/1to3/1.png"",""time"":104},{""stimulus"":""img/1to3/2.png"",""time"":211},{""stimulus"":""img/1to3/3.png"",""time"":307},{""stimulus"":""img/1to3/4.png"",""time"":403},{""stimulus"":""img/1to3/5.png"",""time"":503},{""stimulus"":""img/1to3/6.png"",""time"":600},{""stimulus"":""img/1to3/7.png"",""time"":696},{""stimulus"":""img/1to3/8.png"",""time"":802},{""stimulus"":""img/1to3/9.png"",""time"":898},{""stimulus"":""img/1to3/10.png"",""time"":992},{""stimulus"":""img/1to3/11.png"",""time"":1096},{""stimulus"":""img/1to3/12.png"",""time"":1191}]","[]"
"image-keyboard-response","8","41255","0.0-5.0-1.2","5fe354a2e44df4fb4634bbc3","bdp_cybrbll","Wed Mar 29 2023 16:21:16 GMT-0400 (Eastern Daylight Time)","444394","1","3","","null","","","","observe","","img/3to2/1.png","null","223","502","0.5","0.5","3","2","",""
"animation","9","42551","0.0-5.0-2.2","5fe354a2e44df4fb4634bbc3","bdp_cybrbll","Wed Mar 29 2023 16:21:16 GMT-0400 (Eastern Daylight Time)","444394","1","3","","","","","","","","","","223","","","","3","2","[{""stimulus"":""img/3to2/1.png"",""time"":102},{""stimulus"":""img/3to2/2.png"",""time"":208},{""stimulus"":""img/3to2/3.png"",""time"":304},{""stimulus"":""img/3to2/4.png"",""time"":406},{""stimulus"":""img/3to2/5.png"",""time"":502},{""stimulus"":""img/3to2/6.png"",""time"":598},{""stimulus"":""img/3to2/7.png"",""time"":704},{""stimulus"":""img/3to2/8.png"",""time"":800},{""stimulus"":""img/3to2/9.png"",""time"":896},{""stimulus"":""img/3to2/10.png"",""time"":998},{""stimulus"":""img/3to2/11.png"",""time"":1094},{""stimulus"":""img/3to2/12.png"",""time"":1199}]","[]"
"image-keyboard-response","10","43955","0.0-5.0-1.3","5fe354a2e44df4fb4634bbc3","bdp_cybrbll","Wed Mar 29 2023 16:21:16 GMT-0400 (Eastern Daylight Time)","444394","1","3","","1403","","","","choice","","img/2to1/1.png","1","222","393","0.5","0.5","2","1","",""
"animation","11","45255","0.0-5.0-2.3","5fe354a2e44df4fb4634bbc3","bdp_cybrbll","Wed Mar 29 2023 16:21:16 GMT-0400 (Eastern Daylight Time)","444394","1","3","","","","","","","","","","222","","","","2","1","[{""stimulus"":""img/2to1/1.png"",""time"":106},{""stimulus"":""img/2to1/2.png"",""time"":202},{""stimulus"":""img/2to1/3.png"",""time"":308},{""stimulus"":""img/2to1/4.png"",""time"":404},{""stimulus"":""img/2to1/5.png"",""time"":499},{""stimulus"":""img/2to1/6.png"",""time"":602},{""stimulus"":""img/2to1/7.png"",""time"":698},{""stimulus"":""img/2to1/8.png"",""time"":804},{""stimulus"":""img/2to1/9.png"",""time"":900},{""stimulus"":""img/2to1/10.png"",""time"":996},{""stimulus"":""img/2to1/11.png"",""time"":1098},{""stimulus"":""img/2to1/12.png"",""time"":1197}]","[]"
"image-keyboard-response","12","45655","0.0-5.0-1.4","5fe354a2e44df4fb4634bbc3","bdp_cybrbll","Wed Mar 29 2023 16:21:16 GMT-0400 (Eastern Daylight Time)","444394","1","3","","null","","","","observe","","img/1to3/1.png","null","221","388","0.5","0.5","1","3","",""
"animation","13","46951","0.0-5.0-2.4","5fe354a2e44df4fb4634bbc3","bdp_cybrbll","Wed Mar 29 2023 16:21:16 GMT-0400 (Eastern Daylight Time)","444394","1","3","","","","","","","","","","221","","","","1","3","[{""stimulus"":""img/1to3/1.png"",""time"":102},{""stimulus"":""img/1to3/2.png"",""time"":208},{""stimulus"":""img/1to3/3.png"",""time"":304},{""stimulus"":""img/1to3/4.png"",""time"":405},{""stimulus"":""img/1to3/5.png"",""time"":502},{""stimulus"":""img/1to3/6.png"",""time"":597},{""stimulus"":""img/1to3/7.png"",""time"":704},{""stimulus"":""img/1to3/8.png"",""time"":798},{""stimulus"":""img/1to3/9.png"",""time"":896},{""stimulus"":""img/1to3/10.png"",""time"":998},{""stimulus"":""img/1to3/11.png"",""time"":1093},{""stimulus"":""img/1to3/12.png"",""time"":1200}]","[]"
"image-keyboard-response","14","47196","0.0-5.0-1.5","5fe354a2e44df4fb4634bbc3","bdp_cybrbll","Wed Mar 29 2023 16:21:16 GMT-0400 (Eastern Daylight Time)","444394","1","3","","null","","","","observe","","img/3to2/1.png","null","220","235","0.5","0.5","3","2","",""
"animation","15","48487","0.0-5.0-2.5","5fe354a2e44df4fb4634bbc3","bdp_cybrbll","Wed Mar 29 2023 16:21:16 GMT-0400 (Eastern Daylight Time)","444394","1","3","","","","","","","","","","220","","","","3","2","[{""stimulus"":""img/3to2/1.png"",""time"":107},{""stimulus"":""img/3to2/2.png"",""time"":208},{""stimulus"":""img/3to2/3.png"",""time"":304},{""stimulus"":""img/3to2/4.png"",""time"":401},{""stimulus"":""img/3to2/5.png"",""time"":507},{""stimulus"":""img/3to2/6.png"",""time"":601},{""stimulus"":""img/3to2/7.png"",""time"":699},{""stimulus"":""img/3to2/8.png"",""time"":800},{""stimulus"":""img/3to2/9.png"",""time"":896},{""stimulus"":""img/3to2/10.png"",""time"":1003},{""stimulus"":""img/3to2/11.png"",""time"":1099},{""stimulus"":""img/3to2/12.png"",""time"":1195}]","[]"
"image-keyboard-response","16","48643","0.0-5.0-1.6","5fe354a2e44df4fb4634bbc3","bdp_cybrbll","Wed Mar 29 2023 16:21:16 GMT-0400 (Eastern Daylight Time)","444394","1","3","","155","","","","choice","","img/2to1/1.png","2","219","440","0.5","0.5","2","3","",""
"animation","17","49943","0.0-5.0-2.6","5fe354a2e44df4fb4634bbc3","bdp_cybrbll","Wed Mar 29 2023 16:21:16 GMT-0400 (Eastern Daylight Time)","444394","1","3","","","","","","","","","","219","","","","2","3","[{""stimulus"":""img/2to3/1.png"",""time"":104},{""stimulus"":""img/2to3/2.png"",""time"":200},{""stimulus"":""img/2to3/3.png"",""time"":307},{""stimulus"":""img/2to3/4.png"",""time"":403},{""stimulus"":""img/2to3/5.png"",""time"":504},{""stimulus"":""img/2to3/6.png"",""time"":600},{""stimulus"":""img/2to3/7.png"",""time"":696},{""stimulus"":""img/2to3/8.png"",""time"":793},{""stimulus"":""img/2to3/9.png"",""time"":899},{""stimulus"":""img/2to3/10.png"",""time"":995},{""stimulus"":""img/2to3/11.png"",""time"":1096},{""stimulus"":""img/2to3/12.png"",""time"":1192}]","[]"
"image-keyboard-response","18","50732","0.0-5.0-1.7","5fe354a2e44df4fb4634bbc3","bdp_cybrbll","Wed Mar 29 2023 16:21:16 GMT-0400 (Eastern Daylight Time)","444394","1","3","","null","","","","observe","","img/3to2/1.png","null","218","785","0.5","0.5","3","1","",""
"animation","19","52023","0.0-5.0-2.7","5fe354a2e44df4fb4634bbc3","bdp_cybrbll","Wed Mar 29 2023 16:21:16 GMT-0400 (Eastern Daylight Time)","444394","1","3","","","","","","","","","","218","","","","3","1","[{""stimulus"":""img/3to1/1.png"",""time"":107},{""stimulus"":""img/3to1/2.png"",""time"":203},{""stimulus"":""img/3to1/3.png"",""time"":304},{""stimulus"":""img/3to1/4.png"",""time"":400},{""stimulus"":""img/3to1/5.png"",""time"":507},{""stimulus"":""img/3to1/6.png"",""time"":603},{""stimulus"":""img/3to1/7.png"",""time"":699},{""stimulus"":""img/3to1/8.png"",""time"":800},{""stimulus"":""img/3to1/9.png"",""time"":896},{""stimulus"":""img/3to1/10.png"",""time"":992},{""stimulus"":""img/3to1/11.png"",""time"":1099},{""stimulus"":""img/3to1/12.png"",""time"":1195}]","[]"
"image-keyboard-response","20","52972","0.0-5.0-1.8","5fe354a2e44df4fb4634bbc3","bdp_cybrbll","Wed Mar 29 2023 16:21:16 GMT-0400 (Eastern Daylight Time)","444394","1","3","","null","","","","observe","","img/1to3/1.png","null","217","946","0.5","0.5","1","3","",""
"animation","21","54268","0.0-5.0-2.8","5fe354a2e44df4fb4634bbc3","bdp_cybrbll","Wed Mar 29 2023 16:21:16 GMT-0400 (Eastern Daylight Time)","444394","1","3","","","","","","","","","","217","","","","1","3","[{""stimulus"":""img/1to3/1.png"",""time"":107},{""stimulus"":""img/1to3/2.png"",""time"":208},{""stimulus"":""img/1to3/3.png"",""time"":304},{""stimulus"":""img/1to3/4.png"",""time"":401},{""stimulus"":""img/1to3/5.png"",""time"":507},{""stimulus"":""img/1to3/6.png"",""time"":603},{""stimulus"":""img/1to3/7.png"",""time"":699},{""stimulus"":""img/1to3/8.png"",""time"":800},{""stimulus"":""img/1to3/9.png"",""time"":896},{""stimulus"":""img/1to3/10.png"",""time"":1003},{""stimulus"":""img/1to3/11.png"",""time"":1099},{""stimulus"":""img/1to3/12.png"",""time"":1195}]","[]"
"image-keyboard-response","22","54804","0.0-5.0-1.9","5fe354a2e44df4fb4634bbc3","bdp_cybrbll","Wed Mar 29 2023 16:21:16 GMT-0400 (Eastern Daylight Time)","444394","1","3","","null","","","","observe","","img/3to2/1.png","null","216","530","0.5","0.5","3","1","",""
"animation","23","56102","0.0-5.0-2.9","5fe354a2e44df4fb4634bbc3","bdp_cybrbll","Wed Mar 29 2023 16:21:16 GMT-0400 (Eastern Daylight Time)","444394","1","3","","","","","","","","","","216","","","","3","1","[{""stimulus"":""img/3to1/1.png"",""time"":104},{""stimulus"":""img/3to1/2.png"",""time"":211},{""stimulus"":""img/3to1/3.png"",""time"":307},{""stimulus"":""img/3to1/4.png"",""time"":403},{""stimulus"":""img/3to1/5.png"",""time"":504},{""stimulus"":""img/3to1/6.png"",""time"":600},{""stimulus"":""img/3to1/7.png"",""time"":696},{""stimulus"":""img/3to1/8.png"",""time"":803},{""stimulus"":""img/3to1/9.png"",""time"":899},{""stimulus"":""img/3to1/10.png"",""time"":1000},{""stimulus"":""img/3to1/11.png"",""time"":1096},{""stimulus"":""img/3to1/12.png"",""time"":1192}]","[]"
"image-keyboard-response","24","57052","0.0-5.0-1.10","5fe354a2e44df4fb4634bbc3","bdp_cybrbll","Wed Mar 29 2023 16:21:16 GMT-0400 (Eastern Daylight Time)","444394","1","3","","null","","","","observe","","img/1to3/1.png","null","215","943","0.5","0.5","1","2","",""
"animation","25","58348","0.0-5.0-2.10","5fe354a2e44df4fb4634bbc3","bdp_cybrbll","Wed Mar 29 2023 16:21:16 GMT-0400 (Eastern Daylight Time)","444394","1","3","","","","","","","","","","215","","","","1","2","[{""stimulus"":""img/1to2/1.png"",""time"":107},{""stimulus"":""img/1to2/2.png"",""time"":208},{""stimulus"":""img/1to2/3.png"",""time"":304},{""stimulus"":""img/1to2/4.png"",""time"":400},{""stimulus"":""img/1to2/5.png"",""time"":505},{""stimulus"":""img/1to2/6.png"",""time"":603},{""stimulus"":""img/1to2/7.png"",""time"":699},{""stimulus"":""img/1to2/8.png"",""time"":800},{""stimulus"":""img/1to2/9.png"",""time"":896},{""stimulus"":""img/1to2/10.png"",""time"":1003},{""stimulus"":""img/1to2/11.png"",""time"":1099},{""stimulus"":""img/1to2/12.png"",""time"":1194}]","[]"
"image-keyboard-response","26","58508","0.0-5.0-1.11","5fe354a2e44df4fb4634bbc3","bdp_cybrbll","Wed Mar 29 2023 16:21:16 GMT-0400 (Eastern Daylight Time)","444394","1","3","","159","","","","choice","","img/2to1/1.png","1","214","928","0.5","0.5","2","1","",""
"animation","27","59804","0.0-5.0-2.11","5fe354a2e44df4fb4634bbc3","bdp_cybrbll","Wed Mar 29 2023 16:21:16 GMT-0400 (Eastern Daylight Time)","444394","1","3","","","","","","","","","","214","","","","2","1","[{""stimulus"":""img/2to1/1.png"",""time"":106},{""stimulus"":""img/2to1/2.png"",""time"":207},{""stimulus"":""img/2to1/3.png"",""time"":305},{""stimulus"":""img/2to1/4.png"",""time"":399},{""stimulus"":""img/2to1/5.png"",""time"":503},{""stimulus"":""img/2to1/6.png"",""time"":602},{""stimulus"":""img/2to1/7.png"",""time"":698},{""stimulus"":""img/2to1/8.png"",""time"":799},{""stimulus"":""img/2to1/9.png"",""time"":895},{""stimulus"":""img/2to1/10.png"",""time"":1001},{""stimulus"":""img/2to1/11.png"",""time"":1098},{""stimulus"":""img/2to1/12.png"",""time"":1194}]","[]"
"image-keyboard-response","28","60491","0.0-5.0-1.12","5fe354a2e44df4fb4634bbc3","bdp_cybrbll","Wed Mar 29 2023 16:21:16 GMT-0400 (Eastern Daylight Time)","444394","1","3","","null","","","","observe","","img/1to3/1.png","null","213","682","0.5","0.5","1","2","",""
"animation","29","61787","0.0-5.0-2.12","5fe354a2e44df4fb4634bbc3","bdp_cybrbll","Wed Mar 29 2023 16:21:16 GMT-0400 (Eastern Daylight Time)","444394","1","3","","","","","","","","","","213","","","","1","2","[{""stimulus"":""img/1to2/1.png"",""time"":108},{""stimulus"":""img/1to2/2.png"",""time"":204},{""stimulus"":""img/1to2/3.png"",""time"":300},{""stimulus"":""img/1to2/4.png"",""time"":401},{""stimulus"":""img/1to2/5.png"",""time"":508},{""stimulus"":""img/1to2/6.png"",""time"":604},{""stimulus"":""img/1to2/7.png"",""time"":700},{""stimulus"":""img/1to2/8.png"",""time"":801},{""stimulus"":""img/1to2/9.png"",""time"":897},{""stimulus"":""img/1to2/10.png"",""time"":993},{""stimulus"":""img/1to2/11.png"",""time"":1097},{""stimulus"":""img/1to2/12.png"",""time"":1196}]","[]"
"image-keyboard-response","30","62144","0.0-5.0-1.13","5fe354a2e44df4fb4634bbc3","bdp_cybrbll","Wed Mar 29 2023 16:21:16 GMT-0400 (Eastern Daylight Time)","444394","1","3","","355","","","","choice","","img/2to1/1.png","1","212","258","0.5","0.5","2","1","",""
"animation","31","63436","0.0-5.0-2.13","5fe354a2e44df4fb4634bbc3","bdp_cybrbll","Wed Mar 29 2023 16:21:16 GMT-0400 (Eastern Daylight Time)","444394","1","3","","","","","","","","","","212","","","","2","1","[{""stimulus"":""img/2to1/1.png"",""time"":108},{""stimulus"":""img/2to1/2.png"",""time"":204},{""stimulus"":""img/2to1/3.png"",""time"":299},{""stimulus"":""img/2to1/4.png"",""time"":407},{""stimulus"":""img/2to1/5.png"",""time"":502},{""stimulus"":""img/2to1/6.png"",""time"":604},{""stimulus"":""img/2to1/7.png"",""time"":700},{""stimulus"":""img/2to1/8.png"",""time"":796},{""stimulus"":""img/2to1/9.png"",""time"":903},{""stimulus"":""img/2to1/10.png"",""time"":999},{""stimulus"":""img/2to1/11.png"",""time"":1094},{""stimulus"":""img/2to1/12.png"",""time"":1196}]","[]"
"image-keyboard-response","32","63766","0.0-5.0-1.14","5fe354a2e44df4fb4634bbc3","bdp_cybrbll","Wed Mar 29 2023 16:21:16 GMT-0400 (Eastern Daylight Time)","444394","1","3","","null","","","","observe","","img/1to3/1.png","null","211","317","0.5","0.5","1","2","",""
"animation","33","65062","0.0-5.0-2.14","5fe354a2e44df4fb4634bbc3","bdp_cybrbll","Wed Mar 29 2023 16:21:16 GMT-0400 (Eastern Daylight Time)","444394","1","3","","","","","","","","","","211","","","","1","2","[{""stimulus"":""img/1to2/1.png"",""time"":102},{""stimulus"":""img/1to2/2.png"",""time"":209},{""stimulus"":""img/1to2/3.png"",""time"":304},{""stimulus"":""img/1to2/4.png"",""time"":406},{""stimulus"":""img/1to2/5.png"",""time"":502},{""stimulus"":""img/1to2/6.png"",""time"":598},{""stimulus"":""img/1to2/7.png"",""time"":704},{""stimulus"":""img/1to2/8.png"",""time"":800},{""stimulus"":""img/1to2/9.png"",""time"":896},{""stimulus"":""img/1to2/10.png"",""time"":998},{""stimulus"":""img/1to2/11.png"",""time"":1094},{""stimulus"":""img/1to2/12.png"",""time"":1200}]","[]"
"image-keyboard-response","34","65511","0.0-5.0-1.15","5fe354a2e44df4fb4634bbc3","bdp_cybrbll","Wed Mar 29 2023 16:21:16 GMT-0400 (Eastern Daylight Time)","444394","1","3","","448","","","","choice","","img/2to1/1.png","1","210","439","0.5","0.5","2","1","",""
"animation","35","66804","0.0-5.0-2.15","5fe354a2e44df4fb4634bbc3","bdp_cybrbll","Wed Mar 29 2023 16:21:16 GMT-0400 (Eastern Daylight Time)","444394","1","3","","","","","","","","","","210","","","","2","1","[{""stimulus"":""img/2to1/1.png"",""time"":100},{""stimulus"":""img/2to1/2.png"",""time"":206},{""stimulus"":""img/2to1/3.png"",""time"":302},{""stimulus"":""img/2to1/4.png"",""time"":403},{""stimulus"":""img/2to1/5.png"",""time"":500},{""stimulus"":""img/2to1/6.png"",""time"":596},{""stimulus"":""img/2to1/7.png"",""time"":702},{""stimulus"":""img/2to1/8.png"",""time"":798},{""stimulus"":""img/2to1/9.png"",""time"":899},{""stimulus"":""img/2to1/10.png"",""time"":991},{""stimulus"":""img/2to1/11.png"",""time"":1092},{""stimulus"":""img/2to1/12.png"",""time"":1198}]","[]"
"image-keyboard-response","36","67611","0.0-5.0-1.16","5fe354a2e44df4fb4634bbc3","bdp_cybrbll","Wed Mar 29 2023 16:21:16 GMT-0400 (Eastern Daylight Time)","444394","1","3","","null","","","","observe","","img/1to3/1.png","null","209","804","0.5","0.5","1","2","",""
"animation","37","68907","0.0-5.0-2.16","5fe354a2e44df4fb4634bbc3","bdp_cybrbll","Wed Mar 29 2023 16:21:16 GMT-0400 (Eastern Daylight Time)","444394","1","3","","","","","","","","","","209","","","","1","2","[{""stimulus"":""img/1to2/1.png"",""time"":107},{""stimulus"":""img/1to2/2.png"",""time"":208},{""stimulus"":""img/1to2/3.png"",""time"":304},{""stimulus"":""img/1to2/4.png"",""time"":400},{""stimulus"":""img/1to2/5.png"",""time"":506},{""stimulus"":""img/1to2/6.png"",""time"":602},{""stimulus"":""img/1to2/7.png"",""time"":698},{""stimulus"":""img/1to2/8.png"",""time"":799},{""stimulus"":""img/1to2/9.png"",""time"":896},{""stimulus"":""img/1to2/10.png"",""time"":1002},{""stimulus"":""img/1to2/11.png"",""time"":1098},{""stimulus"":""img/1to2/12.png"",""time"":1192}]","[]"
"image-keyboard-response","38","68969","0.0-5.0-1.17","5fe354a2e44df4fb4634bbc3","bdp_cybrbll","Wed Mar 29 2023 16:21:16 GMT-0400 (Eastern Daylight Time)","444394","1","3","","60","","","","choice","","img/2to1/1.png","2","208","280","0.5","0.5","2","3","",""
"animation","39","70262","0.0-5.0-2.17","5fe354a2e44df4fb4634bbc3","bdp_cybrbll","Wed Mar 29 2023 16:21:16 GMT-0400 (Eastern Daylight Time)","444394","1","3","","","","","","","","","","208","","","","2","3","[{""stimulus"":""img/2to3/1.png"",""time"":108},{""stimulus"":""img/2to3/2.png"",""time"":204},{""stimulus"":""img/2to3/3.png"",""time"":306},{""stimulus"":""img/2to3/4.png"",""time"":402},{""stimulus"":""img/2to3/5.png"",""time"":498},{""stimulus"":""img/2to3/6.png"",""time"":604},{""stimulus"":""img/2to3/7.png"",""time"":700},{""stimulus"":""img/2to3/8.png"",""time"":802},{""stimulus"":""img/2to3/9.png"",""time"":897},{""stimulus"":""img/2to3/10.png"",""time"":994},{""stimulus"":""img/2to3/11.png"",""time"":1100},{""stimulus"":""img/2to3/12.png"",""time"":1196}]","[]"
"image-keyboard-response","40","70758","0.0-5.0-1.18","5fe354a2e44df4fb4634bbc3","bdp_cybrbll","Wed Mar 29 2023 16:21:16 GMT-0400 (Eastern Daylight Time)","444394","1","3","","null","","","","observe","","img/3to2/1.png","null","207","488","0.5","0.5","3","1","",""
"animation","41","72054","0.0-5.0-2.18","5fe354a2e44df4fb4634bbc3","bdp_cybrbll","Wed Mar 29 2023 16:21:16 GMT-0400 (Eastern Daylight Time)","444394","1","3","","","","","","","","","","207","","","","3","1","[{""stimulus"":""img/3to1/1.png"",""time"":102},{""stimulus"":""img/3to1/2.png"",""time"":208},{""stimulus"":""img/3to1/3.png"",""time"":304},{""stimulus"":""img/3to1/4.png"",""time"":406},{""stimulus"":""img/3to1/5.png"",""time"":502},{""stimulus"":""img/3to1/6.png"",""time"":598},{""stimulus"":""img/3to1/7.png"",""time"":704},{""stimulus"":""img/3to1/8.png"",""time"":800},{""stimulus"":""img/3to1/9.png"",""time"":896},{""stimulus"":""img/3to1/10.png"",""time"":998},{""stimulus"":""img/3to1/11.png"",""time"":1094},{""stimulus"":""img/3to1/12.png"",""time"":1200}]","[]"
"image-keyboard-response","42","72267","0.0-5.0-1.19","5fe354a2e44df4fb4634bbc3","bdp_cybrbll","Wed Mar 29 2023 16:21:16 GMT-0400 (Eastern Daylight Time)","444394","1","3","","null","","","","observe","","img/1to3/1.png","null","206","206","0.5","0.5","1","3","",""
"animation","43","73563","0.0-5.0-2.19","5fe354a2e44df4fb4634bbc3","bdp_cybrbll","Wed Mar 29 2023 16:21:16 GMT-0400 (Eastern Daylight Time)","444394","1","3","","","","","","","","","","206","","","","1","3","[{""stimulus"":""img/1to3/1.png"",""time"":107},{""stimulus"":""img/1to3/2.png"",""time"":203},{""stimulus"":""img/1to3/3.png"",""time"":304},{""stimulus"":""img/1to3/4.png"",""time"":400},{""stimulus"":""img/1to3/5.png"",""time"":507},{""stimulus"":""img/1to3/6.png"",""time"":603},{""stimulus"":""img/1to3/7.png"",""time"":699},{""stimulus"":""img/1to3/8.png"",""time"":800},{""stimulus"":""img/1to3/9.png"",""time"":897},{""stimulus"":""img/1to3/10.png"",""time"":1003},{""stimulus"":""img/1to3/11.png"",""time"":1099},{""stimulus"":""img/1to3/12.png"",""time"":1195}]","[]"
"image-keyboard-response","44","74438","0.0-5.0-1.20","5fe354a2e44df4fb4634bbc3","bdp_cybrbll","Wed Mar 29 2023 16:21:16 GMT-0400 (Eastern Daylight Time)","444394","1","3","","null","","","","observe","","img/3to2/1.png","null","205","871","0.5","0.5","3","2","",""
"animation","45","75733","0.0-5.0-2.20","5fe354a2e44df4fb4634bbc3","bdp_cybrbll","Wed Mar 29 2023 16:21:16 GMT-0400 (Eastern Daylight Time)","444394","1","3","","","","","","","","","","205","","","","3","2","[{""stimulus"":""img/3to2/1.png"",""time"":109},{""stimulus"":""img/3to2/2.png"",""time"":207},{""stimulus"":""img/3to2/3.png"",""time"":304},{""stimulus"":""img/3to2/4.png"",""time"":405},{""stimulus"":""img/3to2/5.png"",""time"":502},{""stimulus"":""img/3to2/6.png"",""time"":597},{""stimulus"":""img/3to2/7.png"",""time"":704},{""stimulus"":""img/3to2/8.png"",""time"":800},{""stimulus"":""img/3to2/9.png"",""time"":902},{""stimulus"":""img/3to2/10.png"",""time"":998},{""stimulus"":""img/3to2/11.png"",""time"":1093},{""stimulus"":""img/3to2/12.png"",""time"":1200}]","[]"
"image-keyboard-response","46","76916","0.0-5.0-1.21","5fe354a2e44df4fb4634bbc3","bdp_cybrbll","Wed Mar 29 2023 16:21:16 GMT-0400 (Eastern Daylight Time)","444394","1","3","","1182","","","","choice","","img/2to1/1.png","2","204","224","0.5","0.5","2","3","",""
"animation","47","78214","0.0-5.0-2.21","5fe354a2e44df4fb4634bbc3","bdp_cybrbll","Wed Mar 29 2023 16:21:16 GMT-0400 (Eastern Daylight Time)","444394","1","3","","","","","","","","","","204","","","","2","3","[{""stimulus"":""img/2to3/1.png"",""time"":104},{""stimulus"":""img/2to3/2.png"",""time"":210},{""stimulus"":""img/2to3/3.png"",""time"":306},{""stimulus"":""img/2to3/4.png"",""time"":402},{""stimulus"":""img/2to3/5.png"",""time"":503},{""stimulus"":""img/2to3/6.png"",""time"":600},{""stimulus"":""img/2to3/7.png"",""time"":695},{""stimulus"":""img/2to3/8.png"",""time"":801},{""stimulus"":""img/2to3/9.png"",""time"":898},{""stimulus"":""img/2to3/10.png"",""time"":999},{""stimulus"":""img/2to3/11.png"",""time"":1095},{""stimulus"":""img/2to3/12.png"",""time"":1191}]","[]"
"image-keyboard-response","48","78667","0.0-5.0-1.22","5fe354a2e44df4fb4634bbc3","bdp_cybrbll","Wed Mar 29 2023 16:21:16 GMT-0400 (Eastern Daylight Time)","444394","1","3","","null","","","","observe","","img/3to2/1.png","null","203","449","0.5","0.5","3","1","",""
"animation","49","79963","0.0-5.0-2.22","5fe354a2e44df4fb4634bbc3","bdp_cybrbll","Wed Mar 29 2023 16:21:16 GMT-0400 (Eastern Daylight Time)","444394","1","3","","","","","","","","","","203","","","","3","1","[{""stimulus"":""img/3to1/1.png"",""time"":107},{""stimulus"":""img/3to1/2.png"",""time"":208},{""stimulus"":""img/3to1/3.png"",""time"":304},{""stimulus"":""img/3to1/4.png"",""time"":400},{""stimulus"":""img/3to1/5.png"",""time"":507},{""stimulus"":""img/3to1/6.png"",""time"":603},{""stimulus"":""img/3to1/7.png"",""time"":698},{""stimulus"":""img/3to1/8.png"",""time"":800},{""stimulus"":""img/3to1/9.png"",""time"":896},{""stimulus"":""img/3to1/10.png"",""time"":1003},{""stimulus"":""img/3to1/11.png"",""time"":1099},{""stimulus"":""img/3to1/12.png"",""time"":1195}]","[]"
"image-keyboard-response","50","80523","0.0-5.0-1.23","5fe354a2e44df4fb4634bbc3","bdp_cybrbll","Wed Mar 29 2023 16:21:16 GMT-0400 (Eastern Daylight Time)","444394","1","3","","null","","","","observe","","img/1to3/1.png","null","202","556","0.5","0.5","1","2","",""
"animation","51","81818","0.0-5.0-2.23","5fe354a2e44df4fb4634bbc3","bdp_cybrbll","Wed Mar 29 2023 16:21:16 GMT-0400 (Eastern Daylight Time)","444394","1","3","","","","","","","","","","202","","","","1","2","[{""stimulus"":""img/1to2/1.png"",""time"":106},{""stimulus"":""img/1to2/2.png"",""time"":202},{""stimulus"":""img/1to2/3.png"",""time"":304},{""stimulus"":""img/1to2/4.png"",""time"":400},{""stimulus"":""img/1to2/5.png"",""time"":496},{""stimulus"":""img/1to2/6.png"",""time"":603},{""stimulus"":""img/1to2/7.png"",""time"":699},{""stimulus"":""img/1to2/8.png"",""time"":800},{""stimulus"":""img/1to2/9.png"",""time"":896},{""stimulus"":""img/1to2/10.png"",""time"":1003},{""stimulus"":""img/1to2/11.png"",""time"":1099},{""stimulus"":""img/1to2/12.png"",""time"":1195}]","[]"
"image-keyboard-response","52","82242","0.0-5.0-1.24","5fe354a2e44df4fb4634bbc3","bdp_cybrbll","Wed Mar 29 2023 16:21:16 GMT-0400 (Eastern Daylight Time)","444394","1","3","","422","","","","choice","","img/2to1/1.png","2","201","739","0.5","0.5","2","3","",""
"animation","53","83541","0.0-5.0-2.24","5fe354a2e44df4fb4634bbc3","bdp_cybrbll","Wed Mar 29 2023 16:21:16 GMT-0400 (Eastern Daylight Time)","444394","1","3","","","","","","","","","","201","","","","2","3","[{""stimulus"":""img/2to3/1.png"",""time"":105},{""stimulus"":""img/2to3/2.png"",""time"":200},{""stimulus"":""img/2to3/3.png"",""time"":308},{""stimulus"":""img/2to3/4.png"",""time"":404},{""stimulus"":""img/2to3/5.png"",""time"":500},{""stimulus"":""img/2to3/6.png"",""time"":601},{""stimulus"":""img/2to3/7.png"",""time"":697},{""stimulus"":""img/2to3/8.png"",""time"":804},{""stimulus"":""img/2to3/9.png"",""time"":900},{""stimulus"":""img/2to3/10.png"",""time"":996},{""stimulus"":""img/2to3/11.png"",""time"":1097},{""stimulus"":""img/2to3/12.png"",""time"":1193}]","[]"
"image-keyboard-response","54","83893","0.0-5.0-1.25","5fe354a2e44df4fb4634bbc3","bdp_cybrbll","Wed Mar 29 2023 16:21:16 GMT-0400 (Eastern Daylight Time)","444394","1","3","","null","","","","observe","","img/3to2/1.png","null","200","345","0.5","0.5","3","2","",""
"animation","55","85189","0.0-5.0-2.25","5fe354a2e44df4fb4634bbc3","bdp_cybrbll","Wed Mar 29 2023 16:21:16 GMT-0400 (Eastern Daylight Time)","444394","1","3","","","","","","","","","","200","","","","3","2","[{""stimulus"":""img/3to2/1.png"",""time"":101},{""stimulus"":""img/3to2/2.png"",""time"":207},{""stimulus"":""img/3to2/3.png"",""time"":304},{""stimulus"":""img/3to2/4.png"",""time"":405},{""stimulus"":""img/3to2/5.png"",""time"":501},{""stimulus"":""img/3to2/6.png"",""time"":597},{""stimulus"":""img/3to2/7.png"",""time"":704},{""stimulus"":""img/3to2/8.png"",""time"":799},{""stimulus"":""img/3to2/9.png"",""time"":896},{""stimulus"":""img/3to2/10.png"",""time"":997},{""stimulus"":""img/3to2/11.png"",""time"":1093},{""stimulus"":""img/3to2/12.png"",""time"":1200}]","[]"
"image-keyboard-response","56","85203","0.0-5.0-1.26","5fe354a2e44df4fb4634bbc3","bdp_cybrbll","Wed Mar 29 2023 16:21:16 GMT-0400 (Eastern Daylight Time)","444394","1","3","","12","","","","choice","","img/2to1/1.png","1","199","489","0.5","0.5","2","1","",""
"animation","57","86501","0.0-5.0-2.26","5fe354a2e44df4fb4634bbc3","bdp_cybrbll","Wed Mar 29 2023 16:21:16 GMT-0400 (Eastern Daylight Time)","444394","1","3","","","","","","","","","","199","","","","2","1","[{""stimulus"":""img/2to1/1.png"",""time"":104},{""stimulus"":""img/2to1/2.png"",""time"":200},{""stimulus"":""img/2to1/3.png"",""time"":306},{""stimulus"":""img/2to1/4.png"",""time"":403},{""stimulus"":""img/2to1/5.png"",""time"":503},{""stimulus"":""img/2to1/6.png"",""time"":600},{""stimulus"":""img/2to1/7.png"",""time"":696},{""stimulus"":""img/2to1/8.png"",""time"":803},{""stimulus"":""img/2to1/9.png"",""time"":898},{""stimulus"":""img/2to1/10.png"",""time"":995},{""stimulus"":""img/2to1/11.png"",""time"":1096},{""stimulus"":""img/2to1/12.png"",""time"":1192}]","[]"
"image-keyboard-response","58","87387","0.0-5.0-1.27","5fe354a2e44df4fb4634bbc3","bdp_cybrbll","Wed Mar 29 2023 16:21:16 GMT-0400 (Eastern Daylight Time)","444394","1","3","","null","","","","observe","","img/1to3/1.png","null","198","881","0.5","0.5","1","3","",""
"animation","59","88682","0.0-5.0-2.27","5fe354a2e44df4fb4634bbc3","bdp_cybrbll","Wed Mar 29 2023 16:21:16 GMT-0400 (Eastern Daylight Time)","444394","1","3","","","","","","","","","","198","","","","1","3","[{""stimulus"":""img/1to3/1.png"",""time"":107},{""stimulus"":""img/1to3/2.png"",""time"":203},{""stimulus"":""img/1to3/3.png"",""time"":304},{""stimulus"":""img/1to3/4.png"",""time"":399},{""stimulus"":""img/1to3/5.png"",""time"":507},{""stimulus"":""img/1to3/6.png"",""time"":603},{""stimulus"":""img/1to3/7.png"",""time"":699},{""stimulus"":""img/1to3/8.png"",""time"":800},{""stimulus"":""img/1to3/9.png"",""time"":896},{""stimulus"":""img/1to3/10.png"",""time"":992},{""stimulus"":""img/1to3/11.png"",""time"":1099},{""stimulus"":""img/1to3/12.png"",""time"":1194}]","[]"
"image-keyboard-response","60","88890","0.0-5.0-1.28","5fe354a2e44df4fb4634bbc3","bdp_cybrbll","Wed Mar 29 2023 16:21:16 GMT-0400 (Eastern Daylight Time)","444394","1","3","","null","","","","observe","","img/3to2/1.png","null","197","199","0.5","0.5","3","2","",""
"animation","61","90187","0.0-5.0-2.28","5fe354a2e44df4fb4634bbc3","bdp_cybrbll","Wed Mar 29 2023 16:21:16 GMT-0400 (Eastern Daylight Time)","444394","1","3","","","","","","","","","","197","","","","3","2","[{""stimulus"":""img/3to2/1.png"",""time"":107},{""stimulus"":""img/3to2/2.png"",""time"":203},{""stimulus"":""img/3to2/3.png"",""time"":304},{""stimulus"":""img/3to2/4.png"",""time"":400},{""stimulus"":""img/3to2/5.png"",""time"":507},{""stimulus"":""img/3to2/6.png"",""time"":603},{""stimulus"":""img/3to2/7.png"",""time"":699},{""stimulus"":""img/3to2/8.png"",""time"":800},{""stimulus"":""img/3to2/9.png"",""time"":896},{""stimulus"":""img/3to2/10.png"",""time"":1003},{""stimulus"":""img/3to2/11.png"",""time"":1099},{""stimulus"":""img/3to2/12.png"",""time"":1194}]","[]"
"image-keyboard-response","62","90338","0.0-5.0-1.29","5fe354a2e44df4fb4634bbc3","bdp_cybrbll","Wed Mar 29 2023 16:21:16 GMT-0400 (Eastern Daylight Time)","444394","1","3","","150","","","","choice","","img/2to1/1.png","1","196","542","0.5","0.5","2","1","",""
"animation","63","91637","0.0-5.0-2.29","5fe354a2e44df4fb4634bbc3","bdp_cybrbll","Wed Mar 29 2023 16:21:16 GMT-0400 (Eastern Daylight Time)","444394","1","3","","","","","","","","","","196","","","","2","1","[{""stimulus"":""img/2to1/1.png"",""time"":100},{""stimulus"":""img/2to1/2.png"",""time"":201},{""stimulus"":""img/2to1/3.png"",""time"":307},{""stimulus"":""img/2to1/4.png"",""time"":404},{""stimulus"":""img/2to1/5.png"",""time"":505},{""stimulus"":""img/2to1/6.png"",""time"":601},{""stimulus"":""img/2to1/7.png"",""time"":697},{""stimulus"":""img/2to1/8.png"",""time"":804},{""stimulus"":""img/2to1/9.png"",""time"":900},{""stimulus"":""img/2to1/10.png"",""time"":996},{""stimulus"":""img/2to1/11.png"",""time"":1097},{""stimulus"":""img/2to1/12.png"",""time"":1193}]","[]"
"image-keyboard-response","64","92565","0.0-5.0-1.30","5fe354a2e44df4fb4634bbc3","bdp_cybrbll","Wed Mar 29 2023 16:21:16 GMT-0400 (Eastern Daylight Time)","444394","1","3","","null","","","","observe","","img/1to3/1.png","null","195","916","0.5","0.5","1","2","",""
"animation","65","93861","0.0-5.0-2.30","5fe354a2e44df4fb4634bbc3","bdp_cybrbll","Wed Mar 29 2023 16:21:16 GMT-0400 (Eastern Daylight Time)","444394","1","3","","","","","","","","","","195","","","","1","2","[{""stimulus"":""img/1to2/1.png"",""time"":102},{""stimulus"":""img/1to2/2.png"",""time"":209},{""stimulus"":""img/1to2/3.png"",""time"":305},{""stimulus"":""img/1to2/4.png"",""time"":406},{""stimulus"":""img/1to2/5.png"",""time"":501},{""stimulus"":""img/1to2/6.png"",""time"":597},{""stimulus"":""img/1to2/7.png"",""time"":705},{""stimulus"":""img/1to2/8.png"",""time"":800},{""stimulus"":""img/1to2/9.png"",""time"":896},{""stimulus"":""img/1to2/10.png"",""time"":998},{""stimulus"":""img/1to2/11.png"",""time"":1094},{""stimulus"":""img/1to2/12.png"",""time"":1201}]","[]"
"image-keyboard-response","66","93940","0.0-5.0-1.31","5fe354a2e44df4fb4634bbc3","bdp_cybrbll","Wed Mar 29 2023 16:21:16 GMT-0400 (Eastern Daylight Time)","444394","1","3","","77","","","","choice","","img/2to1/1.png","2","194","282","0.5","0.5","2","3","",""
"animation","67","95237","0.0-5.0-2.31","5fe354a2e44df4fb4634bbc3","bdp_cybrbll","Wed Mar 29 2023 16:21:16 GMT-0400 (Eastern Daylight Time)","444394","1","3","","","","","","","","","","194","","","","2","3","[{""stimulus"":""img/2to3/1.png"",""time"":103},{""stimulus"":""img/2to3/2.png"",""time"":210},{""stimulus"":""img/2to3/3.png"",""time"":305},{""stimulus"":""img/2to3/4.png"",""time"":401},{""stimulus"":""img/2to3/5.png"",""time"":498},{""stimulus"":""img/2to3/6.png"",""time"":599},{""stimulus"":""img/2to3/7.png"",""time"":705},{""stimulus"":""img/2to3/8.png"",""time"":801},{""stimulus"":""img/2to3/9.png"",""time"":898},{""stimulus"":""img/2to3/10.png"",""time"":999},{""stimulus"":""img/2to3/11.png"",""time"":1094},{""stimulus"":""img/2to3/12.png"",""time"":1191}]","[]"
"image-keyboard-response","68","95685","0.0-5.0-1.32","5fe354a2e44df4fb4634bbc3","bdp_cybrbll","Wed Mar 29 2023 16:21:16 GMT-0400 (Eastern Daylight Time)","444394","1","3","","null","","","","observe","","img/3to2/1.png","null","193","435","0.5","0.5","3","1","",""
"animation","69","96981","0.0-5.0-2.32","5fe354a2e44df4fb4634bbc3","bdp_cybrbll","Wed Mar 29 2023 16:21:16 GMT-0400 (Eastern Daylight Time)","444394","1","3","","","","","","","","","","193","","","","3","1","[{""stimulus"":""img/3to1/1.png"",""time"":102},{""stimulus"":""img/3to1/2.png"",""time"":208},{""stimulus"":""img/3to1/3.png"",""time"":304},{""stimulus"":""img/3to1/4.png"",""time"":406},{""stimulus"":""img/3to1/5.png"",""time"":502},{""stimulus"":""img/3to1/6.png"",""time"":597},{""stimulus"":""img/3to1/7.png"",""time"":704},{""stimulus"":""img/3to1/8.png"",""time"":800},{""stimulus"":""img/3to1/9.png"",""time"":896},{""stimulus"":""img/3to1/10.png"",""time"":998},{""stimulus"":""img/3to1/11.png"",""time"":1094},{""stimulus"":""img/3to1/12.png"",""time"":1200}]","[]"
"image-keyboard-response","70","98021","0.0-5.0-1.33","5fe354a2e44df4fb4634bbc3","bdp_cybrbll","Wed Mar 29 2023 16:21:16 GMT-0400 (Eastern Daylight Time)","444394","1","3","","null","","","","observe","","img/1to3/1.png","null","192","1036","0.5","0.5","1","3","",""
"animation","71","99317","0.0-5.0-2.33","5fe354a2e44df4fb4634bbc3","bdp_cybrbll","Wed Mar 29 2023 16:21:16 GMT-0400 (Eastern Daylight Time)","444394","1","3","","","","","","","","","","192","","","","1","3","[{""stimulus"":""img/1to3/1.png"",""time"":102},{""stimulus"":""img/1to3/2.png"",""time"":208},{""stimulus"":""img/1to3/3.png"",""time"":304},{""stimulus"":""img/1to3/4.png"",""time"":406},{""stimulus"":""img/1to3/5.png"",""time"":502},{""stimulus"":""img/1to3/6.png"",""time"":598},{""stimulus"":""img/1to3/7.png"",""time"":704},{""stimulus"":""img/1to3/8.png"",""time"":800},{""stimulus"":""img/1to3/9.png"",""time"":896},{""stimulus"":""img/1to3/10.png"",""time"":998},{""stimulus"":""img/1to3/11.png"",""time"":1094},{""stimulus"":""img/1to3/12.png"",""time"":1200}]","[]"
"image-keyboard-response","72","99973","0.0-5.0-1.34","5fe354a2e44df4fb4634bbc3","bdp_cybrbll","Wed Mar 29 2023 16:21:16 GMT-0400 (Eastern Daylight Time)","444394","1","3","","null","","","","observe","","img/3to2/1.png","null","191","650","0.5","0.5","3","2","",""
"animation","73","101269","0.0-5.0-2.34","5fe354a2e44df4fb4634bbc3","bdp_cybrbll","Wed Mar 29 2023 16:21:16 GMT-0400 (Eastern Daylight Time)","444394","1","3","","","","","","","","","","191","","","","3","2","[{""stimulus"":""img/3to2/1.png"",""time"":102},{""stimulus"":""img/3to2/2.png"",""time"":208},{""stimulus"":""img/3to2/3.png"",""time"":304},{""stimulus"":""img/3to2/4.png"",""time"":406},{""stimulus"":""img/3to2/5.png"",""time"":501},{""stimulus"":""img/3to2/6.png"",""time"":598},{""stimulus"":""img/3to2/7.png"",""time"":694},{""stimulus"":""img/3to2/8.png"",""time"":800},{""stimulus"":""img/3to2/9.png"",""time"":896},{""stimulus"":""img/3to2/10.png"",""time"":998},{""stimulus"":""img/3to2/11.png"",""time"":1093},{""stimulus"":""img/3to2/12.png"",""time"":1200}]","[]"
"image-keyboard-response","74","101312","0.0-5.0-1.35","5fe354a2e44df4fb4634bbc3","bdp_cybrbll","Wed Mar 29 2023 16:21:16 GMT-0400 (Eastern Daylight Time)","444394","1","3","","42","","","","choice","","img/2to1/1.png","2","190","158","0.5","0.5","2","3","",""
"animation","75","102602","0.0-5.0-2.35","5fe354a2e44df4fb4634bbc3","bdp_cybrbll","Wed Mar 29 2023 16:21:16 GMT-0400 (Eastern Daylight Time)","444394","1","3","","","","","","","","","","190","","","","2","3","[{""stimulus"":""img/2to3/1.png"",""time"":107},{""stimulus"":""img/2to3/2.png"",""time"":203},{""stimulus"":""img/2to3/3.png"",""time"":309},{""stimulus"":""img/2to3/4.png"",""time"":405},{""stimulus"":""img/2to3/5.png"",""time"":501},{""stimulus"":""img/2to3/6.png"",""time"":602},{""stimulus"":""img/2to3/7.png"",""time"":699},{""stimulus"":""img/2to3/8.png"",""time"":794},{""stimulus"":""img/2to3/9.png"",""time"":901},{""stimulus"":""img/2to3/10.png"",""time"":997},{""stimulus"":""img/2to3/11.png"",""time"":1098},{""stimulus"":""img/2to3/12.png"",""time"":1195}]","[]"
"image-keyboard-response","76","102954","0.0-5.0-1.36","5fe354a2e44df4fb4634bbc3","bdp_cybrbll","Wed Mar 29 2023 16:21:16 GMT-0400 (Eastern Daylight Time)","444394","1","3","","null","","","","observe","","img/3to2/1.png","null","189","348","0.5","0.5","3","1","",""
"animation","77","104250","0.0-5.0-2.36","5fe354a2e44df4fb4634bbc3","bdp_cybrbll","Wed Mar 29 2023 16:21:16 GMT-0400 (Eastern Daylight Time)","444394","1","3","","","","","","","","","","189","","","","3","1","[{""stimulus"":""img/3to1/1.png"",""time"":107},{""stimulus"":""img/3to1/2.png"",""time"":203},{""stimulus"":""img/3to1/3.png"",""time"":305},{""stimulus"":""img/3to1/4.png"",""time"":400},{""stimulus"":""img/3to1/5.png"",""time"":507},{""stimulus"":""img/3to1/6.png"",""time"":603},{""stimulus"":""img/3to1/7.png"",""time"":699},{""stimulus"":""img/3to1/8.png"",""time"":800},{""stimulus"":""img/3to1/9.png"",""time"":896},{""stimulus"":""img/3to1/10.png"",""time"":992},{""stimulus"":""img/3to1/11.png"",""time"":1099},{""stimulus"":""img/3to1/12.png"",""time"":1195}]","[]"
"image-keyboard-response","78","106074","0.0-5.0-1.37","5fe354a2e44df4fb4634bbc3","bdp_cybrbll","Wed Mar 29 2023 16:21:16 GMT-0400 (Eastern Daylight Time)","444394","1","3","","null","","","","observe","","img/1to3/1.png","null","188","1818","0.5","0.5","1","2","",""
"animation","79","107370","0.0-5.0-2.37","5fe354a2e44df4fb4634bbc3","bdp_cybrbll","Wed Mar 29 2023 16:21:16 GMT-0400 (Eastern Daylight Time)","444394","1","3","","","","","","","","","","188","","","","1","2","[{""stimulus"":""img/1to2/1.png"",""time"":107},{""stimulus"":""img/1to2/2.png"",""time"":208},{""stimulus"":""img/1to2/3.png"",""time"":304},{""stimulus"":""img/1to2/4.png"",""time"":400},{""stimulus"":""img/1to2/5.png"",""time"":507},{""stimulus"":""img/1to2/6.png"",""time"":603},{""stimulus"":""img/1to2/7.png"",""time"":699},{""stimulus"":""img/1to2/8.png"",""time"":800},{""stimulus"":""img/1to2/9.png"",""time"":896},{""stimulus"":""img/1to2/10.png"",""time"":1003},{""stimulus"":""img/1to2/11.png"",""time"":1099},{""stimulus"":""img/1to2/12.png"",""time"":1195}]","[]"
"image-keyboard-response","80","108395","0.0-5.0-1.38","5fe354a2e44df4fb4634bbc3","bdp_cybrbll","Wed Mar 29 2023 16:21:16 GMT-0400 (Eastern Daylight Time)","444394","1","3","","1023","","","","choice","","img/2to1/1.png","2","187","283","0.5","0.5","2","3","",""
"animation","81","109690","0.0-5.0-2.38","5fe354a2e44df4fb4634bbc3","bdp_cybrbll","Wed Mar 29 2023 16:21:16 GMT-0400 (Eastern Daylight Time)","444394","1","3","","","","","","","","","","187","","","","2","3","[{""stimulus"":""img/2to3/1.png"",""time"":106},{""stimulus"":""img/2to3/2.png"",""time"":207},{""stimulus"":""img/2to3/3.png"",""time"":303},{""stimulus"":""img/2to3/4.png"",""time"":399},{""stimulus"":""img/2to3/5.png"",""time"":506},{""stimulus"":""img/2to3/6.png"",""time"":602},{""stimulus"":""img/2to3/7.png"",""time"":698},{""stimulus"":""img/2to3/8.png"",""time"":799},{""stimulus"":""img/2to3/9.png"",""time"":895},{""stimulus"":""img/2to3/10.png"",""time"":1002},{""stimulus"":""img/2to3/11.png"",""time"":1098},{""stimulus"":""img/2to3/12.png"",""time"":1194}]","[]"
"image-keyboard-response","82","110116","0.0-5.0-1.39","5fe354a2e44df4fb4634bbc3","bdp_cybrbll","Wed Mar 29 2023 16:21:16 GMT-0400 (Eastern Daylight Time)","444394","1","3","","null","","","","observe","","img/3to2/1.png","null","186","416","0.5","0.5","3","1","",""
"animation","83","111412","0.0-5.0-2.39","5fe354a2e44df4fb4634bbc3","bdp_cybrbll","Wed Mar 29 2023 16:21:16 GMT-0400 (Eastern Daylight Time)","444394","1","3","","","","","","","","","","186","","","","3","1","[{""stimulus"":""img/3to1/1.png"",""time"":101},{""stimulus"":""img/3to1/2.png"",""time"":208},{""stimulus"":""img/3to1/3.png"",""time"":304},{""stimulus"":""img/3to1/4.png"",""time"":405},{""stimulus"":""img/3to1/5.png"",""time"":501},{""stimulus"":""img/3to1/6.png"",""time"":597},{""stimulus"":""img/3to1/7.png"",""time"":704},{""stimulus"":""img/3to1/8.png"",""time"":800},{""stimulus"":""img/3to1/9.png"",""time"":896},{""stimulus"":""img/3to1/10.png"",""time"":997},{""stimulus"":""img/3to1/11.png"",""time"":1093},{""stimulus"":""img/3to1/12.png"",""time"":1200}]","[]"
"image-keyboard-response","84","111843","0.0-5.0-1.40","5fe354a2e44df4fb4634bbc3","bdp_cybrbll","Wed Mar 29 2023 16:21:16 GMT-0400 (Eastern Daylight Time)","444394","1","3","","null","","","","observe","","img/1to3/1.png","null","185","419","0.5","0.5","1","2","",""
"animation","85","113140","0.0-5.0-2.40","5fe354a2e44df4fb4634bbc3","bdp_cybrbll","Wed Mar 29 2023 16:21:16 GMT-0400 (Eastern Daylight Time)","444394","1","3","","","","","","","","","","185","","","","1","2","[{""stimulus"":""img/1to2/1.png"",""time"":103},{""stimulus"":""img/1to2/2.png"",""time"":210},{""stimulus"":""img/1to2/3.png"",""time"":306},{""stimulus"":""img/1to2/4.png"",""time"":401},{""stimulus"":""img/1to2/5.png"",""time"":503},{""stimulus"":""img/1to2/6.png"",""time"":596},{""stimulus"":""img/1to2/7.png"",""time"":706},{""stimulus"":""img/1to2/8.png"",""time"":801},{""stimulus"":""img/1to2/9.png"",""time"":898},{""stimulus"":""img/1to2/10.png"",""time"":999},{""stimulus"":""img/1to2/11.png"",""time"":1095},{""stimulus"":""img/1to2/12.png"",""time"":1191}]","[]"
"image-keyboard-response","86","113300","0.0-5.0-1.41","5fe354a2e44df4fb4634bbc3","bdp_cybrbll","Wed Mar 29 2023 16:21:16 GMT-0400 (Eastern Daylight Time)","444394","1","3","","158","","","","choice","","img/2to1/1.png","1","184","365","0.5","0.5","2","1","",""
"animation","87","114596","0.0-5.0-2.41","5fe354a2e44df4fb4634bbc3","bdp_cybrbll","Wed Mar 29 2023 16:21:16 GMT-0400 (Eastern Daylight Time)","444394","1","3","","","","","","","","","","184","","","","2","1","[{""stimulus"":""img/2to1/1.png"",""time"":101},{""stimulus"":""img/2to1/2.png"",""time"":208},{""stimulus"":""img/2to1/3.png"",""time"":304},{""stimulus"":""img/2to1/4.png"",""time"":405},{""stimulus"":""img/2to1/5.png"",""time"":501},{""stimulus"":""img/2to1/6.png"",""time"":597},{""stimulus"":""img/2to1/7.png"",""time"":704},{""stimulus"":""img/2to1/8.png"",""time"":799},{""stimulus"":""img/2to1/9.png"",""time"":896},{""stimulus"":""img/2to1/10.png"",""time"":997},{""stimulus"":""img/2to1/11.png"",""time"":1093},{""stimulus"":""img/2to1/12.png"",""time"":1200}]","[]"
"image-keyboard-response","88","115012","0.0-5.0-1.42","5fe354a2e44df4fb4634bbc3","bdp_cybrbll","Wed Mar 29 2023 16:21:16 GMT-0400 (Eastern Daylight Time)","444394","1","3","","null","","","","observe","","img/1to3/1.png","null","183","406","0.5","0.5","1","2","",""
"animation","89","116308","0.0-5.0-2.42","5fe354a2e44df4fb4634bbc3","bdp_cybrbll","Wed Mar 29 2023 16:21:16 GMT-0400 (Eastern Daylight Time)","444394","1","3","","","","","","","","","","183","","","","1","2","[{""stimulus"":""img/1to2/1.png"",""time"":101},{""stimulus"":""img/1to2/2.png"",""time"":208},{""stimulus"":""img/1to2/3.png"",""time"":304},{""stimulus"":""img/1to2/4.png"",""time"":405},{""stimulus"":""img/1to2/5.png"",""time"":501},{""stimulus"":""img/1to2/6.png"",""time"":597},{""stimulus"":""img/1to2/7.png"",""time"":704},{""stimulus"":""img/1to2/8.png"",""time"":800},{""stimulus"":""img/1to2/9.png"",""time"":896},{""stimulus"":""img/1to2/10.png"",""time"":997},{""stimulus"":""img/1to2/11.png"",""time"":1093},{""stimulus"":""img/1to2/12.png"",""time"":1195}]","[]"
"image-keyboard-response","90","117146","0.0-5.0-1.43","5fe354a2e44df4fb4634bbc3","bdp_cybrbll","Wed Mar 29 2023 16:21:16 GMT-0400 (Eastern Daylight Time)","444394","1","3","","836","","","","choice","","img/2to1/1.png","2","182","369","0.5","0.5","2","3","",""
"animation","91","118437","0.0-5.0-2.43","5fe354a2e44df4fb4634bbc3","bdp_cybrbll","Wed Mar 29 2023 16:21:16 GMT-0400 (Eastern Daylight Time)","444394","1","3","","","","","","","","","","182","","","","2","3","[{""stimulus"":""img/2to3/1.png"",""time"":107},{""stimulus"":""img/2to3/2.png"",""time"":203},{""stimulus"":""img/2to3/3.png"",""time"":304},{""stimulus"":""img/2to3/4.png"",""time"":400},{""stimulus"":""img/2to3/5.png"",""time"":507},{""stimulus"":""img/2to3/6.png"",""time"":603},{""stimulus"":""img/2to3/7.png"",""time"":699},{""stimulus"":""img/2to3/8.png"",""time"":800},{""stimulus"":""img/2to3/9.png"",""time"":896},{""stimulus"":""img/2to3/10.png"",""time"":991},{""stimulus"":""img/2to3/11.png"",""time"":1099},{""stimulus"":""img/2to3/12.png"",""time"":1195}]","[]"
"image-keyboard-response","92","119353","0.0-5.0-1.44","5fe354a2e44df4fb4634bbc3","bdp_cybrbll","Wed Mar 29 2023 16:21:16 GMT-0400 (Eastern Daylight Time)","444394","1","3","","null","","","","observe","","img/3to2/1.png","null","181","911","0.5","0.5","3","1","",""
"animation","93","120650","0.0-5.0-2.44","5fe354a2e44df4fb4634bbc3","bdp_cybrbll","Wed Mar 29 2023 16:21:16 GMT-0400 (Eastern Daylight Time)","444394","1","3","","","","","","","","","","181","","","","3","1","[{""stimulus"":""img/3to1/1.png"",""time"":107},{""stimulus"":""img/3to1/2.png"",""time"":203},{""stimulus"":""img/3to1/3.png"",""time"":304},{""stimulus"":""img/3to1/4.png"",""time"":400},{""stimulus"":""img/3to1/5.png"",""time"":507},{""stimulus"":""img/3to1/6.png"",""time"":603},{""stimulus"":""img/3to1/7.png"",""time"":698},{""stimulus"":""img/3to1/8.png"",""time"":800},{""stimulus"":""img/3to1/9.png"",""time"":896},{""stimulus"":""img/3to1/10.png"",""time"":992},{""stimulus"":""img/3to1/11.png"",""time"":1095},{""stimulus"":""img/3to1/12.png"",""time"":1195}]","[]"
"image-keyboard-response","94","120916","0.0-5.0-1.45","5fe354a2e44df4fb4634bbc3","bdp_cybrbll","Wed Mar 29 2023 16:21:16 GMT-0400 (Eastern Daylight Time)","444394","1","3","","null","","","","observe","","img/1to3/1.png","null","180","258","0.5","0.5","1","2","",""
"animation","95","122209","0.0-5.0-2.45","5fe354a2e44df4fb4634bbc3","bdp_cybrbll","Wed Mar 29 2023 16:21:16 GMT-0400 (Eastern Daylight Time)","444394","1","3","","","","","","","","","","180","","","","1","2","[{""stimulus"":""img/1to2/1.png"",""time"":105},{""stimulus"":""img/1to2/2.png"",""time"":209},{""stimulus"":""img/1to2/3.png"",""time"":304},{""stimulus"":""img/1to2/4.png"",""time"":406},{""stimulus"":""img/1to2/5.png"",""time"":502},{""stimulus"":""img/1to2/6.png"",""time"":598},{""stimulus"":""img/1to2/7.png"",""time"":704},{""stimulus"":""img/1to2/8.png"",""time"":800},{""stimulus"":""img/1to2/9.png"",""time"":896},{""stimulus"":""img/1to2/10.png"",""time"":998},{""stimulus"":""img/1to2/11.png"",""time"":1094},{""stimulus"":""img/1to2/12.png"",""time"":1200}]","[]"
"image-keyboard-response","96","123070","0.0-5.0-1.46","5fe354a2e44df4fb4634bbc3","bdp_cybrbll","Wed Mar 29 2023 16:21:16 GMT-0400 (Eastern Daylight Time)","444394","1","3","","858","","","","choice","","img/2to1/1.png","2","179","731","0.5","0.5","2","3","",""
"animation","97","124361","0.0-5.0-2.46","5fe354a2e44df4fb4634bbc3","bdp_cybrbll","Wed Mar 29 2023 16:21:16 GMT-0400 (Eastern Daylight Time)","444394","1","3","","","","","","","","","","179","","","","2","3","[{""stimulus"":""img/2to3/1.png"",""time"":108},{""stimulus"":""img/2to3/2.png"",""time"":204},{""stimulus"":""img/2to3/3.png"",""time"":300},{""stimulus"":""img/2to3/4.png"",""time"":406},{""stimulus"":""img/2to3/5.png"",""time"":502},{""stimulus"":""img/2to3/6.png"",""time"":604},{""stimulus"":""img/2to3/7.png"",""time"":700},{""stimulus"":""img/2to3/8.png"",""time"":796},{""stimulus"":""img/2to3/9.png"",""time"":902},{""stimulus"":""img/2to3/10.png"",""time"":998},{""stimulus"":""img/2to3/11.png"",""time"":1094},{""stimulus"":""img/2to3/12.png"",""time"":1196}]","[]"
"image-keyboard-response","98","124969","0.0-5.0-1.47","5fe354a2e44df4fb4634bbc3","bdp_cybrbll","Wed Mar 29 2023 16:21:16 GMT-0400 (Eastern Daylight Time)","444394","1","3","","null","","","","observe","","img/3to2/1.png","null","178","598","0.5","0.5","3","2","",""
"animation","99","126265","0.0-5.0-2.47","5fe354a2e44df4fb4634bbc3","bdp_cybrbll","Wed Mar 29 2023 16:21:16 GMT-0400 (Eastern Daylight Time)","444394","1","3","","","","","","","","","","178","","","","3","2","[{""stimulus"":""img/3to2/1.png"",""time"":106},{""stimulus"":""img/3to2/2.png"",""time"":208},{""stimulus"":""img/3to2/3.png"",""time"":303},{""stimulus"":""img/3to2/4.png"",""time"":400},{""stimulus"":""img/3to2/5.png"",""time"":506},{""stimulus"":""img/3to2/6.png"",""time"":602},{""stimulus"":""img/3to2/7.png"",""time"":698},{""stimulus"":""img/3to2/8.png"",""time"":800},{""stimulus"":""img/3to2/9.png"",""time"":896},{""stimulus"":""img/3to2/10.png"",""time"":996},{""stimulus"":""img/3to2/11.png"",""time"":1098},{""stimulus"":""img/3to2/12.png"",""time"":1194}]","[]"
"image-keyboard-response","100","126595","0.0-5.0-1.48","5fe354a2e44df4fb4634bbc3","bdp_cybrbll","Wed Mar 29 2023 16:21:16 GMT-0400 (Eastern Daylight Time)","444394","1","3","","329","","","","choice","","img/2to1/1.png","2","177","630","0.5","0.5","2","3","",""
"animation","101","127892","0.0-5.0-2.48","5fe354a2e44df4fb4634bbc3","bdp_cybrbll","Wed Mar 29 2023 16:21:16 GMT-0400 (Eastern Daylight Time)","444394","1","3","","","","","","","","","","177","","","","2","3","[{""stimulus"":""img/2to3/1.png"",""time"":102},{""stimulus"":""img/2to3/2.png"",""time"":206},{""stimulus"":""img/2to3/3.png"",""time"":304},{""stimulus"":""img/2to3/4.png"",""time"":406},{""stimulus"":""img/2to3/5.png"",""time"":502},{""stimulus"":""img/2to3/6.png"",""time"":597},{""stimulus"":""img/2to3/7.png"",""time"":704},{""stimulus"":""img/2to3/8.png"",""time"":800},{""stimulus"":""img/2to3/9.png"",""time"":896},{""stimulus"":""img/2to3/10.png"",""time"":998},{""stimulus"":""img/2to3/11.png"",""time"":1093},{""stimulus"":""img/2to3/12.png"",""time"":1190}]","[]"
"image-keyboard-response","102","128196","0.0-5.0-1.49","5fe354a2e44df4fb4634bbc3","bdp_cybrbll","Wed Mar 29 2023 16:21:16 GMT-0400 (Eastern Daylight Time)","444394","1","3","","null","","","","observe","","img/3to2/1.png","null","176","291","0.5","0.5","3","1","",""
"animation","103","129492","0.0-5.0-2.49","5fe354a2e44df4fb4634bbc3","bdp_cybrbll","Wed Mar 29 2023 16:21:16 GMT-0400 (Eastern Daylight Time)","444394","1","3","","","","","","","","","","176","","","","3","1","[{""stimulus"":""img/3to1/1.png"",""time"":101},{""stimulus"":""img/3to1/2.png"",""time"":208},{""stimulus"":""img/3to1/3.png"",""time"":304},{""stimulus"":""img/3to1/4.png"",""time"":406},{""stimulus"":""img/3to1/5.png"",""time"":502},{""stimulus"":""img/3to1/6.png"",""time"":597},{""stimulus"":""img/3to1/7.png"",""time"":704},{""stimulus"":""img/3to1/8.png"",""time"":800},{""stimulus"":""img/3to1/9.png"",""time"":896},{""stimulus"":""img/3to1/10.png"",""time"":998},{""stimulus"":""img/3to1/11.png"",""time"":1094},{""stimulus"":""img/3to1/12.png"",""time"":1200}]","[]"
"image-keyboard-response","104","130420","0.0-5.0-1.50","5fe354a2e44df4fb4634bbc3","bdp_cybrbll","Wed Mar 29 2023 16:21:16 GMT-0400 (Eastern Daylight Time)","444394","1","3","","null","","","","observe","","img/1to3/1.png","null","175","921","0.5","0.5","1","2","",""
"animation","105","131716","0.0-5.0-2.50","5fe354a2e44df4fb4634bbc3","bdp_cybrbll","Wed Mar 29 2023 16:21:16 GMT-0400 (Eastern Daylight Time)","444394","1","3","","","","","","","","","","175","","","","1","2","[{""stimulus"":""img/1to2/1.png"",""time"":101},{""stimulus"":""img/1to2/2.png"",""time"":208},{""stimulus"":""img/1to2/3.png"",""time"":304},{""stimulus"":""img/1to2/4.png"",""time"":406},{""stimulus"":""img/1to2/5.png"",""time"":501},{""stimulus"":""img/1to2/6.png"",""time"":598},{""stimulus"":""img/1to2/7.png"",""time"":704},{""stimulus"":""img/1to2/8.png"",""time"":800},{""stimulus"":""img/1to2/9.png"",""time"":896},{""stimulus"":""img/1to2/10.png"",""time"":998},{""stimulus"":""img/1to2/11.png"",""time"":1094},{""stimulus"":""img/1to2/12.png"",""time"":1200}]","[]"
"image-keyboard-response","106","132108","0.0-5.0-1.51","5fe354a2e44df4fb4634bbc3","bdp_cybrbll","Wed Mar 29 2023 16:21:16 GMT-0400 (Eastern Daylight Time)","444394","1","3","","391","","","","choice","","img/2to1/1.png","1","174","835","0.5","0.5","2","1","",""
"animation","107","133401","0.0-5.0-2.51","5fe354a2e44df4fb4634bbc3","bdp_cybrbll","Wed Mar 29 2023 16:21:16 GMT-0400 (Eastern Daylight Time)","444394","1","3","","","","","","","","","","174","","","","2","1","[{""stimulus"":""img/2to1/1.png"",""time"":108},{""stimulus"":""img/2to1/2.png"",""time"":204},{""stimulus"":""img/2to1/3.png"",""time"":299},{""stimulus"":""img/2to1/4.png"",""time"":407},{""stimulus"":""img/2to1/5.png"",""time"":503},{""stimulus"":""img/2to1/6.png"",""time"":598},{""stimulus"":""img/2to1/7.png"",""time"":702},{""stimulus"":""img/2to1/8.png"",""time"":795},{""stimulus"":""img/2to1/9.png"",""time"":903},{""stimulus"":""img/2to1/10.png"",""time"":998},{""stimulus"":""img/2to1/11.png"",""time"":1095},{""stimulus"":""img/2to1/12.png"",""time"":1196}]","[]"
"image-keyboard-response","108","134601","0.0-5.0-1.52","5fe354a2e44df4fb4634bbc3","bdp_cybrbll","Wed Mar 29 2023 16:21:16 GMT-0400 (Eastern Daylight Time)","444394","1","3","","null","","","","observe","","img/1to3/1.png","null","173","1194","0.5","0.5","1","2","",""
"animation","109","135897","0.0-5.0-2.52","5fe354a2e44df4fb4634bbc3","bdp_cybrbll","Wed Mar 29 2023 16:21:16 GMT-0400 (Eastern Daylight Time)","444394","1","3","","","","","","","","","","173","","","","1","2","[{""stimulus"":""img/1to2/1.png"",""time"":107},{""stimulus"":""img/1to2/2.png"",""time"":210},{""stimulus"":""img/1to2/3.png"",""time"":304},{""stimulus"":""img/1to2/4.png"",""time"":400},{""stimulus"":""img/1to2/5.png"",""time"":507},{""stimulus"":""img/1to2/6.png"",""time"":603},{""stimulus"":""img/1to2/7.png"",""time"":699},{""stimulus"":""img/1to2/8.png"",""time"":795},{""stimulus"":""img/1to2/9.png"",""time"":896},{""stimulus"":""img/1to2/10.png"",""time"":1003},{""stimulus"":""img/1to2/11.png"",""time"":1099},{""stimulus"":""img/1to2/12.png"",""time"":1192}]","[]"
"image-keyboard-response","110","136479","0.0-5.0-1.53","5fe354a2e44df4fb4634bbc3","bdp_cybrbll","Wed Mar 29 2023 16:21:16 GMT-0400 (Eastern Daylight Time)","444394","1","3","","581","","","","choice","","img/2to1/1.png","1","172","768","0.5","0.5","2","1","",""
"animation","111","137769","0.0-5.0-2.53","5fe354a2e44df4fb4634bbc3","bdp_cybrbll","Wed Mar 29 2023 16:21:16 GMT-0400 (Eastern Daylight Time)","444394","1","3","","","","","","","","","","172","","","","2","1","[{""stimulus"":""img/2to1/1.png"",""time"":106},{""stimulus"":""img/2to1/2.png"",""time"":202},{""stimulus"":""img/2to1/3.png"",""time"":298},{""stimulus"":""img/2to1/4.png"",""time"":405},{""stimulus"":""img/2to1/5.png"",""time"":501},{""stimulus"":""img/2to1/6.png"",""time"":602},{""stimulus"":""img/2to1/7.png"",""time"":698},{""stimulus"":""img/2to1/8.png"",""time"":805},{""stimulus"":""img/2to1/9.png"",""time"":901},{""stimulus"":""img/2to1/10.png"",""time"":997},{""stimulus"":""img/2to1/11.png"",""time"":1098},{""stimulus"":""img/2to1/12.png"",""time"":1194}]","[]"
"image-keyboard-response","112","138137","0.0-5.0-1.54","5fe354a2e44df4fb4634bbc3","bdp_cybrbll","Wed Mar 29 2023 16:21:16 GMT-0400 (Eastern Daylight Time)","444394","1","3","","null","","","","observe","","img/1to3/1.png","null","171","363","0.5","0.5","1","2","",""
"animation","113","139427","0.0-5.0-2.54","5fe354a2e44df4fb4634bbc3","bdp_cybrbll","Wed Mar 29 2023 16:21:16 GMT-0400 (Eastern Daylight Time)","444394","1","3","","","","","","","","","","171","","","","1","2","[{""stimulus"":""img/1to2/1.png"",""time"":107},{""stimulus"":""img/1to2/2.png"",""time"":203},{""stimulus"":""img/1to2/3.png"",""time"":298},{""stimulus"":""img/1to2/4.png"",""time"":400},{""stimulus"":""img/1to2/5.png"",""time"":507},{""stimulus"":""img/1to2/6.png"",""time"":602},{""stimulus"":""img/1to2/7.png"",""time"":699},{""stimulus"":""img/1to2/8.png"",""time"":800},{""stimulus"":""img/1to2/9.png"",""time"":896},{""stimulus"":""img/1to2/10.png"",""time"":992},{""stimulus"":""img/1to2/11.png"",""time"":1099},{""stimulus"":""img/1to2/12.png"",""time"":1195}]","[]"
"image-keyboard-response","114","140106","0.0-5.0-1.55","5fe354a2e44df4fb4634bbc3","bdp_cybrbll","Wed Mar 29 2023 16:21:16 GMT-0400 (Eastern Daylight Time)","444394","1","3","","677","","","","choice","","img/2to1/1.png","2","170","367","0.5","0.5","2","3","",""
"animation","115","141401","0.0-5.0-2.55","5fe354a2e44df4fb4634bbc3","bdp_cybrbll","Wed Mar 29 2023 16:21:16 GMT-0400 (Eastern Daylight Time)","444394","1","3","","","","","","","","","","170","","","","2","3","[{""stimulus"":""img/2to3/1.png"",""time"":105},{""stimulus"":""img/2to3/2.png"",""time"":207},{""stimulus"":""img/2to3/3.png"",""time"":302},{""stimulus"":""img/2to3/4.png"",""time"":399},{""stimulus"":""img/2to3/5.png"",""time"":506},{""stimulus"":""img/2to3/6.png"",""time"":602},{""stimulus"":""img/2to3/7.png"",""time"":695},{""stimulus"":""img/2to3/8.png"",""time"":799},{""stimulus"":""img/2to3/9.png"",""time"":895},{""stimulus"":""img/2to3/10.png"",""time"":1002},{""stimulus"":""img/2to3/11.png"",""time"":1098},{""stimulus"":""img/2to3/12.png"",""time"":1194}]","[]"
"image-keyboard-response","116","141667","0.0-5.0-1.56","5fe354a2e44df4fb4634bbc3","bdp_cybrbll","Wed Mar 29 2023 16:21:16 GMT-0400 (Eastern Daylight Time)","444394","1","3","","null","","","","observe","","img/3to2/1.png","null","169","258","0.5","0.5","3","1","",""
"animation","117","142963","0.0-5.0-2.56","5fe354a2e44df4fb4634bbc3","bdp_cybrbll","Wed Mar 29 2023 16:21:16 GMT-0400 (Eastern Daylight Time)","444394","1","3","","","","","","","","","","169","","","","3","1","[{""stimulus"":""img/3to1/1.png"",""time"":101},{""stimulus"":""img/3to1/2.png"",""time"":208},{""stimulus"":""img/3to1/3.png"",""time"":304},{""stimulus"":""img/3to1/4.png"",""time"":405},{""stimulus"":""img/3to1/5.png"",""time"":501},{""stimulus"":""img/3to1/6.png"",""time"":597},{""stimulus"":""img/3to1/7.png"",""time"":704},{""stimulus"":""img/3to1/8.png"",""time"":800},{""stimulus"":""img/3to1/9.png"",""time"":895},{""stimulus"":""img/3to1/10.png"",""time"":997},{""stimulus"":""img/3to1/11.png"",""time"":1093},{""stimulus"":""img/3to1/12.png"",""time"":1200}]","[]"
"image-keyboard-response","118","143651","0.0-5.0-1.57","5fe354a2e44df4fb4634bbc3","bdp_cybrbll","Wed Mar 29 2023 16:21:16 GMT-0400 (Eastern Daylight Time)","444394","1","3","","null","","","","observe","","img/1to3/1.png","null","168","680","0.5","0.5","1","3","",""
"animation","119","144947","0.0-5.0-2.57","5fe354a2e44df4fb4634bbc3","bdp_cybrbll","Wed Mar 29 2023 16:21:16 GMT-0400 (Eastern Daylight Time)","444394","1","3","","","","","","","","","","168","","","","1","3","[{""stimulus"":""img/1to3/1.png"",""time"":101},{""stimulus"":""img/1to3/2.png"",""time"":208},{""stimulus"":""img/1to3/3.png"",""time"":303},{""stimulus"":""img/1to3/4.png"",""time"":405},{""stimulus"":""img/1to3/5.png"",""time"":501},{""stimulus"":""img/1to3/6.png"",""time"":597},{""stimulus"":""img/1to3/7.png"",""time"":704},{""stimulus"":""img/1to3/8.png"",""time"":798},{""stimulus"":""img/1to3/9.png"",""time"":896},{""stimulus"":""img/1to3/10.png"",""time"":997},{""stimulus"":""img/1to3/11.png"",""time"":1093},{""stimulus"":""img/1to3/12.png"",""time"":1200}]","[]"
"image-keyboard-response","120","145304","0.0-5.0-1.58","5fe354a2e44df4fb4634bbc3","bdp_cybrbll","Wed Mar 29 2023 16:21:16 GMT-0400 (Eastern Daylight Time)","444394","1","3","","null","","","","observe","","img/3to2/1.png","null","167","348","0.5","0.5","3","2","",""
"animation","121","146594","0.0-5.0-2.58","5fe354a2e44df4fb4634bbc3","bdp_cybrbll","Wed Mar 29 2023 16:21:16 GMT-0400 (Eastern Daylight Time)","444394","1","3","","","","","","","","","","167","","","","3","2","[{""stimulus"":""img/3to2/1.png"",""time"":107},{""stimulus"":""img/3to2/2.png"",""time"":202},{""stimulus"":""img/3to2/3.png"",""time"":304},{""stimulus"":""img/3to2/4.png"",""time"":399},{""stimulus"":""img/3to2/5.png"",""time"":506},{""stimulus"":""img/3to2/6.png"",""time"":603},{""stimulus"":""img/3to2/7.png"",""time"":699},{""stimulus"":""img/3to2/8.png"",""time"":800},{""stimulus"":""img/3to2/9.png"",""time"":896},{""stimulus"":""img/3to2/10.png"",""time"":992},{""stimulus"":""img/3to2/11.png"",""time"":1099},{""stimulus"":""img/3to2/12.png"",""time"":1194}]","[]"
"image-keyboard-response","122","147325","0.0-5.0-1.59","5fe354a2e44df4fb4634bbc3","bdp_cybrbll","Wed Mar 29 2023 16:21:16 GMT-0400 (Eastern Daylight Time)","444394","1","3","","730","","","","choice","","img/2to1/1.png","2","166","229","0.5","0.5","2","3","",""
"animation","123","148616","0.0-5.0-2.59","5fe354a2e44df4fb4634bbc3","bdp_cybrbll","Wed Mar 29 2023 16:21:16 GMT-0400 (Eastern Daylight Time)","444394","1","3","","","","","","","","","","166","","","","2","3","[{""stimulus"":""img/2to3/1.png"",""time"":107},{""stimulus"":""img/2to3/2.png"",""time"":203},{""stimulus"":""img/2to3/3.png"",""time"":298},{""stimulus"":""img/2to3/4.png"",""time"":406},{""stimulus"":""img/2to3/5.png"",""time"":501},{""stimulus"":""img/2to3/6.png"",""time"":603},{""stimulus"":""img/2to3/7.png"",""time"":694},{""stimulus"":""img/2to3/8.png"",""time"":795},{""stimulus"":""img/2to3/9.png"",""time"":902},{""stimulus"":""img/2to3/10.png"",""time"":997},{""stimulus"":""img/2to3/11.png"",""time"":1094},{""stimulus"":""img/2to3/12.png"",""time"":1195}]","[]"
"image-keyboard-response","124","148872","0.0-5.0-1.60","5fe354a2e44df4fb4634bbc3","bdp_cybrbll","Wed Mar 29 2023 16:21:16 GMT-0400 (Eastern Daylight Time)","444394","1","3","","null","","","","observe","","img/3to2/1.png","null","165","249","0.5","0.5","3","2","",""
"animation","125","150168","0.0-5.0-2.60","5fe354a2e44df4fb4634bbc3","bdp_cybrbll","Wed Mar 29 2023 16:21:16 GMT-0400 (Eastern Daylight Time)","444394","1","3","","","","","","","","","","165","","","","3","2","[{""stimulus"":""img/3to2/1.png"",""time"":107},{""stimulus"":""img/3to2/2.png"",""time"":202},{""stimulus"":""img/3to2/3.png"",""time"":304},{""stimulus"":""img/3to2/4.png"",""time"":400},{""stimulus"":""img/3to2/5.png"",""time"":507},{""stimulus"":""img/3to2/6.png"",""time"":602},{""stimulus"":""img/3to2/7.png"",""time"":699},{""stimulus"":""img/3to2/8.png"",""time"":800},{""stimulus"":""img/3to2/9.png"",""time"":896},{""stimulus"":""img/3to2/10.png"",""time"":992},{""stimulus"":""img/3to2/11.png"",""time"":1099},{""stimulus"":""img/3to2/12.png"",""time"":1194}]","[]"
"image-keyboard-response","126","150263","0.0-5.0-1.61","5fe354a2e44df4fb4634bbc3","bdp_cybrbll","Wed Mar 29 2023 16:21:16 GMT-0400 (Eastern Daylight Time)","444394","1","3","","93","","","","choice","","img/2to1/1.png","1","164","579","0.5","0.5","2","1","",""
"animation","127","151554","0.0-5.0-2.61","5fe354a2e44df4fb4634bbc3","bdp_cybrbll","Wed Mar 29 2023 16:21:16 GMT-0400 (Eastern Daylight Time)","444394","1","3","","","","","","","","","","164","","","","2","1","[{""stimulus"":""img/2to1/1.png"",""time"":108},{""stimulus"":""img/2to1/2.png"",""time"":203},{""stimulus"":""img/2to1/3.png"",""time"":304},{""stimulus"":""img/2to1/4.png"",""time"":401},{""stimulus"":""img/2to1/5.png"",""time"":496},{""stimulus"":""img/2to1/6.png"",""time"":603},{""stimulus"":""img/2to1/7.png"",""time"":700},{""stimulus"":""img/2to1/8.png"",""time"":801},{""stimulus"":""img/2to1/9.png"",""time"":897},{""stimulus"":""img/2to1/10.png"",""time"":992},{""stimulus"":""img/2to1/11.png"",""time"":1098},{""stimulus"":""img/2to1/12.png"",""time"":1195}]","[]"
"image-keyboard-response","128","151827","0.0-5.0-1.62","5fe354a2e44df4fb4634bbc3","bdp_cybrbll","Wed Mar 29 2023 16:21:16 GMT-0400 (Eastern Daylight Time)","444394","1","3","","null","","","","observe","","img/1to3/1.png","null","163","264","0.5","0.5","1","2","",""
"animation","129","153123","0.0-5.0-2.62","5fe354a2e44df4fb4634bbc3","bdp_cybrbll","Wed Mar 29 2023 16:21:16 GMT-0400 (Eastern Daylight Time)","444394","1","3","","","","","","","","","","163","","","","1","2","[{""stimulus"":""img/1to2/1.png"",""time"":102},{""stimulus"":""img/1to2/2.png"",""time"":207},{""stimulus"":""img/1to2/3.png"",""time"":304},{""stimulus"":""img/1to2/4.png"",""time"":405},{""stimulus"":""img/1to2/5.png"",""time"":502},{""stimulus"":""img/1to2/6.png"",""time"":598},{""stimulus"":""img/1to2/7.png"",""time"":704},{""stimulus"":""img/1to2/8.png"",""time"":800},{""stimulus"":""img/1to2/9.png"",""time"":896},{""stimulus"":""img/1to2/10.png"",""time"":992},{""stimulus"":""img/1to2/11.png"",""time"":1094},{""stimulus"":""img/1to2/12.png"",""time"":1190}]","[]"
"image-keyboard-response","130","153494","0.0-5.0-1.63","5fe354a2e44df4fb4634bbc3","bdp_cybrbll","Wed Mar 29 2023 16:21:16 GMT-0400 (Eastern Daylight Time)","444394","1","3","","370","","","","choice","","img/2to1/1.png","1","162","487","0.5","0.5","2","1","",""
"animation","131","154787","0.0-5.0-2.63","5fe354a2e44df4fb4634bbc3","bdp_cybrbll","Wed Mar 29 2023 16:21:16 GMT-0400 (Eastern Daylight Time)","444394","1","3","","","","","","","","","","162","","","","2","1","[{""stimulus"":""img/2to1/1.png"",""time"":109},{""stimulus"":""img/2to1/2.png"",""time"":205},{""stimulus"":""img/2to1/3.png"",""time"":307},{""stimulus"":""img/2to1/4.png"",""time"":402},{""stimulus"":""img/2to1/5.png"",""time"":499},{""stimulus"":""img/2to1/6.png"",""time"":605},{""stimulus"":""img/2to1/7.png"",""time"":701},{""stimulus"":""img/2to1/8.png"",""time"":797},{""stimulus"":""img/2to1/9.png"",""time"":899},{""stimulus"":""img/2to1/10.png"",""time"":995},{""stimulus"":""img/2to1/11.png"",""time"":1101},{""stimulus"":""img/2to1/12.png"",""time"":1197}]","[]"
"image-keyboard-response","132","155251","0.0-5.0-1.64","5fe354a2e44df4fb4634bbc3","bdp_cybrbll","Wed Mar 29 2023 16:21:16 GMT-0400 (Eastern Daylight Time)","444394","1","3","","null","","","","observe","","img/1to3/1.png","null","161","458","0.5","0.5","1","2","",""
"animation","133","156544","0.0-5.0-2.64","5fe354a2e44df4fb4634bbc3","bdp_cybrbll","Wed Mar 29 2023 16:21:16 GMT-0400 (Eastern Daylight Time)","444394","1","3","","","","","","","","","","161","","","","1","2","[{""stimulus"":""img/1to2/1.png"",""time"":101},{""stimulus"":""img/1to2/2.png"",""time"":208},{""stimulus"":""img/1to2/3.png"",""time"":304},{""stimulus"":""img/1to2/4.png"",""time"":406},{""stimulus"":""img/1to2/5.png"",""time"":502},{""stimulus"":""img/1to2/6.png"",""time"":598},{""stimulus"":""img/1to2/7.png"",""time"":704},{""stimulus"":""img/1to2/8.png"",""time"":800},{""stimulus"":""img/1to2/9.png"",""time"":896},{""stimulus"":""img/1to2/10.png"",""time"":998},{""stimulus"":""img/1to2/11.png"",""time"":1093},{""stimulus"":""img/1to2/12.png"",""time"":1199}]","[]"
"image-keyboard-response","134","157021","0.0-5.0-1.65","5fe354a2e44df4fb4634bbc3","bdp_cybrbll","Wed Mar 29 2023 16:21:16 GMT-0400 (Eastern Daylight Time)","444394","1","3","","476","","","","choice","","img/2to1/1.png","2","160","1267","0.5","0.5","2","3","",""
"animation","135","158312","0.0-5.0-2.65","5fe354a2e44df4fb4634bbc3","bdp_cybrbll","Wed Mar 29 2023 16:21:16 GMT-0400 (Eastern Daylight Time)","444394","1","3","","","","","","","","","","160","","","","2","3","[{""stimulus"":""img/2to3/1.png"",""time"":108},{""stimulus"":""img/2to3/2.png"",""time"":203},{""stimulus"":""img/2to3/3.png"",""time"":299},{""stimulus"":""img/2to3/4.png"",""time"":406},{""stimulus"":""img/2to3/5.png"",""time"":502},{""stimulus"":""img/2to3/6.png"",""time"":604},{""stimulus"":""img/2to3/7.png"",""time"":700},{""stimulus"":""img/2to3/8.png"",""time"":796},{""stimulus"":""img/2to3/9.png"",""time"":902},{""stimulus"":""img/2to3/10.png"",""time"":998},{""stimulus"":""img/2to3/11.png"",""time"":1094},{""stimulus"":""img/2to3/12.png"",""time"":1196}]","[]"
"image-keyboard-response","136","159075","0.0-5.0-1.66","5fe354a2e44df4fb4634bbc3","bdp_cybrbll","Wed Mar 29 2023 16:21:16 GMT-0400 (Eastern Daylight Time)","444394","1","3","","null","","","","observe","","img/3to2/1.png","null","159","756","0.5","0.5","3","2","",""
"animation","137","160371","0.0-5.0-2.66","5fe354a2e44df4fb4634bbc3","bdp_cybrbll","Wed Mar 29 2023 16:21:16 GMT-0400 (Eastern Daylight Time)","444394","1","3","","","","","","","","","","159","","","","3","2","[{""stimulus"":""img/3to2/1.png"",""time"":102},{""stimulus"":""img/3to2/2.png"",""time"":208},{""stimulus"":""img/3to2/3.png"",""time"":304},{""stimulus"":""img/3to2/4.png"",""time"":406},{""stimulus"":""img/3to2/5.png"",""time"":501},{""stimulus"":""img/3to2/6.png"",""time"":598},{""stimulus"":""img/3to2/7.png"",""time"":704},{""stimulus"":""img/3to2/8.png"",""time"":800},{""stimulus"":""img/3to2/9.png"",""time"":896},{""stimulus"":""img/3to2/10.png"",""time"":997},{""stimulus"":""img/3to2/11.png"",""time"":1094},{""stimulus"":""img/3to2/12.png"",""time"":1200}]","[]"
"image-keyboard-response","138","160938","0.0-5.0-1.67","5fe354a2e44df4fb4634bbc3","bdp_cybrbll","Wed Mar 29 2023 16:21:16 GMT-0400 (Eastern Daylight Time)","444394","1","3","","566","","","","choice","","img/2to1/1.png","1","158","249","0.5","0.5","2","1","",""
"animation","139","162232","0.0-5.0-2.67","5fe354a2e44df4fb4634bbc3","bdp_cybrbll","Wed Mar 29 2023 16:21:16 GMT-0400 (Eastern Daylight Time)","444394","1","3","","","","","","","","","","158","","","","2","1","[{""stimulus"":""img/2to1/1.png"",""time"":105},{""stimulus"":""img/2to1/2.png"",""time"":206},{""stimulus"":""img/2to1/3.png"",""time"":302},{""stimulus"":""img/2to1/4.png"",""time"":398},{""stimulus"":""img/2to1/5.png"",""time"":496},{""stimulus"":""img/2to1/6.png"",""time"":601},{""stimulus"":""img/2to1/7.png"",""time"":702},{""stimulus"":""img/2to1/8.png"",""time"":798},{""stimulus"":""img/2to1/9.png"",""time"":894},{""stimulus"":""img/2to1/10.png"",""time"":1001},{""stimulus"":""img/2to1/11.png"",""time"":1096},{""stimulus"":""img/2to1/12.png"",""time"":1193}]","[]"
"image-keyboard-response","140","162531","0.0-5.0-1.68","5fe354a2e44df4fb4634bbc3","bdp_cybrbll","Wed Mar 29 2023 16:21:16 GMT-0400 (Eastern Daylight Time)","444394","1","3","","null","","","","observe","","img/1to3/1.png","null","157","289","0.5","0.5","1","3","",""
"animation","141","163827","0.0-5.0-2.68","5fe354a2e44df4fb4634bbc3","bdp_cybrbll","Wed Mar 29 2023 16:21:16 GMT-0400 (Eastern Daylight Time)","444394","1","3","","","","","","","","","","157","","","","1","3","[{""stimulus"":""img/1to3/1.png"",""time"":101},{""stimulus"":""img/1to3/2.png"",""time"":208},{""stimulus"":""img/1to3/3.png"",""time"":304},{""stimulus"":""img/1to3/4.png"",""time"":405},{""stimulus"":""img/1to3/5.png"",""time"":501},{""stimulus"":""img/1to3/6.png"",""time"":597},{""stimulus"":""img/1to3/7.png"",""time"":704},{""stimulus"":""img/1to3/8.png"",""time"":800},{""stimulus"":""img/1to3/9.png"",""time"":896},{""stimulus"":""img/1to3/10.png"",""time"":997},{""stimulus"":""img/1to3/11.png"",""time"":1093},{""stimulus"":""img/1to3/12.png"",""time"":1200}]","[]"
"image-keyboard-response","142","164098","0.0-5.0-1.69","5fe354a2e44df4fb4634bbc3","bdp_cybrbll","Wed Mar 29 2023 16:21:16 GMT-0400 (Eastern Daylight Time)","444394","1","3","","null","","","","observe","","img/3to2/1.png","null","156","260","0.5","0.5","3","2","",""
"animation","143","165395","0.0-5.0-2.69","5fe354a2e44df4fb4634bbc3","bdp_cybrbll","Wed Mar 29 2023 16:21:16 GMT-0400 (Eastern Daylight Time)","444394","1","3","","","","","","","","","","156","","","","3","2","[{""stimulus"":""img/3to2/1.png"",""time"":101},{""stimulus"":""img/3to2/2.png"",""time"":208},{""stimulus"":""img/3to2/3.png"",""time"":304},{""stimulus"":""img/3to2/4.png"",""time"":405},{""stimulus"":""img/3to2/5.png"",""time"":496},{""stimulus"":""img/3to2/6.png"",""time"":597},{""stimulus"":""img/3to2/7.png"",""time"":701},{""stimulus"":""img/3to2/8.png"",""time"":800},{""stimulus"":""img/3to2/9.png"",""time"":896},{""stimulus"":""img/3to2/10.png"",""time"":997},{""stimulus"":""img/3to2/11.png"",""time"":1093},{""stimulus"":""img/3to2/12.png"",""time"":1200}]","[]"
"image-keyboard-response","144","166396","0.0-5.0-1.70","5fe354a2e44df4fb4634bbc3","bdp_cybrbll","Wed Mar 29 2023 16:21:16 GMT-0400 (Eastern Daylight Time)","444394","1","3","","1000","","","","choice","","img/2to1/1.png","1","155","395","0.5","0.5","2","1","",""
"animation","145","167688","0.0-5.0-2.70","5fe354a2e44df4fb4634bbc3","bdp_cybrbll","Wed Mar 29 2023 16:21:16 GMT-0400 (Eastern Daylight Time)","444394","1","3","","","","","","","","","","155","","","","2","1","[{""stimulus"":""img/2to1/1.png"",""time"":102},{""stimulus"":""img/2to1/2.png"",""time"":203},{""stimulus"":""img/2to1/3.png"",""time"":299},{""stimulus"":""img/2to1/4.png"",""time"":403},{""stimulus"":""img/2to1/5.png"",""time"":502},{""stimulus"":""img/2to1/6.png"",""time"":603},{""stimulus"":""img/2to1/7.png"",""time"":699},{""stimulus"":""img/2to1/8.png"",""time"":795},{""stimulus"":""img/2to1/9.png"",""time"":902},{""stimulus"":""img/2to1/10.png"",""time"":998},{""stimulus"":""img/2to1/11.png"",""time"":1094},{""stimulus"":""img/2to1/12.png"",""time"":1195}]","[]"
"image-keyboard-response","146","168017","0.0-5.0-1.71","5fe354a2e44df4fb4634bbc3","bdp_cybrbll","Wed Mar 29 2023 16:21:16 GMT-0400 (Eastern Daylight Time)","444394","1","3","","null","","","","observe","","img/1to3/1.png","null","154","319","0.5","0.5","1","3","",""
"animation","147","169314","0.0-5.0-2.71","5fe354a2e44df4fb4634bbc3","bdp_cybrbll","Wed Mar 29 2023 16:21:16 GMT-0400 (Eastern Daylight Time)","444394","1","3","","","","","","","","","","154","","","","1","3","[{""stimulus"":""img/1to3/1.png"",""time"":103},{""stimulus"":""img/1to3/2.png"",""time"":210},{""stimulus"":""img/1to3/3.png"",""time"":306},{""stimulus"":""img/1to3/4.png"",""time"":402},{""stimulus"":""img/1to3/5.png"",""time"":503},{""stimulus"":""img/1to3/6.png"",""time"":599},{""stimulus"":""img/1to3/7.png"",""time"":705},{""stimulus"":""img/1to3/8.png"",""time"":802},{""stimulus"":""img/1to3/9.png"",""time"":898},{""stimulus"":""img/1to3/10.png"",""time"":999},{""stimulus"":""img/1to3/11.png"",""time"":1095},{""stimulus"":""img/1to3/12.png"",""time"":1191}]","[]"
"image-keyboard-response","148","169607","0.0-5.0-1.72","5fe354a2e44df4fb4634bbc3","bdp_cybrbll","Wed Mar 29 2023 16:21:16 GMT-0400 (Eastern Daylight Time)","444394","1","3","","null","","","","observe","","img/3to2/1.png","null","153","289","0.5","0.5","3","1","",""
"animation","149","170904","0.0-5.0-2.72","5fe354a2e44df4fb4634bbc3","bdp_cybrbll","Wed Mar 29 2023 16:21:16 GMT-0400 (Eastern Daylight Time)","444394","1","3","","","","","","","","","","153","","","","3","1","[{""stimulus"":""img/3to1/1.png"",""time"":107},{""stimulus"":""img/3to1/2.png"",""time"":203},{""stimulus"":""img/3to1/3.png"",""time"":304},{""stimulus"":""img/3to1/4.png"",""time"":400},{""stimulus"":""img/3to1/5.png"",""time"":507},{""stimulus"":""img/3to1/6.png"",""time"":603},{""stimulus"":""img/3to1/7.png"",""time"":699},{""stimulus"":""img/3to1/8.png"",""time"":800},{""stimulus"":""img/3to1/9.png"",""time"":896},{""stimulus"":""img/3to1/10.png"",""time"":992},{""stimulus"":""img/3to1/11.png"",""time"":1099},{""stimulus"":""img/3to1/12.png"",""time"":1192}]","[]"
"image-keyboard-response","150","172146","0.0-5.0-1.73","5fe354a2e44df4fb4634bbc3","bdp_cybrbll","Wed Mar 29 2023 16:21:16 GMT-0400 (Eastern Daylight Time)","444394","1","3","","null","","","","observe","","img/1to3/1.png","null","152","1236","0.5","0.5","1","3","",""
"animation","151","173436","0.0-5.0-2.73","5fe354a2e44df4fb4634bbc3","bdp_cybrbll","Wed Mar 29 2023 16:21:16 GMT-0400 (Eastern Daylight Time)","444394","1","3","","","","","","","","","","152","","","","1","3","[{""stimulus"":""img/1to3/1.png"",""time"":101},{""stimulus"":""img/1to3/2.png"",""time"":208},{""stimulus"":""img/1to3/3.png"",""time"":302},{""stimulus"":""img/1to3/4.png"",""time"":405},{""stimulus"":""img/1to3/5.png"",""time"":500},{""stimulus"":""img/1to3/6.png"",""time"":597},{""stimulus"":""img/1to3/7.png"",""time"":704},{""stimulus"":""img/1to3/8.png"",""time"":800},{""stimulus"":""img/1to3/9.png"",""time"":895},{""stimulus"":""img/1to3/10.png"",""time"":996},{""stimulus"":""img/1to3/11.png"",""time"":1093},{""stimulus"":""img/1to3/12.png"",""time"":1199}]","[]"
"image-keyboard-response","152","174050","0.0-5.0-1.74","5fe354a2e44df4fb4634bbc3","bdp_cybrbll","Wed Mar 29 2023 16:21:16 GMT-0400 (Eastern Daylight Time)","444394","1","3","","null","","","","observe","","img/3to2/1.png","null","151","609","0.5","0.5","3","1","",""
"animation","153","175346","0.0-5.0-2.74","5fe354a2e44df4fb4634bbc3","bdp_cybrbll","Wed Mar 29 2023 16:21:16 GMT-0400 (Eastern Daylight Time)","444394","1","3","","","","","","","","","","151","","","","3","1","[{""stimulus"":""img/3to1/1.png"",""time"":102},{""stimulus"":""img/3to1/2.png"",""time"":209},{""stimulus"":""img/3to1/3.png"",""time"":305},{""stimulus"":""img/3to1/4.png"",""time"":406},{""stimulus"":""img/3to1/5.png"",""time"":502},{""stimulus"":""img/3to1/6.png"",""time"":598},{""stimulus"":""img/3to1/7.png"",""time"":705},{""stimulus"":""img/3to1/8.png"",""time"":801},{""stimulus"":""img/3to1/9.png"",""time"":897},{""stimulus"":""img/3to1/10.png"",""time"":998},{""stimulus"":""img/3to1/11.png"",""time"":1093},{""stimulus"":""img/3to1/12.png"",""time"":1201}]","[]"
"image-keyboard-response","154","175831","0.0-5.0-1.75","5fe354a2e44df4fb4634bbc3","bdp_cybrbll","Wed Mar 29 2023 16:21:16 GMT-0400 (Eastern Daylight Time)","444394","1","3","","null","","","","observe","","img/1to3/1.png","null","150","481","0.5","0.5","1","2","",""
"animation","155","177127","0.0-5.0-2.75","5fe354a2e44df4fb4634bbc3","bdp_cybrbll","Wed Mar 29 2023 16:21:16 GMT-0400 (Eastern Daylight Time)","444394","1","3","","","","","","","","","","150","","","","1","2","[{""stimulus"":""img/1to2/1.png"",""time"":107},{""stimulus"":""img/1to2/2.png"",""time"":199},{""stimulus"":""img/1to2/3.png"",""time"":304},{""stimulus"":""img/1to2/4.png"",""time"":402},{""stimulus"":""img/1to2/5.png"",""time"":507},{""stimulus"":""img/1to2/6.png"",""time"":603},{""stimulus"":""img/1to2/7.png"",""time"":698},{""stimulus"":""img/1to2/8.png"",""time"":800},{""stimulus"":""img/1to2/9.png"",""time"":896},{""stimulus"":""img/1to2/10.png"",""time"":992},{""stimulus"":""img/1to2/11.png"",""time"":1098},{""stimulus"":""img/1to2/12.png"",""time"":1192}]","[]"
"image-keyboard-response","156","177515","0.0-5.0-1.76","5fe354a2e44df4fb4634bbc3","bdp_cybrbll","Wed Mar 29 2023 16:21:16 GMT-0400 (Eastern Daylight Time)","444394","1","3","","386","","","","choice","","img/2to1/1.png","2","149","589","0.5","0.1","2","3","",""
"animation","157","178809","0.0-5.0-2.76","5fe354a2e44df4fb4634bbc3","bdp_cybrbll","Wed Mar 29 2023 16:21:16 GMT-0400 (Eastern Daylight Time)","444394","1","3","","","","","","","","","","149","","","","2","3","[{""stimulus"":""img/2to3/1.png"",""time"":109},{""stimulus"":""img/2to3/2.png"",""time"":204},{""stimulus"":""img/2to3/3.png"",""time"":300},{""stimulus"":""img/2to3/4.png"",""time"":408},{""stimulus"":""img/2to3/5.png"",""time"":504},{""stimulus"":""img/2to3/6.png"",""time"":600},{""stimulus"":""img/2to3/7.png"",""time"":701},{""stimulus"":""img/2to3/8.png"",""time"":797},{""stimulus"":""img/2to3/9.png"",""time"":904},{""stimulus"":""img/2to3/10.png"",""time"":1000},{""stimulus"":""img/2to3/11.png"",""time"":1095},{""stimulus"":""img/2to3/12.png"",""time"":1197}]","[]"
"image-keyboard-response","158","179287","0.0-5.0-1.77","5fe354a2e44df4fb4634bbc3","bdp_cybrbll","Wed Mar 29 2023 16:21:16 GMT-0400 (Eastern Daylight Time)","444394","1","3","","null","","","","observe","","img/3to2/1.png","null","148","472","0.5","0.1","3","1","",""
"animation","159","180583","0.0-5.0-2.77","5fe354a2e44df4fb4634bbc3","bdp_cybrbll","Wed Mar 29 2023 16:21:16 GMT-0400 (Eastern Daylight Time)","444394","1","3","","","","","","","","","","148","","","","3","1","[{""stimulus"":""img/3to1/1.png"",""time"":107},{""stimulus"":""img/3to1/2.png"",""time"":208},{""stimulus"":""img/3to1/3.png"",""time"":303},{""stimulus"":""img/3to1/4.png"",""time"":399},{""stimulus"":""img/3to1/5.png"",""time"":496},{""stimulus"":""img/3to1/6.png"",""time"":603},{""stimulus"":""img/3to1/7.png"",""time"":699},{""stimulus"":""img/3to1/8.png"",""time"":800},{""stimulus"":""img/3to1/9.png"",""time"":896},{""stimulus"":""img/3to1/10.png"",""time"":1002},{""stimulus"":""img/3to1/11.png"",""time"":1098},{""stimulus"":""img/3to1/12.png"",""time"":1194}]","[]"
"image-keyboard-response","160","181378","0.0-5.0-1.78","5fe354a2e44df4fb4634bbc3","bdp_cybrbll","Wed Mar 29 2023 16:21:16 GMT-0400 (Eastern Daylight Time)","444394","1","3","","null","","","","observe","","img/1to3/1.png","null","147","787","0.5","0.1","1","3","",""
"animation","161","182674","0.0-5.0-2.78","5fe354a2e44df4fb4634bbc3","bdp_cybrbll","Wed Mar 29 2023 16:21:16 GMT-0400 (Eastern Daylight Time)","444394","1","3","","","","","","","","","","147","","","","1","3","[{""stimulus"":""img/1to3/1.png"",""time"":102},{""stimulus"":""img/1to3/2.png"",""time"":209},{""stimulus"":""img/1to3/3.png"",""time"":304},{""stimulus"":""img/1to3/4.png"",""time"":406},{""stimulus"":""img/1to3/5.png"",""time"":501},{""stimulus"":""img/1to3/6.png"",""time"":598},{""stimulus"":""img/1to3/7.png"",""time"":704},{""stimulus"":""img/1to3/8.png"",""time"":800},{""stimulus"":""img/1to3/9.png"",""time"":896},{""stimulus"":""img/1to3/10.png"",""time"":998},{""stimulus"":""img/1to3/11.png"",""time"":1094},{""stimulus"":""img/1to3/12.png"",""time"":1200}]","[]"
"image-keyboard-response","162","183266","0.0-5.0-1.79","5fe354a2e44df4fb4634bbc3","bdp_cybrbll","Wed Mar 29 2023 16:21:16 GMT-0400 (Eastern Daylight Time)","444394","1","3","","null","","","","observe","","img/3to2/1.png","null","146","584","0.5","0.1","3","1","",""
"animation","163","184562","0.0-5.0-2.79","5fe354a2e44df4fb4634bbc3","bdp_cybrbll","Wed Mar 29 2023 16:21:16 GMT-0400 (Eastern Daylight Time)","444394","1","3","","","","","","","","","","146","","","","3","1","[{""stimulus"":""img/3to1/1.png"",""time"":102},{""stimulus"":""img/3to1/2.png"",""time"":208},{""stimulus"":""img/3to1/3.png"",""time"":304},{""stimulus"":""img/3to1/4.png"",""time"":406},{""stimulus"":""img/3to1/5.png"",""time"":502},{""stimulus"":""img/3to1/6.png"",""time"":598},{""stimulus"":""img/3to1/7.png"",""time"":704},{""stimulus"":""img/3to1/8.png"",""time"":800},{""stimulus"":""img/3to1/9.png"",""time"":896},{""stimulus"":""img/3to1/10.png"",""time"":998},{""stimulus"":""img/3to1/11.png"",""time"":1094},{""stimulus"":""img/3to1/12.png"",""time"":1201}]","[]"
"image-keyboard-response","164","184887","0.0-5.0-1.80","5fe354a2e44df4fb4634bbc3","bdp_cybrbll","Wed Mar 29 2023 16:21:16 GMT-0400 (Eastern Daylight Time)","444394","1","3","","null","","","","observe","","img/1to3/1.png","null","145","318","0.5","0.1","1","2","",""
"animation","165","186183","0.0-5.0-2.80","5fe354a2e44df4fb4634bbc3","bdp_cybrbll","Wed Mar 29 2023 16:21:16 GMT-0400 (Eastern Daylight Time)","444394","1","3","","","","","","","","","","145","","","","1","2","[{""stimulus"":""img/1to2/1.png"",""time"":105},{""stimulus"":""img/1to2/2.png"",""time"":208},{""stimulus"":""img/1to2/3.png"",""time"":304},{""stimulus"":""img/1to2/4.png"",""time"":400},{""stimulus"":""img/1to2/5.png"",""time"":506},{""stimulus"":""img/1to2/6.png"",""time"":602},{""stimulus"":""img/1to2/7.png"",""time"":698},{""stimulus"":""img/1to2/8.png"",""time"":800},{""stimulus"":""img/1to2/9.png"",""time"":896},{""stimulus"":""img/1to2/10.png"",""time"":1002},{""stimulus"":""img/1to2/11.png"",""time"":1098},{""stimulus"":""img/1to2/12.png"",""time"":1194}]","[]"
"image-keyboard-response","166","186330","0.0-5.0-1.81","5fe354a2e44df4fb4634bbc3","bdp_cybrbll","Wed Mar 29 2023 16:21:16 GMT-0400 (Eastern Daylight Time)","444394","1","3","","146","","","","choice","","img/2to1/1.png","1","144","687","0.5","0.1","2","1","",""
"animation","167","187623","0.0-5.0-2.81","5fe354a2e44df4fb4634bbc3","bdp_cybrbll","Wed Mar 29 2023 16:21:16 GMT-0400 (Eastern Daylight Time)","444394","1","3","","","","","","","","","","144","","","","2","1","[{""stimulus"":""img/2to1/1.png"",""time"":104},{""stimulus"":""img/2to1/2.png"",""time"":205},{""stimulus"":""img/2to1/3.png"",""time"":301},{""stimulus"":""img/2to1/4.png"",""time"":407},{""stimulus"":""img/2to1/5.png"",""time"":503},{""stimulus"":""img/2to1/6.png"",""time"":599},{""stimulus"":""img/2to1/7.png"",""time"":700},{""stimulus"":""img/2to1/8.png"",""time"":797},{""stimulus"":""img/2to1/9.png"",""time"":903},{""stimulus"":""img/2to1/10.png"",""time"":999},{""stimulus"":""img/2to1/11.png"",""time"":1095},{""stimulus"":""img/2to1/12.png"",""time"":1197}]","[]"
"image-keyboard-response","168","188338","0.0-5.0-1.82","5fe354a2e44df4fb4634bbc3","bdp_cybrbll","Wed Mar 29 2023 16:21:16 GMT-0400 (Eastern Daylight Time)","444394","1","3","","null","","","","observe","","img/1to3/1.png","null","143","707","0.5","0.1","1","3","",""
"animation","169","189634","0.0-5.0-2.82","5fe354a2e44df4fb4634bbc3","bdp_cybrbll","Wed Mar 29 2023 16:21:16 GMT-0400 (Eastern Daylight Time)","444394","1","3","","","","","","","","","","143","","","","1","3","[{""stimulus"":""img/1to3/1.png"",""time"":101},{""stimulus"":""img/1to3/2.png"",""time"":208},{""stimulus"":""img/1to3/3.png"",""time"":304},{""stimulus"":""img/1to3/4.png"",""time"":405},{""stimulus"":""img/1to3/5.png"",""time"":502},{""stimulus"":""img/1to3/6.png"",""time"":598},{""stimulus"":""img/1to3/7.png"",""time"":704},{""stimulus"":""img/1to3/8.png"",""time"":800},{""stimulus"":""img/1to3/9.png"",""time"":896},{""stimulus"":""img/1to3/10.png"",""time"":997},{""stimulus"":""img/1to3/11.png"",""time"":1094},{""stimulus"":""img/1to3/12.png"",""time"":1200}]","[]"
"image-keyboard-response","170","189954","0.0-5.0-1.83","5fe354a2e44df4fb4634bbc3","bdp_cybrbll","Wed Mar 29 2023 16:21:16 GMT-0400 (Eastern Daylight Time)","444394","1","3","","null","","","","observe","","img/3to2/1.png","null","142","311","0.5","0.1","3","1","",""
"animation","171","191250","0.0-5.0-2.83","5fe354a2e44df4fb4634bbc3","bdp_cybrbll","Wed Mar 29 2023 16:21:16 GMT-0400 (Eastern Daylight Time)","444394","1","3","","","","","","","","","","142","","","","3","1","[{""stimulus"":""img/3to1/1.png"",""time"":101},{""stimulus"":""img/3to1/2.png"",""time"":208},{""stimulus"":""img/3to1/3.png"",""time"":304},{""stimulus"":""img/3to1/4.png"",""time"":405},{""stimulus"":""img/3to1/5.png"",""time"":501},{""stimulus"":""img/3to1/6.png"",""time"":597},{""stimulus"":""img/3to1/7.png"",""time"":703},{""stimulus"":""img/3to1/8.png"",""time"":800},{""stimulus"":""img/3to1/9.png"",""time"":896},{""stimulus"":""img/3to1/10.png"",""time"":992},{""stimulus"":""img/3to1/11.png"",""time"":1094},{""stimulus"":""img/3to1/12.png"",""time"":1200}]","[]"
"image-keyboard-response","172","191729","0.0-5.0-1.84","5fe354a2e44df4fb4634bbc3","bdp_cybrbll","Wed Mar 29 2023 16:21:16 GMT-0400 (Eastern Daylight Time)","444394","1","3","","null","","","","observe","","img/1to3/1.png","null","141","472","0.5","0.1","1","3","",""
"animation","173","193018","0.0-5.0-2.84","5fe354a2e44df4fb4634bbc3","bdp_cybrbll","Wed Mar 29 2023 16:21:16 GMT-0400 (Eastern Daylight Time)","444394","1","3","","","","","","","","","","141","","","","1","3","[{""stimulus"":""img/1to3/1.png"",""time"":101},{""stimulus"":""img/1to3/2.png"",""time"":208},{""stimulus"":""img/1to3/3.png"",""time"":303},{""stimulus"":""img/1to3/4.png"",""time"":405},{""stimulus"":""img/1to3/5.png"",""time"":501},{""stimulus"":""img/1to3/6.png"",""time"":598},{""stimulus"":""img/1to3/7.png"",""time"":704},{""stimulus"":""img/1to3/8.png"",""time"":800},{""stimulus"":""img/1to3/9.png"",""time"":895},{""stimulus"":""img/1to3/10.png"",""time"":998},{""stimulus"":""img/1to3/11.png"",""time"":1093},{""stimulus"":""img/1to3/12.png"",""time"":1200}]","[]"
"image-keyboard-response","174","194887","0.0-5.0-1.85","5fe354a2e44df4fb4634bbc3","bdp_cybrbll","Wed Mar 29 2023 16:21:16 GMT-0400 (Eastern Daylight Time)","444394","1","3","","null","","","","observe","","img/3to2/1.png","null","140","1861","0.5","0.1","3","2","",""
"animation","175","196183","0.0-5.0-2.85","5fe354a2e44df4fb4634bbc3","bdp_cybrbll","Wed Mar 29 2023 16:21:16 GMT-0400 (Eastern Daylight Time)","444394","1","3","","","","","","","","","","140","","","","3","2","[{""stimulus"":""img/3to2/1.png"",""time"":107},{""stimulus"":""img/3to2/2.png"",""time"":203},{""stimulus"":""img/3to2/3.png"",""time"":304},{""stimulus"":""img/3to2/4.png"",""time"":400},{""stimulus"":""img/3to2/5.png"",""time"":507},{""stimulus"":""img/3to2/6.png"",""time"":603},{""stimulus"":""img/3to2/7.png"",""time"":699},{""stimulus"":""img/3to2/8.png"",""time"":800},{""stimulus"":""img/3to2/9.png"",""time"":897},{""stimulus"":""img/3to2/10.png"",""time"":992},{""stimulus"":""img/3to2/11.png"",""time"":1099},{""stimulus"":""img/3to2/12.png"",""time"":1195}]","[]"
"image-keyboard-response","176","196709","0.0-5.0-1.86","5fe354a2e44df4fb4634bbc3","bdp_cybrbll","Wed Mar 29 2023 16:21:16 GMT-0400 (Eastern Daylight Time)","444394","1","3","","525","","","","choice","","img/2to1/1.png","2","139","701","0.5","0.1","2","3","",""
"animation","177","198001","0.0-5.0-2.86","5fe354a2e44df4fb4634bbc3","bdp_cybrbll","Wed Mar 29 2023 16:21:16 GMT-0400 (Eastern Daylight Time)","444394","1","3","","","","","","","","","","139","","","","2","3","[{""stimulus"":""img/2to3/1.png"",""time"":109},{""stimulus"":""img/2to3/2.png"",""time"":205},{""stimulus"":""img/2to3/3.png"",""time"":301},{""stimulus"":""img/2to3/4.png"",""time"":402},{""stimulus"":""img/2to3/5.png"",""time"":498},{""stimulus"":""img/2to3/6.png"",""time"":605},{""stimulus"":""img/2to3/7.png"",""time"":701},{""stimulus"":""img/2to3/8.png"",""time"":802},{""stimulus"":""img/2to3/9.png"",""time"":898},{""stimulus"":""img/2to3/10.png"",""time"":994},{""stimulus"":""img/2to3/11.png"",""time"":1101},{""stimulus"":""img/2to3/12.png"",""time"":1197}]","[]"
"image-keyboard-response","178","199271","0.0-5.0-1.87","5fe354a2e44df4fb4634bbc3","bdp_cybrbll","Wed Mar 29 2023 16:21:16 GMT-0400 (Eastern Daylight Time)","444394","1","3","","null","","","","observe","","img/3to2/1.png","null","138","1265","0.5","0.1","3","1","",""
"animation","179","200567","0.0-5.0-2.87","5fe354a2e44df4fb4634bbc3","bdp_cybrbll","Wed Mar 29 2023 16:21:16 GMT-0400 (Eastern Daylight Time)","444394","1","3","","","","","","","","","","138","","","","3","1","[{""stimulus"":""img/3to1/1.png"",""time"":107},{""stimulus"":""img/3to1/2.png"",""time"":203},{""stimulus"":""img/3to1/3.png"",""time"":304},{""stimulus"":""img/3to1/4.png"",""time"":400},{""stimulus"":""img/3to1/5.png"",""time"":507},{""stimulus"":""img/3to1/6.png"",""time"":603},{""stimulus"":""img/3to1/7.png"",""time"":699},{""stimulus"":""img/3to1/8.png"",""time"":800},{""stimulus"":""img/3to1/9.png"",""time"":896},{""stimulus"":""img/3to1/10.png"",""time"":992},{""stimulus"":""img/3to1/11.png"",""time"":1099},{""stimulus"":""img/3to1/12.png"",""time"":1195}]","[]"
"image-keyboard-response","180","200721","0.0-5.0-1.88","5fe354a2e44df4fb4634bbc3","bdp_cybrbll","Wed Mar 29 2023 16:21:16 GMT-0400 (Eastern Daylight Time)","444394","1","3","","null","","","","observe","","img/1to3/1.png","null","137","149","0.5","0.1","1","3","",""
"animation","181","202017","0.0-5.0-2.88","5fe354a2e44df4fb4634bbc3","bdp_cybrbll","Wed Mar 29 2023 16:21:16 GMT-0400 (Eastern Daylight Time)","444394","1","3","","","","","","","","","","137","","","","1","3","[{""stimulus"":""img/1to3/1.png"",""time"":102},{""stimulus"":""img/1to3/2.png"",""time"":209},{""stimulus"":""img/1to3/3.png"",""time"":302},{""stimulus"":""img/1to3/4.png"",""time"":406},{""stimulus"":""img/1to3/5.png"",""time"":502},{""stimulus"":""img/1to3/6.png"",""time"":598},{""stimulus"":""img/1to3/7.png"",""time"":705},{""stimulus"":""img/1to3/8.png"",""time"":801},{""stimulus"":""img/1to3/9.png"",""time"":897},{""stimulus"":""img/1to3/10.png"",""time"":998},{""stimulus"":""img/1to3/11.png"",""time"":1094},{""stimulus"":""img/1to3/12.png"",""time"":1201}]","[]"
"image-keyboard-response","182","202758","0.0-5.0-1.89","5fe354a2e44df4fb4634bbc3","bdp_cybrbll","Wed Mar 29 2023 16:21:16 GMT-0400 (Eastern Daylight Time)","444394","1","3","","null","","","","observe","","img/3to2/1.png","null","136","736","0.5","0.1","3","1","",""
"animation","183","204055","0.0-5.0-2.89","5fe354a2e44df4fb4634bbc3","bdp_cybrbll","Wed Mar 29 2023 16:21:16 GMT-0400 (Eastern Daylight Time)","444394","1","3","","","","","","","","","","136","","","","3","1","[{""stimulus"":""img/3to1/1.png"",""time"":107},{""stimulus"":""img/3to1/2.png"",""time"":208},{""stimulus"":""img/3to1/3.png"",""time"":304},{""stimulus"":""img/3to1/4.png"",""time"":400},{""stimulus"":""img/3to1/5.png"",""time"":507},{""stimulus"":""img/3to1/6.png"",""time"":602},{""stimulus"":""img/3to1/7.png"",""time"":699},{""stimulus"":""img/3to1/8.png"",""time"":799},{""stimulus"":""img/3to1/9.png"",""time"":896},{""stimulus"":""img/3to1/10.png"",""time"":1003},{""stimulus"":""img/3to1/11.png"",""time"":1099},{""stimulus"":""img/3to1/12.png"",""time"":1195}]","[]"
"image-keyboard-response","184","205073","0.0-5.0-1.90","5fe354a2e44df4fb4634bbc3","bdp_cybrbll","Wed Mar 29 2023 16:21:16 GMT-0400 (Eastern Daylight Time)","444394","1","3","","null","","","","observe","","img/1to3/1.png","null","135","1010","0.5","0.1","1","2","",""
"animation","185","206369","0.0-5.0-2.90","5fe354a2e44df4fb4634bbc3","bdp_cybrbll","Wed Mar 29 2023 16:21:16 GMT-0400 (Eastern Daylight Time)","444394","1","3","","","","","","","","","","135","","","","1","2","[{""stimulus"":""img/1to2/1.png"",""time"":102},{""stimulus"":""img/1to2/2.png"",""time"":209},{""stimulus"":""img/1to2/3.png"",""time"":305},{""stimulus"":""img/1to2/4.png"",""time"":406},{""stimulus"":""img/1to2/5.png"",""time"":502},{""stimulus"":""img/1to2/6.png"",""time"":598},{""stimulus"":""img/1to2/7.png"",""time"":705},{""stimulus"":""img/1to2/8.png"",""time"":801},{""stimulus"":""img/1to2/9.png"",""time"":897},{""stimulus"":""img/1to2/10.png"",""time"":998},{""stimulus"":""img/1to2/11.png"",""time"":1094},{""stimulus"":""img/1to2/12.png"",""time"":1201}]","[]"
"image-keyboard-response","186","206710","0.0-5.0-1.91","5fe354a2e44df4fb4634bbc3","bdp_cybrbll","Wed Mar 29 2023 16:21:16 GMT-0400 (Eastern Daylight Time)","444394","1","3","","340","","","","choice","","img/2to1/1.png","1","134","369","0.5","0.1","2","1","",""
"animation","187","208006","0.0-5.0-2.91","5fe354a2e44df4fb4634bbc3","bdp_cybrbll","Wed Mar 29 2023 16:21:16 GMT-0400 (Eastern Daylight Time)","444394","1","3","","","","","","","","","","134","","","","2","1","[{""stimulus"":""img/2to1/1.png"",""time"":108},{""stimulus"":""img/2to1/2.png"",""time"":203},{""stimulus"":""img/2to1/3.png"",""time"":305},{""stimulus"":""img/2to1/4.png"",""time"":401},{""stimulus"":""img/2to1/5.png"",""time"":508},{""stimulus"":""img/2to1/6.png"",""time"":603},{""stimulus"":""img/2to1/7.png"",""time"":700},{""stimulus"":""img/2to1/8.png"",""time"":801},{""stimulus"":""img/2to1/9.png"",""time"":897},{""stimulus"":""img/2to1/10.png"",""time"":992},{""stimulus"":""img/2to1/11.png"",""time"":1099},{""stimulus"":""img/2to1/12.png"",""time"":1195}]","[]"
"image-keyboard-response","188","208358","0.0-5.0-1.92","5fe354a2e44df4fb4634bbc3","bdp_cybrbll","Wed Mar 29 2023 16:21:16 GMT-0400 (Eastern Daylight Time)","444394","1","3","","null","","","","observe","","img/1to3/1.png","null","133","344","0.5","0.1","1","3","",""
"animation","189","209654","0.0-5.0-2.92","5fe354a2e44df4fb4634bbc3","bdp_cybrbll","Wed Mar 29 2023 16:21:16 GMT-0400 (Eastern Daylight Time)","444394","1","3","","","","","","","","","","133","","","","1","3","[{""stimulus"":""img/1to3/1.png"",""time"":107},{""stimulus"":""img/1to3/2.png"",""time"":208},{""stimulus"":""img/1to3/3.png"",""time"":304},{""stimulus"":""img/1to3/4.png"",""time"":400},{""stimulus"":""img/1to3/5.png"",""time"":506},{""stimulus"":""img/1to3/6.png"",""time"":602},{""stimulus"":""img/1to3/7.png"",""time"":698},{""stimulus"":""img/1to3/8.png"",""time"":800},{""stimulus"":""img/1to3/9.png"",""time"":896},{""stimulus"":""img/1to3/10.png"",""time"":1002},{""stimulus"":""img/1to3/11.png"",""time"":1098},{""stimulus"":""img/1to3/12.png"",""time"":1194}]","[]"
"image-keyboard-response","190","210118","0.0-5.0-1.93","5fe354a2e44df4fb4634bbc3","bdp_cybrbll","Wed Mar 29 2023 16:21:16 GMT-0400 (Eastern Daylight Time)","444394","1","3","","null","","","","observe","","img/3to2/1.png","null","132","460","0.5","0.1","3","1","",""
