"trial_type","trial_index","time_elapsed","internal_node_id","subject_id","task","startTime","totalTime","fairPartner","unfairPartner","view_history","rt","event","trial","time","trialtype","success","stimulus","key_press","throwsLeft","rtDur","pFair","pUnfair","holder","receiver","animation_sequence","responses"
"pavlovia","0","6","0.0-0.0","60fcd5602ff7c8f0866ecd0c","bdp_cybrbll","Sat Mar 25 2023 18:53:03 GMT-0400 (Eastern Daylight Time)","470832","3","1","","","","","","","","","","","","","","","","",""
"instructions","1","3607","0.0-1.0","60fcd5602ff7c8f0866ecd0c","bdp_cybrbll","Sat Mar 25 2023 18:53:03 GMT-0400 (Eastern Daylight Time)","470832","3","1","[{""page_index"":0,""viewing_time"":3599}]","3600","","","","","","","","","","","","","","",""
"","","","","60fcd5602ff7c8f0866ecd0c","bdp_cybrbll","Sat Mar 25 2023 18:53:03 GMT-0400 (Eastern Daylight Time)","470832","3","1","","","fullscreenenter","2","5571","fullscreenenter","","","","","","","","","","",""
"fullscreen","2","6576","0.0-2.0","60fcd5602ff7c8f0866ecd0c","bdp_cybrbll","Sat Mar 25 2023 18:53:03 GMT-0400 (Eastern Daylight Time)","470832","3","1","","","","","","","true","","","","","","","","","",""
"instructions","3","70881","0.0-4.0","60fcd5602ff7c8f0866ecd0c","bdp_cybrbll","Sat Mar 25 2023 18:53:03 GMT-0400 (Eastern Daylight Time)","470832","3","1","[{""page_index"":0,""viewing_time"":64302}]","64303","","","","","","","","","","","","","","",""
"image-keyboard-response","4","73008","0.0-5.0-1.0","60fcd5602ff7c8f0866ecd0c","bdp_cybrbll","Sat Mar 25 2023 18:53:03 GMT-0400 (Eastern Daylight Time)","470832","3","1","","2123","","","","choice","","img/2to1/1.png","1","225","289","0.5","0.5","2","1","",""
"animation","5","74311","0.0-5.0-2.0","60fcd5602ff7c8f0866ecd0c","bdp_cybrbll","Sat Mar 25 2023 18:53:03 GMT-0400 (Eastern Daylight Time)","470832","3","1","","","","","","","","","","225","","","","2","1","[{""stimulus"":""img/2to1/1.png"",""time"":110},{""stimulus"":""img/2to1/2.png"",""time"":203},{""stimulus"":""img/2to1/3.png"",""time"":312},{""stimulus"":""img/2to1/4.png"",""time"":412},{""stimulus"":""img/2to1/5.png"",""time"":497},{""stimulus"":""img/2to1/6.png"",""time"":610},{""stimulus"":""img/2to1/7.png"",""time"":696},{""stimulus"":""img/2to1/8.png"",""time"":796},{""stimulus"":""img/2to1/9.png"",""time"":903},{""stimulus"":""img/2to1/10.png"",""time"":1003},{""stimulus"":""img/2to1/11.png"",""time"":1102},{""stimulus"":""img/2to1/12.png"",""time"":1203}]","[]"
"image-keyboard-response","6","74683","0.0-5.0-1.1","60fcd5602ff7c8f0866ecd0c","bdp_cybrbll","Sat Mar 25 2023 18:53:03 GMT-0400 (Eastern Daylight Time)","470832","3","1","","null","","","","observe","","img/1to3/1.png","null","224","355","0.5","0.5","1","2","",""
"animation","7","75988","0.0-5.0-2.1","60fcd5602ff7c8f0866ecd0c","bdp_cybrbll","Sat Mar 25 2023 18:53:03 GMT-0400 (Eastern Daylight Time)","470832","3","1","","","","","","","","","","224","","","","1","2","[{""stimulus"":""img/1to2/1.png"",""time"":111},{""stimulus"":""img/1to2/2.png"",""time"":211},{""stimulus"":""img/1to2/3.png"",""time"":311},{""stimulus"":""img/1to2/4.png"",""time"":410},{""stimulus"":""img/1to2/5.png"",""time"":503},{""stimulus"":""img/1to2/6.png"",""time"":610},{""stimulus"":""img/1to2/7.png"",""time"":705},{""stimulus"":""img/1to2/8.png"",""time"":801},{""stimulus"":""img/1to2/9.png"",""time"":902},{""stimulus"":""img/1to2/10.png"",""time"":1003},{""stimulus"":""img/1to2/11.png"",""time"":1102},{""stimulus"":""img/1to2/12.png"",""time"":1203}]","[]"
"image-keyboard-response","8","76388","0.0-5.0-1.2","60fcd5602ff7c8f0866ecd0c","bdp_cybrbll","Sat Mar 25 2023 18:53:03 GMT-0400 (Eastern Daylight Time)","470832","3","1","","399","","","","choice","","img/2to1/1.png","2","223","551","0.5","0.5","2","3","",""
"animation","9","77686","0.0-5.0-2.2","60fcd5602ff7c8f0866ecd0c","bdp_cybrbll","Sat Mar 25 2023 18:53:03 GMT-0400 (Eastern Daylight Time)","470832","3","1","","","","","","","","","","223","","","","2","3","[{""stimulus"":""img/2to3/1.png"",""time"":102},{""stimulus"":""img/2to3/2.png"",""time"":212},{""stimulus"":""img/2to3/3.png"",""time"":314},{""stimulus"":""img/2to3/4.png"",""time"":397},{""stimulus"":""img/2to3/5.png"",""time"":506},{""stimulus"":""img/2to3/6.png"",""time"":601},{""stimulus"":""img/2to3/7.png"",""time"":697},{""stimulus"":""img/2to3/8.png"",""time"":798},{""stimulus"":""img/2to3/9.png"",""time"":896},{""stimulus"":""img/2to3/10.png"",""time"":996},{""stimulus"":""img/2to3/11.png"",""time"":1096},{""stimulus"":""img/2to3/12.png"",""time"":1196}]","[]"
"image-keyboard-response","10","77977","0.0-5.0-1.3","60fcd5602ff7c8f0866ecd0c","bdp_cybrbll","Sat Mar 25 2023 18:53:03 GMT-0400 (Eastern Daylight Time)","470832","3","1","","null","","","","observe","","img/3to2/1.png","null","222","281","0.5","0.5","3","2","",""
"animation","11","79272","0.0-5.0-2.3","60fcd5602ff7c8f0866ecd0c","bdp_cybrbll","Sat Mar 25 2023 18:53:03 GMT-0400 (Eastern Daylight Time)","470832","3","1","","","","","","","","","","222","","","","3","2","[{""stimulus"":""img/3to2/1.png"",""time"":111},{""stimulus"":""img/3to2/2.png"",""time"":200},{""stimulus"":""img/3to2/3.png"",""time"":298},{""stimulus"":""img/3to2/4.png"",""time"":408},{""stimulus"":""img/3to2/5.png"",""time"":500},{""stimulus"":""img/3to2/6.png"",""time"":608},{""stimulus"":""img/3to2/7.png"",""time"":709},{""stimulus"":""img/3to2/8.png"",""time"":807},{""stimulus"":""img/3to2/9.png"",""time"":907},{""stimulus"":""img/3to2/10.png"",""time"":992},{""stimulus"":""img/3to2/11.png"",""time"":1096},{""stimulus"":""img/3to2/12.png"",""time"":1197}]","[]"
"image-keyboard-response","12","79521","0.0-5.0-1.4","60fcd5602ff7c8f0866ecd0c","bdp_cybrbll","Sat Mar 25 2023 18:53:03 GMT-0400 (Eastern Daylight Time)","470832","3","1","","248","","","","choice","","img/2to1/1.png","1","221","480","0.5","0.5","2","1","",""
"animation","13","80817","0.0-5.0-2.4","60fcd5602ff7c8f0866ecd0c","bdp_cybrbll","Sat Mar 25 2023 18:53:03 GMT-0400 (Eastern Daylight Time)","470832","3","1","","","","","","","","","","221","","","","2","1","[{""stimulus"":""img/2to1/1.png"",""time"":106},{""stimulus"":""img/2to1/2.png"",""time"":206},{""stimulus"":""img/2to1/3.png"",""time"":305},{""stimulus"":""img/2to1/4.png"",""time"":405},{""stimulus"":""img/2to1/5.png"",""time"":499},{""stimulus"":""img/2to1/6.png"",""time"":597},{""stimulus"":""img/2to1/7.png"",""time"":706},{""stimulus"":""img/2to1/8.png"",""time"":806},{""stimulus"":""img/2to1/9.png"",""time"":898},{""stimulus"":""img/2to1/10.png"",""time"":999},{""stimulus"":""img/2to1/11.png"",""time"":1106},{""stimulus"":""img/2to1/12.png"",""time"":1197}]","[]"
"image-keyboard-response","14","81445","0.0-5.0-1.5","60fcd5602ff7c8f0866ecd0c","bdp_cybrbll","Sat Mar 25 2023 18:53:03 GMT-0400 (Eastern Daylight Time)","470832","3","1","","null","","","","observe","","img/1to3/1.png","null","220","614","0.5","0.5","1","3","",""
"animation","15","82736","0.0-5.0-2.5","60fcd5602ff7c8f0866ecd0c","bdp_cybrbll","Sat Mar 25 2023 18:53:03 GMT-0400 (Eastern Daylight Time)","470832","3","1","","","","","","","","","","220","","","","1","3","[{""stimulus"":""img/1to3/1.png"",""time"":110},{""stimulus"":""img/1to3/2.png"",""time"":207},{""stimulus"":""img/1to3/3.png"",""time"":308},{""stimulus"":""img/1to3/4.png"",""time"":401},{""stimulus"":""img/1to3/5.png"",""time"":507},{""stimulus"":""img/1to3/6.png"",""time"":607},{""stimulus"":""img/1to3/7.png"",""time"":707},{""stimulus"":""img/1to3/8.png"",""time"":807},{""stimulus"":""img/1to3/9.png"",""time"":907},{""stimulus"":""img/1to3/10.png"",""time"":1017},{""stimulus"":""img/1to3/11.png"",""time"":1092},{""stimulus"":""img/1to3/12.png"",""time"":1191}]","[]"
"image-keyboard-response","16","82947","0.0-5.0-1.6","60fcd5602ff7c8f0866ecd0c","bdp_cybrbll","Sat Mar 25 2023 18:53:03 GMT-0400 (Eastern Daylight Time)","470832","3","1","","null","","","","observe","","img/3to2/1.png","null","219","195","0.5","0.5","3","2","",""
"animation","17","84242","0.0-5.0-2.6","60fcd5602ff7c8f0866ecd0c","bdp_cybrbll","Sat Mar 25 2023 18:53:03 GMT-0400 (Eastern Daylight Time)","470832","3","1","","","","","","","","","","219","","","","3","2","[{""stimulus"":""img/3to2/1.png"",""time"":111},{""stimulus"":""img/3to2/2.png"",""time"":213},{""stimulus"":""img/3to2/3.png"",""time"":305},{""stimulus"":""img/3to2/4.png"",""time"":409},{""stimulus"":""img/3to2/5.png"",""time"":506},{""stimulus"":""img/3to2/6.png"",""time"":607},{""stimulus"":""img/3to2/7.png"",""time"":705},{""stimulus"":""img/3to2/8.png"",""time"":806},{""stimulus"":""img/3to2/9.png"",""time"":899},{""stimulus"":""img/3to2/10.png"",""time"":995},{""stimulus"":""img/3to2/11.png"",""time"":1105},{""stimulus"":""img/3to2/12.png"",""time"":1189}]","[]"
"image-keyboard-response","18","84684","0.0-5.0-1.7","60fcd5602ff7c8f0866ecd0c","bdp_cybrbll","Sat Mar 25 2023 18:53:03 GMT-0400 (Eastern Daylight Time)","470832","3","1","","441","","","","choice","","img/2to1/1.png","2","218","555","0.5","0.5","2","3","",""
"animation","19","85984","0.0-5.0-2.7","60fcd5602ff7c8f0866ecd0c","bdp_cybrbll","Sat Mar 25 2023 18:53:03 GMT-0400 (Eastern Daylight Time)","470832","3","1","","","","","","","","","","218","","","","2","3","[{""stimulus"":""img/2to3/1.png"",""time"":110},{""stimulus"":""img/2to3/2.png"",""time"":210},{""stimulus"":""img/2to3/3.png"",""time"":304},{""stimulus"":""img/2to3/4.png"",""time"":405},{""stimulus"":""img/2to3/5.png"",""time"":502},{""stimulus"":""img/2to3/6.png"",""time"":602},{""stimulus"":""img/2to3/7.png"",""time"":702},{""stimulus"":""img/2to3/8.png"",""time"":810},{""stimulus"":""img/2to3/9.png"",""time"":894},{""stimulus"":""img/2to3/10.png"",""time"":992},{""stimulus"":""img/2to3/11.png"",""time"":1092},{""stimulus"":""img/2to3/12.png"",""time"":1192}]","[]"
"image-keyboard-response","20","86243","0.0-5.0-1.8","60fcd5602ff7c8f0866ecd0c","bdp_cybrbll","Sat Mar 25 2023 18:53:03 GMT-0400 (Eastern Daylight Time)","470832","3","1","","null","","","","observe","","img/3to2/1.png","null","217","255","0.5","0.5","3","2","",""
"animation","21","87536","0.0-5.0-2.8","60fcd5602ff7c8f0866ecd0c","bdp_cybrbll","Sat Mar 25 2023 18:53:03 GMT-0400 (Eastern Daylight Time)","470832","3","1","","","","","","","","","","217","","","","3","2","[{""stimulus"":""img/3to2/1.png"",""time"":110},{""stimulus"":""img/3to2/2.png"",""time"":199},{""stimulus"":""img/3to2/3.png"",""time"":299},{""stimulus"":""img/3to2/4.png"",""time"":399},{""stimulus"":""img/3to2/5.png"",""time"":498},{""stimulus"":""img/3to2/6.png"",""time"":598},{""stimulus"":""img/3to2/7.png"",""time"":707},{""stimulus"":""img/3to2/8.png"",""time"":807},{""stimulus"":""img/3to2/9.png"",""time"":891},{""stimulus"":""img/3to2/10.png"",""time"":993},{""stimulus"":""img/3to2/11.png"",""time"":1099},{""stimulus"":""img/3to2/12.png"",""time"":1192}]","[]"
"image-keyboard-response","22","87889","0.0-5.0-1.9","60fcd5602ff7c8f0866ecd0c","bdp_cybrbll","Sat Mar 25 2023 18:53:03 GMT-0400 (Eastern Daylight Time)","470832","3","1","","352","","","","choice","","img/2to1/1.png","1","216","247","0.5","0.5","2","1","",""
"animation","23","89183","0.0-5.0-2.9","60fcd5602ff7c8f0866ecd0c","bdp_cybrbll","Sat Mar 25 2023 18:53:03 GMT-0400 (Eastern Daylight Time)","470832","3","1","","","","","","","","","","216","","","","2","1","[{""stimulus"":""img/2to1/1.png"",""time"":110},{""stimulus"":""img/2to1/2.png"",""time"":204},{""stimulus"":""img/2to1/3.png"",""time"":311},{""stimulus"":""img/2to1/4.png"",""time"":410},{""stimulus"":""img/2to1/5.png"",""time"":502},{""stimulus"":""img/2to1/6.png"",""time"":604},{""stimulus"":""img/2to1/7.png"",""time"":704},{""stimulus"":""img/2to1/8.png"",""time"":802},{""stimulus"":""img/2to1/9.png"",""time"":904},{""stimulus"":""img/2to1/10.png"",""time"":991},{""stimulus"":""img/2to1/11.png"",""time"":1103},{""stimulus"":""img/2to1/12.png"",""time"":1195}]","[]"
"image-keyboard-response","24","89747","0.0-5.0-1.10","60fcd5602ff7c8f0866ecd0c","bdp_cybrbll","Sat Mar 25 2023 18:53:03 GMT-0400 (Eastern Daylight Time)","470832","3","1","","null","","","","observe","","img/1to3/1.png","null","215","554","0.5","0.5","1","2","",""
"animation","25","91035","0.0-5.0-2.10","60fcd5602ff7c8f0866ecd0c","bdp_cybrbll","Sat Mar 25 2023 18:53:03 GMT-0400 (Eastern Daylight Time)","470832","3","1","","","","","","","","","","215","","","","1","2","[{""stimulus"":""img/1to2/1.png"",""time"":114},{""stimulus"":""img/1to2/2.png"",""time"":211},{""stimulus"":""img/1to2/3.png"",""time"":311},{""stimulus"":""img/1to2/4.png"",""time"":412},{""stimulus"":""img/1to2/5.png"",""time"":510},{""stimulus"":""img/1to2/6.png"",""time"":594},{""stimulus"":""img/1to2/7.png"",""time"":702},{""stimulus"":""img/1to2/8.png"",""time"":803},{""stimulus"":""img/1to2/9.png"",""time"":895},{""stimulus"":""img/1to2/10.png"",""time"":1002},{""stimulus"":""img/1to2/11.png"",""time"":1102},{""stimulus"":""img/1to2/12.png"",""time"":1202}]","[]"
"image-keyboard-response","26","91218","0.0-5.0-1.11","60fcd5602ff7c8f0866ecd0c","bdp_cybrbll","Sat Mar 25 2023 18:53:03 GMT-0400 (Eastern Daylight Time)","470832","3","1","","182","","","","choice","","img/2to1/1.png","2","214","355","0.5","0.5","2","3","",""
"animation","27","92508","0.0-5.0-2.11","60fcd5602ff7c8f0866ecd0c","bdp_cybrbll","Sat Mar 25 2023 18:53:03 GMT-0400 (Eastern Daylight Time)","470832","3","1","","","","","","","","","","214","","","","2","3","[{""stimulus"":""img/2to3/1.png"",""time"":101},{""stimulus"":""img/2to3/2.png"",""time"":203},{""stimulus"":""img/2to3/3.png"",""time"":300},{""stimulus"":""img/2to3/4.png"",""time"":400},{""stimulus"":""img/2to3/5.png"",""time"":500},{""stimulus"":""img/2to3/6.png"",""time"":601},{""stimulus"":""img/2to3/7.png"",""time"":708},{""stimulus"":""img/2to3/8.png"",""time"":806},{""stimulus"":""img/2to3/9.png"",""time"":906},{""stimulus"":""img/2to3/10.png"",""time"":1000},{""stimulus"":""img/2to3/11.png"",""time"":1090},{""stimulus"":""img/2to3/12.png"",""time"":1189}]","[]"
"image-keyboard-response","28","93092","0.0-5.0-1.12","60fcd5602ff7c8f0866ecd0c","bdp_cybrbll","Sat Mar 25 2023 18:53:03 GMT-0400 (Eastern Daylight Time)","470832","3","1","","null","","","","observe","","img/3to2/1.png","null","213","577","0.5","0.5","3","2","",""
"animation","29","94393","0.0-5.0-2.12","60fcd5602ff7c8f0866ecd0c","bdp_cybrbll","Sat Mar 25 2023 18:53:03 GMT-0400 (Eastern Daylight Time)","470832","3","1","","","","","","","","","","213","","","","3","2","[{""stimulus"":""img/3to2/1.png"",""time"":111},{""stimulus"":""img/3to2/2.png"",""time"":208},{""stimulus"":""img/3to2/3.png"",""time"":299},{""stimulus"":""img/3to2/4.png"",""time"":400},{""stimulus"":""img/3to2/5.png"",""time"":500},{""stimulus"":""img/3to2/6.png"",""time"":599},{""stimulus"":""img/3to2/7.png"",""time"":700},{""stimulus"":""img/3to2/8.png"",""time"":808},{""stimulus"":""img/3to2/9.png"",""time"":899},{""stimulus"":""img/3to2/10.png"",""time"":999},{""stimulus"":""img/3to2/11.png"",""time"":1092},{""stimulus"":""img/3to2/12.png"",""time"":1198}]","[]"
"image-keyboard-response","30","94573","0.0-5.0-1.13","60fcd5602ff7c8f0866ecd0c","bdp_cybrbll","Sat Mar 25 2023 18:53:03 GMT-0400 (Eastern Daylight Time)","470832","3","1","","180","","","","choice","","img/2to1/1.png","1","212","630","0.5","0.5","2","1","",""
"animation","31","95875","0.0-5.0-2.13","60fcd5602ff7c8f0866ecd0c","bdp_cybrbll","Sat Mar 25 2023 18:53:03 GMT-0400 (Eastern Daylight Time)","470832","3","1","","","","","","","","","","212","","","","2","1","[{""stimulus"":""img/2to1/1.png"",""time"":111},{""stimulus"":""img/2to1/2.png"",""time"":213},{""stimulus"":""img/2to1/3.png"",""time"":313},{""stimulus"":""img/2to1/4.png"",""time"":404},{""stimulus"":""img/2to1/5.png"",""time"":502},{""stimulus"":""img/2to1/6.png"",""time"":611},{""stimulus"":""img/2to1/7.png"",""time"":695},{""stimulus"":""img/2to1/8.png"",""time"":799},{""stimulus"":""img/2to1/9.png"",""time"":895},{""stimulus"":""img/2to1/10.png"",""time"":995},{""stimulus"":""img/2to1/11.png"",""time"":1098},{""stimulus"":""img/2to1/12.png"",""time"":1203}]","[]"
"image-keyboard-response","32","96158","0.0-5.0-1.14","60fcd5602ff7c8f0866ecd0c","bdp_cybrbll","Sat Mar 25 2023 18:53:03 GMT-0400 (Eastern Daylight Time)","470832","3","1","","null","","","","observe","","img/1to3/1.png","null","211","274","0.5","0.5","1","3","",""
"animation","33","97451","0.0-5.0-2.14","60fcd5602ff7c8f0866ecd0c","bdp_cybrbll","Sat Mar 25 2023 18:53:03 GMT-0400 (Eastern Daylight Time)","470832","3","1","","","","","","","","","","211","","","","1","3","[{""stimulus"":""img/1to3/1.png"",""time"":114},{""stimulus"":""img/1to3/2.png"",""time"":206},{""stimulus"":""img/1to3/3.png"",""time"":301},{""stimulus"":""img/1to3/4.png"",""time"":400},{""stimulus"":""img/1to3/5.png"",""time"":497},{""stimulus"":""img/1to3/6.png"",""time"":611},{""stimulus"":""img/1to3/7.png"",""time"":703},{""stimulus"":""img/1to3/8.png"",""time"":794},{""stimulus"":""img/1to3/9.png"",""time"":894},{""stimulus"":""img/1to3/10.png"",""time"":994},{""stimulus"":""img/1to3/11.png"",""time"":1102},{""stimulus"":""img/1to3/12.png"",""time"":1201}]","[]"
"image-keyboard-response","34","98124","0.0-5.0-1.15","60fcd5602ff7c8f0866ecd0c","bdp_cybrbll","Sat Mar 25 2023 18:53:03 GMT-0400 (Eastern Daylight Time)","470832","3","1","","null","","","","observe","","img/3to2/1.png","null","210","666","0.5","0.5","3","1","",""
"animation","35","99418","0.0-5.0-2.15","60fcd5602ff7c8f0866ecd0c","bdp_cybrbll","Sat Mar 25 2023 18:53:03 GMT-0400 (Eastern Daylight Time)","470832","3","1","","","","","","","","","","210","","","","3","1","[{""stimulus"":""img/3to1/1.png"",""time"":110},{""stimulus"":""img/3to1/2.png"",""time"":209},{""stimulus"":""img/3to1/3.png"",""time"":303},{""stimulus"":""img/3to1/4.png"",""time"":410},{""stimulus"":""img/3to1/5.png"",""time"":511},{""stimulus"":""img/3to1/6.png"",""time"":611},{""stimulus"":""img/3to1/7.png"",""time"":696},{""stimulus"":""img/3to1/8.png"",""time"":794},{""stimulus"":""img/3to1/9.png"",""time"":894},{""stimulus"":""img/3to1/10.png"",""time"":994},{""stimulus"":""img/3to1/11.png"",""time"":1094},{""stimulus"":""img/3to1/12.png"",""time"":1194}]","[]"
"image-keyboard-response","36","99646","0.0-5.0-1.16","60fcd5602ff7c8f0866ecd0c","bdp_cybrbll","Sat Mar 25 2023 18:53:03 GMT-0400 (Eastern Daylight Time)","470832","3","1","","null","","","","observe","","img/1to3/1.png","null","209","225","0.5","0.5","1","3","",""
"animation","37","100941","0.0-5.0-2.16","60fcd5602ff7c8f0866ecd0c","bdp_cybrbll","Sat Mar 25 2023 18:53:03 GMT-0400 (Eastern Daylight Time)","470832","3","1","","","","","","","","","","209","","","","1","3","[{""stimulus"":""img/1to3/1.png"",""time"":111},{""stimulus"":""img/1to3/2.png"",""time"":213},{""stimulus"":""img/1to3/3.png"",""time"":307},{""stimulus"":""img/1to3/4.png"",""time"":398},{""stimulus"":""img/1to3/5.png"",""time"":512},{""stimulus"":""img/1to3/6.png"",""time"":596},{""stimulus"":""img/1to3/7.png"",""time"":705},{""stimulus"":""img/1to3/8.png"",""time"":796},{""stimulus"":""img/1to3/9.png"",""time"":905},{""stimulus"":""img/1to3/10.png"",""time"":995},{""stimulus"":""img/1to3/11.png"",""time"":1093},{""stimulus"":""img/1to3/12.png"",""time"":1196}]","[]"
"image-keyboard-response","38","101405","0.0-5.0-1.17","60fcd5602ff7c8f0866ecd0c","bdp_cybrbll","Sat Mar 25 2023 18:53:03 GMT-0400 (Eastern Daylight Time)","470832","3","1","","null","","","","observe","","img/3to2/1.png","null","208","453","0.5","0.5","3","2","",""
"animation","39","102701","0.0-5.0-2.17","60fcd5602ff7c8f0866ecd0c","bdp_cybrbll","Sat Mar 25 2023 18:53:03 GMT-0400 (Eastern Daylight Time)","470832","3","1","","","","","","","","","","208","","","","3","2","[{""stimulus"":""img/3to2/1.png"",""time"":112},{""stimulus"":""img/3to2/2.png"",""time"":213},{""stimulus"":""img/3to2/3.png"",""time"":313},{""stimulus"":""img/3to2/4.png"",""time"":403},{""stimulus"":""img/3to2/5.png"",""time"":504},{""stimulus"":""img/3to2/6.png"",""time"":598},{""stimulus"":""img/3to2/7.png"",""time"":704},{""stimulus"":""img/3to2/8.png"",""time"":796},{""stimulus"":""img/3to2/9.png"",""time"":896},{""stimulus"":""img/3to2/10.png"",""time"":1000},{""stimulus"":""img/3to2/11.png"",""time"":1096},{""stimulus"":""img/3to2/12.png"",""time"":1199}]","[]"
"image-keyboard-response","40","103480","0.0-5.0-1.18","60fcd5602ff7c8f0866ecd0c","bdp_cybrbll","Sat Mar 25 2023 18:53:03 GMT-0400 (Eastern Daylight Time)","470832","3","1","","778","","","","choice","","img/2to1/1.png","2","207","345","0.5","0.5","2","3","",""
"animation","41","104783","0.0-5.0-2.18","60fcd5602ff7c8f0866ecd0c","bdp_cybrbll","Sat Mar 25 2023 18:53:03 GMT-0400 (Eastern Daylight Time)","470832","3","1","","","","","","","","","","207","","","","2","3","[{""stimulus"":""img/2to3/1.png"",""time"":112},{""stimulus"":""img/2to3/2.png"",""time"":212},{""stimulus"":""img/2to3/3.png"",""time"":309},{""stimulus"":""img/2to3/4.png"",""time"":404},{""stimulus"":""img/2to3/5.png"",""time"":507},{""stimulus"":""img/2to3/6.png"",""time"":596},{""stimulus"":""img/2to3/7.png"",""time"":703},{""stimulus"":""img/2to3/8.png"",""time"":802},{""stimulus"":""img/2to3/9.png"",""time"":902},{""stimulus"":""img/2to3/10.png"",""time"":1002},{""stimulus"":""img/2to3/11.png"",""time"":1095},{""stimulus"":""img/2to3/12.png"",""time"":1201}]","[]"
"image-keyboard-response","42","105808","0.0-5.0-1.19","60fcd5602ff7c8f0866ecd0c","bdp_cybrbll","Sat Mar 25 2023 18:53:03 GMT-0400 (Eastern Daylight Time)","470832","3","1","","null","","","","observe","","img/3to2/1.png","null","206","1008","0.5","0.5","3","1","",""
"animation","43","107100","0.0-5.0-2.19","60fcd5602ff7c8f0866ecd0c","bdp_cybrbll","Sat Mar 25 2023 18:53:03 GMT-0400 (Eastern Daylight Time)","470832","3","1","","","","","","","","","","206","","","","3","1","[{""stimulus"":""img/3to1/1.png"",""time"":110},{""stimulus"":""img/3to1/2.png"",""time"":201},{""stimulus"":""img/3to1/3.png"",""time"":301},{""stimulus"":""img/3to1/4.png"",""time"":409},{""stimulus"":""img/3to1/5.png"",""time"":508},{""stimulus"":""img/3to1/6.png"",""time"":609},{""stimulus"":""img/3to1/7.png"",""time"":709},{""stimulus"":""img/3to1/8.png"",""time"":802},{""stimulus"":""img/3to1/9.png"",""time"":901},{""stimulus"":""img/3to1/10.png"",""time"":993},{""stimulus"":""img/3to1/11.png"",""time"":1094},{""stimulus"":""img/3to1/12.png"",""time"":1201}]","[]"
"image-keyboard-response","44","107576","0.0-5.0-1.20","60fcd5602ff7c8f0866ecd0c","bdp_cybrbll","Sat Mar 25 2023 18:53:03 GMT-0400 (Eastern Daylight Time)","470832","3","1","","null","","","","observe","","img/1to3/1.png","null","205","468","0.5","0.5","1","3","",""
"animation","45","108876","0.0-5.0-2.20","60fcd5602ff7c8f0866ecd0c","bdp_cybrbll","Sat Mar 25 2023 18:53:03 GMT-0400 (Eastern Daylight Time)","470832","3","1","","","","","","","","","","205","","","","1","3","[{""stimulus"":""img/1to3/1.png"",""time"":107},{""stimulus"":""img/1to3/2.png"",""time"":211},{""stimulus"":""img/1to3/3.png"",""time"":301},{""stimulus"":""img/1to3/4.png"",""time"":399},{""stimulus"":""img/1to3/5.png"",""time"":507},{""stimulus"":""img/1to3/6.png"",""time"":607},{""stimulus"":""img/1to3/7.png"",""time"":707},{""stimulus"":""img/1to3/8.png"",""time"":807},{""stimulus"":""img/1to3/9.png"",""time"":892},{""stimulus"":""img/1to3/10.png"",""time"":999},{""stimulus"":""img/1to3/11.png"",""time"":1099},{""stimulus"":""img/1to3/12.png"",""time"":1200}]","[]"
"image-keyboard-response","46","109376","0.0-5.0-1.21","60fcd5602ff7c8f0866ecd0c","bdp_cybrbll","Sat Mar 25 2023 18:53:03 GMT-0400 (Eastern Daylight Time)","470832","3","1","","null","","","","observe","","img/3to2/1.png","null","204","488","0.5","0.5","3","1","",""
"animation","47","110668","0.0-5.0-2.21","60fcd5602ff7c8f0866ecd0c","bdp_cybrbll","Sat Mar 25 2023 18:53:03 GMT-0400 (Eastern Daylight Time)","470832","3","1","","","","","","","","","","204","","","","3","1","[{""stimulus"":""img/3to1/1.png"",""time"":111},{""stimulus"":""img/3to1/2.png"",""time"":207},{""stimulus"":""img/3to1/3.png"",""time"":299},{""stimulus"":""img/3to1/4.png"",""time"":408},{""stimulus"":""img/3to1/5.png"",""time"":507},{""stimulus"":""img/3to1/6.png"",""time"":607},{""stimulus"":""img/3to1/7.png"",""time"":698},{""stimulus"":""img/3to1/8.png"",""time"":807},{""stimulus"":""img/3to1/9.png"",""time"":899},{""stimulus"":""img/3to1/10.png"",""time"":991},{""stimulus"":""img/3to1/11.png"",""time"":1091},{""stimulus"":""img/3to1/12.png"",""time"":1191}]","[]"
"image-keyboard-response","48","111349","0.0-5.0-1.22","60fcd5602ff7c8f0866ecd0c","bdp_cybrbll","Sat Mar 25 2023 18:53:03 GMT-0400 (Eastern Daylight Time)","470832","3","1","","null","","","","observe","","img/1to3/1.png","null","203","675","0.5","0.5","1","2","",""
"animation","49","112645","0.0-5.0-2.22","60fcd5602ff7c8f0866ecd0c","bdp_cybrbll","Sat Mar 25 2023 18:53:03 GMT-0400 (Eastern Daylight Time)","470832","3","1","","","","","","","","","","203","","","","1","2","[{""stimulus"":""img/1to2/1.png"",""time"":113},{""stimulus"":""img/1to2/2.png"",""time"":204},{""stimulus"":""img/1to2/3.png"",""time"":303},{""stimulus"":""img/1to2/4.png"",""time"":403},{""stimulus"":""img/1to2/5.png"",""time"":511},{""stimulus"":""img/1to2/6.png"",""time"":603},{""stimulus"":""img/1to2/7.png"",""time"":695},{""stimulus"":""img/1to2/8.png"",""time"":808},{""stimulus"":""img/1to2/9.png"",""time"":892},{""stimulus"":""img/1to2/10.png"",""time"":993},{""stimulus"":""img/1to2/11.png"",""time"":1093},{""stimulus"":""img/1to2/12.png"",""time"":1202}]","[]"
"image-keyboard-response","50","113203","0.0-5.0-1.23","60fcd5602ff7c8f0866ecd0c","bdp_cybrbll","Sat Mar 25 2023 18:53:03 GMT-0400 (Eastern Daylight Time)","470832","3","1","","557","","","","choice","","img/2to1/1.png","1","202","411","0.5","0.5","2","1","",""
"animation","51","114493","0.0-5.0-2.23","60fcd5602ff7c8f0866ecd0c","bdp_cybrbll","Sat Mar 25 2023 18:53:03 GMT-0400 (Eastern Daylight Time)","470832","3","1","","","","","","","","","","202","","","","2","1","[{""stimulus"":""img/2to1/1.png"",""time"":105},{""stimulus"":""img/2to1/2.png"",""time"":206},{""stimulus"":""img/2to1/3.png"",""time"":300},{""stimulus"":""img/2to1/4.png"",""time"":405},{""stimulus"":""img/2to1/5.png"",""time"":498},{""stimulus"":""img/2to1/6.png"",""time"":599},{""stimulus"":""img/2to1/7.png"",""time"":701},{""stimulus"":""img/2to1/8.png"",""time"":807},{""stimulus"":""img/2to1/9.png"",""time"":898},{""stimulus"":""img/2to1/10.png"",""time"":1004},{""stimulus"":""img/2to1/11.png"",""time"":1106},{""stimulus"":""img/2to1/12.png"",""time"":1198}]","[]"
"image-keyboard-response","52","114943","0.0-5.0-1.24","60fcd5602ff7c8f0866ecd0c","bdp_cybrbll","Sat Mar 25 2023 18:53:03 GMT-0400 (Eastern Daylight Time)","470832","3","1","","null","","","","observe","","img/1to3/1.png","null","201","442","0.5","0.5","1","2","",""
"animation","53","116241","0.0-5.0-2.24","60fcd5602ff7c8f0866ecd0c","bdp_cybrbll","Sat Mar 25 2023 18:53:03 GMT-0400 (Eastern Daylight Time)","470832","3","1","","","","","","","","","","201","","","","1","2","[{""stimulus"":""img/1to2/1.png"",""time"":112},{""stimulus"":""img/1to2/2.png"",""time"":199},{""stimulus"":""img/1to2/3.png"",""time"":315},{""stimulus"":""img/1to2/4.png"",""time"":400},{""stimulus"":""img/1to2/5.png"",""time"":507},{""stimulus"":""img/1to2/6.png"",""time"":600},{""stimulus"":""img/1to2/7.png"",""time"":698},{""stimulus"":""img/1to2/8.png"",""time"":798},{""stimulus"":""img/1to2/9.png"",""time"":906},{""stimulus"":""img/1to2/10.png"",""time"":1006},{""stimulus"":""img/1to2/11.png"",""time"":1091},{""stimulus"":""img/1to2/12.png"",""time"":1192}]","[]"
"image-keyboard-response","54","116353","0.0-5.0-1.25","60fcd5602ff7c8f0866ecd0c","bdp_cybrbll","Sat Mar 25 2023 18:53:03 GMT-0400 (Eastern Daylight Time)","470832","3","1","","111","","","","choice","","img/2to1/1.png","2","200","727","0.5","0.5","2","3","",""
"animation","55","117641","0.0-5.0-2.25","60fcd5602ff7c8f0866ecd0c","bdp_cybrbll","Sat Mar 25 2023 18:53:03 GMT-0400 (Eastern Daylight Time)","470832","3","1","","","","","","","","","","200","","","","2","3","[{""stimulus"":""img/2to3/1.png"",""time"":108},{""stimulus"":""img/2to3/2.png"",""time"":210},{""stimulus"":""img/2to3/3.png"",""time"":306},{""stimulus"":""img/2to3/4.png"",""time"":404},{""stimulus"":""img/2to3/5.png"",""time"":497},{""stimulus"":""img/2to3/6.png"",""time"":597},{""stimulus"":""img/2to3/7.png"",""time"":697},{""stimulus"":""img/2to3/8.png"",""time"":798},{""stimulus"":""img/2to3/9.png"",""time"":897},{""stimulus"":""img/2to3/10.png"",""time"":996},{""stimulus"":""img/2to3/11.png"",""time"":1098},{""stimulus"":""img/2to3/12.png"",""time"":1190}]","[]"
"image-keyboard-response","56","118222","0.0-5.0-1.26","60fcd5602ff7c8f0866ecd0c","bdp_cybrbll","Sat Mar 25 2023 18:53:03 GMT-0400 (Eastern Daylight Time)","470832","3","1","","null","","","","observe","","img/3to2/1.png","null","199","573","0.5","0.5","3","2","",""
"animation","57","119517","0.0-5.0-2.26","60fcd5602ff7c8f0866ecd0c","bdp_cybrbll","Sat Mar 25 2023 18:53:03 GMT-0400 (Eastern Daylight Time)","470832","3","1","","","","","","","","","","199","","","","3","2","[{""stimulus"":""img/3to2/1.png"",""time"":113},{""stimulus"":""img/3to2/2.png"",""time"":214},{""stimulus"":""img/3to2/3.png"",""time"":304},{""stimulus"":""img/3to2/4.png"",""time"":411},{""stimulus"":""img/3to2/5.png"",""time"":511},{""stimulus"":""img/3to2/6.png"",""time"":595},{""stimulus"":""img/3to2/7.png"",""time"":704},{""stimulus"":""img/3to2/8.png"",""time"":797},{""stimulus"":""img/3to2/9.png"",""time"":904},{""stimulus"":""img/3to2/10.png"",""time"":1003},{""stimulus"":""img/3to2/11.png"",""time"":1103},{""stimulus"":""img/3to2/12.png"",""time"":1203}]","[]"
"image-keyboard-response","58","119731","0.0-5.0-1.27","60fcd5602ff7c8f0866ecd0c","bdp_cybrbll","Sat Mar 25 2023 18:53:03 GMT-0400 (Eastern Daylight Time)","470832","3","1","","212","","","","choice","","img/2to1/1.png","1","198","329","0.5","0.5","2","1","",""
"animation","59","121033","0.0-5.0-2.27","60fcd5602ff7c8f0866ecd0c","bdp_cybrbll","Sat Mar 25 2023 18:53:03 GMT-0400 (Eastern Daylight Time)","470832","3","1","","","","","","","","","","198","","","","2","1","[{""stimulus"":""img/2to1/1.png"",""time"":111},{""stimulus"":""img/2to1/2.png"",""time"":200},{""stimulus"":""img/2to1/3.png"",""time"":302},{""stimulus"":""img/2to1/4.png"",""time"":403},{""stimulus"":""img/2to1/5.png"",""time"":504},{""stimulus"":""img/2to1/6.png"",""time"":603},{""stimulus"":""img/2to1/7.png"",""time"":694},{""stimulus"":""img/2to1/8.png"",""time"":803},{""stimulus"":""img/2to1/9.png"",""time"":903},{""stimulus"":""img/2to1/10.png"",""time"":994},{""stimulus"":""img/2to1/11.png"",""time"":1096},{""stimulus"":""img/2to1/12.png"",""time"":1203}]","[]"
"image-keyboard-response","60","121493","0.0-5.0-1.28","60fcd5602ff7c8f0866ecd0c","bdp_cybrbll","Sat Mar 25 2023 18:53:03 GMT-0400 (Eastern Daylight Time)","470832","3","1","","null","","","","observe","","img/1to3/1.png","null","197","455","0.5","0.5","1","3","",""
"animation","61","122792","0.0-5.0-2.28","60fcd5602ff7c8f0866ecd0c","bdp_cybrbll","Sat Mar 25 2023 18:53:03 GMT-0400 (Eastern Daylight Time)","470832","3","1","","","","","","","","","","197","","","","1","3","[{""stimulus"":""img/1to3/1.png"",""time"":111},{""stimulus"":""img/1to3/2.png"",""time"":200},{""stimulus"":""img/1to3/3.png"",""time"":314},{""stimulus"":""img/1to3/4.png"",""time"":399},{""stimulus"":""img/1to3/5.png"",""time"":498},{""stimulus"":""img/1to3/6.png"",""time"":607},{""stimulus"":""img/1to3/7.png"",""time"":699},{""stimulus"":""img/1to3/8.png"",""time"":806},{""stimulus"":""img/1to3/9.png"",""time"":906},{""stimulus"":""img/1to3/10.png"",""time"":998},{""stimulus"":""img/1to3/11.png"",""time"":1098},{""stimulus"":""img/1to3/12.png"",""time"":1192}]","[]"
"image-keyboard-response","62","123049","0.0-5.0-1.29","60fcd5602ff7c8f0866ecd0c","bdp_cybrbll","Sat Mar 25 2023 18:53:03 GMT-0400 (Eastern Daylight Time)","470832","3","1","","null","","","","observe","","img/3to2/1.png","null","196","254","0.5","0.5","3","1","",""
"animation","63","124350","0.0-5.0-2.29","60fcd5602ff7c8f0866ecd0c","bdp_cybrbll","Sat Mar 25 2023 18:53:03 GMT-0400 (Eastern Daylight Time)","470832","3","1","","","","","","","","","","196","","","","3","1","[{""stimulus"":""img/3to1/1.png"",""time"":111},{""stimulus"":""img/3to1/2.png"",""time"":207},{""stimulus"":""img/3to1/3.png"",""time"":310},{""stimulus"":""img/3to1/4.png"",""time"":408},{""stimulus"":""img/3to1/5.png"",""time"":510},{""stimulus"":""img/3to1/6.png"",""time"":609},{""stimulus"":""img/3to1/7.png"",""time"":710},{""stimulus"":""img/3to1/8.png"",""time"":801},{""stimulus"":""img/3to1/9.png"",""time"":893},{""stimulus"":""img/3to1/10.png"",""time"":993},{""stimulus"":""img/3to1/11.png"",""time"":1102},{""stimulus"":""img/3to1/12.png"",""time"":1196}]","[]"
"image-keyboard-response","64","124879","0.0-5.0-1.30","60fcd5602ff7c8f0866ecd0c","bdp_cybrbll","Sat Mar 25 2023 18:53:03 GMT-0400 (Eastern Daylight Time)","470832","3","1","","null","","","","observe","","img/1to3/1.png","null","195","522","0.5","0.5","1","3","",""
"animation","65","126168","0.0-5.0-2.30","60fcd5602ff7c8f0866ecd0c","bdp_cybrbll","Sat Mar 25 2023 18:53:03 GMT-0400 (Eastern Daylight Time)","470832","3","1","","","","","","","","","","195","","","","1","3","[{""stimulus"":""img/1to3/1.png"",""time"":111},{""stimulus"":""img/1to3/2.png"",""time"":206},{""stimulus"":""img/1to3/3.png"",""time"":306},{""stimulus"":""img/1to3/4.png"",""time"":398},{""stimulus"":""img/1to3/5.png"",""time"":511},{""stimulus"":""img/1to3/6.png"",""time"":599},{""stimulus"":""img/1to3/7.png"",""time"":704},{""stimulus"":""img/1to3/8.png"",""time"":804},{""stimulus"":""img/1to3/9.png"",""time"":904},{""stimulus"":""img/1to3/10.png"",""time"":998},{""stimulus"":""img/1to3/11.png"",""time"":1094},{""stimulus"":""img/1to3/12.png"",""time"":1196}]","[]"
"image-keyboard-response","66","126711","0.0-5.0-1.31","60fcd5602ff7c8f0866ecd0c","bdp_cybrbll","Sat Mar 25 2023 18:53:03 GMT-0400 (Eastern Daylight Time)","470832","3","1","","null","","","","observe","","img/3to2/1.png","null","194","530","0.5","0.5","3","1","",""
"animation","67","128006","0.0-5.0-2.31","60fcd5602ff7c8f0866ecd0c","bdp_cybrbll","Sat Mar 25 2023 18:53:03 GMT-0400 (Eastern Daylight Time)","470832","3","1","","","","","","","","","","194","","","","3","1","[{""stimulus"":""img/3to1/1.png"",""time"":112},{""stimulus"":""img/3to1/2.png"",""time"":208},{""stimulus"":""img/3to1/3.png"",""time"":308},{""stimulus"":""img/3to1/4.png"",""time"":408},{""stimulus"":""img/3to1/5.png"",""time"":509},{""stimulus"":""img/3to1/6.png"",""time"":610},{""stimulus"":""img/3to1/7.png"",""time"":694},{""stimulus"":""img/3to1/8.png"",""time"":807},{""stimulus"":""img/3to1/9.png"",""time"":908},{""stimulus"":""img/3to1/10.png"",""time"":997},{""stimulus"":""img/3to1/11.png"",""time"":1096},{""stimulus"":""img/3to1/12.png"",""time"":1189}]","[]"
"image-keyboard-response","68","128489","0.0-5.0-1.32","60fcd5602ff7c8f0866ecd0c","bdp_cybrbll","Sat Mar 25 2023 18:53:03 GMT-0400 (Eastern Daylight Time)","470832","3","1","","null","","","","observe","","img/1to3/1.png","null","193","472","0.5","0.5","1","3","",""
"animation","69","129783","0.0-5.0-2.32","60fcd5602ff7c8f0866ecd0c","bdp_cybrbll","Sat Mar 25 2023 18:53:03 GMT-0400 (Eastern Daylight Time)","470832","3","1","","","","","","","","","","193","","","","1","3","[{""stimulus"":""img/1to3/1.png"",""time"":112},{""stimulus"":""img/1to3/2.png"",""time"":205},{""stimulus"":""img/1to3/3.png"",""time"":302},{""stimulus"":""img/1to3/4.png"",""time"":411},{""stimulus"":""img/1to3/5.png"",""time"":511},{""stimulus"":""img/1to3/6.png"",""time"":602},{""stimulus"":""img/1to3/7.png"",""time"":702},{""stimulus"":""img/1to3/8.png"",""time"":796},{""stimulus"":""img/1to3/9.png"",""time"":904},{""stimulus"":""img/1to3/10.png"",""time"":1003},{""stimulus"":""img/1to3/11.png"",""time"":1102},{""stimulus"":""img/1to3/12.png"",""time"":1202}]","[]"
"image-keyboard-response","70","130243","0.0-5.0-1.33","60fcd5602ff7c8f0866ecd0c","bdp_cybrbll","Sat Mar 25 2023 18:53:03 GMT-0400 (Eastern Daylight Time)","470832","3","1","","null","","","","observe","","img/3to2/1.png","null","192","453","0.5","0.5","3","2","",""
"animation","71","131533","0.0-5.0-2.33","60fcd5602ff7c8f0866ecd0c","bdp_cybrbll","Sat Mar 25 2023 18:53:03 GMT-0400 (Eastern Daylight Time)","470832","3","1","","","","","","","","","","192","","","","3","2","[{""stimulus"":""img/3to2/1.png"",""time"":110},{""stimulus"":""img/3to2/2.png"",""time"":207},{""stimulus"":""img/3to2/3.png"",""time"":306},{""stimulus"":""img/3to2/4.png"",""time"":406},{""stimulus"":""img/3to2/5.png"",""time"":507},{""stimulus"":""img/3to2/6.png"",""time"":597},{""stimulus"":""img/3to2/7.png"",""time"":700},{""stimulus"":""img/3to2/8.png"",""time"":798},{""stimulus"":""img/3to2/9.png"",""time"":897},{""stimulus"":""img/3to2/10.png"",""time"":1005},{""stimulus"":""img/3to2/11.png"",""time"":1105},{""stimulus"":""img/3to2/12.png"",""time"":1198}]","[]"
"image-keyboard-response","72","132066","0.0-5.0-1.34","60fcd5602ff7c8f0866ecd0c","bdp_cybrbll","Sat Mar 25 2023 18:53:03 GMT-0400 (Eastern Daylight Time)","470832","3","1","","532","","","","choice","","img/2to1/1.png","1","191","149","0.5","0.5","2","1","",""
"animation","73","133367","0.0-5.0-2.34","60fcd5602ff7c8f0866ecd0c","bdp_cybrbll","Sat Mar 25 2023 18:53:03 GMT-0400 (Eastern Daylight Time)","470832","3","1","","","","","","","","","","191","","","","2","1","[{""stimulus"":""img/2to1/1.png"",""time"":107},{""stimulus"":""img/2to1/2.png"",""time"":203},{""stimulus"":""img/2to1/3.png"",""time"":303},{""stimulus"":""img/2to1/4.png"",""time"":409},{""stimulus"":""img/2to1/5.png"",""time"":507},{""stimulus"":""img/2to1/6.png"",""time"":608},{""stimulus"":""img/2to1/7.png"",""time"":701},{""stimulus"":""img/2to1/8.png"",""time"":807},{""stimulus"":""img/2to1/9.png"",""time"":892},{""stimulus"":""img/2to1/10.png"",""time"":993},{""stimulus"":""img/2to1/11.png"",""time"":1101},{""stimulus"":""img/2to1/12.png"",""time"":1198}]","[]"
"image-keyboard-response","74","135248","0.0-5.0-1.35","60fcd5602ff7c8f0866ecd0c","bdp_cybrbll","Sat Mar 25 2023 18:53:03 GMT-0400 (Eastern Daylight Time)","470832","3","1","","null","","","","observe","","img/1to3/1.png","null","190","1869","0.5","0.5","1","3","",""
"animation","75","136552","0.0-5.0-2.35","60fcd5602ff7c8f0866ecd0c","bdp_cybrbll","Sat Mar 25 2023 18:53:03 GMT-0400 (Eastern Daylight Time)","470832","3","1","","","","","","","","","","190","","","","1","3","[{""stimulus"":""img/1to3/1.png"",""time"":111},{""stimulus"":""img/1to3/2.png"",""time"":209},{""stimulus"":""img/1to3/3.png"",""time"":308},{""stimulus"":""img/1to3/4.png"",""time"":413},{""stimulus"":""img/1to3/5.png"",""time"":509},{""stimulus"":""img/1to3/6.png"",""time"":607},{""stimulus"":""img/1to3/7.png"",""time"":703},{""stimulus"":""img/1to3/8.png"",""time"":793},{""stimulus"":""img/1to3/9.png"",""time"":903},{""stimulus"":""img/1to3/10.png"",""time"":993},{""stimulus"":""img/1to3/11.png"",""time"":1090},{""stimulus"":""img/1to3/12.png"",""time"":1192}]","[]"
"image-keyboard-response","76","137166","0.0-5.0-1.36","60fcd5602ff7c8f0866ecd0c","bdp_cybrbll","Sat Mar 25 2023 18:53:03 GMT-0400 (Eastern Daylight Time)","470832","3","1","","null","","","","observe","","img/3to2/1.png","null","189","604","0.5","0.5","3","2","",""
"animation","77","138467","0.0-5.0-2.36","60fcd5602ff7c8f0866ecd0c","bdp_cybrbll","Sat Mar 25 2023 18:53:03 GMT-0400 (Eastern Daylight Time)","470832","3","1","","","","","","","","","","189","","","","3","2","[{""stimulus"":""img/3to2/1.png"",""time"":110},{""stimulus"":""img/3to2/2.png"",""time"":209},{""stimulus"":""img/3to2/3.png"",""time"":303},{""stimulus"":""img/3to2/4.png"",""time"":407},{""stimulus"":""img/3to2/5.png"",""time"":508},{""stimulus"":""img/3to2/6.png"",""time"":607},{""stimulus"":""img/3to2/7.png"",""time"":707},{""stimulus"":""img/3to2/8.png"",""time"":800},{""stimulus"":""img/3to2/9.png"",""time"":892},{""stimulus"":""img/3to2/10.png"",""time"":992},{""stimulus"":""img/3to2/11.png"",""time"":1101},{""stimulus"":""img/3to2/12.png"",""time"":1201}]","[]"
"image-keyboard-response","78","138921","0.0-5.0-1.37","60fcd5602ff7c8f0866ecd0c","bdp_cybrbll","Sat Mar 25 2023 18:53:03 GMT-0400 (Eastern Daylight Time)","470832","3","1","","454","","","","choice","","img/2to1/1.png","2","188","162","0.5","0.5","2","3","",""
"animation","79","140219","0.0-5.0-2.37","60fcd5602ff7c8f0866ecd0c","bdp_cybrbll","Sat Mar 25 2023 18:53:03 GMT-0400 (Eastern Daylight Time)","470832","3","1","","","","","","","","","","188","","","","2","3","[{""stimulus"":""img/2to3/1.png"",""time"":103},{""stimulus"":""img/2to3/2.png"",""time"":204},{""stimulus"":""img/2to3/3.png"",""time"":304},{""stimulus"":""img/2to3/4.png"",""time"":412},{""stimulus"":""img/2to3/5.png"",""time"":496},{""stimulus"":""img/2to3/6.png"",""time"":602},{""stimulus"":""img/2to3/7.png"",""time"":701},{""stimulus"":""img/2to3/8.png"",""time"":803},{""stimulus"":""img/2to3/9.png"",""time"":902},{""stimulus"":""img/2to3/10.png"",""time"":995},{""stimulus"":""img/2to3/11.png"",""time"":1104},{""stimulus"":""img/2to3/12.png"",""time"":1195}]","[]"
"image-keyboard-response","80","140836","0.0-5.0-1.38","60fcd5602ff7c8f0866ecd0c","bdp_cybrbll","Sat Mar 25 2023 18:53:03 GMT-0400 (Eastern Daylight Time)","470832","3","1","","null","","","","observe","","img/3to2/1.png","null","187","603","0.5","0.5","3","1","",""
"animation","81","142133","0.0-5.0-2.38","60fcd5602ff7c8f0866ecd0c","bdp_cybrbll","Sat Mar 25 2023 18:53:03 GMT-0400 (Eastern Daylight Time)","470832","3","1","","","","","","","","","","187","","","","3","1","[{""stimulus"":""img/3to1/1.png"",""time"":112},{""stimulus"":""img/3to1/2.png"",""time"":213},{""stimulus"":""img/3to1/3.png"",""time"":298},{""stimulus"":""img/3to1/4.png"",""time"":406},{""stimulus"":""img/3to1/5.png"",""time"":506},{""stimulus"":""img/3to1/6.png"",""time"":606},{""stimulus"":""img/3to1/7.png"",""time"":705},{""stimulus"":""img/3to1/8.png"",""time"":804},{""stimulus"":""img/3to1/9.png"",""time"":898},{""stimulus"":""img/3to1/10.png"",""time"":1005},{""stimulus"":""img/3to1/11.png"",""time"":1097},{""stimulus"":""img/3to1/12.png"",""time"":1198}]","[]"
"image-keyboard-response","82","142607","0.0-5.0-1.39","60fcd5602ff7c8f0866ecd0c","bdp_cybrbll","Sat Mar 25 2023 18:53:03 GMT-0400 (Eastern Daylight Time)","470832","3","1","","null","","","","observe","","img/1to3/1.png","null","186","468","0.5","0.5","1","3","",""
"animation","83","143909","0.0-5.0-2.39","60fcd5602ff7c8f0866ecd0c","bdp_cybrbll","Sat Mar 25 2023 18:53:03 GMT-0400 (Eastern Daylight Time)","470832","3","1","","","","","","","","","","186","","","","1","3","[{""stimulus"":""img/1to3/1.png"",""time"":112},{""stimulus"":""img/1to3/2.png"",""time"":201},{""stimulus"":""img/1to3/3.png"",""time"":309},{""stimulus"":""img/1to3/4.png"",""time"":408},{""stimulus"":""img/1to3/5.png"",""time"":509},{""stimulus"":""img/1to3/6.png"",""time"":610},{""stimulus"":""img/1to3/7.png"",""time"":711},{""stimulus"":""img/1to3/8.png"",""time"":802},{""stimulus"":""img/1to3/9.png"",""time"":902},{""stimulus"":""img/1to3/10.png"",""time"":1001},{""stimulus"":""img/1to3/11.png"",""time"":1093},{""stimulus"":""img/1to3/12.png"",""time"":1193}]","[]"
"image-keyboard-response","84","145662","0.0-5.0-1.40","60fcd5602ff7c8f0866ecd0c","bdp_cybrbll","Sat Mar 25 2023 18:53:03 GMT-0400 (Eastern Daylight Time)","470832","3","1","","null","","","","observe","","img/3to2/1.png","null","185","1737","0.5","0.5","3","1","",""
"animation","85","146965","0.0-5.0-2.40","60fcd5602ff7c8f0866ecd0c","bdp_cybrbll","Sat Mar 25 2023 18:53:03 GMT-0400 (Eastern Daylight Time)","470832","3","1","","","","","","","","","","185","","","","3","1","[{""stimulus"":""img/3to1/1.png"",""time"":116},{""stimulus"":""img/3to1/2.png"",""time"":212},{""stimulus"":""img/3to1/3.png"",""time"":298},{""stimulus"":""img/3to1/4.png"",""time"":404},{""stimulus"":""img/3to1/5.png"",""time"":496},{""stimulus"":""img/3to1/6.png"",""time"":605},{""stimulus"":""img/3to1/7.png"",""time"":696},{""stimulus"":""img/3to1/8.png"",""time"":796},{""stimulus"":""img/3to1/9.png"",""time"":903},{""stimulus"":""img/3to1/10.png"",""time"":1005},{""stimulus"":""img/3to1/11.png"",""time"":1096},{""stimulus"":""img/3to1/12.png"",""time"":1196}]","[]"
"image-keyboard-response","86","147703","0.0-5.0-1.41","60fcd5602ff7c8f0866ecd0c","bdp_cybrbll","Sat Mar 25 2023 18:53:03 GMT-0400 (Eastern Daylight Time)","470832","3","1","","null","","","","observe","","img/1to3/1.png","null","184","732","0.5","0.5","1","2","",""
"animation","87","148993","0.0-5.0-2.41","60fcd5602ff7c8f0866ecd0c","bdp_cybrbll","Sat Mar 25 2023 18:53:03 GMT-0400 (Eastern Daylight Time)","470832","3","1","","","","","","","","","","184","","","","1","2","[{""stimulus"":""img/1to2/1.png"",""time"":112},{""stimulus"":""img/1to2/2.png"",""time"":213},{""stimulus"":""img/1to2/3.png"",""time"":304},{""stimulus"":""img/1to2/4.png"",""time"":410},{""stimulus"":""img/1to2/5.png"",""time"":503},{""stimulus"":""img/1to2/6.png"",""time"":604},{""stimulus"":""img/1to2/7.png"",""time"":704},{""stimulus"":""img/1to2/8.png"",""time"":801},{""stimulus"":""img/1to2/9.png"",""time"":904},{""stimulus"":""img/1to2/10.png"",""time"":996},{""stimulus"":""img/1to2/11.png"",""time"":1090},{""stimulus"":""img/1to2/12.png"",""time"":1189}]","[]"
"image-keyboard-response","88","149442","0.0-5.0-1.42","60fcd5602ff7c8f0866ecd0c","bdp_cybrbll","Sat Mar 25 2023 18:53:03 GMT-0400 (Eastern Daylight Time)","470832","3","1","","448","","","","choice","","img/2to1/1.png","1","183","326","0.5","0.5","2","1","",""
"animation","89","150742","0.0-5.0-2.42","60fcd5602ff7c8f0866ecd0c","bdp_cybrbll","Sat Mar 25 2023 18:53:03 GMT-0400 (Eastern Daylight Time)","470832","3","1","","","","","","","","","","183","","","","2","1","[{""stimulus"":""img/2to1/1.png"",""time"":106},{""stimulus"":""img/2to1/2.png"",""time"":204},{""stimulus"":""img/2to1/3.png"",""time"":309},{""stimulus"":""img/2to1/4.png"",""time"":409},{""stimulus"":""img/2to1/5.png"",""time"":500},{""stimulus"":""img/2to1/6.png"",""time"":609},{""stimulus"":""img/2to1/7.png"",""time"":708},{""stimulus"":""img/2to1/8.png"",""time"":808},{""stimulus"":""img/2to1/9.png"",""time"":892},{""stimulus"":""img/2to1/10.png"",""time"":995},{""stimulus"":""img/2to1/11.png"",""time"":1099},{""stimulus"":""img/2to1/12.png"",""time"":1199}]","[]"
"image-keyboard-response","90","151126","0.0-5.0-1.43","60fcd5602ff7c8f0866ecd0c","bdp_cybrbll","Sat Mar 25 2023 18:53:03 GMT-0400 (Eastern Daylight Time)","470832","3","1","","null","","","","observe","","img/1to3/1.png","null","182","380","0.5","0.5","1","3","",""
"animation","91","152423","0.0-5.0-2.43","60fcd5602ff7c8f0866ecd0c","bdp_cybrbll","Sat Mar 25 2023 18:53:03 GMT-0400 (Eastern Daylight Time)","470832","3","1","","","","","","","","","","182","","","","1","3","[{""stimulus"":""img/1to3/1.png"",""time"":110},{""stimulus"":""img/1to3/2.png"",""time"":213},{""stimulus"":""img/1to3/3.png"",""time"":299},{""stimulus"":""img/1to3/4.png"",""time"":398},{""stimulus"":""img/1to3/5.png"",""time"":496},{""stimulus"":""img/1to3/6.png"",""time"":596},{""stimulus"":""img/1to3/7.png"",""time"":706},{""stimulus"":""img/1to3/8.png"",""time"":806},{""stimulus"":""img/1to3/9.png"",""time"":906},{""stimulus"":""img/1to3/10.png"",""time"":1007},{""stimulus"":""img/1to3/11.png"",""time"":1096},{""stimulus"":""img/1to3/12.png"",""time"":1194}]","[]"
"image-keyboard-response","92","152747","0.0-5.0-1.44","60fcd5602ff7c8f0866ecd0c","bdp_cybrbll","Sat Mar 25 2023 18:53:03 GMT-0400 (Eastern Daylight Time)","470832","3","1","","null","","","","observe","","img/3to2/1.png","null","181","307","0.5","0.5","3","2","",""
"animation","93","154040","0.0-5.0-2.44","60fcd5602ff7c8f0866ecd0c","bdp_cybrbll","Sat Mar 25 2023 18:53:03 GMT-0400 (Eastern Daylight Time)","470832","3","1","","","","","","","","","","181","","","","3","2","[{""stimulus"":""img/3to2/1.png"",""time"":105},{""stimulus"":""img/3to2/2.png"",""time"":209},{""stimulus"":""img/3to2/3.png"",""time"":310},{""stimulus"":""img/3to2/4.png"",""time"":409},{""stimulus"":""img/3to2/5.png"",""time"":502},{""stimulus"":""img/3to2/6.png"",""time"":608},{""stimulus"":""img/3to2/7.png"",""time"":694},{""stimulus"":""img/3to2/8.png"",""time"":808},{""stimulus"":""img/3to2/9.png"",""time"":894},{""stimulus"":""img/3to2/10.png"",""time"":993},{""stimulus"":""img/3to2/11.png"",""time"":1104},{""stimulus"":""img/3to2/12.png"",""time"":1196}]","[]"
"image-keyboard-response","94","154217","0.0-5.0-1.45","60fcd5602ff7c8f0866ecd0c","bdp_cybrbll","Sat Mar 25 2023 18:53:03 GMT-0400 (Eastern Daylight Time)","470832","3","1","","176","","","","choice","","img/2to1/1.png","1","180","1560","0.5","0.5","2","1","",""
"animation","95","155506","0.0-5.0-2.45","60fcd5602ff7c8f0866ecd0c","bdp_cybrbll","Sat Mar 25 2023 18:53:03 GMT-0400 (Eastern Daylight Time)","470832","3","1","","","","","","","","","","180","","","","2","1","[{""stimulus"":""img/2to1/1.png"",""time"":111},{""stimulus"":""img/2to1/2.png"",""time"":200},{""stimulus"":""img/2to1/3.png"",""time"":301},{""stimulus"":""img/2to1/4.png"",""time"":400},{""stimulus"":""img/2to1/5.png"",""time"":507},{""stimulus"":""img/2to1/6.png"",""time"":608},{""stimulus"":""img/2to1/7.png"",""time"":700},{""stimulus"":""img/2to1/8.png"",""time"":799},{""stimulus"":""img/2to1/9.png"",""time"":901},{""stimulus"":""img/2to1/10.png"",""time"":1007},{""stimulus"":""img/2to1/11.png"",""time"":1100},{""stimulus"":""img/2to1/12.png"",""time"":1192}]","[]"
"image-keyboard-response","96","156247","0.0-5.0-1.46","60fcd5602ff7c8f0866ecd0c","bdp_cybrbll","Sat Mar 25 2023 18:53:03 GMT-0400 (Eastern Daylight Time)","470832","3","1","","null","","","","observe","","img/1to3/1.png","null","179","736","0.5","0.5","1","2","",""
"animation","97","157551","0.0-5.0-2.46","60fcd5602ff7c8f0866ecd0c","bdp_cybrbll","Sat Mar 25 2023 18:53:03 GMT-0400 (Eastern Daylight Time)","470832","3","1","","","","","","","","","","179","","","","1","2","[{""stimulus"":""img/1to2/1.png"",""time"":111},{""stimulus"":""img/1to2/2.png"",""time"":209},{""stimulus"":""img/1to2/3.png"",""time"":310},{""stimulus"":""img/1to2/4.png"",""time"":410},{""stimulus"":""img/1to2/5.png"",""time"":504},{""stimulus"":""img/1to2/6.png"",""time"":609},{""stimulus"":""img/1to2/7.png"",""time"":694},{""stimulus"":""img/1to2/8.png"",""time"":794},{""stimulus"":""img/1to2/9.png"",""time"":902},{""stimulus"":""img/1to2/10.png"",""time"":993},{""stimulus"":""img/1to2/11.png"",""time"":1094},{""stimulus"":""img/1to2/12.png"",""time"":1194}]","[]"
"image-keyboard-response","98","157975","0.0-5.0-1.47","60fcd5602ff7c8f0866ecd0c","bdp_cybrbll","Sat Mar 25 2023 18:53:03 GMT-0400 (Eastern Daylight Time)","470832","3","1","","423","","","","choice","","img/2to1/1.png","2","178","303","0.5","0.5","2","3","",""
"animation","99","159267","0.0-5.0-2.47","60fcd5602ff7c8f0866ecd0c","bdp_cybrbll","Sat Mar 25 2023 18:53:03 GMT-0400 (Eastern Daylight Time)","470832","3","1","","","","","","","","","","178","","","","2","3","[{""stimulus"":""img/2to3/1.png"",""time"":109},{""stimulus"":""img/2to3/2.png"",""time"":214},{""stimulus"":""img/2to3/3.png"",""time"":309},{""stimulus"":""img/2to3/4.png"",""time"":408},{""stimulus"":""img/2to3/5.png"",""time"":509},{""stimulus"":""img/2to3/6.png"",""time"":598},{""stimulus"":""img/2to3/7.png"",""time"":701},{""stimulus"":""img/2to3/8.png"",""time"":806},{""stimulus"":""img/2to3/9.png"",""time"":902},{""stimulus"":""img/2to3/10.png"",""time"":999},{""stimulus"":""img/2to3/11.png"",""time"":1099},{""stimulus"":""img/2to3/12.png"",""time"":1200}]","[]"
"image-keyboard-response","100","160461","0.0-5.0-1.48","60fcd5602ff7c8f0866ecd0c","bdp_cybrbll","Sat Mar 25 2023 18:53:03 GMT-0400 (Eastern Daylight Time)","470832","3","1","","null","","","","observe","","img/3to2/1.png","null","177","1180","0.5","0.5","3","2","",""
"animation","101","161755","0.0-5.0-2.48","60fcd5602ff7c8f0866ecd0c","bdp_cybrbll","Sat Mar 25 2023 18:53:03 GMT-0400 (Eastern Daylight Time)","470832","3","1","","","","","","","","","","177","","","","3","2","[{""stimulus"":""img/3to2/1.png"",""time"":112},{""stimulus"":""img/3to2/2.png"",""time"":214},{""stimulus"":""img/3to2/3.png"",""time"":303},{""stimulus"":""img/3to2/4.png"",""time"":404},{""stimulus"":""img/3to2/5.png"",""time"":503},{""stimulus"":""img/3to2/6.png"",""time"":603},{""stimulus"":""img/3to2/7.png"",""time"":702},{""stimulus"":""img/3to2/8.png"",""time"":803},{""stimulus"":""img/3to2/9.png"",""time"":904},{""stimulus"":""img/3to2/10.png"",""time"":1004},{""stimulus"":""img/3to2/11.png"",""time"":1095},{""stimulus"":""img/3to2/12.png"",""time"":1191}]","[]"
"image-keyboard-response","102","161855","0.0-5.0-1.49","60fcd5602ff7c8f0866ecd0c","bdp_cybrbll","Sat Mar 25 2023 18:53:03 GMT-0400 (Eastern Daylight Time)","470832","3","1","","99","","","","choice","","img/2to1/1.png","1","176","811","0.5","0.5","2","1","",""
"animation","103","163150","0.0-5.0-2.49","60fcd5602ff7c8f0866ecd0c","bdp_cybrbll","Sat Mar 25 2023 18:53:03 GMT-0400 (Eastern Daylight Time)","470832","3","1","","","","","","","","","","176","","","","2","1","[{""stimulus"":""img/2to1/1.png"",""time"":110},{""stimulus"":""img/2to1/2.png"",""time"":199},{""stimulus"":""img/2to1/3.png"",""time"":303},{""stimulus"":""img/2to1/4.png"",""time"":411},{""stimulus"":""img/2to1/5.png"",""time"":511},{""stimulus"":""img/2to1/6.png"",""time"":598},{""stimulus"":""img/2to1/7.png"",""time"":709},{""stimulus"":""img/2to1/8.png"",""time"":793},{""stimulus"":""img/2to1/9.png"",""time"":900},{""stimulus"":""img/2to1/10.png"",""time"":1001},{""stimulus"":""img/2to1/11.png"",""time"":1101},{""stimulus"":""img/2to1/12.png"",""time"":1200}]","[]"
"image-keyboard-response","104","163411","0.0-5.0-1.50","60fcd5602ff7c8f0866ecd0c","bdp_cybrbll","Sat Mar 25 2023 18:53:03 GMT-0400 (Eastern Daylight Time)","470832","3","1","","null","","","","observe","","img/1to3/1.png","null","175","252","0.5","0.5","1","3","",""
"animation","105","164706","0.0-5.0-2.50","60fcd5602ff7c8f0866ecd0c","bdp_cybrbll","Sat Mar 25 2023 18:53:03 GMT-0400 (Eastern Daylight Time)","470832","3","1","","","","","","","","","","175","","","","1","3","[{""stimulus"":""img/1to3/1.png"",""time"":111},{""stimulus"":""img/1to3/2.png"",""time"":208},{""stimulus"":""img/1to3/3.png"",""time"":298},{""stimulus"":""img/1to3/4.png"",""time"":409},{""stimulus"":""img/1to3/5.png"",""time"":496},{""stimulus"":""img/1to3/6.png"",""time"":608},{""stimulus"":""img/1to3/7.png"",""time"":697},{""stimulus"":""img/1to3/8.png"",""time"":795},{""stimulus"":""img/1to3/9.png"",""time"":895},{""stimulus"":""img/1to3/10.png"",""time"":1003},{""stimulus"":""img/1to3/11.png"",""time"":1096},{""stimulus"":""img/1to3/12.png"",""time"":1196}]","[]"
"image-keyboard-response","106","164901","0.0-5.0-1.51","60fcd5602ff7c8f0866ecd0c","bdp_cybrbll","Sat Mar 25 2023 18:53:03 GMT-0400 (Eastern Daylight Time)","470832","3","1","","null","","","","observe","","img/3to2/1.png","null","174","185","0.5","0.5","3","1","",""
"animation","107","166199","0.0-5.0-2.51","60fcd5602ff7c8f0866ecd0c","bdp_cybrbll","Sat Mar 25 2023 18:53:03 GMT-0400 (Eastern Daylight Time)","470832","3","1","","","","","","","","","","174","","","","3","1","[{""stimulus"":""img/3to1/1.png"",""time"":111},{""stimulus"":""img/3to1/2.png"",""time"":212},{""stimulus"":""img/3to1/3.png"",""time"":305},{""stimulus"":""img/3to1/4.png"",""time"":397},{""stimulus"":""img/3to1/5.png"",""time"":498},{""stimulus"":""img/3to1/6.png"",""time"":599},{""stimulus"":""img/3to1/7.png"",""time"":704},{""stimulus"":""img/3to1/8.png"",""time"":806},{""stimulus"":""img/3to1/9.png"",""time"":896},{""stimulus"":""img/3to1/10.png"",""time"":996},{""stimulus"":""img/3to1/11.png"",""time"":1096},{""stimulus"":""img/3to1/12.png"",""time"":1196}]","[]"
"image-keyboard-response","108","166464","0.0-5.0-1.52","60fcd5602ff7c8f0866ecd0c","bdp_cybrbll","Sat Mar 25 2023 18:53:03 GMT-0400 (Eastern Daylight Time)","470832","3","1","","null","","","","observe","","img/1to3/1.png","null","173","258","0.5","0.5","1","2","",""
"animation","109","167764","0.0-5.0-2.52","60fcd5602ff7c8f0866ecd0c","bdp_cybrbll","Sat Mar 25 2023 18:53:03 GMT-0400 (Eastern Daylight Time)","470832","3","1","","","","","","","","","","173","","","","1","2","[{""stimulus"":""img/1to2/1.png"",""time"":112},{""stimulus"":""img/1to2/2.png"",""time"":210},{""stimulus"":""img/1to2/3.png"",""time"":309},{""stimulus"":""img/1to2/4.png"",""time"":409},{""stimulus"":""img/1to2/5.png"",""time"":502},{""stimulus"":""img/1to2/6.png"",""time"":595},{""stimulus"":""img/1to2/7.png"",""time"":708},{""stimulus"":""img/1to2/8.png"",""time"":802},{""stimulus"":""img/1to2/9.png"",""time"":903},{""stimulus"":""img/1to2/10.png"",""time"":1004},{""stimulus"":""img/1to2/11.png"",""time"":1093},{""stimulus"":""img/1to2/12.png"",""time"":1193}]","[]"
"image-keyboard-response","110","168433","0.0-5.0-1.53","60fcd5602ff7c8f0866ecd0c","bdp_cybrbll","Sat Mar 25 2023 18:53:03 GMT-0400 (Eastern Daylight Time)","470832","3","1","","668","","","","choice","","img/2to1/1.png","2","172","493","0.5","0.5","2","3","",""
"animation","111","169721","0.0-5.0-2.53","60fcd5602ff7c8f0866ecd0c","bdp_cybrbll","Sat Mar 25 2023 18:53:03 GMT-0400 (Eastern Daylight Time)","470832","3","1","","","","","","","","","","172","","","","2","3","[{""stimulus"":""img/2to3/1.png"",""time"":111},{""stimulus"":""img/2to3/2.png"",""time"":206},{""stimulus"":""img/2to3/3.png"",""time"":306},{""stimulus"":""img/2to3/4.png"",""time"":399},{""stimulus"":""img/2to3/5.png"",""time"":505},{""stimulus"":""img/2to3/6.png"",""time"":600},{""stimulus"":""img/2to3/7.png"",""time"":702},{""stimulus"":""img/2to3/8.png"",""time"":807},{""stimulus"":""img/2to3/9.png"",""time"":892},{""stimulus"":""img/2to3/10.png"",""time"":999},{""stimulus"":""img/2to3/11.png"",""time"":1101},{""stimulus"":""img/2to3/12.png"",""time"":1190}]","[]"
"image-keyboard-response","112","170087","0.0-5.0-1.54","60fcd5602ff7c8f0866ecd0c","bdp_cybrbll","Sat Mar 25 2023 18:53:03 GMT-0400 (Eastern Daylight Time)","470832","3","1","","null","","","","observe","","img/3to2/1.png","null","171","363","0.5","0.5","3","1","",""
"animation","113","171390","0.0-5.0-2.54","60fcd5602ff7c8f0866ecd0c","bdp_cybrbll","Sat Mar 25 2023 18:53:03 GMT-0400 (Eastern Daylight Time)","470832","3","1","","","","","","","","","","171","","","","3","1","[{""stimulus"":""img/3to1/1.png"",""time"":110},{""stimulus"":""img/3to1/2.png"",""time"":212},{""stimulus"":""img/3to1/3.png"",""time"":313},{""stimulus"":""img/3to1/4.png"",""time"":404},{""stimulus"":""img/3to1/5.png"",""time"":511},{""stimulus"":""img/3to1/6.png"",""time"":610},{""stimulus"":""img/3to1/7.png"",""time"":698},{""stimulus"":""img/3to1/8.png"",""time"":796},{""stimulus"":""img/3to1/9.png"",""time"":903},{""stimulus"":""img/3to1/10.png"",""time"":997},{""stimulus"":""img/3to1/11.png"",""time"":1104},{""stimulus"":""img/3to1/12.png"",""time"":1204}]","[]"
"image-keyboard-response","114","172191","0.0-5.0-1.55","60fcd5602ff7c8f0866ecd0c","bdp_cybrbll","Sat Mar 25 2023 18:53:03 GMT-0400 (Eastern Daylight Time)","470832","3","1","","null","","","","observe","","img/1to3/1.png","null","170","791","0.5","0.5","1","2","",""
"animation","115","173490","0.0-5.0-2.55","60fcd5602ff7c8f0866ecd0c","bdp_cybrbll","Sat Mar 25 2023 18:53:03 GMT-0400 (Eastern Daylight Time)","470832","3","1","","","","","","","","","","170","","","","1","2","[{""stimulus"":""img/1to2/1.png"",""time"":112},{""stimulus"":""img/1to2/2.png"",""time"":201},{""stimulus"":""img/1to2/3.png"",""time"":300},{""stimulus"":""img/1to2/4.png"",""time"":410},{""stimulus"":""img/1to2/5.png"",""time"":501},{""stimulus"":""img/1to2/6.png"",""time"":599},{""stimulus"":""img/1to2/7.png"",""time"":698},{""stimulus"":""img/1to2/8.png"",""time"":807},{""stimulus"":""img/1to2/9.png"",""time"":898},{""stimulus"":""img/1to2/10.png"",""time"":999},{""stimulus"":""img/1to2/11.png"",""time"":1098},{""stimulus"":""img/1to2/12.png"",""time"":1200}]","[]"
"image-keyboard-response","116","173585","0.0-5.0-1.56","60fcd5602ff7c8f0866ecd0c","bdp_cybrbll","Sat Mar 25 2023 18:53:03 GMT-0400 (Eastern Daylight Time)","470832","3","1","","95","","","","choice","","img/2to1/1.png","1","169","172","0.5","0.5","2","1","",""
"animation","117","174874","0.0-5.0-2.56","60fcd5602ff7c8f0866ecd0c","bdp_cybrbll","Sat Mar 25 2023 18:53:03 GMT-0400 (Eastern Daylight Time)","470832","3","1","","","","","","","","","","169","","","","2","1","[{""stimulus"":""img/2to1/1.png"",""time"":110},{""stimulus"":""img/2to1/2.png"",""time"":206},{""stimulus"":""img/2to1/3.png"",""time"":304},{""stimulus"":""img/2to1/4.png"",""time"":403},{""stimulus"":""img/2to1/5.png"",""time"":503},{""stimulus"":""img/2to1/6.png"",""time"":605},{""stimulus"":""img/2to1/7.png"",""time"":695},{""stimulus"":""img/2to1/8.png"",""time"":796},{""stimulus"":""img/2to1/9.png"",""time"":903},{""stimulus"":""img/2to1/10.png"",""time"":998},{""stimulus"":""img/2to1/11.png"",""time"":1097},{""stimulus"":""img/2to1/12.png"",""time"":1197}]","[]"
"image-keyboard-response","118","175500","0.0-5.0-1.57","60fcd5602ff7c8f0866ecd0c","bdp_cybrbll","Sat Mar 25 2023 18:53:03 GMT-0400 (Eastern Daylight Time)","470832","3","1","","null","","","","observe","","img/1to3/1.png","null","168","619","0.5","0.5","1","3","",""
"animation","119","176797","0.0-5.0-2.57","60fcd5602ff7c8f0866ecd0c","bdp_cybrbll","Sat Mar 25 2023 18:53:03 GMT-0400 (Eastern Daylight Time)","470832","3","1","","","","","","","","","","168","","","","1","3","[{""stimulus"":""img/1to3/1.png"",""time"":111},{""stimulus"":""img/1to3/2.png"",""time"":206},{""stimulus"":""img/1to3/3.png"",""time"":306},{""stimulus"":""img/1to3/4.png"",""time"":398},{""stimulus"":""img/1to3/5.png"",""time"":508},{""stimulus"":""img/1to3/6.png"",""time"":606},{""stimulus"":""img/1to3/7.png"",""time"":706},{""stimulus"":""img/1to3/8.png"",""time"":805},{""stimulus"":""img/1to3/9.png"",""time"":905},{""stimulus"":""img/1to3/10.png"",""time"":1005},{""stimulus"":""img/1to3/11.png"",""time"":1097},{""stimulus"":""img/1to3/12.png"",""time"":1197}]","[]"
"image-keyboard-response","120","177030","0.0-5.0-1.58","60fcd5602ff7c8f0866ecd0c","bdp_cybrbll","Sat Mar 25 2023 18:53:03 GMT-0400 (Eastern Daylight Time)","470832","3","1","","null","","","","observe","","img/3to2/1.png","null","167","216","0.5","0.5","3","1","",""
"animation","121","178323","0.0-5.0-2.58","60fcd5602ff7c8f0866ecd0c","bdp_cybrbll","Sat Mar 25 2023 18:53:03 GMT-0400 (Eastern Daylight Time)","470832","3","1","","","","","","","","","","167","","","","3","1","[{""stimulus"":""img/3to1/1.png"",""time"":102},{""stimulus"":""img/3to1/2.png"",""time"":202},{""stimulus"":""img/3to1/3.png"",""time"":304},{""stimulus"":""img/3to1/4.png"",""time"":411},{""stimulus"":""img/3to1/5.png"",""time"":503},{""stimulus"":""img/3to1/6.png"",""time"":594},{""stimulus"":""img/3to1/7.png"",""time"":708},{""stimulus"":""img/3to1/8.png"",""time"":793},{""stimulus"":""img/3to1/9.png"",""time"":893},{""stimulus"":""img/3to1/10.png"",""time"":991},{""stimulus"":""img/3to1/11.png"",""time"":1102},{""stimulus"":""img/3to1/12.png"",""time"":1189}]","[]"
"image-keyboard-response","122","178700","0.0-5.0-1.59","60fcd5602ff7c8f0866ecd0c","bdp_cybrbll","Sat Mar 25 2023 18:53:03 GMT-0400 (Eastern Daylight Time)","470832","3","1","","null","","","","observe","","img/1to3/1.png","null","166","371","0.5","0.5","1","3","",""
"animation","123","179999","0.0-5.0-2.59","60fcd5602ff7c8f0866ecd0c","bdp_cybrbll","Sat Mar 25 2023 18:53:03 GMT-0400 (Eastern Daylight Time)","470832","3","1","","","","","","","","","","166","","","","1","3","[{""stimulus"":""img/1to3/1.png"",""time"":112},{""stimulus"":""img/1to3/2.png"",""time"":206},{""stimulus"":""img/1to3/3.png"",""time"":299},{""stimulus"":""img/1to3/4.png"",""time"":399},{""stimulus"":""img/1to3/5.png"",""time"":499},{""stimulus"":""img/1to3/6.png"",""time"":600},{""stimulus"":""img/1to3/7.png"",""time"":708},{""stimulus"":""img/1to3/8.png"",""time"":806},{""stimulus"":""img/1to3/9.png"",""time"":907},{""stimulus"":""img/1to3/10.png"",""time"":1006},{""stimulus"":""img/1to3/11.png"",""time"":1091},{""stimulus"":""img/1to3/12.png"",""time"":1190}]","[]"
"image-keyboard-response","124","180268","0.0-5.0-1.60","60fcd5602ff7c8f0866ecd0c","bdp_cybrbll","Sat Mar 25 2023 18:53:03 GMT-0400 (Eastern Daylight Time)","470832","3","1","","null","","","","observe","","img/3to2/1.png","null","165","262","0.5","0.5","3","2","",""
"animation","125","181562","0.0-5.0-2.60","60fcd5602ff7c8f0866ecd0c","bdp_cybrbll","Sat Mar 25 2023 18:53:03 GMT-0400 (Eastern Daylight Time)","470832","3","1","","","","","","","","","","165","","","","3","2","[{""stimulus"":""img/3to2/1.png"",""time"":112},{""stimulus"":""img/3to2/2.png"",""time"":213},{""stimulus"":""img/3to2/3.png"",""time"":311},{""stimulus"":""img/3to2/4.png"",""time"":405},{""stimulus"":""img/3to2/5.png"",""time"":498},{""stimulus"":""img/3to2/6.png"",""time"":599},{""stimulus"":""img/3to2/7.png"",""time"":706},{""stimulus"":""img/3to2/8.png"",""time"":805},{""stimulus"":""img/3to2/9.png"",""time"":900},{""stimulus"":""img/3to2/10.png"",""time"":1005},{""stimulus"":""img/3to2/11.png"",""time"":1106},{""stimulus"":""img/3to2/12.png"",""time"":1202}]","[]"
"image-keyboard-response","126","181616","0.0-5.0-1.61","60fcd5602ff7c8f0866ecd0c","bdp_cybrbll","Sat Mar 25 2023 18:53:03 GMT-0400 (Eastern Daylight Time)","470832","3","1","","53","","","","choice","","img/2to1/1.png","2","164","218","0.5","0.5","2","3","",""
"animation","127","182907","0.0-5.0-2.61","60fcd5602ff7c8f0866ecd0c","bdp_cybrbll","Sat Mar 25 2023 18:53:03 GMT-0400 (Eastern Daylight Time)","470832","3","1","","","","","","","","","","164","","","","2","3","[{""stimulus"":""img/2to3/1.png"",""time"":109},{""stimulus"":""img/2to3/2.png"",""time"":207},{""stimulus"":""img/2to3/3.png"",""time"":300},{""stimulus"":""img/2to3/4.png"",""time"":407},{""stimulus"":""img/2to3/5.png"",""time"":502},{""stimulus"":""img/2to3/6.png"",""time"":600},{""stimulus"":""img/2to3/7.png"",""time"":700},{""stimulus"":""img/2to3/8.png"",""time"":800},{""stimulus"":""img/2to3/9.png"",""time"":901},{""stimulus"":""img/2to3/10.png"",""time"":992},{""stimulus"":""img/2to3/11.png"",""time"":1090},{""stimulus"":""img/2to3/12.png"",""time"":1190}]","[]"
"image-keyboard-response","128","183413","0.0-5.0-1.62","60fcd5602ff7c8f0866ecd0c","bdp_cybrbll","Sat Mar 25 2023 18:53:03 GMT-0400 (Eastern Daylight Time)","470832","3","1","","null","","","","observe","","img/3to2/1.png","null","163","500","0.5","0.5","3","2","",""
"animation","129","184705","0.0-5.0-2.62","60fcd5602ff7c8f0866ecd0c","bdp_cybrbll","Sat Mar 25 2023 18:53:03 GMT-0400 (Eastern Daylight Time)","470832","3","1","","","","","","","","","","163","","","","3","2","[{""stimulus"":""img/3to2/1.png"",""time"":112},{""stimulus"":""img/3to2/2.png"",""time"":202},{""stimulus"":""img/3to2/3.png"",""time"":303},{""stimulus"":""img/3to2/4.png"",""time"":410},{""stimulus"":""img/3to2/5.png"",""time"":510},{""stimulus"":""img/3to2/6.png"",""time"":610},{""stimulus"":""img/3to2/7.png"",""time"":709},{""stimulus"":""img/3to2/8.png"",""time"":793},{""stimulus"":""img/3to2/9.png"",""time"":901},{""stimulus"":""img/3to2/10.png"",""time"":1002},{""stimulus"":""img/3to2/11.png"",""time"":1102},{""stimulus"":""img/3to2/12.png"",""time"":1189}]","[]"
"image-keyboard-response","130","184976","0.0-5.0-1.63","60fcd5602ff7c8f0866ecd0c","bdp_cybrbll","Sat Mar 25 2023 18:53:03 GMT-0400 (Eastern Daylight Time)","470832","3","1","","270","","","","choice","","img/2to1/1.png","1","162","556","0.5","0.5","2","1","",""
"animation","131","186266","0.0-5.0-2.63","60fcd5602ff7c8f0866ecd0c","bdp_cybrbll","Sat Mar 25 2023 18:53:03 GMT-0400 (Eastern Daylight Time)","470832","3","1","","","","","","","","","","162","","","","2","1","[{""stimulus"":""img/2to1/1.png"",""time"":111},{""stimulus"":""img/2to1/2.png"",""time"":207},{""stimulus"":""img/2to1/3.png"",""time"":307},{""stimulus"":""img/2to1/4.png"",""time"":410},{""stimulus"":""img/2to1/5.png"",""time"":511},{""stimulus"":""img/2to1/6.png"",""time"":622},{""stimulus"":""img/2to1/7.png"",""time"":695},{""stimulus"":""img/2to1/8.png"",""time"":797},{""stimulus"":""img/2to1/9.png"",""time"":906},{""stimulus"":""img/2to1/10.png"",""time"":990},{""stimulus"":""img/2to1/11.png"",""time"":1096},{""stimulus"":""img/2to1/12.png"",""time"":1198}]","[]"
"image-keyboard-response","132","187191","0.0-5.0-1.64","60fcd5602ff7c8f0866ecd0c","bdp_cybrbll","Sat Mar 25 2023 18:53:03 GMT-0400 (Eastern Daylight Time)","470832","3","1","","null","","","","observe","","img/1to3/1.png","null","161","921","0.5","0.5","1","2","",""
"animation","133","188493","0.0-5.0-2.64","60fcd5602ff7c8f0866ecd0c","bdp_cybrbll","Sat Mar 25 2023 18:53:03 GMT-0400 (Eastern Daylight Time)","470832","3","1","","","","","","","","","","161","","","","1","2","[{""stimulus"":""img/1to2/1.png"",""time"":109},{""stimulus"":""img/1to2/2.png"",""time"":214},{""stimulus"":""img/1to2/3.png"",""time"":314},{""stimulus"":""img/1to2/4.png"",""time"":407},{""stimulus"":""img/1to2/5.png"",""time"":520},{""stimulus"":""img/1to2/6.png"",""time"":602},{""stimulus"":""img/1to2/7.png"",""time"":694},{""stimulus"":""img/1to2/8.png"",""time"":800},{""stimulus"":""img/1to2/9.png"",""time"":896},{""stimulus"":""img/1to2/10.png"",""time"":996},{""stimulus"":""img/1to2/11.png"",""time"":1091},{""stimulus"":""img/1to2/12.png"",""time"":1193}]","[]"
"image-keyboard-response","134","189039","0.0-5.0-1.65","60fcd5602ff7c8f0866ecd0c","bdp_cybrbll","Sat Mar 25 2023 18:53:03 GMT-0400 (Eastern Daylight Time)","470832","3","1","","545","","","","choice","","img/2to1/1.png","2","160","527","0.5","0.5","2","3","",""
"animation","135","190337","0.0-5.0-2.65","60fcd5602ff7c8f0866ecd0c","bdp_cybrbll","Sat Mar 25 2023 18:53:03 GMT-0400 (Eastern Daylight Time)","470832","3","1","","","","","","","","","","160","","","","2","3","[{""stimulus"":""img/2to3/1.png"",""time"":112},{""stimulus"":""img/2to3/2.png"",""time"":200},{""stimulus"":""img/2to3/3.png"",""time"":300},{""stimulus"":""img/2to3/4.png"",""time"":413},{""stimulus"":""img/2to3/5.png"",""time"":506},{""stimulus"":""img/2to3/6.png"",""time"":614},{""stimulus"":""img/2to3/7.png"",""time"":713},{""stimulus"":""img/2to3/8.png"",""time"":800},{""stimulus"":""img/2to3/9.png"",""time"":907},{""stimulus"":""img/2to3/10.png"",""time"":1007},{""stimulus"":""img/2to3/11.png"",""time"":1093},{""stimulus"":""img/2to3/12.png"",""time"":1203}]","[]"
"image-keyboard-response","136","190828","0.0-5.0-1.66","60fcd5602ff7c8f0866ecd0c","bdp_cybrbll","Sat Mar 25 2023 18:53:03 GMT-0400 (Eastern Daylight Time)","470832","3","1","","null","","","","observe","","img/3to2/1.png","null","159","483","0.5","0.5","3","2","",""
"animation","137","192119","0.0-5.0-2.66","60fcd5602ff7c8f0866ecd0c","bdp_cybrbll","Sat Mar 25 2023 18:53:03 GMT-0400 (Eastern Daylight Time)","470832","3","1","","","","","","","","","","159","","","","3","2","[{""stimulus"":""img/3to2/1.png"",""time"":113},{""stimulus"":""img/3to2/2.png"",""time"":203},{""stimulus"":""img/3to2/3.png"",""time"":299},{""stimulus"":""img/3to2/4.png"",""time"":403},{""stimulus"":""img/3to2/5.png"",""time"":499},{""stimulus"":""img/3to2/6.png"",""time"":607},{""stimulus"":""img/3to2/7.png"",""time"":705},{""stimulus"":""img/3to2/8.png"",""time"":796},{""stimulus"":""img/3to2/9.png"",""time"":905},{""stimulus"":""img/3to2/10.png"",""time"":999},{""stimulus"":""img/3to2/11.png"",""time"":1102},{""stimulus"":""img/3to2/12.png"",""time"":1203}]","[]"
"image-keyboard-response","138","192315","0.0-5.0-1.67","60fcd5602ff7c8f0866ecd0c","bdp_cybrbll","Sat Mar 25 2023 18:53:03 GMT-0400 (Eastern Daylight Time)","470832","3","1","","196","","","","choice","","img/2to1/1.png","1","158","415","0.5","0.5","2","1","",""
"animation","139","193609","0.0-5.0-2.67","60fcd5602ff7c8f0866ecd0c","bdp_cybrbll","Sat Mar 25 2023 18:53:03 GMT-0400 (Eastern Daylight Time)","470832","3","1","","","","","","","","","","158","","","","2","1","[{""stimulus"":""img/2to1/1.png"",""time"":108},{""stimulus"":""img/2to1/2.png"",""time"":207},{""stimulus"":""img/2to1/3.png"",""time"":311},{""stimulus"":""img/2to1/4.png"",""time"":401},{""stimulus"":""img/2to1/5.png"",""time"":503},{""stimulus"":""img/2to1/6.png"",""time"":605},{""stimulus"":""img/2to1/7.png"",""time"":708},{""stimulus"":""img/2to1/8.png"",""time"":804},{""stimulus"":""img/2to1/9.png"",""time"":902},{""stimulus"":""img/2to1/10.png"",""time"":991},{""stimulus"":""img/2to1/11.png"",""time"":1108},{""stimulus"":""img/2to1/12.png"",""time"":1189}]","[]"
"image-keyboard-response","140","194010","0.0-5.0-1.68","60fcd5602ff7c8f0866ecd0c","bdp_cybrbll","Sat Mar 25 2023 18:53:03 GMT-0400 (Eastern Daylight Time)","470832","3","1","","null","","","","observe","","img/1to3/1.png","null","157","391","0.5","0.5","1","3","",""
"animation","141","195306","0.0-5.0-2.68","60fcd5602ff7c8f0866ecd0c","bdp_cybrbll","Sat Mar 25 2023 18:53:03 GMT-0400 (Eastern Daylight Time)","470832","3","1","","","","","","","","","","157","","","","1","3","[{""stimulus"":""img/1to3/1.png"",""time"":114},{""stimulus"":""img/1to3/2.png"",""time"":211},{""stimulus"":""img/1to3/3.png"",""time"":309},{""stimulus"":""img/1to3/4.png"",""time"":405},{""stimulus"":""img/1to3/5.png"",""time"":506},{""stimulus"":""img/1to3/6.png"",""time"":597},{""stimulus"":""img/1to3/7.png"",""time"":695},{""stimulus"":""img/1to3/8.png"",""time"":812},{""stimulus"":""img/1to3/9.png"",""time"":906},{""stimulus"":""img/1to3/10.png"",""time"":993},{""stimulus"":""img/1to3/11.png"",""time"":1095},{""stimulus"":""img/1to3/12.png"",""time"":1208}]","[]"
"image-keyboard-response","142","195831","0.0-5.0-1.69","60fcd5602ff7c8f0866ecd0c","bdp_cybrbll","Sat Mar 25 2023 18:53:03 GMT-0400 (Eastern Daylight Time)","470832","3","1","","null","","","","observe","","img/3to2/1.png","null","156","511","0.5","0.5","3","1","",""
"animation","143","197123","0.0-5.0-2.69","60fcd5602ff7c8f0866ecd0c","bdp_cybrbll","Sat Mar 25 2023 18:53:03 GMT-0400 (Eastern Daylight Time)","470832","3","1","","","","","","","","","","156","","","","3","1","[{""stimulus"":""img/3to1/1.png"",""time"":112},{""stimulus"":""img/3to1/2.png"",""time"":201},{""stimulus"":""img/3to1/3.png"",""time"":300},{""stimulus"":""img/3to1/4.png"",""time"":405},{""stimulus"":""img/3to1/5.png"",""time"":504},{""stimulus"":""img/3to1/6.png"",""time"":601},{""stimulus"":""img/3to1/7.png"",""time"":708},{""stimulus"":""img/3to1/8.png"",""time"":808},{""stimulus"":""img/3to1/9.png"",""time"":906},{""stimulus"":""img/3to1/10.png"",""time"":997},{""stimulus"":""img/3to1/11.png"",""time"":1091},{""stimulus"":""img/3to1/12.png"",""time"":1192}]","[]"
"image-keyboard-response","144","197576","0.0-5.0-1.70","60fcd5602ff7c8f0866ecd0c","bdp_cybrbll","Sat Mar 25 2023 18:53:03 GMT-0400 (Eastern Daylight Time)","470832","3","1","","null","","","","observe","","img/1to3/1.png","null","155","448","0.5","0.5","1","2","",""
"animation","145","198865","0.0-5.0-2.70","60fcd5602ff7c8f0866ecd0c","bdp_cybrbll","Sat Mar 25 2023 18:53:03 GMT-0400 (Eastern Daylight Time)","470832","3","1","","","","","","","","","","155","","","","1","2","[{""stimulus"":""img/1to2/1.png"",""time"":113},{""stimulus"":""img/1to2/2.png"",""time"":212},{""stimulus"":""img/1to2/3.png"",""time"":298},{""stimulus"":""img/1to2/4.png"",""time"":397},{""stimulus"":""img/1to2/5.png"",""time"":507},{""stimulus"":""img/1to2/6.png"",""time"":597},{""stimulus"":""img/1to2/7.png"",""time"":703},{""stimulus"":""img/1to2/8.png"",""time"":801},{""stimulus"":""img/1to2/9.png"",""time"":906},{""stimulus"":""img/1to2/10.png"",""time"":1007},{""stimulus"":""img/1to2/11.png"",""time"":1100},{""stimulus"":""img/1to2/12.png"",""time"":1199}]","[]"
"image-keyboard-response","146","199061","0.0-5.0-1.71","60fcd5602ff7c8f0866ecd0c","bdp_cybrbll","Sat Mar 25 2023 18:53:03 GMT-0400 (Eastern Daylight Time)","470832","3","1","","195","","","","choice","","img/2to1/1.png","2","154","691","0.5","0.5","2","3","",""
"animation","147","200358","0.0-5.0-2.71","60fcd5602ff7c8f0866ecd0c","bdp_cybrbll","Sat Mar 25 2023 18:53:03 GMT-0400 (Eastern Daylight Time)","470832","3","1","","","","","","","","","","154","","","","2","3","[{""stimulus"":""img/2to3/1.png"",""time"":102},{""stimulus"":""img/2to3/2.png"",""time"":212},{""stimulus"":""img/2to3/3.png"",""time"":311},{""stimulus"":""img/2to3/4.png"",""time"":413},{""stimulus"":""img/2to3/5.png"",""time"":496},{""stimulus"":""img/2to3/6.png"",""time"":595},{""stimulus"":""img/2to3/7.png"",""time"":703},{""stimulus"":""img/2to3/8.png"",""time"":803},{""stimulus"":""img/2to3/9.png"",""time"":901},{""stimulus"":""img/2to3/10.png"",""time"":997},{""stimulus"":""img/2to3/11.png"",""time"":1096},{""stimulus"":""img/2to3/12.png"",""time"":1196}]","[]"
"image-keyboard-response","148","200728","0.0-5.0-1.72","60fcd5602ff7c8f0866ecd0c","bdp_cybrbll","Sat Mar 25 2023 18:53:03 GMT-0400 (Eastern Daylight Time)","470832","3","1","","null","","","","observe","","img/3to2/1.png","null","153","359","0.5","0.5","3","2","",""
"animation","149","202023","0.0-5.0-2.72","60fcd5602ff7c8f0866ecd0c","bdp_cybrbll","Sat Mar 25 2023 18:53:03 GMT-0400 (Eastern Daylight Time)","470832","3","1","","","","","","","","","","153","","","","3","2","[{""stimulus"":""img/3to2/1.png"",""time"":105},{""stimulus"":""img/3to2/2.png"",""time"":206},{""stimulus"":""img/3to2/3.png"",""time"":298},{""stimulus"":""img/3to2/4.png"",""time"":411},{""stimulus"":""img/3to2/5.png"",""time"":497},{""stimulus"":""img/3to2/6.png"",""time"":611},{""stimulus"":""img/3to2/7.png"",""time"":696},{""stimulus"":""img/3to2/8.png"",""time"":808},{""stimulus"":""img/3to2/9.png"",""time"":897},{""stimulus"":""img/3to2/10.png"",""time"":994},{""stimulus"":""img/3to2/11.png"",""time"":1103},{""stimulus"":""img/3to2/12.png"",""time"":1196}]","[]"
"image-keyboard-response","150","202413","0.0-5.0-1.73","60fcd5602ff7c8f0866ecd0c","bdp_cybrbll","Sat Mar 25 2023 18:53:03 GMT-0400 (Eastern Daylight Time)","470832","3","1","","388","","","","choice","","img/2to1/1.png","1","152","607","0.5","0.5","2","1","",""
"animation","151","203706","0.0-5.0-2.73","60fcd5602ff7c8f0866ecd0c","bdp_cybrbll","Sat Mar 25 2023 18:53:03 GMT-0400 (Eastern Daylight Time)","470832","3","1","","","","","","","","","","152","","","","2","1","[{""stimulus"":""img/2to1/1.png"",""time"":102},{""stimulus"":""img/2to1/2.png"",""time"":216},{""stimulus"":""img/2to1/3.png"",""time"":310},{""stimulus"":""img/2to1/4.png"",""time"":409},{""stimulus"":""img/2to1/5.png"",""time"":502},{""stimulus"":""img/2to1/6.png"",""time"":602},{""stimulus"":""img/2to1/7.png"",""time"":703},{""stimulus"":""img/2to1/8.png"",""time"":803},{""stimulus"":""img/2to1/9.png"",""time"":903},{""stimulus"":""img/2to1/10.png"",""time"":995},{""stimulus"":""img/2to1/11.png"",""time"":1092},{""stimulus"":""img/2to1/12.png"",""time"":1196}]","[]"
"image-keyboard-response","152","204263","0.0-5.0-1.74","60fcd5602ff7c8f0866ecd0c","bdp_cybrbll","Sat Mar 25 2023 18:53:03 GMT-0400 (Eastern Daylight Time)","470832","3","1","","null","","","","observe","","img/1to3/1.png","null","151","552","0.5","0.5","1","3","",""
"animation","153","205556","0.0-5.0-2.74","60fcd5602ff7c8f0866ecd0c","bdp_cybrbll","Sat Mar 25 2023 18:53:03 GMT-0400 (Eastern Daylight Time)","470832","3","1","","","","","","","","","","151","","","","1","3","[{""stimulus"":""img/1to3/1.png"",""time"":113},{""stimulus"":""img/1to3/2.png"",""time"":203},{""stimulus"":""img/1to3/3.png"",""time"":311},{""stimulus"":""img/1to3/4.png"",""time"":412},{""stimulus"":""img/1to3/5.png"",""time"":509},{""stimulus"":""img/1to3/6.png"",""time"":603},{""stimulus"":""img/1to3/7.png"",""time"":702},{""stimulus"":""img/1to3/8.png"",""time"":794},{""stimulus"":""img/1to3/9.png"",""time"":894},{""stimulus"":""img/1to3/10.png"",""time"":994},{""stimulus"":""img/1to3/11.png"",""time"":1103},{""stimulus"":""img/1to3/12.png"",""time"":1195}]","[]"
"image-keyboard-response","154","206363","0.0-5.0-1.75","60fcd5602ff7c8f0866ecd0c","bdp_cybrbll","Sat Mar 25 2023 18:53:03 GMT-0400 (Eastern Daylight Time)","470832","3","1","","null","","","","observe","","img/3to2/1.png","null","150","794","0.5","0.5","3","2","",""
"animation","155","207655","0.0-5.0-2.75","60fcd5602ff7c8f0866ecd0c","bdp_cybrbll","Sat Mar 25 2023 18:53:03 GMT-0400 (Eastern Daylight Time)","470832","3","1","","","","","","","","","","150","","","","3","2","[{""stimulus"":""img/3to2/1.png"",""time"":114},{""stimulus"":""img/3to2/2.png"",""time"":206},{""stimulus"":""img/3to2/3.png"",""time"":303},{""stimulus"":""img/3to2/4.png"",""time"":404},{""stimulus"":""img/3to2/5.png"",""time"":496},{""stimulus"":""img/3to2/6.png"",""time"":609},{""stimulus"":""img/3to2/7.png"",""time"":703},{""stimulus"":""img/3to2/8.png"",""time"":805},{""stimulus"":""img/3to2/9.png"",""time"":902},{""stimulus"":""img/3to2/10.png"",""time"":995},{""stimulus"":""img/3to2/11.png"",""time"":1102},{""stimulus"":""img/3to2/12.png"",""time"":1202}]","[]"
"image-keyboard-response","156","207918","0.0-5.0-1.76","60fcd5602ff7c8f0866ecd0c","bdp_cybrbll","Sat Mar 25 2023 18:53:03 GMT-0400 (Eastern Daylight Time)","470832","3","1","","263","","","","choice","","img/2to1/1.png","2","149","276","0.5","0.1","2","3","",""
"animation","157","209207","0.0-5.0-2.76","60fcd5602ff7c8f0866ecd0c","bdp_cybrbll","Sat Mar 25 2023 18:53:03 GMT-0400 (Eastern Daylight Time)","470832","3","1","","","","","","","","","","149","","","","2","3","[{""stimulus"":""img/2to3/1.png"",""time"":101},{""stimulus"":""img/2to3/2.png"",""time"":204},{""stimulus"":""img/2to3/3.png"",""time"":304},{""stimulus"":""img/2to3/4.png"",""time"":396},{""stimulus"":""img/2to3/5.png"",""time"":500},{""stimulus"":""img/2to3/6.png"",""time"":604},{""stimulus"":""img/2to3/7.png"",""time"":704},{""stimulus"":""img/2to3/8.png"",""time"":799},{""stimulus"":""img/2to3/9.png"",""time"":896},{""stimulus"":""img/2to3/10.png"",""time"":997},{""stimulus"":""img/2to3/11.png"",""time"":1104},{""stimulus"":""img/2to3/12.png"",""time"":1204}]","[]"
"image-keyboard-response","158","209428","0.0-5.0-1.77","60fcd5602ff7c8f0866ecd0c","bdp_cybrbll","Sat Mar 25 2023 18:53:03 GMT-0400 (Eastern Daylight Time)","470832","3","1","","null","","","","observe","","img/3to2/1.png","null","148","208","0.5","0.1","3","2","",""
"animation","159","210730","0.0-5.0-2.77","60fcd5602ff7c8f0866ecd0c","bdp_cybrbll","Sat Mar 25 2023 18:53:03 GMT-0400 (Eastern Daylight Time)","470832","3","1","","","","","","","","","","148","","","","3","2","[{""stimulus"":""img/3to2/1.png"",""time"":115},{""stimulus"":""img/3to2/2.png"",""time"":210},{""stimulus"":""img/3to2/3.png"",""time"":312},{""stimulus"":""img/3to2/4.png"",""time"":405},{""stimulus"":""img/3to2/5.png"",""time"":504},{""stimulus"":""img/3to2/6.png"",""time"":596},{""stimulus"":""img/3to2/7.png"",""time"":707},{""stimulus"":""img/3to2/8.png"",""time"":795},{""stimulus"":""img/3to2/9.png"",""time"":903},{""stimulus"":""img/3to2/10.png"",""time"":1002},{""stimulus"":""img/3to2/11.png"",""time"":1102},{""stimulus"":""img/3to2/12.png"",""time"":1202}]","[]"
"image-keyboard-response","160","210794","0.0-5.0-1.78","60fcd5602ff7c8f0866ecd0c","bdp_cybrbll","Sat Mar 25 2023 18:53:03 GMT-0400 (Eastern Daylight Time)","470832","3","1","","63","","","","choice","","img/2to1/1.png","1","147","144","0.5","0.1","2","1","",""
"animation","161","212083","0.0-5.0-2.78","60fcd5602ff7c8f0866ecd0c","bdp_cybrbll","Sat Mar 25 2023 18:53:03 GMT-0400 (Eastern Daylight Time)","470832","3","1","","","","","","","","","","147","","","","2","1","[{""stimulus"":""img/2to1/1.png"",""time"":115},{""stimulus"":""img/2to1/2.png"",""time"":213},{""stimulus"":""img/2to1/3.png"",""time"":313},{""stimulus"":""img/2to1/4.png"",""time"":412},{""stimulus"":""img/2to1/5.png"",""time"":497},{""stimulus"":""img/2to1/6.png"",""time"":608},{""stimulus"":""img/2to1/7.png"",""time"":696},{""stimulus"":""img/2to1/8.png"",""time"":797},{""stimulus"":""img/2to1/9.png"",""time"":895},{""stimulus"":""img/2to1/10.png"",""time"":996},{""stimulus"":""img/2to1/11.png"",""time"":1101},{""stimulus"":""img/2to1/12.png"",""time"":1196}]","[]"
"image-keyboard-response","162","212456","0.0-5.0-1.79","60fcd5602ff7c8f0866ecd0c","bdp_cybrbll","Sat Mar 25 2023 18:53:03 GMT-0400 (Eastern Daylight Time)","470832","3","1","","null","","","","observe","","img/1to3/1.png","null","146","363","0.5","0.1","1","3","",""
"animation","163","213755","0.0-5.0-2.79","60fcd5602ff7c8f0866ecd0c","bdp_cybrbll","Sat Mar 25 2023 18:53:03 GMT-0400 (Eastern Daylight Time)","470832","3","1","","","","","","","","","","146","","","","1","3","[{""stimulus"":""img/1to3/1.png"",""time"":115},{""stimulus"":""img/1to3/2.png"",""time"":200},{""stimulus"":""img/1to3/3.png"",""time"":299},{""stimulus"":""img/1to3/4.png"",""time"":411},{""stimulus"":""img/1to3/5.png"",""time"":509},{""stimulus"":""img/1to3/6.png"",""time"":602},{""stimulus"":""img/1to3/7.png"",""time"":700},{""stimulus"":""img/1to3/8.png"",""time"":799},{""stimulus"":""img/1to3/9.png"",""time"":900},{""stimulus"":""img/1to3/10.png"",""time"":998},{""stimulus"":""img/1to3/11.png"",""time"":1099},{""stimulus"":""img/1to3/12.png"",""time"":1201}]","[]"
"image-keyboard-response","164","214025","0.0-5.0-1.80","60fcd5602ff7c8f0866ecd0c","bdp_cybrbll","Sat Mar 25 2023 18:53:03 GMT-0400 (Eastern Daylight Time)","470832","3","1","","null","","","","observe","","img/3to2/1.png","null","145","264","0.5","0.1","3","2","",""
"animation","165","215325","0.0-5.0-2.80","60fcd5602ff7c8f0866ecd0c","bdp_cybrbll","Sat Mar 25 2023 18:53:03 GMT-0400 (Eastern Daylight Time)","470832","3","1","","","","","","","","","","145","","","","3","2","[{""stimulus"":""img/3to2/1.png"",""time"":112},{""stimulus"":""img/3to2/2.png"",""time"":207},{""stimulus"":""img/3to2/3.png"",""time"":299},{""stimulus"":""img/3to2/4.png"",""time"":405},{""stimulus"":""img/3to2/5.png"",""time"":505},{""stimulus"":""img/3to2/6.png"",""time"":598},{""stimulus"":""img/3to2/7.png"",""time"":698},{""stimulus"":""img/3to2/8.png"",""time"":797},{""stimulus"":""img/3to2/9.png"",""time"":907},{""stimulus"":""img/3to2/10.png"",""time"":991},{""stimulus"":""img/3to2/11.png"",""time"":1097},{""stimulus"":""img/3to2/12.png"",""time"":1197}]","[]"
"image-keyboard-response","166","215439","0.0-5.0-1.81","60fcd5602ff7c8f0866ecd0c","bdp_cybrbll","Sat Mar 25 2023 18:53:03 GMT-0400 (Eastern Daylight Time)","470832","3","1","","113","","","","choice","","img/2to1/1.png","2","144","329","0.5","0.1","2","3","",""
"animation","167","216739","0.0-5.0-2.81","60fcd5602ff7c8f0866ecd0c","bdp_cybrbll","Sat Mar 25 2023 18:53:03 GMT-0400 (Eastern Daylight Time)","470832","3","1","","","","","","","","","","144","","","","2","3","[{""stimulus"":""img/2to3/1.png"",""time"":111},{""stimulus"":""img/2to3/2.png"",""time"":203},{""stimulus"":""img/2to3/3.png"",""time"":298},{""stimulus"":""img/2to3/4.png"",""time"":398},{""stimulus"":""img/2to3/5.png"",""time"":499},{""stimulus"":""img/2to3/6.png"",""time"":599},{""stimulus"":""img/2to3/7.png"",""time"":699},{""stimulus"":""img/2to3/8.png"",""time"":793},{""stimulus"":""img/2to3/9.png"",""time"":901},{""stimulus"":""img/2to3/10.png"",""time"":999},{""stimulus"":""img/2to3/11.png"",""time"":1100},{""stimulus"":""img/2to3/12.png"",""time"":1198}]","[]"
"image-keyboard-response","168","217403","0.0-5.0-1.82","60fcd5602ff7c8f0866ecd0c","bdp_cybrbll","Sat Mar 25 2023 18:53:03 GMT-0400 (Eastern Daylight Time)","470832","3","1","","null","","","","observe","","img/3to2/1.png","null","143","634","0.5","0.1","3","2","",""
"animation","169","218706","0.0-5.0-2.82","60fcd5602ff7c8f0866ecd0c","bdp_cybrbll","Sat Mar 25 2023 18:53:03 GMT-0400 (Eastern Daylight Time)","470832","3","1","","","","","","","","","","143","","","","3","2","[{""stimulus"":""img/3to2/1.png"",""time"":112},{""stimulus"":""img/3to2/2.png"",""time"":203},{""stimulus"":""img/3to2/3.png"",""time"":300},{""stimulus"":""img/3to2/4.png"",""time"":398},{""stimulus"":""img/3to2/5.png"",""time"":505},{""stimulus"":""img/3to2/6.png"",""time"":602},{""stimulus"":""img/3to2/7.png"",""time"":703},{""stimulus"":""img/3to2/8.png"",""time"":795},{""stimulus"":""img/3to2/9.png"",""time"":899},{""stimulus"":""img/3to2/10.png"",""time"":1000},{""stimulus"":""img/3to2/11.png"",""time"":1105},{""stimulus"":""img/3to2/12.png"",""time"":1203}]","[]"
"image-keyboard-response","170","218744","0.0-5.0-1.83","60fcd5602ff7c8f0866ecd0c","bdp_cybrbll","Sat Mar 25 2023 18:53:03 GMT-0400 (Eastern Daylight Time)","470832","3","1","","38","","","","choice","","img/2to1/1.png","1","142","440","0.5","0.1","2","1","",""
"animation","171","220038","0.0-5.0-2.83","60fcd5602ff7c8f0866ecd0c","bdp_cybrbll","Sat Mar 25 2023 18:53:03 GMT-0400 (Eastern Daylight Time)","470832","3","1","","","","","","","","","","142","","","","2","1","[{""stimulus"":""img/2to1/1.png"",""time"":102},{""stimulus"":""img/2to1/2.png"",""time"":204},{""stimulus"":""img/2to1/3.png"",""time"":308},{""stimulus"":""img/2to1/4.png"",""time"":403},{""stimulus"":""img/2to1/5.png"",""time"":503},{""stimulus"":""img/2to1/6.png"",""time"":604},{""stimulus"":""img/2to1/7.png"",""time"":704},{""stimulus"":""img/2to1/8.png"",""time"":803},{""stimulus"":""img/2to1/9.png"",""time"":903},{""stimulus"":""img/2to1/10.png"",""time"":1005},{""stimulus"":""img/2to1/11.png"",""time"":1104},{""stimulus"":""img/2to1/12.png"",""time"":1199}]","[]"
"image-keyboard-response","172","221022","0.0-5.0-1.84","60fcd5602ff7c8f0866ecd0c","bdp_cybrbll","Sat Mar 25 2023 18:53:03 GMT-0400 (Eastern Daylight Time)","470832","3","1","","null","","","","observe","","img/1to3/1.png","null","141","974","0.5","0.1","1","3","",""
"animation","173","222324","0.0-5.0-2.84","60fcd5602ff7c8f0866ecd0c","bdp_cybrbll","Sat Mar 25 2023 18:53:03 GMT-0400 (Eastern Daylight Time)","470832","3","1","","","","","","","","","","141","","","","1","3","[{""stimulus"":""img/1to3/1.png"",""time"":111},{""stimulus"":""img/1to3/2.png"",""time"":201},{""stimulus"":""img/1to3/3.png"",""time"":298},{""stimulus"":""img/1to3/4.png"",""time"":410},{""stimulus"":""img/1to3/5.png"",""time"":496},{""stimulus"":""img/1to3/6.png"",""time"":600},{""stimulus"":""img/1to3/7.png"",""time"":704},{""stimulus"":""img/1to3/8.png"",""time"":799},{""stimulus"":""img/1to3/9.png"",""time"":893},{""stimulus"":""img/1to3/10.png"",""time"":998},{""stimulus"":""img/1to3/11.png"",""time"":1099},{""stimulus"":""img/1to3/12.png"",""time"":1205}]","[]"
"image-keyboard-response","174","222517","0.0-5.0-1.85","60fcd5602ff7c8f0866ecd0c","bdp_cybrbll","Sat Mar 25 2023 18:53:03 GMT-0400 (Eastern Daylight Time)","470832","3","1","","null","","","","observe","","img/3to2/1.png","null","140","189","0.5","0.1","3","1","",""
"animation","175","223812","0.0-5.0-2.85","60fcd5602ff7c8f0866ecd0c","bdp_cybrbll","Sat Mar 25 2023 18:53:03 GMT-0400 (Eastern Daylight Time)","470832","3","1","","","","","","","","","","140","","","","3","1","[{""stimulus"":""img/3to1/1.png"",""time"":114},{""stimulus"":""img/3to1/2.png"",""time"":213},{""stimulus"":""img/3to1/3.png"",""time"":323},{""stimulus"":""img/3to1/4.png"",""time"":407},{""stimulus"":""img/3to1/5.png"",""time"":505},{""stimulus"":""img/3to1/6.png"",""time"":596},{""stimulus"":""img/3to1/7.png"",""time"":696},{""stimulus"":""img/3to1/8.png"",""time"":805},{""stimulus"":""img/3to1/9.png"",""time"":904},{""stimulus"":""img/3to1/10.png"",""time"":1005},{""stimulus"":""img/3to1/11.png"",""time"":1105},{""stimulus"":""img/3to1/12.png"",""time"":1197}]","[]"
"image-keyboard-response","176","225000","0.0-5.0-1.86","60fcd5602ff7c8f0866ecd0c","bdp_cybrbll","Sat Mar 25 2023 18:53:03 GMT-0400 (Eastern Daylight Time)","470832","3","1","","null","","","","observe","","img/1to3/1.png","null","139","1175","0.5","0.1","1","3","",""
"animation","177","226290","0.0-5.0-2.86","60fcd5602ff7c8f0866ecd0c","bdp_cybrbll","Sat Mar 25 2023 18:53:03 GMT-0400 (Eastern Daylight Time)","470832","3","1","","","","","","","","","","139","","","","1","3","[{""stimulus"":""img/1to3/1.png"",""time"":111},{""stimulus"":""img/1to3/2.png"",""time"":213},{""stimulus"":""img/1to3/3.png"",""time"":299},{""stimulus"":""img/1to3/4.png"",""time"":396},{""stimulus"":""img/1to3/5.png"",""time"":503},{""stimulus"":""img/1to3/6.png"",""time"":603},{""stimulus"":""img/1to3/7.png"",""time"":698},{""stimulus"":""img/1to3/8.png"",""time"":804},{""stimulus"":""img/1to3/9.png"",""time"":905},{""stimulus"":""img/1to3/10.png"",""time"":1004},{""stimulus"":""img/1to3/11.png"",""time"":1103},{""stimulus"":""img/1to3/12.png"",""time"":1204}]","[]"
"image-keyboard-response","178","226633","0.0-5.0-1.87","60fcd5602ff7c8f0866ecd0c","bdp_cybrbll","Sat Mar 25 2023 18:53:03 GMT-0400 (Eastern Daylight Time)","470832","3","1","","null","","","","observe","","img/3to2/1.png","null","138","329","0.5","0.1","3","1","",""
"animation","179","227931","0.0-5.0-2.87","60fcd5602ff7c8f0866ecd0c","bdp_cybrbll","Sat Mar 25 2023 18:53:03 GMT-0400 (Eastern Daylight Time)","470832","3","1","","","","","","","","","","138","","","","3","1","[{""stimulus"":""img/3to1/1.png"",""time"":111},{""stimulus"":""img/3to1/2.png"",""time"":205},{""stimulus"":""img/3to1/3.png"",""time"":305},{""stimulus"":""img/3to1/4.png"",""time"":405},{""stimulus"":""img/3to1/5.png"",""time"":506},{""stimulus"":""img/3to1/6.png"",""time"":597},{""stimulus"":""img/3to1/7.png"",""time"":698},{""stimulus"":""img/3to1/8.png"",""time"":797},{""stimulus"":""img/3to1/9.png"",""time"":898},{""stimulus"":""img/3to1/10.png"",""time"":997},{""stimulus"":""img/3to1/11.png"",""time"":1097},{""stimulus"":""img/3to1/12.png"",""time"":1203}]","[]"
"image-keyboard-response","180","228404","0.0-5.0-1.88","60fcd5602ff7c8f0866ecd0c","bdp_cybrbll","Sat Mar 25 2023 18:53:03 GMT-0400 (Eastern Daylight Time)","470832","3","1","","null","","","","observe","","img/1to3/1.png","null","137","467","0.5","0.1","1","2","",""
"animation","181","229696","0.0-5.0-2.88","60fcd5602ff7c8f0866ecd0c","bdp_cybrbll","Sat Mar 25 2023 18:53:03 GMT-0400 (Eastern Daylight Time)","470832","3","1","","","","","","","","","","137","","","","1","2","[{""stimulus"":""img/1to2/1.png"",""time"":111},{""stimulus"":""img/1to2/2.png"",""time"":201},{""stimulus"":""img/1to2/3.png"",""time"":302},{""stimulus"":""img/1to2/4.png"",""time"":397},{""stimulus"":""img/1to2/5.png"",""time"":501},{""stimulus"":""img/1to2/6.png"",""time"":603},{""stimulus"":""img/1to2/7.png"",""time"":700},{""stimulus"":""img/1to2/8.png"",""time"":800},{""stimulus"":""img/1to2/9.png"",""time"":901},{""stimulus"":""img/1to2/10.png"",""time"":1001},{""stimulus"":""img/1to2/11.png"",""time"":1099},{""stimulus"":""img/1to2/12.png"",""time"":1192}]","[]"
"image-keyboard-response","182","229792","0.0-5.0-1.89","60fcd5602ff7c8f0866ecd0c","bdp_cybrbll","Sat Mar 25 2023 18:53:03 GMT-0400 (Eastern Daylight Time)","470832","3","1","","95","","","","choice","","img/2to1/1.png","2","136","265","0.5","0.1","2","3","",""
"animation","183","231080","0.0-5.0-2.89","60fcd5602ff7c8f0866ecd0c","bdp_cybrbll","Sat Mar 25 2023 18:53:03 GMT-0400 (Eastern Daylight Time)","470832","3","1","","","","","","","","","","136","","","","2","3","[{""stimulus"":""img/2to3/1.png"",""time"":101},{""stimulus"":""img/2to3/2.png"",""time"":211},{""stimulus"":""img/2to3/3.png"",""time"":313},{""stimulus"":""img/2to3/4.png"",""time"":397},{""stimulus"":""img/2to3/5.png"",""time"":498},{""stimulus"":""img/2to3/6.png"",""time"":596},{""stimulus"":""img/2to3/7.png"",""time"":698},{""stimulus"":""img/2to3/8.png"",""time"":796},{""stimulus"":""img/2to3/9.png"",""time"":907},{""stimulus"":""img/2to3/10.png"",""time"":991},{""stimulus"":""img/2to3/11.png"",""time"":1097},{""stimulus"":""img/2to3/12.png"",""time"":1189}]","[]"
"image-keyboard-response","184","231781","0.0-5.0-1.90","60fcd5602ff7c8f0866ecd0c","bdp_cybrbll","Sat Mar 25 2023 18:53:03 GMT-0400 (Eastern Daylight Time)","470832","3","1","","null","","","","observe","","img/3to2/1.png","null","135","687","0.5","0.1","3","2","",""
"animation","185","233080","0.0-5.0-2.90","60fcd5602ff7c8f0866ecd0c","bdp_cybrbll","Sat Mar 25 2023 18:53:03 GMT-0400 (Eastern Daylight Time)","470832","3","1","","","","","","","","","","135","","","","3","2","[{""stimulus"":""img/3to2/1.png"",""time"":105},{""stimulus"":""img/3to2/2.png"",""time"":206},{""stimulus"":""img/3to2/3.png"",""time"":307},{""stimulus"":""img/3to2/4.png"",""time"":406},{""stimulus"":""img/3to2/5.png"",""time"":507},{""stimulus"":""img/3to2/6.png"",""time"":607},{""stimulus"":""img/3to2/7.png"",""time"":707},{""stimulus"":""img/3to2/8.png"",""time"":806},{""stimulus"":""img/3to2/9.png"",""time"":909},{""stimulus"":""img/3to2/10.png"",""time"":991},{""stimulus"":""img/3to2/11.png"",""time"":1101},{""stimulus"":""img/3to2/12.png"",""time"":1190}]","[]"
"image-keyboard-response","186","233372","0.0-5.0-1.91","60fcd5602ff7c8f0866ecd0c","bdp_cybrbll","Sat Mar 25 2023 18:53:03 GMT-0400 (Eastern Daylight Time)","470832","3","1","","291","","","","choice","","img/2to1/1.png","1","134","314","0.5","0.1","2","1","",""
"animation","187","234665","0.0-5.0-2.91","60fcd5602ff7c8f0866ecd0c","bdp_cybrbll","Sat Mar 25 2023 18:53:03 GMT-0400 (Eastern Daylight Time)","470832","3","1","","","","","","","","","","134","","","","2","1","[{""stimulus"":""img/2to1/1.png"",""time"":110},{""stimulus"":""img/2to1/2.png"",""time"":201},{""stimulus"":""img/2to1/3.png"",""time"":309},{""stimulus"":""img/2to1/4.png"",""time"":404},{""stimulus"":""img/2to1/5.png"",""time"":500},{""stimulus"":""img/2to1/6.png"",""time"":599},{""stimulus"":""img/2to1/7.png"",""time"":699},{""stimulus"":""img/2to1/8.png"",""time"":799},{""stimulus"":""img/2to1/9.png"",""time"":899},{""stimulus"":""img/2to1/10.png"",""time"":992},{""stimulus"":""img/2to1/11.png"",""time"":1100},{""stimulus"":""img/2to1/12.png"",""time"":1199}]","[]"
"image-keyboard-response","188","235466","0.0-5.0-1.92","60fcd5602ff7c8f0866ecd0c","bdp_cybrbll","Sat Mar 25 2023 18:53:03 GMT-0400 (Eastern Daylight Time)","470832","3","1","","null","","","","observe","","img/1to3/1.png","null","133","795","0.5","0.1","1","3","",""
"animation","189","236755","0.0-5.0-2.92","60fcd5602ff7c8f0866ecd0c","bdp_cybrbll","Sat Mar 25 2023 18:53:03 GMT-0400 (Eastern Daylight Time)","470832","3","1","","","","","","","","","","133","","","","1","3","[{""stimulus"":""img/1to3/1.png"",""time"":111},{""stimulus"":""img/1to3/2.png"",""time"":205},{""stimulus"":""img/1to3/3.png"",""time"":311},{""stimulus"":""img/1to3/4.png"",""time"":405},{""stimulus"":""img/1to3/5.png"",""time"":498},{""stimulus"":""img/1to3/6.png"",""time"":597},{""stimulus"":""img/1to3/7.png"",""time"":697},{""stimulus"":""img/1to3/8.png"",""time"":797},{""stimulus"":""img/1to3/9.png"",""time"":897},{""stimulus"":""img/1to3/10.png"",""time"":1000},{""stimulus"":""img/1to3/11.png"",""time"":1105},{""stimulus"":""img/1to3/12.png"",""time"":1204}]","[]"
"image-keyboard-response","190","237096","0.0-5.0-1.93","60fcd5602ff7c8f0866ecd0c","bdp_cybrbll","Sat Mar 25 2023 18:53:03 GMT-0400 (Eastern Daylight Time)","470832","3","1","","null","","","","observe","","img/3to2/1.png","null","132","333","0.5","0.1","3","2","",""
