"trial_type","trial_index","time_elapsed","internal_node_id","subject_id","task","startTime","totalTime","fairPartner","unfairPartner","view_history","rt","event","trial","time","trialtype","success","stimulus","key_press","throwsLeft","rtDur","pFair","pUnfair","holder","receiver","animation_sequence","responses"
"pavlovia","0","4","0.0-0.0","5efc1d4ee23e2a011ded073e","bdp_cybrbll","Sun Apr 09 2023 15:32:19 GMT-0700 (Pacific Daylight Time)","438061","1","3","","","","","","","","","","","","","","","","",""
"instructions","1","6197","0.0-1.0","5efc1d4ee23e2a011ded073e","bdp_cybrbll","Sun Apr 09 2023 15:32:19 GMT-0700 (Pacific Daylight Time)","438061","1","3","[{""page_index"":0,""viewing_time"":6192}]","6192","","","","","","","","","","","","","","",""
"","","","","5efc1d4ee23e2a011ded073e","bdp_cybrbll","Sun Apr 09 2023 15:32:19 GMT-0700 (Pacific Daylight Time)","438061","1","3","","","fullscreenenter","2","8735","fullscreenenter","","","","","","","","","","",""
"fullscreen","2","9702","0.0-2.0","5efc1d4ee23e2a011ded073e","bdp_cybrbll","Sun Apr 09 2023 15:32:19 GMT-0700 (Pacific Daylight Time)","438061","1","3","","","","","","","true","","","","","","","","","",""
"instructions","3","39999","0.0-4.0","5efc1d4ee23e2a011ded073e","bdp_cybrbll","Sun Apr 09 2023 15:32:19 GMT-0700 (Pacific Daylight Time)","438061","1","3","[{""page_index"":0,""viewing_time"":30296}]","30296","","","","","","","","","","","","","","",""
"image-keyboard-response","4","43217","0.0-5.0-1.0","5efc1d4ee23e2a011ded073e","bdp_cybrbll","Sun Apr 09 2023 15:32:19 GMT-0700 (Pacific Daylight Time)","438061","1","3","","3216","","","","choice","","img/2to1/1.png","1","225","333","0.5","0.5","2","1","",""
"animation","5","44505","0.0-5.0-2.0","5efc1d4ee23e2a011ded073e","bdp_cybrbll","Sun Apr 09 2023 15:32:19 GMT-0700 (Pacific Daylight Time)","438061","1","3","","","","","","","","","","225","","","","2","1","[{""stimulus"":""img/2to1/1.png"",""time"":100},{""stimulus"":""img/2to1/2.png"",""time"":200},{""stimulus"":""img/2to1/3.png"",""time"":298},{""stimulus"":""img/2to1/4.png"",""time"":397},{""stimulus"":""img/2to1/5.png"",""time"":496},{""stimulus"":""img/2to1/6.png"",""time"":597},{""stimulus"":""img/2to1/7.png"",""time"":694},{""stimulus"":""img/2to1/8.png"",""time"":794},{""stimulus"":""img/2to1/9.png"",""time"":892},{""stimulus"":""img/2to1/10.png"",""time"":991},{""stimulus"":""img/2to1/11.png"",""time"":1091},{""stimulus"":""img/2to1/12.png"",""time"":1190}]","[]"
"image-keyboard-response","6","44751","0.0-5.0-1.1","5efc1d4ee23e2a011ded073e","bdp_cybrbll","Sun Apr 09 2023 15:32:19 GMT-0700 (Pacific Daylight Time)","438061","1","3","","null","","","","observe","","img/1to3/1.png","null","224","243","0.5","0.5","1","3","",""
"animation","7","46039","0.0-5.0-2.1","5efc1d4ee23e2a011ded073e","bdp_cybrbll","Sun Apr 09 2023 15:32:19 GMT-0700 (Pacific Daylight Time)","438061","1","3","","","","","","","","","","224","","","","1","3","[{""stimulus"":""img/1to3/1.png"",""time"":100},{""stimulus"":""img/1to3/2.png"",""time"":200},{""stimulus"":""img/1to3/3.png"",""time"":298},{""stimulus"":""img/1to3/4.png"",""time"":397},{""stimulus"":""img/1to3/5.png"",""time"":496},{""stimulus"":""img/1to3/6.png"",""time"":596},{""stimulus"":""img/1to3/7.png"",""time"":694},{""stimulus"":""img/1to3/8.png"",""time"":792},{""stimulus"":""img/1to3/9.png"",""time"":892},{""stimulus"":""img/1to3/10.png"",""time"":991},{""stimulus"":""img/1to3/11.png"",""time"":1090},{""stimulus"":""img/1to3/12.png"",""time"":1189}]","[]"
"image-keyboard-response","8","46727","0.0-5.0-1.2","5efc1d4ee23e2a011ded073e","bdp_cybrbll","Sun Apr 09 2023 15:32:19 GMT-0700 (Pacific Daylight Time)","438061","1","3","","null","","","","observe","","img/3to2/1.png","null","223","686","0.5","0.5","3","1","",""
"animation","9","48015","0.0-5.0-2.2","5efc1d4ee23e2a011ded073e","bdp_cybrbll","Sun Apr 09 2023 15:32:19 GMT-0700 (Pacific Daylight Time)","438061","1","3","","","","","","","","","","223","","","","3","1","[{""stimulus"":""img/3to1/1.png"",""time"":99},{""stimulus"":""img/3to1/2.png"",""time"":199},{""stimulus"":""img/3to1/3.png"",""time"":299},{""stimulus"":""img/3to1/4.png"",""time"":397},{""stimulus"":""img/3to1/5.png"",""time"":496},{""stimulus"":""img/3to1/6.png"",""time"":596},{""stimulus"":""img/3to1/7.png"",""time"":694},{""stimulus"":""img/3to1/8.png"",""time"":794},{""stimulus"":""img/3to1/9.png"",""time"":892},{""stimulus"":""img/3to1/10.png"",""time"":992},{""stimulus"":""img/3to1/11.png"",""time"":1090},{""stimulus"":""img/3to1/12.png"",""time"":1189}]","[]"
"image-keyboard-response","10","48908","0.0-5.0-1.3","5efc1d4ee23e2a011ded073e","bdp_cybrbll","Sun Apr 09 2023 15:32:19 GMT-0700 (Pacific Daylight Time)","438061","1","3","","null","","","","observe","","img/1to3/1.png","null","222","892","0.5","0.5","1","2","",""
"animation","11","50196","0.0-5.0-2.3","5efc1d4ee23e2a011ded073e","bdp_cybrbll","Sun Apr 09 2023 15:32:19 GMT-0700 (Pacific Daylight Time)","438061","1","3","","","","","","","","","","222","","","","1","2","[{""stimulus"":""img/1to2/1.png"",""time"":101},{""stimulus"":""img/1to2/2.png"",""time"":199},{""stimulus"":""img/1to2/3.png"",""time"":298},{""stimulus"":""img/1to2/4.png"",""time"":398},{""stimulus"":""img/1to2/5.png"",""time"":496},{""stimulus"":""img/1to2/6.png"",""time"":596},{""stimulus"":""img/1to2/7.png"",""time"":694},{""stimulus"":""img/1to2/8.png"",""time"":793},{""stimulus"":""img/1to2/9.png"",""time"":892},{""stimulus"":""img/1to2/10.png"",""time"":991},{""stimulus"":""img/1to2/11.png"",""time"":1091},{""stimulus"":""img/1to2/12.png"",""time"":1189}]","[]"
"image-keyboard-response","12","50354","0.0-5.0-1.4","5efc1d4ee23e2a011ded073e","bdp_cybrbll","Sun Apr 09 2023 15:32:19 GMT-0700 (Pacific Daylight Time)","438061","1","3","","158","","","","choice","","img/2to1/1.png","2","221","276","0.5","0.5","2","3","",""
"animation","13","51642","0.0-5.0-2.4","5efc1d4ee23e2a011ded073e","bdp_cybrbll","Sun Apr 09 2023 15:32:19 GMT-0700 (Pacific Daylight Time)","438061","1","3","","","","","","","","","","221","","","","2","3","[{""stimulus"":""img/2to3/1.png"",""time"":100},{""stimulus"":""img/2to3/2.png"",""time"":198},{""stimulus"":""img/2to3/3.png"",""time"":298},{""stimulus"":""img/2to3/4.png"",""time"":397},{""stimulus"":""img/2to3/5.png"",""time"":495},{""stimulus"":""img/2to3/6.png"",""time"":595},{""stimulus"":""img/2to3/7.png"",""time"":693},{""stimulus"":""img/2to3/8.png"",""time"":793},{""stimulus"":""img/2to3/9.png"",""time"":891},{""stimulus"":""img/2to3/10.png"",""time"":991},{""stimulus"":""img/2to3/11.png"",""time"":1089},{""stimulus"":""img/2to3/12.png"",""time"":1189}]","[]"
"image-keyboard-response","14","52018","0.0-5.0-1.5","5efc1d4ee23e2a011ded073e","bdp_cybrbll","Sun Apr 09 2023 15:32:19 GMT-0700 (Pacific Daylight Time)","438061","1","3","","null","","","","observe","","img/3to2/1.png","null","220","375","0.5","0.5","3","2","",""
"animation","15","53307","0.0-5.0-2.5","5efc1d4ee23e2a011ded073e","bdp_cybrbll","Sun Apr 09 2023 15:32:19 GMT-0700 (Pacific Daylight Time)","438061","1","3","","","","","","","","","","220","","","","3","2","[{""stimulus"":""img/3to2/1.png"",""time"":102},{""stimulus"":""img/3to2/2.png"",""time"":199},{""stimulus"":""img/3to2/3.png"",""time"":298},{""stimulus"":""img/3to2/4.png"",""time"":397},{""stimulus"":""img/3to2/5.png"",""time"":497},{""stimulus"":""img/3to2/6.png"",""time"":595},{""stimulus"":""img/3to2/7.png"",""time"":694},{""stimulus"":""img/3to2/8.png"",""time"":794},{""stimulus"":""img/3to2/9.png"",""time"":893},{""stimulus"":""img/3to2/10.png"",""time"":992},{""stimulus"":""img/3to2/11.png"",""time"":1090},{""stimulus"":""img/3to2/12.png"",""time"":1189}]","[]"
"image-keyboard-response","16","53830","0.0-5.0-1.6","5efc1d4ee23e2a011ded073e","bdp_cybrbll","Sun Apr 09 2023 15:32:19 GMT-0700 (Pacific Daylight Time)","438061","1","3","","523","","","","choice","","img/2to1/1.png","2","219","591","0.5","0.5","2","3","",""
"animation","17","55119","0.0-5.0-2.6","5efc1d4ee23e2a011ded073e","bdp_cybrbll","Sun Apr 09 2023 15:32:19 GMT-0700 (Pacific Daylight Time)","438061","1","3","","","","","","","","","","219","","","","2","3","[{""stimulus"":""img/2to3/1.png"",""time"":100},{""stimulus"":""img/2to3/2.png"",""time"":200},{""stimulus"":""img/2to3/3.png"",""time"":299},{""stimulus"":""img/2to3/4.png"",""time"":397},{""stimulus"":""img/2to3/5.png"",""time"":496},{""stimulus"":""img/2to3/6.png"",""time"":596},{""stimulus"":""img/2to3/7.png"",""time"":694},{""stimulus"":""img/2to3/8.png"",""time"":793},{""stimulus"":""img/2to3/9.png"",""time"":892},{""stimulus"":""img/2to3/10.png"",""time"":991},{""stimulus"":""img/2to3/11.png"",""time"":1090},{""stimulus"":""img/2to3/12.png"",""time"":1190}]","[]"
"image-keyboard-response","18","55351","0.0-5.0-1.7","5efc1d4ee23e2a011ded073e","bdp_cybrbll","Sun Apr 09 2023 15:32:19 GMT-0700 (Pacific Daylight Time)","438061","1","3","","null","","","","observe","","img/3to2/1.png","null","218","230","0.5","0.5","3","2","",""
"animation","19","56639","0.0-5.0-2.7","5efc1d4ee23e2a011ded073e","bdp_cybrbll","Sun Apr 09 2023 15:32:19 GMT-0700 (Pacific Daylight Time)","438061","1","3","","","","","","","","","","218","","","","3","2","[{""stimulus"":""img/3to2/1.png"",""time"":99},{""stimulus"":""img/3to2/2.png"",""time"":198},{""stimulus"":""img/3to2/3.png"",""time"":298},{""stimulus"":""img/3to2/4.png"",""time"":397},{""stimulus"":""img/3to2/5.png"",""time"":495},{""stimulus"":""img/3to2/6.png"",""time"":595},{""stimulus"":""img/3to2/7.png"",""time"":694},{""stimulus"":""img/3to2/8.png"",""time"":794},{""stimulus"":""img/3to2/9.png"",""time"":892},{""stimulus"":""img/3to2/10.png"",""time"":990},{""stimulus"":""img/3to2/11.png"",""time"":1090},{""stimulus"":""img/3to2/12.png"",""time"":1189}]","[]"
"image-keyboard-response","20","56954","0.0-5.0-1.8","5efc1d4ee23e2a011ded073e","bdp_cybrbll","Sun Apr 09 2023 15:32:19 GMT-0700 (Pacific Daylight Time)","438061","1","3","","315","","","","choice","","img/2to1/1.png","1","217","877","0.5","0.5","2","1","",""
"animation","21","58242","0.0-5.0-2.8","5efc1d4ee23e2a011ded073e","bdp_cybrbll","Sun Apr 09 2023 15:32:19 GMT-0700 (Pacific Daylight Time)","438061","1","3","","","","","","","","","","217","","","","2","1","[{""stimulus"":""img/2to1/1.png"",""time"":100},{""stimulus"":""img/2to1/2.png"",""time"":199},{""stimulus"":""img/2to1/3.png"",""time"":298},{""stimulus"":""img/2to1/4.png"",""time"":398},{""stimulus"":""img/2to1/5.png"",""time"":496},{""stimulus"":""img/2to1/6.png"",""time"":596},{""stimulus"":""img/2to1/7.png"",""time"":694},{""stimulus"":""img/2to1/8.png"",""time"":794},{""stimulus"":""img/2to1/9.png"",""time"":892},{""stimulus"":""img/2to1/10.png"",""time"":992},{""stimulus"":""img/2to1/11.png"",""time"":1090},{""stimulus"":""img/2to1/12.png"",""time"":1189}]","[]"
"image-keyboard-response","22","58547","0.0-5.0-1.9","5efc1d4ee23e2a011ded073e","bdp_cybrbll","Sun Apr 09 2023 15:32:19 GMT-0700 (Pacific Daylight Time)","438061","1","3","","null","","","","observe","","img/1to3/1.png","null","216","304","0.5","0.5","1","3","",""
"animation","23","59836","0.0-5.0-2.9","5efc1d4ee23e2a011ded073e","bdp_cybrbll","Sun Apr 09 2023 15:32:19 GMT-0700 (Pacific Daylight Time)","438061","1","3","","","","","","","","","","216","","","","1","3","[{""stimulus"":""img/1to3/1.png"",""time"":100},{""stimulus"":""img/1to3/2.png"",""time"":199},{""stimulus"":""img/1to3/3.png"",""time"":299},{""stimulus"":""img/1to3/4.png"",""time"":397},{""stimulus"":""img/1to3/5.png"",""time"":496},{""stimulus"":""img/1to3/6.png"",""time"":596},{""stimulus"":""img/1to3/7.png"",""time"":696},{""stimulus"":""img/1to3/8.png"",""time"":793},{""stimulus"":""img/1to3/9.png"",""time"":892},{""stimulus"":""img/1to3/10.png"",""time"":992},{""stimulus"":""img/1to3/11.png"",""time"":1090},{""stimulus"":""img/1to3/12.png"",""time"":1189}]","[]"
"image-keyboard-response","24","61105","0.0-5.0-1.10","5efc1d4ee23e2a011ded073e","bdp_cybrbll","Sun Apr 09 2023 15:32:19 GMT-0700 (Pacific Daylight Time)","438061","1","3","","null","","","","observe","","img/3to2/1.png","null","215","1268","0.5","0.5","3","1","",""
"animation","25","62394","0.0-5.0-2.10","5efc1d4ee23e2a011ded073e","bdp_cybrbll","Sun Apr 09 2023 15:32:19 GMT-0700 (Pacific Daylight Time)","438061","1","3","","","","","","","","","","215","","","","3","1","[{""stimulus"":""img/3to1/1.png"",""time"":100},{""stimulus"":""img/3to1/2.png"",""time"":198},{""stimulus"":""img/3to1/3.png"",""time"":298},{""stimulus"":""img/3to1/4.png"",""time"":397},{""stimulus"":""img/3to1/5.png"",""time"":495},{""stimulus"":""img/3to1/6.png"",""time"":595},{""stimulus"":""img/3to1/7.png"",""time"":694},{""stimulus"":""img/3to1/8.png"",""time"":792},{""stimulus"":""img/3to1/9.png"",""time"":891},{""stimulus"":""img/3to1/10.png"",""time"":991},{""stimulus"":""img/3to1/11.png"",""time"":1090},{""stimulus"":""img/3to1/12.png"",""time"":1188}]","[]"
"image-keyboard-response","26","62570","0.0-5.0-1.11","5efc1d4ee23e2a011ded073e","bdp_cybrbll","Sun Apr 09 2023 15:32:19 GMT-0700 (Pacific Daylight Time)","438061","1","3","","null","","","","observe","","img/1to3/1.png","null","214","175","0.5","0.5","1","2","",""
"animation","27","63859","0.0-5.0-2.11","5efc1d4ee23e2a011ded073e","bdp_cybrbll","Sun Apr 09 2023 15:32:19 GMT-0700 (Pacific Daylight Time)","438061","1","3","","","","","","","","","","214","","","","1","2","[{""stimulus"":""img/1to2/1.png"",""time"":100},{""stimulus"":""img/1to2/2.png"",""time"":199},{""stimulus"":""img/1to2/3.png"",""time"":298},{""stimulus"":""img/1to2/4.png"",""time"":398},{""stimulus"":""img/1to2/5.png"",""time"":496},{""stimulus"":""img/1to2/6.png"",""time"":596},{""stimulus"":""img/1to2/7.png"",""time"":694},{""stimulus"":""img/1to2/8.png"",""time"":794},{""stimulus"":""img/1to2/9.png"",""time"":893},{""stimulus"":""img/1to2/10.png"",""time"":993},{""stimulus"":""img/1to2/11.png"",""time"":1090},{""stimulus"":""img/1to2/12.png"",""time"":1189}]","[]"
"image-keyboard-response","28","64223","0.0-5.0-1.12","5efc1d4ee23e2a011ded073e","bdp_cybrbll","Sun Apr 09 2023 15:32:19 GMT-0700 (Pacific Daylight Time)","438061","1","3","","364","","","","choice","","img/2to1/1.png","2","213","527","0.5","0.5","2","3","",""
"animation","29","65511","0.0-5.0-2.12","5efc1d4ee23e2a011ded073e","bdp_cybrbll","Sun Apr 09 2023 15:32:19 GMT-0700 (Pacific Daylight Time)","438061","1","3","","","","","","","","","","213","","","","2","3","[{""stimulus"":""img/2to3/1.png"",""time"":101},{""stimulus"":""img/2to3/2.png"",""time"":199},{""stimulus"":""img/2to3/3.png"",""time"":298},{""stimulus"":""img/2to3/4.png"",""time"":397},{""stimulus"":""img/2to3/5.png"",""time"":497},{""stimulus"":""img/2to3/6.png"",""time"":595},{""stimulus"":""img/2to3/7.png"",""time"":695},{""stimulus"":""img/2to3/8.png"",""time"":794},{""stimulus"":""img/2to3/9.png"",""time"":893},{""stimulus"":""img/2to3/10.png"",""time"":991},{""stimulus"":""img/2to3/11.png"",""time"":1091},{""stimulus"":""img/2to3/12.png"",""time"":1189}]","[]"
"image-keyboard-response","30","66447","0.0-5.0-1.13","5efc1d4ee23e2a011ded073e","bdp_cybrbll","Sun Apr 09 2023 15:32:19 GMT-0700 (Pacific Daylight Time)","438061","1","3","","null","","","","observe","","img/3to2/1.png","null","212","935","0.5","0.5","3","2","",""
"animation","31","67735","0.0-5.0-2.13","5efc1d4ee23e2a011ded073e","bdp_cybrbll","Sun Apr 09 2023 15:32:19 GMT-0700 (Pacific Daylight Time)","438061","1","3","","","","","","","","","","212","","","","3","2","[{""stimulus"":""img/3to2/1.png"",""time"":100},{""stimulus"":""img/3to2/2.png"",""time"":199},{""stimulus"":""img/3to2/3.png"",""time"":298},{""stimulus"":""img/3to2/4.png"",""time"":398},{""stimulus"":""img/3to2/5.png"",""time"":496},{""stimulus"":""img/3to2/6.png"",""time"":596},{""stimulus"":""img/3to2/7.png"",""time"":694},{""stimulus"":""img/3to2/8.png"",""time"":793},{""stimulus"":""img/3to2/9.png"",""time"":893},{""stimulus"":""img/3to2/10.png"",""time"":992},{""stimulus"":""img/3to2/11.png"",""time"":1090},{""stimulus"":""img/3to2/12.png"",""time"":1190}]","[]"
"image-keyboard-response","32","67745","0.0-5.0-1.14","5efc1d4ee23e2a011ded073e","bdp_cybrbll","Sun Apr 09 2023 15:32:19 GMT-0700 (Pacific Daylight Time)","438061","1","3","","9","","","","choice","","img/2to1/1.png","1","211","196","0.5","0.5","2","1","",""
"animation","33","69034","0.0-5.0-2.14","5efc1d4ee23e2a011ded073e","bdp_cybrbll","Sun Apr 09 2023 15:32:19 GMT-0700 (Pacific Daylight Time)","438061","1","3","","","","","","","","","","211","","","","2","1","[{""stimulus"":""img/2to1/1.png"",""time"":100},{""stimulus"":""img/2to1/2.png"",""time"":198},{""stimulus"":""img/2to1/3.png"",""time"":298},{""stimulus"":""img/2to1/4.png"",""time"":396},{""stimulus"":""img/2to1/5.png"",""time"":496},{""stimulus"":""img/2to1/6.png"",""time"":594},{""stimulus"":""img/2to1/7.png"",""time"":693},{""stimulus"":""img/2to1/8.png"",""time"":794},{""stimulus"":""img/2to1/9.png"",""time"":892},{""stimulus"":""img/2to1/10.png"",""time"":992},{""stimulus"":""img/2to1/11.png"",""time"":1090},{""stimulus"":""img/2to1/12.png"",""time"":1189}]","[]"
"image-keyboard-response","34","69458","0.0-5.0-1.15","5efc1d4ee23e2a011ded073e","bdp_cybrbll","Sun Apr 09 2023 15:32:19 GMT-0700 (Pacific Daylight Time)","438061","1","3","","null","","","","observe","","img/1to3/1.png","null","210","422","0.5","0.5","1","2","",""
"animation","35","70746","0.0-5.0-2.15","5efc1d4ee23e2a011ded073e","bdp_cybrbll","Sun Apr 09 2023 15:32:19 GMT-0700 (Pacific Daylight Time)","438061","1","3","","","","","","","","","","210","","","","1","2","[{""stimulus"":""img/1to2/1.png"",""time"":102},{""stimulus"":""img/1to2/2.png"",""time"":200},{""stimulus"":""img/1to2/3.png"",""time"":299},{""stimulus"":""img/1to2/4.png"",""time"":398},{""stimulus"":""img/1to2/5.png"",""time"":498},{""stimulus"":""img/1to2/6.png"",""time"":596},{""stimulus"":""img/1to2/7.png"",""time"":695},{""stimulus"":""img/1to2/8.png"",""time"":795},{""stimulus"":""img/1to2/9.png"",""time"":892},{""stimulus"":""img/1to2/10.png"",""time"":992},{""stimulus"":""img/1to2/11.png"",""time"":1091},{""stimulus"":""img/1to2/12.png"",""time"":1190}]","[]"
"image-keyboard-response","36","70919","0.0-5.0-1.16","5efc1d4ee23e2a011ded073e","bdp_cybrbll","Sun Apr 09 2023 15:32:19 GMT-0700 (Pacific Daylight Time)","438061","1","3","","172","","","","choice","","img/2to1/1.png","2","209","283","0.5","0.5","2","3","",""
"animation","37","72207","0.0-5.0-2.16","5efc1d4ee23e2a011ded073e","bdp_cybrbll","Sun Apr 09 2023 15:32:19 GMT-0700 (Pacific Daylight Time)","438061","1","3","","","","","","","","","","209","","","","2","3","[{""stimulus"":""img/2to3/1.png"",""time"":100},{""stimulus"":""img/2to3/2.png"",""time"":199},{""stimulus"":""img/2to3/3.png"",""time"":299},{""stimulus"":""img/2to3/4.png"",""time"":397},{""stimulus"":""img/2to3/5.png"",""time"":496},{""stimulus"":""img/2to3/6.png"",""time"":595},{""stimulus"":""img/2to3/7.png"",""time"":695},{""stimulus"":""img/2to3/8.png"",""time"":794},{""stimulus"":""img/2to3/9.png"",""time"":892},{""stimulus"":""img/2to3/10.png"",""time"":992},{""stimulus"":""img/2to3/11.png"",""time"":1090},{""stimulus"":""img/2to3/12.png"",""time"":1190}]","[]"
"image-keyboard-response","38","72508","0.0-5.0-1.17","5efc1d4ee23e2a011ded073e","bdp_cybrbll","Sun Apr 09 2023 15:32:19 GMT-0700 (Pacific Daylight Time)","438061","1","3","","null","","","","observe","","img/3to2/1.png","null","208","300","0.5","0.5","3","1","",""
"animation","39","73796","0.0-5.0-2.17","5efc1d4ee23e2a011ded073e","bdp_cybrbll","Sun Apr 09 2023 15:32:19 GMT-0700 (Pacific Daylight Time)","438061","1","3","","","","","","","","","","208","","","","3","1","[{""stimulus"":""img/3to1/1.png"",""time"":99},{""stimulus"":""img/3to1/2.png"",""time"":199},{""stimulus"":""img/3to1/3.png"",""time"":298},{""stimulus"":""img/3to1/4.png"",""time"":396},{""stimulus"":""img/3to1/5.png"",""time"":496},{""stimulus"":""img/3to1/6.png"",""time"":596},{""stimulus"":""img/3to1/7.png"",""time"":693},{""stimulus"":""img/3to1/8.png"",""time"":793},{""stimulus"":""img/3to1/9.png"",""time"":892},{""stimulus"":""img/3to1/10.png"",""time"":991},{""stimulus"":""img/3to1/11.png"",""time"":1089},{""stimulus"":""img/3to1/12.png"",""time"":1189}]","[]"
"image-keyboard-response","40","74017","0.0-5.0-1.18","5efc1d4ee23e2a011ded073e","bdp_cybrbll","Sun Apr 09 2023 15:32:19 GMT-0700 (Pacific Daylight Time)","438061","1","3","","null","","","","observe","","img/1to3/1.png","null","207","218","0.5","0.5","1","3","",""
"animation","41","75305","0.0-5.0-2.18","5efc1d4ee23e2a011ded073e","bdp_cybrbll","Sun Apr 09 2023 15:32:19 GMT-0700 (Pacific Daylight Time)","438061","1","3","","","","","","","","","","207","","","","1","3","[{""stimulus"":""img/1to3/1.png"",""time"":101},{""stimulus"":""img/1to3/2.png"",""time"":199},{""stimulus"":""img/1to3/3.png"",""time"":299},{""stimulus"":""img/1to3/4.png"",""time"":398},{""stimulus"":""img/1to3/5.png"",""time"":496},{""stimulus"":""img/1to3/6.png"",""time"":595},{""stimulus"":""img/1to3/7.png"",""time"":694},{""stimulus"":""img/1to3/8.png"",""time"":793},{""stimulus"":""img/1to3/9.png"",""time"":892},{""stimulus"":""img/1to3/10.png"",""time"":991},{""stimulus"":""img/1to3/11.png"",""time"":1090},{""stimulus"":""img/1to3/12.png"",""time"":1189}]","[]"
"image-keyboard-response","42","75717","0.0-5.0-1.19","5efc1d4ee23e2a011ded073e","bdp_cybrbll","Sun Apr 09 2023 15:32:19 GMT-0700 (Pacific Daylight Time)","438061","1","3","","null","","","","observe","","img/3to2/1.png","null","206","410","0.5","0.5","3","1","",""
"animation","43","77004","0.0-5.0-2.19","5efc1d4ee23e2a011ded073e","bdp_cybrbll","Sun Apr 09 2023 15:32:19 GMT-0700 (Pacific Daylight Time)","438061","1","3","","","","","","","","","","206","","","","3","1","[{""stimulus"":""img/3to1/1.png"",""time"":100},{""stimulus"":""img/3to1/2.png"",""time"":200},{""stimulus"":""img/3to1/3.png"",""time"":299},{""stimulus"":""img/3to1/4.png"",""time"":397},{""stimulus"":""img/3to1/5.png"",""time"":496},{""stimulus"":""img/3to1/6.png"",""time"":596},{""stimulus"":""img/3to1/7.png"",""time"":695},{""stimulus"":""img/3to1/8.png"",""time"":793},{""stimulus"":""img/3to1/9.png"",""time"":892},{""stimulus"":""img/3to1/10.png"",""time"":991},{""stimulus"":""img/3to1/11.png"",""time"":1090},{""stimulus"":""img/3to1/12.png"",""time"":1189}]","[]"
"image-keyboard-response","44","77376","0.0-5.0-1.20","5efc1d4ee23e2a011ded073e","bdp_cybrbll","Sun Apr 09 2023 15:32:19 GMT-0700 (Pacific Daylight Time)","438061","1","3","","null","","","","observe","","img/1to3/1.png","null","205","370","0.5","0.5","1","3","",""
"animation","45","78663","0.0-5.0-2.20","5efc1d4ee23e2a011ded073e","bdp_cybrbll","Sun Apr 09 2023 15:32:19 GMT-0700 (Pacific Daylight Time)","438061","1","3","","","","","","","","","","205","","","","1","3","[{""stimulus"":""img/1to3/1.png"",""time"":100},{""stimulus"":""img/1to3/2.png"",""time"":199},{""stimulus"":""img/1to3/3.png"",""time"":299},{""stimulus"":""img/1to3/4.png"",""time"":398},{""stimulus"":""img/1to3/5.png"",""time"":496},{""stimulus"":""img/1to3/6.png"",""time"":595},{""stimulus"":""img/1to3/7.png"",""time"":694},{""stimulus"":""img/1to3/8.png"",""time"":793},{""stimulus"":""img/1to3/9.png"",""time"":892},{""stimulus"":""img/1to3/10.png"",""time"":991},{""stimulus"":""img/1to3/11.png"",""time"":1090},{""stimulus"":""img/1to3/12.png"",""time"":1190}]","[]"
"image-keyboard-response","46","79104","0.0-5.0-1.21","5efc1d4ee23e2a011ded073e","bdp_cybrbll","Sun Apr 09 2023 15:32:19 GMT-0700 (Pacific Daylight Time)","438061","1","3","","null","","","","observe","","img/3to2/1.png","null","204","440","0.5","0.5","3","2","",""
"animation","47","80393","0.0-5.0-2.21","5efc1d4ee23e2a011ded073e","bdp_cybrbll","Sun Apr 09 2023 15:32:19 GMT-0700 (Pacific Daylight Time)","438061","1","3","","","","","","","","","","204","","","","3","2","[{""stimulus"":""img/3to2/1.png"",""time"":100},{""stimulus"":""img/3to2/2.png"",""time"":198},{""stimulus"":""img/3to2/3.png"",""time"":297},{""stimulus"":""img/3to2/4.png"",""time"":398},{""stimulus"":""img/3to2/5.png"",""time"":495},{""stimulus"":""img/3to2/6.png"",""time"":595},{""stimulus"":""img/3to2/7.png"",""time"":694},{""stimulus"":""img/3to2/8.png"",""time"":792},{""stimulus"":""img/3to2/9.png"",""time"":892},{""stimulus"":""img/3to2/10.png"",""time"":990},{""stimulus"":""img/3to2/11.png"",""time"":1089},{""stimulus"":""img/3to2/12.png"",""time"":1189}]","[]"
"image-keyboard-response","48","80894","0.0-5.0-1.22","5efc1d4ee23e2a011ded073e","bdp_cybrbll","Sun Apr 09 2023 15:32:19 GMT-0700 (Pacific Daylight Time)","438061","1","3","","498","","","","choice","","img/2to1/1.png","2","203","619","0.5","0.5","2","3","",""
"animation","49","82182","0.0-5.0-2.22","5efc1d4ee23e2a011ded073e","bdp_cybrbll","Sun Apr 09 2023 15:32:19 GMT-0700 (Pacific Daylight Time)","438061","1","3","","","","","","","","","","203","","","","2","3","[{""stimulus"":""img/2to3/1.png"",""time"":100},{""stimulus"":""img/2to3/2.png"",""time"":200},{""stimulus"":""img/2to3/3.png"",""time"":298},{""stimulus"":""img/2to3/4.png"",""time"":397},{""stimulus"":""img/2to3/5.png"",""time"":497},{""stimulus"":""img/2to3/6.png"",""time"":596},{""stimulus"":""img/2to3/7.png"",""time"":694},{""stimulus"":""img/2to3/8.png"",""time"":795},{""stimulus"":""img/2to3/9.png"",""time"":892},{""stimulus"":""img/2to3/10.png"",""time"":991},{""stimulus"":""img/2to3/11.png"",""time"":1089},{""stimulus"":""img/2to3/12.png"",""time"":1190}]","[]"
"image-keyboard-response","50","82434","0.0-5.0-1.23","5efc1d4ee23e2a011ded073e","bdp_cybrbll","Sun Apr 09 2023 15:32:19 GMT-0700 (Pacific Daylight Time)","438061","1","3","","null","","","","observe","","img/3to2/1.png","null","202","249","0.5","0.5","3","2","",""
"animation","51","83723","0.0-5.0-2.23","5efc1d4ee23e2a011ded073e","bdp_cybrbll","Sun Apr 09 2023 15:32:19 GMT-0700 (Pacific Daylight Time)","438061","1","3","","","","","","","","","","202","","","","3","2","[{""stimulus"":""img/3to2/1.png"",""time"":101},{""stimulus"":""img/3to2/2.png"",""time"":201},{""stimulus"":""img/3to2/3.png"",""time"":298},{""stimulus"":""img/3to2/4.png"",""time"":399},{""stimulus"":""img/3to2/5.png"",""time"":496},{""stimulus"":""img/3to2/6.png"",""time"":596},{""stimulus"":""img/3to2/7.png"",""time"":695},{""stimulus"":""img/3to2/8.png"",""time"":795},{""stimulus"":""img/3to2/9.png"",""time"":892},{""stimulus"":""img/3to2/10.png"",""time"":994},{""stimulus"":""img/3to2/11.png"",""time"":1090},{""stimulus"":""img/3to2/12.png"",""time"":1191}]","[]"
"image-keyboard-response","52","83922","0.0-5.0-1.24","5efc1d4ee23e2a011ded073e","bdp_cybrbll","Sun Apr 09 2023 15:32:19 GMT-0700 (Pacific Daylight Time)","438061","1","3","","197","","","","choice","","img/2to1/1.png","1","201","388","0.5","0.5","2","1","",""
"animation","53","85210","0.0-5.0-2.24","5efc1d4ee23e2a011ded073e","bdp_cybrbll","Sun Apr 09 2023 15:32:19 GMT-0700 (Pacific Daylight Time)","438061","1","3","","","","","","","","","","201","","","","2","1","[{""stimulus"":""img/2to1/1.png"",""time"":102},{""stimulus"":""img/2to1/2.png"",""time"":200},{""stimulus"":""img/2to1/3.png"",""time"":298},{""stimulus"":""img/2to1/4.png"",""time"":398},{""stimulus"":""img/2to1/5.png"",""time"":497},{""stimulus"":""img/2to1/6.png"",""time"":597},{""stimulus"":""img/2to1/7.png"",""time"":695},{""stimulus"":""img/2to1/8.png"",""time"":794},{""stimulus"":""img/2to1/9.png"",""time"":894},{""stimulus"":""img/2to1/10.png"",""time"":991},{""stimulus"":""img/2to1/11.png"",""time"":1106},{""stimulus"":""img/2to1/12.png"",""time"":1190}]","[]"
"image-keyboard-response","54","85571","0.0-5.0-1.25","5efc1d4ee23e2a011ded073e","bdp_cybrbll","Sun Apr 09 2023 15:32:19 GMT-0700 (Pacific Daylight Time)","438061","1","3","","null","","","","observe","","img/1to3/1.png","null","200","358","0.5","0.5","1","3","",""
"animation","55","86860","0.0-5.0-2.25","5efc1d4ee23e2a011ded073e","bdp_cybrbll","Sun Apr 09 2023 15:32:19 GMT-0700 (Pacific Daylight Time)","438061","1","3","","","","","","","","","","200","","","","1","3","[{""stimulus"":""img/1to3/1.png"",""time"":101},{""stimulus"":""img/1to3/2.png"",""time"":198},{""stimulus"":""img/1to3/3.png"",""time"":298},{""stimulus"":""img/1to3/4.png"",""time"":397},{""stimulus"":""img/1to3/5.png"",""time"":496},{""stimulus"":""img/1to3/6.png"",""time"":596},{""stimulus"":""img/1to3/7.png"",""time"":694},{""stimulus"":""img/1to3/8.png"",""time"":794},{""stimulus"":""img/1to3/9.png"",""time"":893},{""stimulus"":""img/1to3/10.png"",""time"":991},{""stimulus"":""img/1to3/11.png"",""time"":1090},{""stimulus"":""img/1to3/12.png"",""time"":1188}]","[]"
"image-keyboard-response","56","88050","0.0-5.0-1.26","5efc1d4ee23e2a011ded073e","bdp_cybrbll","Sun Apr 09 2023 15:32:19 GMT-0700 (Pacific Daylight Time)","438061","1","3","","null","","","","observe","","img/3to2/1.png","null","199","1188","0.5","0.5","3","1","",""
"animation","57","89337","0.0-5.0-2.26","5efc1d4ee23e2a011ded073e","bdp_cybrbll","Sun Apr 09 2023 15:32:19 GMT-0700 (Pacific Daylight Time)","438061","1","3","","","","","","","","","","199","","","","3","1","[{""stimulus"":""img/3to1/1.png"",""time"":101},{""stimulus"":""img/3to1/2.png"",""time"":200},{""stimulus"":""img/3to1/3.png"",""time"":297},{""stimulus"":""img/3to1/4.png"",""time"":397},{""stimulus"":""img/3to1/5.png"",""time"":495},{""stimulus"":""img/3to1/6.png"",""time"":595},{""stimulus"":""img/3to1/7.png"",""time"":694},{""stimulus"":""img/3to1/8.png"",""time"":793},{""stimulus"":""img/3to1/9.png"",""time"":892},{""stimulus"":""img/3to1/10.png"",""time"":991},{""stimulus"":""img/3to1/11.png"",""time"":1090},{""stimulus"":""img/3to1/12.png"",""time"":1189}]","[]"
"image-keyboard-response","58","89779","0.0-5.0-1.27","5efc1d4ee23e2a011ded073e","bdp_cybrbll","Sun Apr 09 2023 15:32:19 GMT-0700 (Pacific Daylight Time)","438061","1","3","","null","","","","observe","","img/1to3/1.png","null","198","440","0.5","0.5","1","2","",""
"animation","59","91067","0.0-5.0-2.27","5efc1d4ee23e2a011ded073e","bdp_cybrbll","Sun Apr 09 2023 15:32:19 GMT-0700 (Pacific Daylight Time)","438061","1","3","","","","","","","","","","198","","","","1","2","[{""stimulus"":""img/1to2/1.png"",""time"":99},{""stimulus"":""img/1to2/2.png"",""time"":198},{""stimulus"":""img/1to2/3.png"",""time"":300},{""stimulus"":""img/1to2/4.png"",""time"":397},{""stimulus"":""img/1to2/5.png"",""time"":496},{""stimulus"":""img/1to2/6.png"",""time"":595},{""stimulus"":""img/1to2/7.png"",""time"":694},{""stimulus"":""img/1to2/8.png"",""time"":793},{""stimulus"":""img/1to2/9.png"",""time"":892},{""stimulus"":""img/1to2/10.png"",""time"":991},{""stimulus"":""img/1to2/11.png"",""time"":1090},{""stimulus"":""img/1to2/12.png"",""time"":1188}]","[]"
"image-keyboard-response","60","91201","0.0-5.0-1.28","5efc1d4ee23e2a011ded073e","bdp_cybrbll","Sun Apr 09 2023 15:32:19 GMT-0700 (Pacific Daylight Time)","438061","1","3","","134","","","","choice","","img/2to1/1.png","1","197","262","0.5","0.5","2","1","",""
"animation","61","92488","0.0-5.0-2.28","5efc1d4ee23e2a011ded073e","bdp_cybrbll","Sun Apr 09 2023 15:32:19 GMT-0700 (Pacific Daylight Time)","438061","1","3","","","","","","","","","","197","","","","2","1","[{""stimulus"":""img/2to1/1.png"",""time"":100},{""stimulus"":""img/2to1/2.png"",""time"":200},{""stimulus"":""img/2to1/3.png"",""time"":298},{""stimulus"":""img/2to1/4.png"",""time"":397},{""stimulus"":""img/2to1/5.png"",""time"":497},{""stimulus"":""img/2to1/6.png"",""time"":595},{""stimulus"":""img/2to1/7.png"",""time"":694},{""stimulus"":""img/2to1/8.png"",""time"":794},{""stimulus"":""img/2to1/9.png"",""time"":892},{""stimulus"":""img/2to1/10.png"",""time"":993},{""stimulus"":""img/2to1/11.png"",""time"":1091},{""stimulus"":""img/2to1/12.png"",""time"":1189}]","[]"
"image-keyboard-response","62","92815","0.0-5.0-1.29","5efc1d4ee23e2a011ded073e","bdp_cybrbll","Sun Apr 09 2023 15:32:19 GMT-0700 (Pacific Daylight Time)","438061","1","3","","null","","","","observe","","img/1to3/1.png","null","196","325","0.5","0.5","1","2","",""
"animation","63","94103","0.0-5.0-2.29","5efc1d4ee23e2a011ded073e","bdp_cybrbll","Sun Apr 09 2023 15:32:19 GMT-0700 (Pacific Daylight Time)","438061","1","3","","","","","","","","","","196","","","","1","2","[{""stimulus"":""img/1to2/1.png"",""time"":102},{""stimulus"":""img/1to2/2.png"",""time"":199},{""stimulus"":""img/1to2/3.png"",""time"":299},{""stimulus"":""img/1to2/4.png"",""time"":398},{""stimulus"":""img/1to2/5.png"",""time"":496},{""stimulus"":""img/1to2/6.png"",""time"":596},{""stimulus"":""img/1to2/7.png"",""time"":694},{""stimulus"":""img/1to2/8.png"",""time"":793},{""stimulus"":""img/1to2/9.png"",""time"":893},{""stimulus"":""img/1to2/10.png"",""time"":991},{""stimulus"":""img/1to2/11.png"",""time"":1091},{""stimulus"":""img/1to2/12.png"",""time"":1189}]","[]"
"image-keyboard-response","64","94522","0.0-5.0-1.30","5efc1d4ee23e2a011ded073e","bdp_cybrbll","Sun Apr 09 2023 15:32:19 GMT-0700 (Pacific Daylight Time)","438061","1","3","","418","","","","choice","","img/2to1/1.png","2","195","923","0.5","0.5","2","3","",""
"animation","65","95811","0.0-5.0-2.30","5efc1d4ee23e2a011ded073e","bdp_cybrbll","Sun Apr 09 2023 15:32:19 GMT-0700 (Pacific Daylight Time)","438061","1","3","","","","","","","","","","195","","","","2","3","[{""stimulus"":""img/2to3/1.png"",""time"":99},{""stimulus"":""img/2to3/2.png"",""time"":200},{""stimulus"":""img/2to3/3.png"",""time"":298},{""stimulus"":""img/2to3/4.png"",""time"":397},{""stimulus"":""img/2to3/5.png"",""time"":496},{""stimulus"":""img/2to3/6.png"",""time"":594},{""stimulus"":""img/2to3/7.png"",""time"":693},{""stimulus"":""img/2to3/8.png"",""time"":793},{""stimulus"":""img/2to3/9.png"",""time"":892},{""stimulus"":""img/2to3/10.png"",""time"":991},{""stimulus"":""img/2to3/11.png"",""time"":1089},{""stimulus"":""img/2to3/12.png"",""time"":1188}]","[]"
"image-keyboard-response","66","96245","0.0-5.0-1.31","5efc1d4ee23e2a011ded073e","bdp_cybrbll","Sun Apr 09 2023 15:32:19 GMT-0700 (Pacific Daylight Time)","438061","1","3","","null","","","","observe","","img/3to2/1.png","null","194","432","0.5","0.5","3","2","",""
"animation","67","97533","0.0-5.0-2.31","5efc1d4ee23e2a011ded073e","bdp_cybrbll","Sun Apr 09 2023 15:32:19 GMT-0700 (Pacific Daylight Time)","438061","1","3","","","","","","","","","","194","","","","3","2","[{""stimulus"":""img/3to2/1.png"",""time"":100},{""stimulus"":""img/3to2/2.png"",""time"":200},{""stimulus"":""img/3to2/3.png"",""time"":298},{""stimulus"":""img/3to2/4.png"",""time"":397},{""stimulus"":""img/3to2/5.png"",""time"":497},{""stimulus"":""img/3to2/6.png"",""time"":595},{""stimulus"":""img/3to2/7.png"",""time"":694},{""stimulus"":""img/3to2/8.png"",""time"":793},{""stimulus"":""img/3to2/9.png"",""time"":893},{""stimulus"":""img/3to2/10.png"",""time"":991},{""stimulus"":""img/3to2/11.png"",""time"":1090},{""stimulus"":""img/3to2/12.png"",""time"":1190}]","[]"
"image-keyboard-response","68","97734","0.0-5.0-1.32","5efc1d4ee23e2a011ded073e","bdp_cybrbll","Sun Apr 09 2023 15:32:19 GMT-0700 (Pacific Daylight Time)","438061","1","3","","200","","","","choice","","img/2to1/1.png","2","193","1066","0.5","0.5","2","3","",""
"animation","69","99023","0.0-5.0-2.32","5efc1d4ee23e2a011ded073e","bdp_cybrbll","Sun Apr 09 2023 15:32:19 GMT-0700 (Pacific Daylight Time)","438061","1","3","","","","","","","","","","193","","","","2","3","[{""stimulus"":""img/2to3/1.png"",""time"":100},{""stimulus"":""img/2to3/2.png"",""time"":198},{""stimulus"":""img/2to3/3.png"",""time"":297},{""stimulus"":""img/2to3/4.png"",""time"":397},{""stimulus"":""img/2to3/5.png"",""time"":495},{""stimulus"":""img/2to3/6.png"",""time"":594},{""stimulus"":""img/2to3/7.png"",""time"":694},{""stimulus"":""img/2to3/8.png"",""time"":792},{""stimulus"":""img/2to3/9.png"",""time"":892},{""stimulus"":""img/2to3/10.png"",""time"":991},{""stimulus"":""img/2to3/11.png"",""time"":1089},{""stimulus"":""img/2to3/12.png"",""time"":1188}]","[]"
"image-keyboard-response","70","99913","0.0-5.0-1.33","5efc1d4ee23e2a011ded073e","bdp_cybrbll","Sun Apr 09 2023 15:32:19 GMT-0700 (Pacific Daylight Time)","438061","1","3","","null","","","","observe","","img/3to2/1.png","null","192","888","0.5","0.5","3","1","",""
"animation","71","101201","0.0-5.0-2.33","5efc1d4ee23e2a011ded073e","bdp_cybrbll","Sun Apr 09 2023 15:32:19 GMT-0700 (Pacific Daylight Time)","438061","1","3","","","","","","","","","","192","","","","3","1","[{""stimulus"":""img/3to1/1.png"",""time"":101},{""stimulus"":""img/3to1/2.png"",""time"":199},{""stimulus"":""img/3to1/3.png"",""time"":299},{""stimulus"":""img/3to1/4.png"",""time"":397},{""stimulus"":""img/3to1/5.png"",""time"":496},{""stimulus"":""img/3to1/6.png"",""time"":595},{""stimulus"":""img/3to1/7.png"",""time"":695},{""stimulus"":""img/3to1/8.png"",""time"":793},{""stimulus"":""img/3to1/9.png"",""time"":893},{""stimulus"":""img/3to1/10.png"",""time"":991},{""stimulus"":""img/3to1/11.png"",""time"":1090},{""stimulus"":""img/3to1/12.png"",""time"":1189}]","[]"
"image-keyboard-response","72","101445","0.0-5.0-1.34","5efc1d4ee23e2a011ded073e","bdp_cybrbll","Sun Apr 09 2023 15:32:19 GMT-0700 (Pacific Daylight Time)","438061","1","3","","null","","","","observe","","img/1to3/1.png","null","191","229","0.5","0.5","1","3","",""
"animation","73","102733","0.0-5.0-2.34","5efc1d4ee23e2a011ded073e","bdp_cybrbll","Sun Apr 09 2023 15:32:19 GMT-0700 (Pacific Daylight Time)","438061","1","3","","","","","","","","","","191","","","","1","3","[{""stimulus"":""img/1to3/1.png"",""time"":100},{""stimulus"":""img/1to3/2.png"",""time"":199},{""stimulus"":""img/1to3/3.png"",""time"":298},{""stimulus"":""img/1to3/4.png"",""time"":399},{""stimulus"":""img/1to3/5.png"",""time"":496},{""stimulus"":""img/1to3/6.png"",""time"":595},{""stimulus"":""img/1to3/7.png"",""time"":694},{""stimulus"":""img/1to3/8.png"",""time"":793},{""stimulus"":""img/1to3/9.png"",""time"":892},{""stimulus"":""img/1to3/10.png"",""time"":1001},{""stimulus"":""img/1to3/11.png"",""time"":1091},{""stimulus"":""img/1to3/12.png"",""time"":1189}]","[]"
"image-keyboard-response","74","103247","0.0-5.0-1.35","5efc1d4ee23e2a011ded073e","bdp_cybrbll","Sun Apr 09 2023 15:32:19 GMT-0700 (Pacific Daylight Time)","438061","1","3","","null","","","","observe","","img/3to2/1.png","null","190","513","0.5","0.5","3","1","",""
"animation","75","104535","0.0-5.0-2.35","5efc1d4ee23e2a011ded073e","bdp_cybrbll","Sun Apr 09 2023 15:32:19 GMT-0700 (Pacific Daylight Time)","438061","1","3","","","","","","","","","","190","","","","3","1","[{""stimulus"":""img/3to1/1.png"",""time"":99},{""stimulus"":""img/3to1/2.png"",""time"":199},{""stimulus"":""img/3to1/3.png"",""time"":298},{""stimulus"":""img/3to1/4.png"",""time"":396},{""stimulus"":""img/3to1/5.png"",""time"":496},{""stimulus"":""img/3to1/6.png"",""time"":595},{""stimulus"":""img/3to1/7.png"",""time"":693},{""stimulus"":""img/3to1/8.png"",""time"":793},{""stimulus"":""img/3to1/9.png"",""time"":892},{""stimulus"":""img/3to1/10.png"",""time"":991},{""stimulus"":""img/3to1/11.png"",""time"":1090},{""stimulus"":""img/3to1/12.png"",""time"":1189}]","[]"
"image-keyboard-response","76","105273","0.0-5.0-1.36","5efc1d4ee23e2a011ded073e","bdp_cybrbll","Sun Apr 09 2023 15:32:19 GMT-0700 (Pacific Daylight Time)","438061","1","3","","null","","","","observe","","img/1to3/1.png","null","189","736","0.5","0.5","1","3","",""
"animation","77","106561","0.0-5.0-2.36","5efc1d4ee23e2a011ded073e","bdp_cybrbll","Sun Apr 09 2023 15:32:19 GMT-0700 (Pacific Daylight Time)","438061","1","3","","","","","","","","","","189","","","","1","3","[{""stimulus"":""img/1to3/1.png"",""time"":101},{""stimulus"":""img/1to3/2.png"",""time"":199},{""stimulus"":""img/1to3/3.png"",""time"":298},{""stimulus"":""img/1to3/4.png"",""time"":397},{""stimulus"":""img/1to3/5.png"",""time"":495},{""stimulus"":""img/1to3/6.png"",""time"":596},{""stimulus"":""img/1to3/7.png"",""time"":695},{""stimulus"":""img/1to3/8.png"",""time"":794},{""stimulus"":""img/1to3/9.png"",""time"":892},{""stimulus"":""img/1to3/10.png"",""time"":991},{""stimulus"":""img/1to3/11.png"",""time"":1091},{""stimulus"":""img/1to3/12.png"",""time"":1190}]","[]"
"image-keyboard-response","78","107427","0.0-5.0-1.37","5efc1d4ee23e2a011ded073e","bdp_cybrbll","Sun Apr 09 2023 15:32:19 GMT-0700 (Pacific Daylight Time)","438061","1","3","","null","","","","observe","","img/3to2/1.png","null","188","864","0.5","0.5","3","1","",""
"animation","79","108715","0.0-5.0-2.37","5efc1d4ee23e2a011ded073e","bdp_cybrbll","Sun Apr 09 2023 15:32:19 GMT-0700 (Pacific Daylight Time)","438061","1","3","","","","","","","","","","188","","","","3","1","[{""stimulus"":""img/3to1/1.png"",""time"":100},{""stimulus"":""img/3to1/2.png"",""time"":199},{""stimulus"":""img/3to1/3.png"",""time"":298},{""stimulus"":""img/3to1/4.png"",""time"":397},{""stimulus"":""img/3to1/5.png"",""time"":496},{""stimulus"":""img/3to1/6.png"",""time"":595},{""stimulus"":""img/3to1/7.png"",""time"":695},{""stimulus"":""img/3to1/8.png"",""time"":793},{""stimulus"":""img/3to1/9.png"",""time"":892},{""stimulus"":""img/3to1/10.png"",""time"":991},{""stimulus"":""img/3to1/11.png"",""time"":1090},{""stimulus"":""img/3to1/12.png"",""time"":1189}]","[]"
"image-keyboard-response","80","109240","0.0-5.0-1.38","5efc1d4ee23e2a011ded073e","bdp_cybrbll","Sun Apr 09 2023 15:32:19 GMT-0700 (Pacific Daylight Time)","438061","1","3","","null","","","","observe","","img/1to3/1.png","null","187","523","0.5","0.5","1","3","",""
"animation","81","110529","0.0-5.0-2.38","5efc1d4ee23e2a011ded073e","bdp_cybrbll","Sun Apr 09 2023 15:32:19 GMT-0700 (Pacific Daylight Time)","438061","1","3","","","","","","","","","","187","","","","1","3","[{""stimulus"":""img/1to3/1.png"",""time"":100},{""stimulus"":""img/1to3/2.png"",""time"":200},{""stimulus"":""img/1to3/3.png"",""time"":299},{""stimulus"":""img/1to3/4.png"",""time"":397},{""stimulus"":""img/1to3/5.png"",""time"":497},{""stimulus"":""img/1to3/6.png"",""time"":595},{""stimulus"":""img/1to3/7.png"",""time"":694},{""stimulus"":""img/1to3/8.png"",""time"":793},{""stimulus"":""img/1to3/9.png"",""time"":893},{""stimulus"":""img/1to3/10.png"",""time"":992},{""stimulus"":""img/1to3/11.png"",""time"":1090},{""stimulus"":""img/1to3/12.png"",""time"":1189}]","[]"
"image-keyboard-response","82","111432","0.0-5.0-1.39","5efc1d4ee23e2a011ded073e","bdp_cybrbll","Sun Apr 09 2023 15:32:19 GMT-0700 (Pacific Daylight Time)","438061","1","3","","null","","","","observe","","img/3to2/1.png","null","186","902","0.5","0.5","3","2","",""
"animation","83","112720","0.0-5.0-2.39","5efc1d4ee23e2a011ded073e","bdp_cybrbll","Sun Apr 09 2023 15:32:19 GMT-0700 (Pacific Daylight Time)","438061","1","3","","","","","","","","","","186","","","","3","2","[{""stimulus"":""img/3to2/1.png"",""time"":101},{""stimulus"":""img/3to2/2.png"",""time"":199},{""stimulus"":""img/3to2/3.png"",""time"":298},{""stimulus"":""img/3to2/4.png"",""time"":397},{""stimulus"":""img/3to2/5.png"",""time"":497},{""stimulus"":""img/3to2/6.png"",""time"":595},{""stimulus"":""img/3to2/7.png"",""time"":694},{""stimulus"":""img/3to2/8.png"",""time"":793},{""stimulus"":""img/3to2/9.png"",""time"":893},{""stimulus"":""img/3to2/10.png"",""time"":991},{""stimulus"":""img/3to2/11.png"",""time"":1091},{""stimulus"":""img/3to2/12.png"",""time"":1190}]","[]"
"image-keyboard-response","84","112824","0.0-5.0-1.40","5efc1d4ee23e2a011ded073e","bdp_cybrbll","Sun Apr 09 2023 15:32:19 GMT-0700 (Pacific Daylight Time)","438061","1","3","","102","","","","choice","","img/2to1/1.png","1","185","412","0.5","0.5","2","1","",""
"animation","85","114112","0.0-5.0-2.40","5efc1d4ee23e2a011ded073e","bdp_cybrbll","Sun Apr 09 2023 15:32:19 GMT-0700 (Pacific Daylight Time)","438061","1","3","","","","","","","","","","185","","","","2","1","[{""stimulus"":""img/2to1/1.png"",""time"":101},{""stimulus"":""img/2to1/2.png"",""time"":199},{""stimulus"":""img/2to1/3.png"",""time"":298},{""stimulus"":""img/2to1/4.png"",""time"":397},{""stimulus"":""img/2to1/5.png"",""time"":496},{""stimulus"":""img/2to1/6.png"",""time"":595},{""stimulus"":""img/2to1/7.png"",""time"":694},{""stimulus"":""img/2to1/8.png"",""time"":793},{""stimulus"":""img/2to1/9.png"",""time"":891},{""stimulus"":""img/2to1/10.png"",""time"":991},{""stimulus"":""img/2to1/11.png"",""time"":1090},{""stimulus"":""img/2to1/12.png"",""time"":1189}]","[]"
"image-keyboard-response","86","114439","0.0-5.0-1.41","5efc1d4ee23e2a011ded073e","bdp_cybrbll","Sun Apr 09 2023 15:32:19 GMT-0700 (Pacific Daylight Time)","438061","1","3","","null","","","","observe","","img/1to3/1.png","null","184","325","0.5","0.5","1","2","",""
"animation","87","115727","0.0-5.0-2.41","5efc1d4ee23e2a011ded073e","bdp_cybrbll","Sun Apr 09 2023 15:32:19 GMT-0700 (Pacific Daylight Time)","438061","1","3","","","","","","","","","","184","","","","1","2","[{""stimulus"":""img/1to2/1.png"",""time"":101},{""stimulus"":""img/1to2/2.png"",""time"":200},{""stimulus"":""img/1to2/3.png"",""time"":298},{""stimulus"":""img/1to2/4.png"",""time"":397},{""stimulus"":""img/1to2/5.png"",""time"":497},{""stimulus"":""img/1to2/6.png"",""time"":595},{""stimulus"":""img/1to2/7.png"",""time"":694},{""stimulus"":""img/1to2/8.png"",""time"":792},{""stimulus"":""img/1to2/9.png"",""time"":892},{""stimulus"":""img/1to2/10.png"",""time"":991},{""stimulus"":""img/1to2/11.png"",""time"":1091},{""stimulus"":""img/1to2/12.png"",""time"":1189}]","[]"
"image-keyboard-response","88","116212","0.0-5.0-1.42","5efc1d4ee23e2a011ded073e","bdp_cybrbll","Sun Apr 09 2023 15:32:19 GMT-0700 (Pacific Daylight Time)","438061","1","3","","485","","","","choice","","img/2to1/1.png","2","183","159","0.5","0.5","2","3","",""
"animation","89","117501","0.0-5.0-2.42","5efc1d4ee23e2a011ded073e","bdp_cybrbll","Sun Apr 09 2023 15:32:19 GMT-0700 (Pacific Daylight Time)","438061","1","3","","","","","","","","","","183","","","","2","3","[{""stimulus"":""img/2to3/1.png"",""time"":102},{""stimulus"":""img/2to3/2.png"",""time"":199},{""stimulus"":""img/2to3/3.png"",""time"":298},{""stimulus"":""img/2to3/4.png"",""time"":397},{""stimulus"":""img/2to3/5.png"",""time"":496},{""stimulus"":""img/2to3/6.png"",""time"":596},{""stimulus"":""img/2to3/7.png"",""time"":705},{""stimulus"":""img/2to3/8.png"",""time"":793},{""stimulus"":""img/2to3/9.png"",""time"":893},{""stimulus"":""img/2to3/10.png"",""time"":992},{""stimulus"":""img/2to3/11.png"",""time"":1091},{""stimulus"":""img/2to3/12.png"",""time"":1189}]","[]"
"image-keyboard-response","90","118002","0.0-5.0-1.43","5efc1d4ee23e2a011ded073e","bdp_cybrbll","Sun Apr 09 2023 15:32:19 GMT-0700 (Pacific Daylight Time)","438061","1","3","","null","","","","observe","","img/3to2/1.png","null","182","500","0.5","0.5","3","1","",""
"animation","91","119291","0.0-5.0-2.43","5efc1d4ee23e2a011ded073e","bdp_cybrbll","Sun Apr 09 2023 15:32:19 GMT-0700 (Pacific Daylight Time)","438061","1","3","","","","","","","","","","182","","","","3","1","[{""stimulus"":""img/3to1/1.png"",""time"":100},{""stimulus"":""img/3to1/2.png"",""time"":198},{""stimulus"":""img/3to1/3.png"",""time"":298},{""stimulus"":""img/3to1/4.png"",""time"":397},{""stimulus"":""img/3to1/5.png"",""time"":496},{""stimulus"":""img/3to1/6.png"",""time"":595},{""stimulus"":""img/3to1/7.png"",""time"":694},{""stimulus"":""img/3to1/8.png"",""time"":793},{""stimulus"":""img/3to1/9.png"",""time"":892},{""stimulus"":""img/3to1/10.png"",""time"":991},{""stimulus"":""img/3to1/11.png"",""time"":1089},{""stimulus"":""img/3to1/12.png"",""time"":1188}]","[]"
"image-keyboard-response","92","120045","0.0-5.0-1.44","5efc1d4ee23e2a011ded073e","bdp_cybrbll","Sun Apr 09 2023 15:32:19 GMT-0700 (Pacific Daylight Time)","438061","1","3","","null","","","","observe","","img/1to3/1.png","null","181","753","0.5","0.5","1","2","",""
"animation","93","121333","0.0-5.0-2.44","5efc1d4ee23e2a011ded073e","bdp_cybrbll","Sun Apr 09 2023 15:32:19 GMT-0700 (Pacific Daylight Time)","438061","1","3","","","","","","","","","","181","","","","1","2","[{""stimulus"":""img/1to2/1.png"",""time"":100},{""stimulus"":""img/1to2/2.png"",""time"":198},{""stimulus"":""img/1to2/3.png"",""time"":298},{""stimulus"":""img/1to2/4.png"",""time"":397},{""stimulus"":""img/1to2/5.png"",""time"":496},{""stimulus"":""img/1to2/6.png"",""time"":595},{""stimulus"":""img/1to2/7.png"",""time"":694},{""stimulus"":""img/1to2/8.png"",""time"":792},{""stimulus"":""img/1to2/9.png"",""time"":892},{""stimulus"":""img/1to2/10.png"",""time"":991},{""stimulus"":""img/1to2/11.png"",""time"":1090},{""stimulus"":""img/1to2/12.png"",""time"":1189}]","[]"
"image-keyboard-response","94","121617","0.0-5.0-1.45","5efc1d4ee23e2a011ded073e","bdp_cybrbll","Sun Apr 09 2023 15:32:19 GMT-0700 (Pacific Daylight Time)","438061","1","3","","284","","","","choice","","img/2to1/1.png","2","180","585","0.5","0.5","2","3","",""
"animation","95","122904","0.0-5.0-2.45","5efc1d4ee23e2a011ded073e","bdp_cybrbll","Sun Apr 09 2023 15:32:19 GMT-0700 (Pacific Daylight Time)","438061","1","3","","","","","","","","","","180","","","","2","3","[{""stimulus"":""img/2to3/1.png"",""time"":101},{""stimulus"":""img/2to3/2.png"",""time"":199},{""stimulus"":""img/2to3/3.png"",""time"":298},{""stimulus"":""img/2to3/4.png"",""time"":398},{""stimulus"":""img/2to3/5.png"",""time"":496},{""stimulus"":""img/2to3/6.png"",""time"":595},{""stimulus"":""img/2to3/7.png"",""time"":694},{""stimulus"":""img/2to3/8.png"",""time"":802},{""stimulus"":""img/2to3/9.png"",""time"":892},{""stimulus"":""img/2to3/10.png"",""time"":991},{""stimulus"":""img/2to3/11.png"",""time"":1091},{""stimulus"":""img/2to3/12.png"",""time"":1189}]","[]"
"image-keyboard-response","96","123183","0.0-5.0-1.46","5efc1d4ee23e2a011ded073e","bdp_cybrbll","Sun Apr 09 2023 15:32:19 GMT-0700 (Pacific Daylight Time)","438061","1","3","","null","","","","observe","","img/3to2/1.png","null","179","278","0.5","0.5","3","2","",""
"animation","97","124471","0.0-5.0-2.46","5efc1d4ee23e2a011ded073e","bdp_cybrbll","Sun Apr 09 2023 15:32:19 GMT-0700 (Pacific Daylight Time)","438061","1","3","","","","","","","","","","179","","","","3","2","[{""stimulus"":""img/3to2/1.png"",""time"":100},{""stimulus"":""img/3to2/2.png"",""time"":198},{""stimulus"":""img/3to2/3.png"",""time"":297},{""stimulus"":""img/3to2/4.png"",""time"":397},{""stimulus"":""img/3to2/5.png"",""time"":495},{""stimulus"":""img/3to2/6.png"",""time"":595},{""stimulus"":""img/3to2/7.png"",""time"":694},{""stimulus"":""img/3to2/8.png"",""time"":793},{""stimulus"":""img/3to2/9.png"",""time"":892},{""stimulus"":""img/3to2/10.png"",""time"":991},{""stimulus"":""img/3to2/11.png"",""time"":1090},{""stimulus"":""img/3to2/12.png"",""time"":1188}]","[]"
"image-keyboard-response","98","124539","0.0-5.0-1.47","5efc1d4ee23e2a011ded073e","bdp_cybrbll","Sun Apr 09 2023 15:32:19 GMT-0700 (Pacific Daylight Time)","438061","1","3","","68","","","","choice","","img/2to1/1.png","1","178","701","0.5","0.5","2","1","",""
"animation","99","125827","0.0-5.0-2.47","5efc1d4ee23e2a011ded073e","bdp_cybrbll","Sun Apr 09 2023 15:32:19 GMT-0700 (Pacific Daylight Time)","438061","1","3","","","","","","","","","","178","","","","2","1","[{""stimulus"":""img/2to1/1.png"",""time"":100},{""stimulus"":""img/2to1/2.png"",""time"":199},{""stimulus"":""img/2to1/3.png"",""time"":298},{""stimulus"":""img/2to1/4.png"",""time"":396},{""stimulus"":""img/2to1/5.png"",""time"":497},{""stimulus"":""img/2to1/6.png"",""time"":594},{""stimulus"":""img/2to1/7.png"",""time"":694},{""stimulus"":""img/2to1/8.png"",""time"":793},{""stimulus"":""img/2to1/9.png"",""time"":891},{""stimulus"":""img/2to1/10.png"",""time"":990},{""stimulus"":""img/2to1/11.png"",""time"":1089},{""stimulus"":""img/2to1/12.png"",""time"":1190}]","[]"
"image-keyboard-response","100","126706","0.0-5.0-1.48","5efc1d4ee23e2a011ded073e","bdp_cybrbll","Sun Apr 09 2023 15:32:19 GMT-0700 (Pacific Daylight Time)","438061","1","3","","null","","","","observe","","img/1to3/1.png","null","177","878","0.5","0.5","1","2","",""
"animation","101","127994","0.0-5.0-2.48","5efc1d4ee23e2a011ded073e","bdp_cybrbll","Sun Apr 09 2023 15:32:19 GMT-0700 (Pacific Daylight Time)","438061","1","3","","","","","","","","","","177","","","","1","2","[{""stimulus"":""img/1to2/1.png"",""time"":100},{""stimulus"":""img/1to2/2.png"",""time"":198},{""stimulus"":""img/1to2/3.png"",""time"":298},{""stimulus"":""img/1to2/4.png"",""time"":396},{""stimulus"":""img/1to2/5.png"",""time"":497},{""stimulus"":""img/1to2/6.png"",""time"":594},{""stimulus"":""img/1to2/7.png"",""time"":694},{""stimulus"":""img/1to2/8.png"",""time"":794},{""stimulus"":""img/1to2/9.png"",""time"":891},{""stimulus"":""img/1to2/10.png"",""time"":992},{""stimulus"":""img/1to2/11.png"",""time"":1089},{""stimulus"":""img/1to2/12.png"",""time"":1189}]","[]"
"image-keyboard-response","102","128221","0.0-5.0-1.49","5efc1d4ee23e2a011ded073e","bdp_cybrbll","Sun Apr 09 2023 15:32:19 GMT-0700 (Pacific Daylight Time)","438061","1","3","","226","","","","choice","","img/2to1/1.png","2","176","292","0.5","0.5","2","3","",""
"animation","103","129509","0.0-5.0-2.49","5efc1d4ee23e2a011ded073e","bdp_cybrbll","Sun Apr 09 2023 15:32:19 GMT-0700 (Pacific Daylight Time)","438061","1","3","","","","","","","","","","176","","","","2","3","[{""stimulus"":""img/2to3/1.png"",""time"":99},{""stimulus"":""img/2to3/2.png"",""time"":199},{""stimulus"":""img/2to3/3.png"",""time"":299},{""stimulus"":""img/2to3/4.png"",""time"":397},{""stimulus"":""img/2to3/5.png"",""time"":496},{""stimulus"":""img/2to3/6.png"",""time"":595},{""stimulus"":""img/2to3/7.png"",""time"":694},{""stimulus"":""img/2to3/8.png"",""time"":793},{""stimulus"":""img/2to3/9.png"",""time"":893},{""stimulus"":""img/2to3/10.png"",""time"":991},{""stimulus"":""img/2to3/11.png"",""time"":1091},{""stimulus"":""img/2to3/12.png"",""time"":1189}]","[]"
"image-keyboard-response","104","129836","0.0-5.0-1.50","5efc1d4ee23e2a011ded073e","bdp_cybrbll","Sun Apr 09 2023 15:32:19 GMT-0700 (Pacific Daylight Time)","438061","1","3","","null","","","","observe","","img/3to2/1.png","null","175","325","0.5","0.5","3","2","",""
"animation","105","131125","0.0-5.0-2.50","5efc1d4ee23e2a011ded073e","bdp_cybrbll","Sun Apr 09 2023 15:32:19 GMT-0700 (Pacific Daylight Time)","438061","1","3","","","","","","","","","","175","","","","3","2","[{""stimulus"":""img/3to2/1.png"",""time"":100},{""stimulus"":""img/3to2/2.png"",""time"":198},{""stimulus"":""img/3to2/3.png"",""time"":298},{""stimulus"":""img/3to2/4.png"",""time"":397},{""stimulus"":""img/3to2/5.png"",""time"":497},{""stimulus"":""img/3to2/6.png"",""time"":594},{""stimulus"":""img/3to2/7.png"",""time"":693},{""stimulus"":""img/3to2/8.png"",""time"":792},{""stimulus"":""img/3to2/9.png"",""time"":892},{""stimulus"":""img/3to2/10.png"",""time"":991},{""stimulus"":""img/3to2/11.png"",""time"":1090},{""stimulus"":""img/3to2/12.png"",""time"":1189}]","[]"
"image-keyboard-response","106","131338","0.0-5.0-1.51","5efc1d4ee23e2a011ded073e","bdp_cybrbll","Sun Apr 09 2023 15:32:19 GMT-0700 (Pacific Daylight Time)","438061","1","3","","212","","","","choice","","img/2to1/1.png","1","174","440","0.5","0.5","2","1","",""
"animation","107","132625","0.0-5.0-2.51","5efc1d4ee23e2a011ded073e","bdp_cybrbll","Sun Apr 09 2023 15:32:19 GMT-0700 (Pacific Daylight Time)","438061","1","3","","","","","","","","","","174","","","","2","1","[{""stimulus"":""img/2to1/1.png"",""time"":100},{""stimulus"":""img/2to1/2.png"",""time"":198},{""stimulus"":""img/2to1/3.png"",""time"":298},{""stimulus"":""img/2to1/4.png"",""time"":398},{""stimulus"":""img/2to1/5.png"",""time"":496},{""stimulus"":""img/2to1/6.png"",""time"":595},{""stimulus"":""img/2to1/7.png"",""time"":694},{""stimulus"":""img/2to1/8.png"",""time"":793},{""stimulus"":""img/2to1/9.png"",""time"":892},{""stimulus"":""img/2to1/10.png"",""time"":991},{""stimulus"":""img/2to1/11.png"",""time"":1090},{""stimulus"":""img/2to1/12.png"",""time"":1189}]","[]"
"image-keyboard-response","108","132845","0.0-5.0-1.52","5efc1d4ee23e2a011ded073e","bdp_cybrbll","Sun Apr 09 2023 15:32:19 GMT-0700 (Pacific Daylight Time)","438061","1","3","","null","","","","observe","","img/1to3/1.png","null","173","219","0.5","0.5","1","2","",""
"animation","109","134133","0.0-5.0-2.52","5efc1d4ee23e2a011ded073e","bdp_cybrbll","Sun Apr 09 2023 15:32:19 GMT-0700 (Pacific Daylight Time)","438061","1","3","","","","","","","","","","173","","","","1","2","[{""stimulus"":""img/1to2/1.png"",""time"":101},{""stimulus"":""img/1to2/2.png"",""time"":201},{""stimulus"":""img/1to2/3.png"",""time"":298},{""stimulus"":""img/1to2/4.png"",""time"":398},{""stimulus"":""img/1to2/5.png"",""time"":496},{""stimulus"":""img/1to2/6.png"",""time"":596},{""stimulus"":""img/1to2/7.png"",""time"":694},{""stimulus"":""img/1to2/8.png"",""time"":794},{""stimulus"":""img/1to2/9.png"",""time"":893},{""stimulus"":""img/1to2/10.png"",""time"":991},{""stimulus"":""img/1to2/11.png"",""time"":1091},{""stimulus"":""img/1to2/12.png"",""time"":1190}]","[]"
"image-keyboard-response","110","134394","0.0-5.0-1.53","5efc1d4ee23e2a011ded073e","bdp_cybrbll","Sun Apr 09 2023 15:32:19 GMT-0700 (Pacific Daylight Time)","438061","1","3","","260","","","","choice","","img/2to1/1.png","2","172","306","0.5","0.5","2","3","",""
"animation","111","135681","0.0-5.0-2.53","5efc1d4ee23e2a011ded073e","bdp_cybrbll","Sun Apr 09 2023 15:32:19 GMT-0700 (Pacific Daylight Time)","438061","1","3","","","","","","","","","","172","","","","2","3","[{""stimulus"":""img/2to3/1.png"",""time"":101},{""stimulus"":""img/2to3/2.png"",""time"":199},{""stimulus"":""img/2to3/3.png"",""time"":298},{""stimulus"":""img/2to3/4.png"",""time"":397},{""stimulus"":""img/2to3/5.png"",""time"":496},{""stimulus"":""img/2to3/6.png"",""time"":595},{""stimulus"":""img/2to3/7.png"",""time"":694},{""stimulus"":""img/2to3/8.png"",""time"":794},{""stimulus"":""img/2to3/9.png"",""time"":893},{""stimulus"":""img/2to3/10.png"",""time"":991},{""stimulus"":""img/2to3/11.png"",""time"":1090},{""stimulus"":""img/2to3/12.png"",""time"":1189}]","[]"
"image-keyboard-response","112","136282","0.0-5.0-1.54","5efc1d4ee23e2a011ded073e","bdp_cybrbll","Sun Apr 09 2023 15:32:19 GMT-0700 (Pacific Daylight Time)","438061","1","3","","null","","","","observe","","img/3to2/1.png","null","171","599","0.5","0.5","3","2","",""
"animation","113","137570","0.0-5.0-2.54","5efc1d4ee23e2a011ded073e","bdp_cybrbll","Sun Apr 09 2023 15:32:19 GMT-0700 (Pacific Daylight Time)","438061","1","3","","","","","","","","","","171","","","","3","2","[{""stimulus"":""img/3to2/1.png"",""time"":101},{""stimulus"":""img/3to2/2.png"",""time"":200},{""stimulus"":""img/3to2/3.png"",""time"":298},{""stimulus"":""img/3to2/4.png"",""time"":398},{""stimulus"":""img/3to2/5.png"",""time"":496},{""stimulus"":""img/3to2/6.png"",""time"":595},{""stimulus"":""img/3to2/7.png"",""time"":694},{""stimulus"":""img/3to2/8.png"",""time"":793},{""stimulus"":""img/3to2/9.png"",""time"":892},{""stimulus"":""img/3to2/10.png"",""time"":992},{""stimulus"":""img/3to2/11.png"",""time"":1090},{""stimulus"":""img/3to2/12.png"",""time"":1190}]","[]"
"image-keyboard-response","114","137787","0.0-5.0-1.55","5efc1d4ee23e2a011ded073e","bdp_cybrbll","Sun Apr 09 2023 15:32:19 GMT-0700 (Pacific Daylight Time)","438061","1","3","","216","","","","choice","","img/2to1/1.png","1","170","273","0.5","0.5","2","1","",""
"animation","115","139076","0.0-5.0-2.55","5efc1d4ee23e2a011ded073e","bdp_cybrbll","Sun Apr 09 2023 15:32:19 GMT-0700 (Pacific Daylight Time)","438061","1","3","","","","","","","","","","170","","","","2","1","[{""stimulus"":""img/2to1/1.png"",""time"":100},{""stimulus"":""img/2to1/2.png"",""time"":198},{""stimulus"":""img/2to1/3.png"",""time"":298},{""stimulus"":""img/2to1/4.png"",""time"":397},{""stimulus"":""img/2to1/5.png"",""time"":496},{""stimulus"":""img/2to1/6.png"",""time"":594},{""stimulus"":""img/2to1/7.png"",""time"":694},{""stimulus"":""img/2to1/8.png"",""time"":793},{""stimulus"":""img/2to1/9.png"",""time"":892},{""stimulus"":""img/2to1/10.png"",""time"":990},{""stimulus"":""img/2to1/11.png"",""time"":1090},{""stimulus"":""img/2to1/12.png"",""time"":1189}]","[]"
"image-keyboard-response","116","140164","0.0-5.0-1.56","5efc1d4ee23e2a011ded073e","bdp_cybrbll","Sun Apr 09 2023 15:32:19 GMT-0700 (Pacific Daylight Time)","438061","1","3","","null","","","","observe","","img/1to3/1.png","null","169","1087","0.5","0.5","1","3","",""
"animation","117","141452","0.0-5.0-2.56","5efc1d4ee23e2a011ded073e","bdp_cybrbll","Sun Apr 09 2023 15:32:19 GMT-0700 (Pacific Daylight Time)","438061","1","3","","","","","","","","","","169","","","","1","3","[{""stimulus"":""img/1to3/1.png"",""time"":102},{""stimulus"":""img/1to3/2.png"",""time"":200},{""stimulus"":""img/1to3/3.png"",""time"":298},{""stimulus"":""img/1to3/4.png"",""time"":397},{""stimulus"":""img/1to3/5.png"",""time"":497},{""stimulus"":""img/1to3/6.png"",""time"":595},{""stimulus"":""img/1to3/7.png"",""time"":694},{""stimulus"":""img/1to3/8.png"",""time"":793},{""stimulus"":""img/1to3/9.png"",""time"":893},{""stimulus"":""img/1to3/10.png"",""time"":991},{""stimulus"":""img/1to3/11.png"",""time"":1091},{""stimulus"":""img/1to3/12.png"",""time"":1190}]","[]"
"image-keyboard-response","118","141656","0.0-5.0-1.57","5efc1d4ee23e2a011ded073e","bdp_cybrbll","Sun Apr 09 2023 15:32:19 GMT-0700 (Pacific Daylight Time)","438061","1","3","","null","","","","observe","","img/3to2/1.png","null","168","203","0.5","0.5","3","1","",""
"animation","119","142944","0.0-5.0-2.57","5efc1d4ee23e2a011ded073e","bdp_cybrbll","Sun Apr 09 2023 15:32:19 GMT-0700 (Pacific Daylight Time)","438061","1","3","","","","","","","","","","168","","","","3","1","[{""stimulus"":""img/3to1/1.png"",""time"":101},{""stimulus"":""img/3to1/2.png"",""time"":199},{""stimulus"":""img/3to1/3.png"",""time"":298},{""stimulus"":""img/3to1/4.png"",""time"":399},{""stimulus"":""img/3to1/5.png"",""time"":496},{""stimulus"":""img/3to1/6.png"",""time"":595},{""stimulus"":""img/3to1/7.png"",""time"":695},{""stimulus"":""img/3to1/8.png"",""time"":793},{""stimulus"":""img/3to1/9.png"",""time"":893},{""stimulus"":""img/3to1/10.png"",""time"":991},{""stimulus"":""img/3to1/11.png"",""time"":1091},{""stimulus"":""img/3to1/12.png"",""time"":1189}]","[]"
"image-keyboard-response","120","143360","0.0-5.0-1.58","5efc1d4ee23e2a011ded073e","bdp_cybrbll","Sun Apr 09 2023 15:32:19 GMT-0700 (Pacific Daylight Time)","438061","1","3","","null","","","","observe","","img/1to3/1.png","null","167","415","0.5","0.5","1","2","",""
"animation","121","144649","0.0-5.0-2.58","5efc1d4ee23e2a011ded073e","bdp_cybrbll","Sun Apr 09 2023 15:32:19 GMT-0700 (Pacific Daylight Time)","438061","1","3","","","","","","","","","","167","","","","1","2","[{""stimulus"":""img/1to2/1.png"",""time"":100},{""stimulus"":""img/1to2/2.png"",""time"":198},{""stimulus"":""img/1to2/3.png"",""time"":298},{""stimulus"":""img/1to2/4.png"",""time"":397},{""stimulus"":""img/1to2/5.png"",""time"":496},{""stimulus"":""img/1to2/6.png"",""time"":595},{""stimulus"":""img/1to2/7.png"",""time"":694},{""stimulus"":""img/1to2/8.png"",""time"":794},{""stimulus"":""img/1to2/9.png"",""time"":892},{""stimulus"":""img/1to2/10.png"",""time"":991},{""stimulus"":""img/1to2/11.png"",""time"":1090},{""stimulus"":""img/1to2/12.png"",""time"":1189}]","[]"
"image-keyboard-response","122","144908","0.0-5.0-1.59","5efc1d4ee23e2a011ded073e","bdp_cybrbll","Sun Apr 09 2023 15:32:19 GMT-0700 (Pacific Daylight Time)","438061","1","3","","258","","","","choice","","img/2to1/1.png","2","166","682","0.5","0.5","2","3","",""
"animation","123","146197","0.0-5.0-2.59","5efc1d4ee23e2a011ded073e","bdp_cybrbll","Sun Apr 09 2023 15:32:19 GMT-0700 (Pacific Daylight Time)","438061","1","3","","","","","","","","","","166","","","","2","3","[{""stimulus"":""img/2to3/1.png"",""time"":101},{""stimulus"":""img/2to3/2.png"",""time"":199},{""stimulus"":""img/2to3/3.png"",""time"":298},{""stimulus"":""img/2to3/4.png"",""time"":397},{""stimulus"":""img/2to3/5.png"",""time"":497},{""stimulus"":""img/2to3/6.png"",""time"":596},{""stimulus"":""img/2to3/7.png"",""time"":695},{""stimulus"":""img/2to3/8.png"",""time"":793},{""stimulus"":""img/2to3/9.png"",""time"":893},{""stimulus"":""img/2to3/10.png"",""time"":991},{""stimulus"":""img/2to3/11.png"",""time"":1091},{""stimulus"":""img/2to3/12.png"",""time"":1190}]","[]"
"image-keyboard-response","124","146744","0.0-5.0-1.60","5efc1d4ee23e2a011ded073e","bdp_cybrbll","Sun Apr 09 2023 15:32:19 GMT-0700 (Pacific Daylight Time)","438061","1","3","","null","","","","observe","","img/3to2/1.png","null","165","546","0.5","0.5","3","1","",""
"animation","125","148032","0.0-5.0-2.60","5efc1d4ee23e2a011ded073e","bdp_cybrbll","Sun Apr 09 2023 15:32:19 GMT-0700 (Pacific Daylight Time)","438061","1","3","","","","","","","","","","165","","","","3","1","[{""stimulus"":""img/3to1/1.png"",""time"":100},{""stimulus"":""img/3to1/2.png"",""time"":199},{""stimulus"":""img/3to1/3.png"",""time"":298},{""stimulus"":""img/3to1/4.png"",""time"":396},{""stimulus"":""img/3to1/5.png"",""time"":496},{""stimulus"":""img/3to1/6.png"",""time"":594},{""stimulus"":""img/3to1/7.png"",""time"":694},{""stimulus"":""img/3to1/8.png"",""time"":793},{""stimulus"":""img/3to1/9.png"",""time"":892},{""stimulus"":""img/3to1/10.png"",""time"":991},{""stimulus"":""img/3to1/11.png"",""time"":1091},{""stimulus"":""img/3to1/12.png"",""time"":1189}]","[]"
"image-keyboard-response","126","148922","0.0-5.0-1.61","5efc1d4ee23e2a011ded073e","bdp_cybrbll","Sun Apr 09 2023 15:32:19 GMT-0700 (Pacific Daylight Time)","438061","1","3","","null","","","","observe","","img/1to3/1.png","null","164","888","0.5","0.5","1","2","",""
"animation","127","150210","0.0-5.0-2.61","5efc1d4ee23e2a011ded073e","bdp_cybrbll","Sun Apr 09 2023 15:32:19 GMT-0700 (Pacific Daylight Time)","438061","1","3","","","","","","","","","","164","","","","1","2","[{""stimulus"":""img/1to2/1.png"",""time"":100},{""stimulus"":""img/1to2/2.png"",""time"":199},{""stimulus"":""img/1to2/3.png"",""time"":299},{""stimulus"":""img/1to2/4.png"",""time"":398},{""stimulus"":""img/1to2/5.png"",""time"":496},{""stimulus"":""img/1to2/6.png"",""time"":596},{""stimulus"":""img/1to2/7.png"",""time"":695},{""stimulus"":""img/1to2/8.png"",""time"":794},{""stimulus"":""img/1to2/9.png"",""time"":892},{""stimulus"":""img/1to2/10.png"",""time"":992},{""stimulus"":""img/1to2/11.png"",""time"":1091},{""stimulus"":""img/1to2/12.png"",""time"":1189}]","[]"
"image-keyboard-response","128","150229","0.0-5.0-1.62","5efc1d4ee23e2a011ded073e","bdp_cybrbll","Sun Apr 09 2023 15:32:19 GMT-0700 (Pacific Daylight Time)","438061","1","3","","19","","","","choice","","img/2to1/1.png","2","163","341","0.5","0.5","2","3","",""
"animation","129","151518","0.0-5.0-2.62","5efc1d4ee23e2a011ded073e","bdp_cybrbll","Sun Apr 09 2023 15:32:19 GMT-0700 (Pacific Daylight Time)","438061","1","3","","","","","","","","","","163","","","","2","3","[{""stimulus"":""img/2to3/1.png"",""time"":99},{""stimulus"":""img/2to3/2.png"",""time"":199},{""stimulus"":""img/2to3/3.png"",""time"":298},{""stimulus"":""img/2to3/4.png"",""time"":397},{""stimulus"":""img/2to3/5.png"",""time"":495},{""stimulus"":""img/2to3/6.png"",""time"":595},{""stimulus"":""img/2to3/7.png"",""time"":694},{""stimulus"":""img/2to3/8.png"",""time"":794},{""stimulus"":""img/2to3/9.png"",""time"":891},{""stimulus"":""img/2to3/10.png"",""time"":991},{""stimulus"":""img/2to3/11.png"",""time"":1091},{""stimulus"":""img/2to3/12.png"",""time"":1189}]","[]"
"image-keyboard-response","130","153089","0.0-5.0-1.63","5efc1d4ee23e2a011ded073e","bdp_cybrbll","Sun Apr 09 2023 15:32:19 GMT-0700 (Pacific Daylight Time)","438061","1","3","","null","","","","observe","","img/3to2/1.png","null","162","1569","0.5","0.5","3","2","",""
"animation","131","154377","0.0-5.0-2.63","5efc1d4ee23e2a011ded073e","bdp_cybrbll","Sun Apr 09 2023 15:32:19 GMT-0700 (Pacific Daylight Time)","438061","1","3","","","","","","","","","","162","","","","3","2","[{""stimulus"":""img/3to2/1.png"",""time"":100},{""stimulus"":""img/3to2/2.png"",""time"":198},{""stimulus"":""img/3to2/3.png"",""time"":298},{""stimulus"":""img/3to2/4.png"",""time"":398},{""stimulus"":""img/3to2/5.png"",""time"":496},{""stimulus"":""img/3to2/6.png"",""time"":596},{""stimulus"":""img/3to2/7.png"",""time"":694},{""stimulus"":""img/3to2/8.png"",""time"":792},{""stimulus"":""img/3to2/9.png"",""time"":892},{""stimulus"":""img/3to2/10.png"",""time"":991},{""stimulus"":""img/3to2/11.png"",""time"":1090},{""stimulus"":""img/3to2/12.png"",""time"":1189}]","[]"
"image-keyboard-response","132","154735","0.0-5.0-1.64","5efc1d4ee23e2a011ded073e","bdp_cybrbll","Sun Apr 09 2023 15:32:19 GMT-0700 (Pacific Daylight Time)","438061","1","3","","358","","","","choice","","img/2to1/1.png","1","161","354","0.5","0.5","2","1","",""
"animation","133","156023","0.0-5.0-2.64","5efc1d4ee23e2a011ded073e","bdp_cybrbll","Sun Apr 09 2023 15:32:19 GMT-0700 (Pacific Daylight Time)","438061","1","3","","","","","","","","","","161","","","","2","1","[{""stimulus"":""img/2to1/1.png"",""time"":100},{""stimulus"":""img/2to1/2.png"",""time"":199},{""stimulus"":""img/2to1/3.png"",""time"":299},{""stimulus"":""img/2to1/4.png"",""time"":398},{""stimulus"":""img/2to1/5.png"",""time"":496},{""stimulus"":""img/2to1/6.png"",""time"":596},{""stimulus"":""img/2to1/7.png"",""time"":694},{""stimulus"":""img/2to1/8.png"",""time"":794},{""stimulus"":""img/2to1/9.png"",""time"":893},{""stimulus"":""img/2to1/10.png"",""time"":991},{""stimulus"":""img/2to1/11.png"",""time"":1090},{""stimulus"":""img/2to1/12.png"",""time"":1189}]","[]"
"image-keyboard-response","134","156338","0.0-5.0-1.65","5efc1d4ee23e2a011ded073e","bdp_cybrbll","Sun Apr 09 2023 15:32:19 GMT-0700 (Pacific Daylight Time)","438061","1","3","","null","","","","observe","","img/1to3/1.png","null","160","314","0.5","0.5","1","3","",""
"animation","135","157626","0.0-5.0-2.65","5efc1d4ee23e2a011ded073e","bdp_cybrbll","Sun Apr 09 2023 15:32:19 GMT-0700 (Pacific Daylight Time)","438061","1","3","","","","","","","","","","160","","","","1","3","[{""stimulus"":""img/1to3/1.png"",""time"":100},{""stimulus"":""img/1to3/2.png"",""time"":199},{""stimulus"":""img/1to3/3.png"",""time"":299},{""stimulus"":""img/1to3/4.png"",""time"":397},{""stimulus"":""img/1to3/5.png"",""time"":496},{""stimulus"":""img/1to3/6.png"",""time"":595},{""stimulus"":""img/1to3/7.png"",""time"":695},{""stimulus"":""img/1to3/8.png"",""time"":793},{""stimulus"":""img/1to3/9.png"",""time"":891},{""stimulus"":""img/1to3/10.png"",""time"":991},{""stimulus"":""img/1to3/11.png"",""time"":1090},{""stimulus"":""img/1to3/12.png"",""time"":1189}]","[]"
"image-keyboard-response","136","157990","0.0-5.0-1.66","5efc1d4ee23e2a011ded073e","bdp_cybrbll","Sun Apr 09 2023 15:32:19 GMT-0700 (Pacific Daylight Time)","438061","1","3","","null","","","","observe","","img/3to2/1.png","null","159","363","0.5","0.5","3","1","",""
"animation","137","159279","0.0-5.0-2.66","5efc1d4ee23e2a011ded073e","bdp_cybrbll","Sun Apr 09 2023 15:32:19 GMT-0700 (Pacific Daylight Time)","438061","1","3","","","","","","","","","","159","","","","3","1","[{""stimulus"":""img/3to1/1.png"",""time"":100},{""stimulus"":""img/3to1/2.png"",""time"":199},{""stimulus"":""img/3to1/3.png"",""time"":298},{""stimulus"":""img/3to1/4.png"",""time"":398},{""stimulus"":""img/3to1/5.png"",""time"":496},{""stimulus"":""img/3to1/6.png"",""time"":595},{""stimulus"":""img/3to1/7.png"",""time"":695},{""stimulus"":""img/3to1/8.png"",""time"":793},{""stimulus"":""img/3to1/9.png"",""time"":893},{""stimulus"":""img/3to1/10.png"",""time"":991},{""stimulus"":""img/3to1/11.png"",""time"":1090},{""stimulus"":""img/3to1/12.png"",""time"":1189}]","[]"
"image-keyboard-response","138","159695","0.0-5.0-1.67","5efc1d4ee23e2a011ded073e","bdp_cybrbll","Sun Apr 09 2023 15:32:19 GMT-0700 (Pacific Daylight Time)","438061","1","3","","null","","","","observe","","img/1to3/1.png","null","158","415","0.5","0.5","1","3","",""
"animation","139","160984","0.0-5.0-2.67","5efc1d4ee23e2a011ded073e","bdp_cybrbll","Sun Apr 09 2023 15:32:19 GMT-0700 (Pacific Daylight Time)","438061","1","3","","","","","","","","","","158","","","","1","3","[{""stimulus"":""img/1to3/1.png"",""time"":100},{""stimulus"":""img/1to3/2.png"",""time"":198},{""stimulus"":""img/1to3/3.png"",""time"":297},{""stimulus"":""img/1to3/4.png"",""time"":397},{""stimulus"":""img/1to3/5.png"",""time"":496},{""stimulus"":""img/1to3/6.png"",""time"":594},{""stimulus"":""img/1to3/7.png"",""time"":694},{""stimulus"":""img/1to3/8.png"",""time"":793},{""stimulus"":""img/1to3/9.png"",""time"":891},{""stimulus"":""img/1to3/10.png"",""time"":991},{""stimulus"":""img/1to3/11.png"",""time"":1089},{""stimulus"":""img/1to3/12.png"",""time"":1189}]","[]"
"image-keyboard-response","140","161832","0.0-5.0-1.68","5efc1d4ee23e2a011ded073e","bdp_cybrbll","Sun Apr 09 2023 15:32:19 GMT-0700 (Pacific Daylight Time)","438061","1","3","","null","","","","observe","","img/3to2/1.png","null","157","847","0.5","0.5","3","2","",""
"animation","141","163120","0.0-5.0-2.68","5efc1d4ee23e2a011ded073e","bdp_cybrbll","Sun Apr 09 2023 15:32:19 GMT-0700 (Pacific Daylight Time)","438061","1","3","","","","","","","","","","157","","","","3","2","[{""stimulus"":""img/3to2/1.png"",""time"":100},{""stimulus"":""img/3to2/2.png"",""time"":199},{""stimulus"":""img/3to2/3.png"",""time"":299},{""stimulus"":""img/3to2/4.png"",""time"":397},{""stimulus"":""img/3to2/5.png"",""time"":496},{""stimulus"":""img/3to2/6.png"",""time"":595},{""stimulus"":""img/3to2/7.png"",""time"":694},{""stimulus"":""img/3to2/8.png"",""time"":793},{""stimulus"":""img/3to2/9.png"",""time"":893},{""stimulus"":""img/3to2/10.png"",""time"":991},{""stimulus"":""img/3to2/11.png"",""time"":1090},{""stimulus"":""img/3to2/12.png"",""time"":1190}]","[]"
"image-keyboard-response","142","163395","0.0-5.0-1.69","5efc1d4ee23e2a011ded073e","bdp_cybrbll","Sun Apr 09 2023 15:32:19 GMT-0700 (Pacific Daylight Time)","438061","1","3","","274","","","","choice","","img/2to1/1.png","2","156","444","0.5","0.5","2","3","",""
"animation","143","164684","0.0-5.0-2.69","5efc1d4ee23e2a011ded073e","bdp_cybrbll","Sun Apr 09 2023 15:32:19 GMT-0700 (Pacific Daylight Time)","438061","1","3","","","","","","","","","","156","","","","2","3","[{""stimulus"":""img/2to3/1.png"",""time"":100},{""stimulus"":""img/2to3/2.png"",""time"":200},{""stimulus"":""img/2to3/3.png"",""time"":299},{""stimulus"":""img/2to3/4.png"",""time"":397},{""stimulus"":""img/2to3/5.png"",""time"":496},{""stimulus"":""img/2to3/6.png"",""time"":596},{""stimulus"":""img/2to3/7.png"",""time"":694},{""stimulus"":""img/2to3/8.png"",""time"":793},{""stimulus"":""img/2to3/9.png"",""time"":893},{""stimulus"":""img/2to3/10.png"",""time"":991},{""stimulus"":""img/2to3/11.png"",""time"":1090},{""stimulus"":""img/2to3/12.png"",""time"":1189}]","[]"
"image-keyboard-response","144","165236","0.0-5.0-1.70","5efc1d4ee23e2a011ded073e","bdp_cybrbll","Sun Apr 09 2023 15:32:19 GMT-0700 (Pacific Daylight Time)","438061","1","3","","null","","","","observe","","img/3to2/1.png","null","155","550","0.5","0.5","3","2","",""
"animation","145","166524","0.0-5.0-2.70","5efc1d4ee23e2a011ded073e","bdp_cybrbll","Sun Apr 09 2023 15:32:19 GMT-0700 (Pacific Daylight Time)","438061","1","3","","","","","","","","","","155","","","","3","2","[{""stimulus"":""img/3to2/1.png"",""time"":100},{""stimulus"":""img/3to2/2.png"",""time"":200},{""stimulus"":""img/3to2/3.png"",""time"":298},{""stimulus"":""img/3to2/4.png"",""time"":397},{""stimulus"":""img/3to2/5.png"",""time"":496},{""stimulus"":""img/3to2/6.png"",""time"":594},{""stimulus"":""img/3to2/7.png"",""time"":694},{""stimulus"":""img/3to2/8.png"",""time"":794},{""stimulus"":""img/3to2/9.png"",""time"":892},{""stimulus"":""img/3to2/10.png"",""time"":991},{""stimulus"":""img/3to2/11.png"",""time"":1090},{""stimulus"":""img/3to2/12.png"",""time"":1189}]","[]"
"image-keyboard-response","146","167073","0.0-5.0-1.71","5efc1d4ee23e2a011ded073e","bdp_cybrbll","Sun Apr 09 2023 15:32:19 GMT-0700 (Pacific Daylight Time)","438061","1","3","","548","","","","choice","","img/2to1/1.png","2","154","666","0.5","0.5","2","3","",""
"animation","147","168361","0.0-5.0-2.71","5efc1d4ee23e2a011ded073e","bdp_cybrbll","Sun Apr 09 2023 15:32:19 GMT-0700 (Pacific Daylight Time)","438061","1","3","","","","","","","","","","154","","","","2","3","[{""stimulus"":""img/2to3/1.png"",""time"":100},{""stimulus"":""img/2to3/2.png"",""time"":200},{""stimulus"":""img/2to3/3.png"",""time"":298},{""stimulus"":""img/2to3/4.png"",""time"":397},{""stimulus"":""img/2to3/5.png"",""time"":497},{""stimulus"":""img/2to3/6.png"",""time"":596},{""stimulus"":""img/2to3/7.png"",""time"":694},{""stimulus"":""img/2to3/8.png"",""time"":793},{""stimulus"":""img/2to3/9.png"",""time"":892},{""stimulus"":""img/2to3/10.png"",""time"":992},{""stimulus"":""img/2to3/11.png"",""time"":1091},{""stimulus"":""img/2to3/12.png"",""time"":1189}]","[]"
"image-keyboard-response","148","168671","0.0-5.0-1.72","5efc1d4ee23e2a011ded073e","bdp_cybrbll","Sun Apr 09 2023 15:32:19 GMT-0700 (Pacific Daylight Time)","438061","1","3","","null","","","","observe","","img/3to2/1.png","null","153","309","0.5","0.5","3","1","",""
"animation","149","169959","0.0-5.0-2.72","5efc1d4ee23e2a011ded073e","bdp_cybrbll","Sun Apr 09 2023 15:32:19 GMT-0700 (Pacific Daylight Time)","438061","1","3","","","","","","","","","","153","","","","3","1","[{""stimulus"":""img/3to1/1.png"",""time"":101},{""stimulus"":""img/3to1/2.png"",""time"":200},{""stimulus"":""img/3to1/3.png"",""time"":298},{""stimulus"":""img/3to1/4.png"",""time"":397},{""stimulus"":""img/3to1/5.png"",""time"":497},{""stimulus"":""img/3to1/6.png"",""time"":595},{""stimulus"":""img/3to1/7.png"",""time"":694},{""stimulus"":""img/3to1/8.png"",""time"":794},{""stimulus"":""img/3to1/9.png"",""time"":893},{""stimulus"":""img/3to1/10.png"",""time"":992},{""stimulus"":""img/3to1/11.png"",""time"":1090},{""stimulus"":""img/3to1/12.png"",""time"":1190}]","[]"
"image-keyboard-response","150","170126","0.0-5.0-1.73","5efc1d4ee23e2a011ded073e","bdp_cybrbll","Sun Apr 09 2023 15:32:19 GMT-0700 (Pacific Daylight Time)","438061","1","3","","null","","","","observe","","img/1to3/1.png","null","152","165","0.5","0.5","1","2","",""
"animation","151","171414","0.0-5.0-2.73","5efc1d4ee23e2a011ded073e","bdp_cybrbll","Sun Apr 09 2023 15:32:19 GMT-0700 (Pacific Daylight Time)","438061","1","3","","","","","","","","","","152","","","","1","2","[{""stimulus"":""img/1to2/1.png"",""time"":101},{""stimulus"":""img/1to2/2.png"",""time"":199},{""stimulus"":""img/1to2/3.png"",""time"":299},{""stimulus"":""img/1to2/4.png"",""time"":397},{""stimulus"":""img/1to2/5.png"",""time"":497},{""stimulus"":""img/1to2/6.png"",""time"":595},{""stimulus"":""img/1to2/7.png"",""time"":695},{""stimulus"":""img/1to2/8.png"",""time"":793},{""stimulus"":""img/1to2/9.png"",""time"":893},{""stimulus"":""img/1to2/10.png"",""time"":992},{""stimulus"":""img/1to2/11.png"",""time"":1091},{""stimulus"":""img/1to2/12.png"",""time"":1189}]","[]"
"image-keyboard-response","152","171510","0.0-5.0-1.74","5efc1d4ee23e2a011ded073e","bdp_cybrbll","Sun Apr 09 2023 15:32:19 GMT-0700 (Pacific Daylight Time)","438061","1","3","","96","","","","choice","","img/2to1/1.png","2","151","448","0.5","0.5","2","3","",""
"animation","153","172798","0.0-5.0-2.74","5efc1d4ee23e2a011ded073e","bdp_cybrbll","Sun Apr 09 2023 15:32:19 GMT-0700 (Pacific Daylight Time)","438061","1","3","","","","","","","","","","151","","","","2","3","[{""stimulus"":""img/2to3/1.png"",""time"":99},{""stimulus"":""img/2to3/2.png"",""time"":199},{""stimulus"":""img/2to3/3.png"",""time"":298},{""stimulus"":""img/2to3/4.png"",""time"":397},{""stimulus"":""img/2to3/5.png"",""time"":496},{""stimulus"":""img/2to3/6.png"",""time"":595},{""stimulus"":""img/2to3/7.png"",""time"":693},{""stimulus"":""img/2to3/8.png"",""time"":793},{""stimulus"":""img/2to3/9.png"",""time"":892},{""stimulus"":""img/2to3/10.png"",""time"":991},{""stimulus"":""img/2to3/11.png"",""time"":1090},{""stimulus"":""img/2to3/12.png"",""time"":1189}]","[]"
"image-keyboard-response","154","173257","0.0-5.0-1.75","5efc1d4ee23e2a011ded073e","bdp_cybrbll","Sun Apr 09 2023 15:32:19 GMT-0700 (Pacific Daylight Time)","438061","1","3","","null","","","","observe","","img/3to2/1.png","null","150","457","0.5","0.5","3","1","",""
"animation","155","174545","0.0-5.0-2.75","5efc1d4ee23e2a011ded073e","bdp_cybrbll","Sun Apr 09 2023 15:32:19 GMT-0700 (Pacific Daylight Time)","438061","1","3","","","","","","","","","","150","","","","3","1","[{""stimulus"":""img/3to1/1.png"",""time"":100},{""stimulus"":""img/3to1/2.png"",""time"":199},{""stimulus"":""img/3to1/3.png"",""time"":298},{""stimulus"":""img/3to1/4.png"",""time"":398},{""stimulus"":""img/3to1/5.png"",""time"":496},{""stimulus"":""img/3to1/6.png"",""time"":596},{""stimulus"":""img/3to1/7.png"",""time"":694},{""stimulus"":""img/3to1/8.png"",""time"":794},{""stimulus"":""img/3to1/9.png"",""time"":892},{""stimulus"":""img/3to1/10.png"",""time"":991},{""stimulus"":""img/3to1/11.png"",""time"":1090},{""stimulus"":""img/3to1/12.png"",""time"":1189}]","[]"
"image-keyboard-response","156","174905","0.0-5.0-1.76","5efc1d4ee23e2a011ded073e","bdp_cybrbll","Sun Apr 09 2023 15:32:19 GMT-0700 (Pacific Daylight Time)","438061","1","3","","null","","","","observe","","img/1to3/1.png","null","149","359","0.5","0.1","1","3","",""
"animation","157","176193","0.0-5.0-2.76","5efc1d4ee23e2a011ded073e","bdp_cybrbll","Sun Apr 09 2023 15:32:19 GMT-0700 (Pacific Daylight Time)","438061","1","3","","","","","","","","","","149","","","","1","3","[{""stimulus"":""img/1to3/1.png"",""time"":100},{""stimulus"":""img/1to3/2.png"",""time"":199},{""stimulus"":""img/1to3/3.png"",""time"":298},{""stimulus"":""img/1to3/4.png"",""time"":396},{""stimulus"":""img/1to3/5.png"",""time"":497},{""stimulus"":""img/1to3/6.png"",""time"":596},{""stimulus"":""img/1to3/7.png"",""time"":694},{""stimulus"":""img/1to3/8.png"",""time"":793},{""stimulus"":""img/1to3/9.png"",""time"":892},{""stimulus"":""img/1to3/10.png"",""time"":990},{""stimulus"":""img/1to3/11.png"",""time"":1090},{""stimulus"":""img/1to3/12.png"",""time"":1189}]","[]"
"image-keyboard-response","158","176679","0.0-5.0-1.77","5efc1d4ee23e2a011ded073e","bdp_cybrbll","Sun Apr 09 2023 15:32:19 GMT-0700 (Pacific Daylight Time)","438061","1","3","","null","","","","observe","","img/3to2/1.png","null","148","484","0.5","0.1","3","1","",""
"animation","159","177966","0.0-5.0-2.77","5efc1d4ee23e2a011ded073e","bdp_cybrbll","Sun Apr 09 2023 15:32:19 GMT-0700 (Pacific Daylight Time)","438061","1","3","","","","","","","","","","148","","","","3","1","[{""stimulus"":""img/3to1/1.png"",""time"":100},{""stimulus"":""img/3to1/2.png"",""time"":199},{""stimulus"":""img/3to1/3.png"",""time"":298},{""stimulus"":""img/3to1/4.png"",""time"":398},{""stimulus"":""img/3to1/5.png"",""time"":496},{""stimulus"":""img/3to1/6.png"",""time"":595},{""stimulus"":""img/3to1/7.png"",""time"":695},{""stimulus"":""img/3to1/8.png"",""time"":793},{""stimulus"":""img/3to1/9.png"",""time"":892},{""stimulus"":""img/3to1/10.png"",""time"":991},{""stimulus"":""img/3to1/11.png"",""time"":1090},{""stimulus"":""img/3to1/12.png"",""time"":1189}]","[]"
"image-keyboard-response","160","178167","0.0-5.0-1.78","5efc1d4ee23e2a011ded073e","bdp_cybrbll","Sun Apr 09 2023 15:32:19 GMT-0700 (Pacific Daylight Time)","438061","1","3","","null","","","","observe","","img/1to3/1.png","null","147","199","0.5","0.1","1","3","",""
"animation","161","179455","0.0-5.0-2.78","5efc1d4ee23e2a011ded073e","bdp_cybrbll","Sun Apr 09 2023 15:32:19 GMT-0700 (Pacific Daylight Time)","438061","1","3","","","","","","","","","","147","","","","1","3","[{""stimulus"":""img/1to3/1.png"",""time"":101},{""stimulus"":""img/1to3/2.png"",""time"":199},{""stimulus"":""img/1to3/3.png"",""time"":298},{""stimulus"":""img/1to3/4.png"",""time"":397},{""stimulus"":""img/1to3/5.png"",""time"":496},{""stimulus"":""img/1to3/6.png"",""time"":594},{""stimulus"":""img/1to3/7.png"",""time"":694},{""stimulus"":""img/1to3/8.png"",""time"":793},{""stimulus"":""img/1to3/9.png"",""time"":892},{""stimulus"":""img/1to3/10.png"",""time"":991},{""stimulus"":""img/1to3/11.png"",""time"":1090},{""stimulus"":""img/1to3/12.png"",""time"":1189}]","[]"
"image-keyboard-response","162","179746","0.0-5.0-1.79","5efc1d4ee23e2a011ded073e","bdp_cybrbll","Sun Apr 09 2023 15:32:19 GMT-0700 (Pacific Daylight Time)","438061","1","3","","null","","","","observe","","img/3to2/1.png","null","146","290","0.5","0.1","3","1","",""
"animation","163","181034","0.0-5.0-2.79","5efc1d4ee23e2a011ded073e","bdp_cybrbll","Sun Apr 09 2023 15:32:19 GMT-0700 (Pacific Daylight Time)","438061","1","3","","","","","","","","","","146","","","","3","1","[{""stimulus"":""img/3to1/1.png"",""time"":101},{""stimulus"":""img/3to1/2.png"",""time"":200},{""stimulus"":""img/3to1/3.png"",""time"":298},{""stimulus"":""img/3to1/4.png"",""time"":398},{""stimulus"":""img/3to1/5.png"",""time"":496},{""stimulus"":""img/3to1/6.png"",""time"":595},{""stimulus"":""img/3to1/7.png"",""time"":694},{""stimulus"":""img/3to1/8.png"",""time"":794},{""stimulus"":""img/3to1/9.png"",""time"":892},{""stimulus"":""img/3to1/10.png"",""time"":991},{""stimulus"":""img/3to1/11.png"",""time"":1091},{""stimulus"":""img/3to1/12.png"",""time"":1189}]","[]"
"image-keyboard-response","164","181398","0.0-5.0-1.80","5efc1d4ee23e2a011ded073e","bdp_cybrbll","Sun Apr 09 2023 15:32:19 GMT-0700 (Pacific Daylight Time)","438061","1","3","","null","","","","observe","","img/1to3/1.png","null","145","363","0.5","0.1","1","3","",""
"animation","165","182686","0.0-5.0-2.80","5efc1d4ee23e2a011ded073e","bdp_cybrbll","Sun Apr 09 2023 15:32:19 GMT-0700 (Pacific Daylight Time)","438061","1","3","","","","","","","","","","145","","","","1","3","[{""stimulus"":""img/1to3/1.png"",""time"":100},{""stimulus"":""img/1to3/2.png"",""time"":199},{""stimulus"":""img/1to3/3.png"",""time"":299},{""stimulus"":""img/1to3/4.png"",""time"":397},{""stimulus"":""img/1to3/5.png"",""time"":495},{""stimulus"":""img/1to3/6.png"",""time"":595},{""stimulus"":""img/1to3/7.png"",""time"":695},{""stimulus"":""img/1to3/8.png"",""time"":792},{""stimulus"":""img/1to3/9.png"",""time"":892},{""stimulus"":""img/1to3/10.png"",""time"":990},{""stimulus"":""img/1to3/11.png"",""time"":1090},{""stimulus"":""img/1to3/12.png"",""time"":1189}]","[]"
"image-keyboard-response","166","183303","0.0-5.0-1.81","5efc1d4ee23e2a011ded073e","bdp_cybrbll","Sun Apr 09 2023 15:32:19 GMT-0700 (Pacific Daylight Time)","438061","1","3","","null","","","","observe","","img/3to2/1.png","null","144","616","0.5","0.1","3","1","",""
"animation","167","184590","0.0-5.0-2.81","5efc1d4ee23e2a011ded073e","bdp_cybrbll","Sun Apr 09 2023 15:32:19 GMT-0700 (Pacific Daylight Time)","438061","1","3","","","","","","","","","","144","","","","3","1","[{""stimulus"":""img/3to1/1.png"",""time"":99},{""stimulus"":""img/3to1/2.png"",""time"":200},{""stimulus"":""img/3to1/3.png"",""time"":298},{""stimulus"":""img/3to1/4.png"",""time"":398},{""stimulus"":""img/3to1/5.png"",""time"":496},{""stimulus"":""img/3to1/6.png"",""time"":595},{""stimulus"":""img/3to1/7.png"",""time"":694},{""stimulus"":""img/3to1/8.png"",""time"":793},{""stimulus"":""img/3to1/9.png"",""time"":892},{""stimulus"":""img/3to1/10.png"",""time"":991},{""stimulus"":""img/3to1/11.png"",""time"":1089},{""stimulus"":""img/3to1/12.png"",""time"":1189}]","[]"
"image-keyboard-response","168","184879","0.0-5.0-1.82","5efc1d4ee23e2a011ded073e","bdp_cybrbll","Sun Apr 09 2023 15:32:19 GMT-0700 (Pacific Daylight Time)","438061","1","3","","null","","","","observe","","img/1to3/1.png","null","143","287","0.5","0.1","1","2","",""
"animation","169","186166","0.0-5.0-2.82","5efc1d4ee23e2a011ded073e","bdp_cybrbll","Sun Apr 09 2023 15:32:19 GMT-0700 (Pacific Daylight Time)","438061","1","3","","","","","","","","","","143","","","","1","2","[{""stimulus"":""img/1to2/1.png"",""time"":100},{""stimulus"":""img/1to2/2.png"",""time"":198},{""stimulus"":""img/1to2/3.png"",""time"":298},{""stimulus"":""img/1to2/4.png"",""time"":397},{""stimulus"":""img/1to2/5.png"",""time"":497},{""stimulus"":""img/1to2/6.png"",""time"":596},{""stimulus"":""img/1to2/7.png"",""time"":694},{""stimulus"":""img/1to2/8.png"",""time"":794},{""stimulus"":""img/1to2/9.png"",""time"":892},{""stimulus"":""img/1to2/10.png"",""time"":991},{""stimulus"":""img/1to2/11.png"",""time"":1091},{""stimulus"":""img/1to2/12.png"",""time"":1190}]","[]"
"image-keyboard-response","170","186294","0.0-5.0-1.83","5efc1d4ee23e2a011ded073e","bdp_cybrbll","Sun Apr 09 2023 15:32:19 GMT-0700 (Pacific Daylight Time)","438061","1","3","","127","","","","choice","","img/2to1/1.png","2","142","197","0.5","0.1","2","3","",""
"animation","171","187582","0.0-5.0-2.83","5efc1d4ee23e2a011ded073e","bdp_cybrbll","Sun Apr 09 2023 15:32:19 GMT-0700 (Pacific Daylight Time)","438061","1","3","","","","","","","","","","142","","","","2","3","[{""stimulus"":""img/2to3/1.png"",""time"":100},{""stimulus"":""img/2to3/2.png"",""time"":199},{""stimulus"":""img/2to3/3.png"",""time"":298},{""stimulus"":""img/2to3/4.png"",""time"":397},{""stimulus"":""img/2to3/5.png"",""time"":496},{""stimulus"":""img/2to3/6.png"",""time"":595},{""stimulus"":""img/2to3/7.png"",""time"":694},{""stimulus"":""img/2to3/8.png"",""time"":794},{""stimulus"":""img/2to3/9.png"",""time"":892},{""stimulus"":""img/2to3/10.png"",""time"":990},{""stimulus"":""img/2to3/11.png"",""time"":1090},{""stimulus"":""img/2to3/12.png"",""time"":1189}]","[]"
"image-keyboard-response","172","187918","0.0-5.0-1.84","5efc1d4ee23e2a011ded073e","bdp_cybrbll","Sun Apr 09 2023 15:32:19 GMT-0700 (Pacific Daylight Time)","438061","1","3","","null","","","","observe","","img/3to2/1.png","null","141","335","0.5","0.1","3","1","",""
"animation","173","189206","0.0-5.0-2.84","5efc1d4ee23e2a011ded073e","bdp_cybrbll","Sun Apr 09 2023 15:32:19 GMT-0700 (Pacific Daylight Time)","438061","1","3","","","","","","","","","","141","","","","3","1","[{""stimulus"":""img/3to1/1.png"",""time"":101},{""stimulus"":""img/3to1/2.png"",""time"":201},{""stimulus"":""img/3to1/3.png"",""time"":298},{""stimulus"":""img/3to1/4.png"",""time"":398},{""stimulus"":""img/3to1/5.png"",""time"":497},{""stimulus"":""img/3to1/6.png"",""time"":595},{""stimulus"":""img/3to1/7.png"",""time"":694},{""stimulus"":""img/3to1/8.png"",""time"":793},{""stimulus"":""img/3to1/9.png"",""time"":893},{""stimulus"":""img/3to1/10.png"",""time"":991},{""stimulus"":""img/3to1/11.png"",""time"":1090},{""stimulus"":""img/3to1/12.png"",""time"":1190}]","[]"
"image-keyboard-response","174","189540","0.0-5.0-1.85","5efc1d4ee23e2a011ded073e","bdp_cybrbll","Sun Apr 09 2023 15:32:19 GMT-0700 (Pacific Daylight Time)","438061","1","3","","null","","","","observe","","img/1to3/1.png","null","140","332","0.5","0.1","1","2","",""
"animation","175","190828","0.0-5.0-2.85","5efc1d4ee23e2a011ded073e","bdp_cybrbll","Sun Apr 09 2023 15:32:19 GMT-0700 (Pacific Daylight Time)","438061","1","3","","","","","","","","","","140","","","","1","2","[{""stimulus"":""img/1to2/1.png"",""time"":102},{""stimulus"":""img/1to2/2.png"",""time"":199},{""stimulus"":""img/1to2/3.png"",""time"":298},{""stimulus"":""img/1to2/4.png"",""time"":397},{""stimulus"":""img/1to2/5.png"",""time"":496},{""stimulus"":""img/1to2/6.png"",""time"":596},{""stimulus"":""img/1to2/7.png"",""time"":695},{""stimulus"":""img/1to2/8.png"",""time"":793},{""stimulus"":""img/1to2/9.png"",""time"":892},{""stimulus"":""img/1to2/10.png"",""time"":991},{""stimulus"":""img/1to2/11.png"",""time"":1089},{""stimulus"":""img/1to2/12.png"",""time"":1190}]","[]"
"image-keyboard-response","176","191953","0.0-5.0-1.86","5efc1d4ee23e2a011ded073e","bdp_cybrbll","Sun Apr 09 2023 15:32:19 GMT-0700 (Pacific Daylight Time)","438061","1","3","","1125","","","","choice","","img/2to1/1.png","2","139","260","0.5","0.1","2","3","",""
"animation","177","193241","0.0-5.0-2.86","5efc1d4ee23e2a011ded073e","bdp_cybrbll","Sun Apr 09 2023 15:32:19 GMT-0700 (Pacific Daylight Time)","438061","1","3","","","","","","","","","","139","","","","2","3","[{""stimulus"":""img/2to3/1.png"",""time"":102},{""stimulus"":""img/2to3/2.png"",""time"":199},{""stimulus"":""img/2to3/3.png"",""time"":298},{""stimulus"":""img/2to3/4.png"",""time"":398},{""stimulus"":""img/2to3/5.png"",""time"":497},{""stimulus"":""img/2to3/6.png"",""time"":595},{""stimulus"":""img/2to3/7.png"",""time"":695},{""stimulus"":""img/2to3/8.png"",""time"":793},{""stimulus"":""img/2to3/9.png"",""time"":892},{""stimulus"":""img/2to3/10.png"",""time"":992},{""stimulus"":""img/2to3/11.png"",""time"":1090},{""stimulus"":""img/2to3/12.png"",""time"":1190}]","[]"
"image-keyboard-response","178","193949","0.0-5.0-1.87","5efc1d4ee23e2a011ded073e","bdp_cybrbll","Sun Apr 09 2023 15:32:19 GMT-0700 (Pacific Daylight Time)","438061","1","3","","null","","","","observe","","img/3to2/1.png","null","138","707","0.5","0.1","3","1","",""
"animation","179","195237","0.0-5.0-2.87","5efc1d4ee23e2a011ded073e","bdp_cybrbll","Sun Apr 09 2023 15:32:19 GMT-0700 (Pacific Daylight Time)","438061","1","3","","","","","","","","","","138","","","","3","1","[{""stimulus"":""img/3to1/1.png"",""time"":100},{""stimulus"":""img/3to1/2.png"",""time"":198},{""stimulus"":""img/3to1/3.png"",""time"":297},{""stimulus"":""img/3to1/4.png"",""time"":397},{""stimulus"":""img/3to1/5.png"",""time"":495},{""stimulus"":""img/3to1/6.png"",""time"":595},{""stimulus"":""img/3to1/7.png"",""time"":694},{""stimulus"":""img/3to1/8.png"",""time"":792},{""stimulus"":""img/3to1/9.png"",""time"":892},{""stimulus"":""img/3to1/10.png"",""time"":991},{""stimulus"":""img/3to1/11.png"",""time"":1089},{""stimulus"":""img/3to1/12.png"",""time"":1189}]","[]"
"image-keyboard-response","180","196110","0.0-5.0-1.88","5efc1d4ee23e2a011ded073e","bdp_cybrbll","Sun Apr 09 2023 15:32:19 GMT-0700 (Pacific Daylight Time)","438061","1","3","","null","","","","observe","","img/1to3/1.png","null","137","871","0.5","0.1","1","3","",""
"animation","181","197398","0.0-5.0-2.88","5efc1d4ee23e2a011ded073e","bdp_cybrbll","Sun Apr 09 2023 15:32:19 GMT-0700 (Pacific Daylight Time)","438061","1","3","","","","","","","","","","137","","","","1","3","[{""stimulus"":""img/1to3/1.png"",""time"":100},{""stimulus"":""img/1to3/2.png"",""time"":199},{""stimulus"":""img/1to3/3.png"",""time"":298},{""stimulus"":""img/1to3/4.png"",""time"":397},{""stimulus"":""img/1to3/5.png"",""time"":497},{""stimulus"":""img/1to3/6.png"",""time"":595},{""stimulus"":""img/1to3/7.png"",""time"":695},{""stimulus"":""img/1to3/8.png"",""time"":792},{""stimulus"":""img/1to3/9.png"",""time"":892},{""stimulus"":""img/1to3/10.png"",""time"":991},{""stimulus"":""img/1to3/11.png"",""time"":1090},{""stimulus"":""img/1to3/12.png"",""time"":1189}]","[]"
"image-keyboard-response","182","197665","0.0-5.0-1.89","5efc1d4ee23e2a011ded073e","bdp_cybrbll","Sun Apr 09 2023 15:32:19 GMT-0700 (Pacific Daylight Time)","438061","1","3","","null","","","","observe","","img/3to2/1.png","null","136","265","0.5","0.1","3","1","",""
"animation","183","198953","0.0-5.0-2.89","5efc1d4ee23e2a011ded073e","bdp_cybrbll","Sun Apr 09 2023 15:32:19 GMT-0700 (Pacific Daylight Time)","438061","1","3","","","","","","","","","","136","","","","3","1","[{""stimulus"":""img/3to1/1.png"",""time"":100},{""stimulus"":""img/3to1/2.png"",""time"":199},{""stimulus"":""img/3to1/3.png"",""time"":299},{""stimulus"":""img/3to1/4.png"",""time"":397},{""stimulus"":""img/3to1/5.png"",""time"":496},{""stimulus"":""img/3to1/6.png"",""time"":596},{""stimulus"":""img/3to1/7.png"",""time"":695},{""stimulus"":""img/3to1/8.png"",""time"":793},{""stimulus"":""img/3to1/9.png"",""time"":892},{""stimulus"":""img/3to1/10.png"",""time"":992},{""stimulus"":""img/3to1/11.png"",""time"":1091},{""stimulus"":""img/3to1/12.png"",""time"":1190}]","[]"
"image-keyboard-response","184","199202","0.0-5.0-1.90","5efc1d4ee23e2a011ded073e","bdp_cybrbll","Sun Apr 09 2023 15:32:19 GMT-0700 (Pacific Daylight Time)","438061","1","3","","null","","","","observe","","img/1to3/1.png","null","135","248","0.5","0.1","1","3","",""
"animation","185","200490","0.0-5.0-2.90","5efc1d4ee23e2a011ded073e","bdp_cybrbll","Sun Apr 09 2023 15:32:19 GMT-0700 (Pacific Daylight Time)","438061","1","3","","","","","","","","","","135","","","","1","3","[{""stimulus"":""img/1to3/1.png"",""time"":100},{""stimulus"":""img/1to3/2.png"",""time"":200},{""stimulus"":""img/1to3/3.png"",""time"":298},{""stimulus"":""img/1to3/4.png"",""time"":397},{""stimulus"":""img/1to3/5.png"",""time"":497},{""stimulus"":""img/1to3/6.png"",""time"":595},{""stimulus"":""img/1to3/7.png"",""time"":695},{""stimulus"":""img/1to3/8.png"",""time"":794},{""stimulus"":""img/1to3/9.png"",""time"":901},{""stimulus"":""img/1to3/10.png"",""time"":991},{""stimulus"":""img/1to3/11.png"",""time"":1090},{""stimulus"":""img/1to3/12.png"",""time"":1189}]","[]"
"image-keyboard-response","186","200704","0.0-5.0-1.91","5efc1d4ee23e2a011ded073e","bdp_cybrbll","Sun Apr 09 2023 15:32:19 GMT-0700 (Pacific Daylight Time)","438061","1","3","","null","","","","observe","","img/3to2/1.png","null","134","212","0.5","0.1","3","1","",""
"animation","187","201992","0.0-5.0-2.91","5efc1d4ee23e2a011ded073e","bdp_cybrbll","Sun Apr 09 2023 15:32:19 GMT-0700 (Pacific Daylight Time)","438061","1","3","","","","","","","","","","134","","","","3","1","[{""stimulus"":""img/3to1/1.png"",""time"":101},{""stimulus"":""img/3to1/2.png"",""time"":199},{""stimulus"":""img/3to1/3.png"",""time"":299},{""stimulus"":""img/3to1/4.png"",""time"":397},{""stimulus"":""img/3to1/5.png"",""time"":496},{""stimulus"":""img/3to1/6.png"",""time"":595},{""stimulus"":""img/3to1/7.png"",""time"":694},{""stimulus"":""img/3to1/8.png"",""time"":793},{""stimulus"":""img/3to1/9.png"",""time"":892},{""stimulus"":""img/3to1/10.png"",""time"":991},{""stimulus"":""img/3to1/11.png"",""time"":1090},{""stimulus"":""img/3to1/12.png"",""time"":1190}]","[]"
"image-keyboard-response","188","202382","0.0-5.0-1.92","5efc1d4ee23e2a011ded073e","bdp_cybrbll","Sun Apr 09 2023 15:32:19 GMT-0700 (Pacific Daylight Time)","438061","1","3","","null","","","","observe","","img/1to3/1.png","null","133","388","0.5","0.1","1","2","",""
"animation","189","203670","0.0-5.0-2.92","5efc1d4ee23e2a011ded073e","bdp_cybrbll","Sun Apr 09 2023 15:32:19 GMT-0700 (Pacific Daylight Time)","438061","1","3","","","","","","","","","","133","","","","1","2","[{""stimulus"":""img/1to2/1.png"",""time"":99},{""stimulus"":""img/1to2/2.png"",""time"":199},{""stimulus"":""img/1to2/3.png"",""time"":298},{""stimulus"":""img/1to2/4.png"",""time"":396},{""stimulus"":""img/1to2/5.png"",""time"":495},{""stimulus"":""img/1to2/6.png"",""time"":594},{""stimulus"":""img/1to2/7.png"",""time"":693},{""stimulus"":""img/1to2/8.png"",""time"":793},{""stimulus"":""img/1to2/9.png"",""time"":893},{""stimulus"":""img/1to2/10.png"",""time"":991},{""stimulus"":""img/1to2/11.png"",""time"":1091},{""stimulus"":""img/1to2/12.png"",""time"":1189}]","[]"
"image-keyboard-response","190","203826","0.0-5.0-1.93","5efc1d4ee23e2a011ded073e","bdp_cybrbll","Sun Apr 09 2023 15:32:19 GMT-0700 (Pacific Daylight Time)","438061","1","3","","156","","","","choice","","img/2to1/1.png","1","132","390","0.5","0.1","2","1","",""
