"trial_type","trial_index","time_elapsed","internal_node_id","subject_id","task","startTime","totalTime","fairPartner","unfairPartner","event","trial","time","trialtype","numBlurs","view_history","rt","success","stimulus","key_press","throwsLeft","rtDur","pFair","pUnfair","holder","receiver","animation_sequence","responses"
"pavlovia","0","10","0.0-0.0","631699e51577c995252cf3fc","bdp_cybrbll","Sat Mar 25 2023 19:05:22 GMT-0400 (Eastern Daylight Time)","424656","1","3","","","","","","","","","","","","","","","","","",""
"","","","","631699e51577c995252cf3fc","bdp_cybrbll","Sat Mar 25 2023 19:05:22 GMT-0400 (Eastern Daylight Time)","424656","1","3","focus","1","479","focusevent","","","","","","","","","","","","","",""
"","","","","631699e51577c995252cf3fc","bdp_cybrbll","Sat Mar 25 2023 19:05:22 GMT-0400 (Eastern Daylight Time)","424656","1","3","blur","1","2597","blurevent","1","","","","","","","","","","","","",""
"","","","","631699e51577c995252cf3fc","bdp_cybrbll","Sat Mar 25 2023 19:05:22 GMT-0400 (Eastern Daylight Time)","424656","1","3","focus","1","4428","focusevent","","","","","","","","","","","","","",""
"instructions","1","5579","0.0-1.0","631699e51577c995252cf3fc","bdp_cybrbll","Sat Mar 25 2023 19:05:22 GMT-0400 (Eastern Daylight Time)","424656","1","3","","","","","","[{""page_index"":0,""viewing_time"":5568}]","5568","","","","","","","","","","",""
"","","","","631699e51577c995252cf3fc","bdp_cybrbll","Sat Mar 25 2023 19:05:22 GMT-0400 (Eastern Daylight Time)","424656","1","3","fullscreenenter","2","6726","fullscreenenter","","","","","","","","","","","","","",""
"fullscreen","2","7701","0.0-2.0","631699e51577c995252cf3fc","bdp_cybrbll","Sat Mar 25 2023 19:05:22 GMT-0400 (Eastern Daylight Time)","424656","1","3","","","","","","","","true","","","","","","","","","",""
"instructions","3","16043","0.0-4.0","631699e51577c995252cf3fc","bdp_cybrbll","Sat Mar 25 2023 19:05:22 GMT-0400 (Eastern Daylight Time)","424656","1","3","","","","","","[{""page_index"":0,""viewing_time"":8341}]","8341","","","","","","","","","","",""
"image-keyboard-response","4","20436","0.0-5.0-0.0-0.0","631699e51577c995252cf3fc","bdp_cybrbll","Sat Mar 25 2023 19:05:22 GMT-0400 (Eastern Daylight Time)","424656","1","3","","","","blurwarn","1","","4391","","","49","","","","","","","",""
"image-keyboard-response","5","21300","0.0-5.0-1.0","631699e51577c995252cf3fc","bdp_cybrbll","Sat Mar 25 2023 19:05:22 GMT-0400 (Eastern Daylight Time)","424656","1","3","","","","choice","","","606","","img/2to1/1.png","1","225","862","0.5","0.5","2","1","",""
"animation","6","22590","0.0-5.0-2.0","631699e51577c995252cf3fc","bdp_cybrbll","Sat Mar 25 2023 19:05:22 GMT-0400 (Eastern Daylight Time)","424656","1","3","","","","","","","","","","","225","","","","2","1","[{""stimulus"":""img/2to1/1.png"",""time"":101},{""stimulus"":""img/2to1/2.png"",""time"":200},{""stimulus"":""img/2to1/3.png"",""time"":299},{""stimulus"":""img/2to1/4.png"",""time"":401},{""stimulus"":""img/2to1/5.png"",""time"":497},{""stimulus"":""img/2to1/6.png"",""time"":597},{""stimulus"":""img/2to1/7.png"",""time"":698},{""stimulus"":""img/2to1/8.png"",""time"":793},{""stimulus"":""img/2to1/9.png"",""time"":900},{""stimulus"":""img/2to1/10.png"",""time"":993},{""stimulus"":""img/2to1/11.png"",""time"":1101},{""stimulus"":""img/2to1/12.png"",""time"":1190}]","[]"
"image-keyboard-response","7","23210","0.0-5.0-1.1","631699e51577c995252cf3fc","bdp_cybrbll","Sat Mar 25 2023 19:05:22 GMT-0400 (Eastern Daylight Time)","424656","1","3","","","","observe","","","null","","img/1to3/1.png","null","224","609","0.5","0.5","1","2","",""
"animation","8","24499","0.0-5.0-2.1","631699e51577c995252cf3fc","bdp_cybrbll","Sat Mar 25 2023 19:05:22 GMT-0400 (Eastern Daylight Time)","424656","1","3","","","","","","","","","","","224","","","","1","2","[{""stimulus"":""img/1to2/1.png"",""time"":109},{""stimulus"":""img/1to2/2.png"",""time"":202},{""stimulus"":""img/1to2/3.png"",""time"":309},{""stimulus"":""img/1to2/4.png"",""time"":397},{""stimulus"":""img/1to2/5.png"",""time"":496},{""stimulus"":""img/1to2/6.png"",""time"":606},{""stimulus"":""img/1to2/7.png"",""time"":698},{""stimulus"":""img/1to2/8.png"",""time"":806},{""stimulus"":""img/1to2/9.png"",""time"":900},{""stimulus"":""img/1to2/10.png"",""time"":994},{""stimulus"":""img/1to2/11.png"",""time"":1103},{""stimulus"":""img/1to2/12.png"",""time"":1196}]","[]"
"image-keyboard-response","9","24915","0.0-5.0-1.2","631699e51577c995252cf3fc","bdp_cybrbll","Sat Mar 25 2023 19:05:22 GMT-0400 (Eastern Daylight Time)","424656","1","3","","","","choice","","","416","","img/2to1/1.png","2","223","507","0.5","0.5","2","3","",""
"animation","10","26212","0.0-5.0-2.2","631699e51577c995252cf3fc","bdp_cybrbll","Sat Mar 25 2023 19:05:22 GMT-0400 (Eastern Daylight Time)","424656","1","3","","","","","","","","","","","223","","","","2","3","[{""stimulus"":""img/2to3/1.png"",""time"":113},{""stimulus"":""img/2to3/2.png"",""time"":205},{""stimulus"":""img/2to3/3.png"",""time"":300},{""stimulus"":""img/2to3/4.png"",""time"":410},{""stimulus"":""img/2to3/5.png"",""time"":503},{""stimulus"":""img/2to3/6.png"",""time"":596},{""stimulus"":""img/2to3/7.png"",""time"":706},{""stimulus"":""img/2to3/8.png"",""time"":798},{""stimulus"":""img/2to3/9.png"",""time"":892},{""stimulus"":""img/2to3/10.png"",""time"":1000},{""stimulus"":""img/2to3/11.png"",""time"":1094},{""stimulus"":""img/2to3/12.png"",""time"":1203}]","[]"
"image-keyboard-response","11","26771","0.0-5.0-1.3","631699e51577c995252cf3fc","bdp_cybrbll","Sat Mar 25 2023 19:05:22 GMT-0400 (Eastern Daylight Time)","424656","1","3","","","","observe","","","null","","img/3to2/1.png","null","222","549","0.5","0.5","3","1","",""
"animation","12","28063","0.0-5.0-2.3","631699e51577c995252cf3fc","bdp_cybrbll","Sat Mar 25 2023 19:05:22 GMT-0400 (Eastern Daylight Time)","424656","1","3","","","","","","","","","","","222","","","","3","1","[{""stimulus"":""img/3to1/1.png"",""time"":108},{""stimulus"":""img/3to1/2.png"",""time"":201},{""stimulus"":""img/3to1/3.png"",""time"":298},{""stimulus"":""img/3to1/4.png"",""time"":403},{""stimulus"":""img/3to1/5.png"",""time"":497},{""stimulus"":""img/3to1/6.png"",""time"":603},{""stimulus"":""img/3to1/7.png"",""time"":697},{""stimulus"":""img/3to1/8.png"",""time"":809},{""stimulus"":""img/3to1/9.png"",""time"":902},{""stimulus"":""img/3to1/10.png"",""time"":996},{""stimulus"":""img/3to1/11.png"",""time"":1104},{""stimulus"":""img/3to1/12.png"",""time"":1197}]","[]"
"image-keyboard-response","13","28547","0.0-5.0-1.4","631699e51577c995252cf3fc","bdp_cybrbll","Sat Mar 25 2023 19:05:22 GMT-0400 (Eastern Daylight Time)","424656","1","3","","","","observe","","","null","","img/1to3/1.png","null","221","474","0.5","0.5","1","3","",""
"animation","14","29835","0.0-5.0-2.4","631699e51577c995252cf3fc","bdp_cybrbll","Sat Mar 25 2023 19:05:22 GMT-0400 (Eastern Daylight Time)","424656","1","3","","","","","","","","","","","221","","","","1","3","[{""stimulus"":""img/1to3/1.png"",""time"":108},{""stimulus"":""img/1to3/2.png"",""time"":201},{""stimulus"":""img/1to3/3.png"",""time"":308},{""stimulus"":""img/1to3/4.png"",""time"":403},{""stimulus"":""img/1to3/5.png"",""time"":496},{""stimulus"":""img/1to3/6.png"",""time"":607},{""stimulus"":""img/1to3/7.png"",""time"":699},{""stimulus"":""img/1to3/8.png"",""time"":794},{""stimulus"":""img/1to3/9.png"",""time"":900},{""stimulus"":""img/1to3/10.png"",""time"":995},{""stimulus"":""img/1to3/11.png"",""time"":1090},{""stimulus"":""img/1to3/12.png"",""time"":1198}]","[]"
"image-keyboard-response","15","30429","0.0-5.0-1.5","631699e51577c995252cf3fc","bdp_cybrbll","Sat Mar 25 2023 19:05:22 GMT-0400 (Eastern Daylight Time)","424656","1","3","","","","observe","","","null","","img/3to2/1.png","null","220","589","0.5","0.5","3","2","",""
"animation","16","31719","0.0-5.0-2.5","631699e51577c995252cf3fc","bdp_cybrbll","Sat Mar 25 2023 19:05:22 GMT-0400 (Eastern Daylight Time)","424656","1","3","","","","","","","","","","","220","","","","3","2","[{""stimulus"":""img/3to2/1.png"",""time"":108},{""stimulus"":""img/3to2/2.png"",""time"":201},{""stimulus"":""img/3to2/3.png"",""time"":310},{""stimulus"":""img/3to2/4.png"",""time"":404},{""stimulus"":""img/3to2/5.png"",""time"":512},{""stimulus"":""img/3to2/6.png"",""time"":604},{""stimulus"":""img/3to2/7.png"",""time"":698},{""stimulus"":""img/3to2/8.png"",""time"":807},{""stimulus"":""img/3to2/9.png"",""time"":902},{""stimulus"":""img/3to2/10.png"",""time"":996},{""stimulus"":""img/3to2/11.png"",""time"":1106},{""stimulus"":""img/3to2/12.png"",""time"":1197}]","[]"
"image-keyboard-response","17","32164","0.0-5.0-1.6","631699e51577c995252cf3fc","bdp_cybrbll","Sat Mar 25 2023 19:05:22 GMT-0400 (Eastern Daylight Time)","424656","1","3","","","","choice","","","444","","img/2to1/1.png","1","219","259","0.5","0.5","2","1","",""
"animation","18","33462","0.0-5.0-2.6","631699e51577c995252cf3fc","bdp_cybrbll","Sat Mar 25 2023 19:05:22 GMT-0400 (Eastern Daylight Time)","424656","1","3","","","","","","","","","","","219","","","","2","1","[{""stimulus"":""img/2to1/1.png"",""time"":101},{""stimulus"":""img/2to1/2.png"",""time"":209},{""stimulus"":""img/2to1/3.png"",""time"":299},{""stimulus"":""img/2to1/4.png"",""time"":411},{""stimulus"":""img/2to1/5.png"",""time"":496},{""stimulus"":""img/2to1/6.png"",""time"":597},{""stimulus"":""img/2to1/7.png"",""time"":707},{""stimulus"":""img/2to1/8.png"",""time"":799},{""stimulus"":""img/2to1/9.png"",""time"":893},{""stimulus"":""img/2to1/10.png"",""time"":1004},{""stimulus"":""img/2to1/11.png"",""time"":1096},{""stimulus"":""img/2to1/12.png"",""time"":1190}]","[]"
"image-keyboard-response","19","33913","0.0-5.0-1.7","631699e51577c995252cf3fc","bdp_cybrbll","Sat Mar 25 2023 19:05:22 GMT-0400 (Eastern Daylight Time)","424656","1","3","","","","observe","","","null","","img/1to3/1.png","null","218","440","0.5","0.5","1","2","",""
"animation","20","35204","0.0-5.0-2.7","631699e51577c995252cf3fc","bdp_cybrbll","Sat Mar 25 2023 19:05:22 GMT-0400 (Eastern Daylight Time)","424656","1","3","","","","","","","","","","","218","","","","1","2","[{""stimulus"":""img/1to2/1.png"",""time"":110},{""stimulus"":""img/1to2/2.png"",""time"":199},{""stimulus"":""img/1to2/3.png"",""time"":298},{""stimulus"":""img/1to2/4.png"",""time"":405},{""stimulus"":""img/1to2/5.png"",""time"":499},{""stimulus"":""img/1to2/6.png"",""time"":595},{""stimulus"":""img/1to2/7.png"",""time"":701},{""stimulus"":""img/1to2/8.png"",""time"":795},{""stimulus"":""img/1to2/9.png"",""time"":892},{""stimulus"":""img/1to2/10.png"",""time"":999},{""stimulus"":""img/1to2/11.png"",""time"":1093},{""stimulus"":""img/1to2/12.png"",""time"":1201}]","[]"
"image-keyboard-response","21","35492","0.0-5.0-1.8","631699e51577c995252cf3fc","bdp_cybrbll","Sat Mar 25 2023 19:05:22 GMT-0400 (Eastern Daylight Time)","424656","1","3","","","","choice","","","287","","img/2to1/1.png","1","217","363","0.5","0.5","2","1","",""
"animation","22","36794","0.0-5.0-2.8","631699e51577c995252cf3fc","bdp_cybrbll","Sat Mar 25 2023 19:05:22 GMT-0400 (Eastern Daylight Time)","424656","1","3","","","","","","","","","","","217","","","","2","1","[{""stimulus"":""img/2to1/1.png"",""time"":103},{""stimulus"":""img/2to1/2.png"",""time"":199},{""stimulus"":""img/2to1/3.png"",""time"":307},{""stimulus"":""img/2to1/4.png"",""time"":400},{""stimulus"":""img/2to1/5.png"",""time"":496},{""stimulus"":""img/2to1/6.png"",""time"":602},{""stimulus"":""img/2to1/7.png"",""time"":694},{""stimulus"":""img/2to1/8.png"",""time"":805},{""stimulus"":""img/2to1/9.png"",""time"":899},{""stimulus"":""img/2to1/10.png"",""time"":992},{""stimulus"":""img/2to1/11.png"",""time"":1095},{""stimulus"":""img/2to1/12.png"",""time"":1192}]","[]"
"image-keyboard-response","23","37154","0.0-5.0-1.9","631699e51577c995252cf3fc","bdp_cybrbll","Sat Mar 25 2023 19:05:22 GMT-0400 (Eastern Daylight Time)","424656","1","3","","","","observe","","","null","","img/1to3/1.png","null","216","344","0.5","0.5","1","2","",""
"animation","24","38443","0.0-5.0-2.9","631699e51577c995252cf3fc","bdp_cybrbll","Sat Mar 25 2023 19:05:22 GMT-0400 (Eastern Daylight Time)","424656","1","3","","","","","","","","","","","216","","","","1","2","[{""stimulus"":""img/1to2/1.png"",""time"":110},{""stimulus"":""img/1to2/2.png"",""time"":200},{""stimulus"":""img/1to2/3.png"",""time"":310},{""stimulus"":""img/1to2/4.png"",""time"":403},{""stimulus"":""img/1to2/5.png"",""time"":496},{""stimulus"":""img/1to2/6.png"",""time"":606},{""stimulus"":""img/1to2/7.png"",""time"":698},{""stimulus"":""img/1to2/8.png"",""time"":807},{""stimulus"":""img/1to2/9.png"",""time"":899},{""stimulus"":""img/1to2/10.png"",""time"":994},{""stimulus"":""img/1to2/11.png"",""time"":1102},{""stimulus"":""img/1to2/12.png"",""time"":1196}]","[]"
"image-keyboard-response","25","38813","0.0-5.0-1.10","631699e51577c995252cf3fc","bdp_cybrbll","Sat Mar 25 2023 19:05:22 GMT-0400 (Eastern Daylight Time)","424656","1","3","","","","choice","","","369","","img/2to1/1.png","1","215","1189","0.5","0.5","2","1","",""
"animation","26","40108","0.0-5.0-2.10","631699e51577c995252cf3fc","bdp_cybrbll","Sat Mar 25 2023 19:05:22 GMT-0400 (Eastern Daylight Time)","424656","1","3","","","","","","","","","","","215","","","","2","1","[{""stimulus"":""img/2to1/1.png"",""time"":100},{""stimulus"":""img/2to1/2.png"",""time"":203},{""stimulus"":""img/2to1/3.png"",""time"":298},{""stimulus"":""img/2to1/4.png"",""time"":406},{""stimulus"":""img/2to1/5.png"",""time"":496},{""stimulus"":""img/2to1/6.png"",""time"":609},{""stimulus"":""img/2to1/7.png"",""time"":702},{""stimulus"":""img/2to1/8.png"",""time"":796},{""stimulus"":""img/2to1/9.png"",""time"":904},{""stimulus"":""img/2to1/10.png"",""time"":1000},{""stimulus"":""img/2to1/11.png"",""time"":1095},{""stimulus"":""img/2to1/12.png"",""time"":1203}]","[]"
"image-keyboard-response","27","40578","0.0-5.0-1.11","631699e51577c995252cf3fc","bdp_cybrbll","Sat Mar 25 2023 19:05:22 GMT-0400 (Eastern Daylight Time)","424656","1","3","","","","observe","","","null","","img/1to3/1.png","null","214","457","0.5","0.5","1","2","",""
"animation","28","41869","0.0-5.0-2.11","631699e51577c995252cf3fc","bdp_cybrbll","Sat Mar 25 2023 19:05:22 GMT-0400 (Eastern Daylight Time)","424656","1","3","","","","","","","","","","","214","","","","1","2","[{""stimulus"":""img/1to2/1.png"",""time"":108},{""stimulus"":""img/1to2/2.png"",""time"":199},{""stimulus"":""img/1to2/3.png"",""time"":310},{""stimulus"":""img/1to2/4.png"",""time"":403},{""stimulus"":""img/1to2/5.png"",""time"":512},{""stimulus"":""img/1to2/6.png"",""time"":605},{""stimulus"":""img/1to2/7.png"",""time"":698},{""stimulus"":""img/1to2/8.png"",""time"":808},{""stimulus"":""img/1to2/9.png"",""time"":901},{""stimulus"":""img/1to2/10.png"",""time"":996},{""stimulus"":""img/1to2/11.png"",""time"":1091},{""stimulus"":""img/1to2/12.png"",""time"":1190}]","[]"
"image-keyboard-response","29","42453","0.0-5.0-1.12","631699e51577c995252cf3fc","bdp_cybrbll","Sat Mar 25 2023 19:05:22 GMT-0400 (Eastern Daylight Time)","424656","1","3","","","","choice","","","582","","img/2to1/1.png","2","213","370","0.5","0.5","2","3","",""
"animation","30","43742","0.0-5.0-2.12","631699e51577c995252cf3fc","bdp_cybrbll","Sat Mar 25 2023 19:05:22 GMT-0400 (Eastern Daylight Time)","424656","1","3","","","","","","","","","","","213","","","","2","3","[{""stimulus"":""img/2to3/1.png"",""time"":100},{""stimulus"":""img/2to3/2.png"",""time"":199},{""stimulus"":""img/2to3/3.png"",""time"":298},{""stimulus"":""img/2to3/4.png"",""time"":398},{""stimulus"":""img/2to3/5.png"",""time"":506},{""stimulus"":""img/2to3/6.png"",""time"":600},{""stimulus"":""img/2to3/7.png"",""time"":695},{""stimulus"":""img/2to3/8.png"",""time"":804},{""stimulus"":""img/2to3/9.png"",""time"":897},{""stimulus"":""img/2to3/10.png"",""time"":991},{""stimulus"":""img/2to3/11.png"",""time"":1101},{""stimulus"":""img/2to3/12.png"",""time"":1190}]","[]"
"image-keyboard-response","31","44671","0.0-5.0-1.13","631699e51577c995252cf3fc","bdp_cybrbll","Sat Mar 25 2023 19:05:22 GMT-0400 (Eastern Daylight Time)","424656","1","3","","","","observe","","","null","","img/3to2/1.png","null","212","921","0.5","0.5","3","2","",""
"animation","32","45962","0.0-5.0-2.13","631699e51577c995252cf3fc","bdp_cybrbll","Sat Mar 25 2023 19:05:22 GMT-0400 (Eastern Daylight Time)","424656","1","3","","","","","","","","","","","212","","","","3","2","[{""stimulus"":""img/3to2/1.png"",""time"":111},{""stimulus"":""img/3to2/2.png"",""time"":203},{""stimulus"":""img/3to2/3.png"",""time"":299},{""stimulus"":""img/3to2/4.png"",""time"":407},{""stimulus"":""img/3to2/5.png"",""time"":496},{""stimulus"":""img/3to2/6.png"",""time"":610},{""stimulus"":""img/3to2/7.png"",""time"":702},{""stimulus"":""img/3to2/8.png"",""time"":793},{""stimulus"":""img/3to2/9.png"",""time"":903},{""stimulus"":""img/3to2/10.png"",""time"":991},{""stimulus"":""img/3to2/11.png"",""time"":1105},{""stimulus"":""img/3to2/12.png"",""time"":1209}]","[]"
"image-keyboard-response","33","46077","0.0-5.0-1.14","631699e51577c995252cf3fc","bdp_cybrbll","Sat Mar 25 2023 19:05:22 GMT-0400 (Eastern Daylight Time)","424656","1","3","","","","choice","","","114","","img/2to1/1.png","2","211","595","0.5","0.5","2","3","",""
"animation","34","47377","0.0-5.0-2.14","631699e51577c995252cf3fc","bdp_cybrbll","Sat Mar 25 2023 19:05:22 GMT-0400 (Eastern Daylight Time)","424656","1","3","","","","","","","","","","","211","","","","2","3","[{""stimulus"":""img/2to3/1.png"",""time"":102},{""stimulus"":""img/2to3/2.png"",""time"":212},{""stimulus"":""img/2to3/3.png"",""time"":305},{""stimulus"":""img/2to3/4.png"",""time"":397},{""stimulus"":""img/2to3/5.png"",""time"":508},{""stimulus"":""img/2to3/6.png"",""time"":600},{""stimulus"":""img/2to3/7.png"",""time"":694},{""stimulus"":""img/2to3/8.png"",""time"":803},{""stimulus"":""img/2to3/9.png"",""time"":896},{""stimulus"":""img/2to3/10.png"",""time"":992},{""stimulus"":""img/2to3/11.png"",""time"":1099},{""stimulus"":""img/2to3/12.png"",""time"":1193}]","[]"
"image-keyboard-response","35","47642","0.0-5.0-1.15","631699e51577c995252cf3fc","bdp_cybrbll","Sat Mar 25 2023 19:05:22 GMT-0400 (Eastern Daylight Time)","424656","1","3","","","","observe","","","null","","img/3to2/1.png","null","210","261","0.5","0.5","3","2","",""
"animation","36","48933","0.0-5.0-2.15","631699e51577c995252cf3fc","bdp_cybrbll","Sat Mar 25 2023 19:05:22 GMT-0400 (Eastern Daylight Time)","424656","1","3","","","","","","","","","","","210","","","","3","2","[{""stimulus"":""img/3to2/1.png"",""time"":101},{""stimulus"":""img/3to2/2.png"",""time"":200},{""stimulus"":""img/3to2/3.png"",""time"":313},{""stimulus"":""img/3to2/4.png"",""time"":405},{""stimulus"":""img/3to2/5.png"",""time"":499},{""stimulus"":""img/3to2/6.png"",""time"":610},{""stimulus"":""img/3to2/7.png"",""time"":695},{""stimulus"":""img/3to2/8.png"",""time"":794},{""stimulus"":""img/3to2/9.png"",""time"":893},{""stimulus"":""img/3to2/10.png"",""time"":991},{""stimulus"":""img/3to2/11.png"",""time"":1091},{""stimulus"":""img/3to2/12.png"",""time"":1190}]","[]"
"image-keyboard-response","37","49085","0.0-5.0-1.16","631699e51577c995252cf3fc","bdp_cybrbll","Sat Mar 25 2023 19:05:22 GMT-0400 (Eastern Daylight Time)","424656","1","3","","","","choice","","","151","","img/2to1/1.png","2","209","850","0.5","0.5","2","3","",""
"animation","38","50383","0.0-5.0-2.16","631699e51577c995252cf3fc","bdp_cybrbll","Sat Mar 25 2023 19:05:22 GMT-0400 (Eastern Daylight Time)","424656","1","3","","","","","","","","","","","209","","","","2","3","[{""stimulus"":""img/2to3/1.png"",""time"":100},{""stimulus"":""img/2to3/2.png"",""time"":210},{""stimulus"":""img/2to3/3.png"",""time"":305},{""stimulus"":""img/2to3/4.png"",""time"":398},{""stimulus"":""img/2to3/5.png"",""time"":507},{""stimulus"":""img/2to3/6.png"",""time"":596},{""stimulus"":""img/2to3/7.png"",""time"":704},{""stimulus"":""img/2to3/8.png"",""time"":801},{""stimulus"":""img/2to3/9.png"",""time"":893},{""stimulus"":""img/2to3/10.png"",""time"":991},{""stimulus"":""img/2to3/11.png"",""time"":1090},{""stimulus"":""img/2to3/12.png"",""time"":1205}]","[]"
"image-keyboard-response","39","50797","0.0-5.0-1.17","631699e51577c995252cf3fc","bdp_cybrbll","Sat Mar 25 2023 19:05:22 GMT-0400 (Eastern Daylight Time)","424656","1","3","","","","observe","","","null","","img/3to2/1.png","null","208","413","0.5","0.5","3","2","",""
"animation","40","52097","0.0-5.0-2.17","631699e51577c995252cf3fc","bdp_cybrbll","Sat Mar 25 2023 19:05:22 GMT-0400 (Eastern Daylight Time)","424656","1","3","","","","","","","","","","","208","","","","3","2","[{""stimulus"":""img/3to2/1.png"",""time"":101},{""stimulus"":""img/3to2/2.png"",""time"":199},{""stimulus"":""img/3to2/3.png"",""time"":297},{""stimulus"":""img/3to2/4.png"",""time"":411},{""stimulus"":""img/3to2/5.png"",""time"":497},{""stimulus"":""img/3to2/6.png"",""time"":599},{""stimulus"":""img/3to2/7.png"",""time"":706},{""stimulus"":""img/3to2/8.png"",""time"":794},{""stimulus"":""img/3to2/9.png"",""time"":908},{""stimulus"":""img/3to2/10.png"",""time"":1001},{""stimulus"":""img/3to2/11.png"",""time"":1095},{""stimulus"":""img/3to2/12.png"",""time"":1190}]","[]"
"image-keyboard-response","41","52317","0.0-5.0-1.18","631699e51577c995252cf3fc","bdp_cybrbll","Sat Mar 25 2023 19:05:22 GMT-0400 (Eastern Daylight Time)","424656","1","3","","","","choice","","","220","","img/2to1/1.png","1","207","189","0.5","0.5","2","1","",""
"animation","42","53607","0.0-5.0-2.18","631699e51577c995252cf3fc","bdp_cybrbll","Sat Mar 25 2023 19:05:22 GMT-0400 (Eastern Daylight Time)","424656","1","3","","","","","","","","","","","207","","","","2","1","[{""stimulus"":""img/2to1/1.png"",""time"":108},{""stimulus"":""img/2to1/2.png"",""time"":201},{""stimulus"":""img/2to1/3.png"",""time"":309},{""stimulus"":""img/2to1/4.png"",""time"":398},{""stimulus"":""img/2to1/5.png"",""time"":511},{""stimulus"":""img/2to1/6.png"",""time"":604},{""stimulus"":""img/2to1/7.png"",""time"":697},{""stimulus"":""img/2to1/8.png"",""time"":806},{""stimulus"":""img/2to1/9.png"",""time"":899},{""stimulus"":""img/2to1/10.png"",""time"":994},{""stimulus"":""img/2to1/11.png"",""time"":1103},{""stimulus"":""img/2to1/12.png"",""time"":1197}]","[]"
"image-keyboard-response","43","53845","0.0-5.0-1.19","631699e51577c995252cf3fc","bdp_cybrbll","Sat Mar 25 2023 19:05:22 GMT-0400 (Eastern Daylight Time)","424656","1","3","","","","observe","","","null","","img/1to3/1.png","null","206","238","0.5","0.5","1","2","",""
"animation","44","55146","0.0-5.0-2.19","631699e51577c995252cf3fc","bdp_cybrbll","Sat Mar 25 2023 19:05:22 GMT-0400 (Eastern Daylight Time)","424656","1","3","","","","","","","","","","","206","","","","1","2","[{""stimulus"":""img/1to2/1.png"",""time"":102},{""stimulus"":""img/1to2/2.png"",""time"":199},{""stimulus"":""img/1to2/3.png"",""time"":304},{""stimulus"":""img/1to2/4.png"",""time"":398},{""stimulus"":""img/1to2/5.png"",""time"":507},{""stimulus"":""img/1to2/6.png"",""time"":600},{""stimulus"":""img/1to2/7.png"",""time"":695},{""stimulus"":""img/1to2/8.png"",""time"":805},{""stimulus"":""img/1to2/9.png"",""time"":898},{""stimulus"":""img/1to2/10.png"",""time"":991},{""stimulus"":""img/1to2/11.png"",""time"":1100},{""stimulus"":""img/1to2/12.png"",""time"":1193}]","[]"
"image-keyboard-response","45","55437","0.0-5.0-1.20","631699e51577c995252cf3fc","bdp_cybrbll","Sat Mar 25 2023 19:05:22 GMT-0400 (Eastern Daylight Time)","424656","1","3","","","","choice","","","291","","img/2to1/1.png","1","205","415","0.5","0.5","2","1","",""
"animation","46","56725","0.0-5.0-2.20","631699e51577c995252cf3fc","bdp_cybrbll","Sat Mar 25 2023 19:05:22 GMT-0400 (Eastern Daylight Time)","424656","1","3","","","","","","","","","","","205","","","","2","1","[{""stimulus"":""img/2to1/1.png"",""time"":101},{""stimulus"":""img/2to1/2.png"",""time"":199},{""stimulus"":""img/2to1/3.png"",""time"":299},{""stimulus"":""img/2to1/4.png"",""time"":408},{""stimulus"":""img/2to1/5.png"",""time"":501},{""stimulus"":""img/2to1/6.png"",""time"":596},{""stimulus"":""img/2to1/7.png"",""time"":695},{""stimulus"":""img/2to1/8.png"",""time"":793},{""stimulus"":""img/2to1/9.png"",""time"":901},{""stimulus"":""img/2to1/10.png"",""time"":999},{""stimulus"":""img/2to1/11.png"",""time"":1092},{""stimulus"":""img/2to1/12.png"",""time"":1200}]","[]"
"image-keyboard-response","47","57418","0.0-5.0-1.21","631699e51577c995252cf3fc","bdp_cybrbll","Sat Mar 25 2023 19:05:22 GMT-0400 (Eastern Daylight Time)","424656","1","3","","","","observe","","","null","","img/1to3/1.png","null","204","689","0.5","0.5","1","2","",""
"animation","48","58710","0.0-5.0-2.21","631699e51577c995252cf3fc","bdp_cybrbll","Sat Mar 25 2023 19:05:22 GMT-0400 (Eastern Daylight Time)","424656","1","3","","","","","","","","","","","204","","","","1","2","[{""stimulus"":""img/1to2/1.png"",""time"":111},{""stimulus"":""img/1to2/2.png"",""time"":203},{""stimulus"":""img/1to2/3.png"",""time"":298},{""stimulus"":""img/1to2/4.png"",""time"":406},{""stimulus"":""img/1to2/5.png"",""time"":500},{""stimulus"":""img/1to2/6.png"",""time"":595},{""stimulus"":""img/1to2/7.png"",""time"":694},{""stimulus"":""img/1to2/8.png"",""time"":795},{""stimulus"":""img/1to2/9.png"",""time"":906},{""stimulus"":""img/1to2/10.png"",""time"":1000},{""stimulus"":""img/1to2/11.png"",""time"":1093},{""stimulus"":""img/1to2/12.png"",""time"":1202}]","[]"
"image-keyboard-response","49","59302","0.0-5.0-1.22","631699e51577c995252cf3fc","bdp_cybrbll","Sat Mar 25 2023 19:05:22 GMT-0400 (Eastern Daylight Time)","424656","1","3","","","","choice","","","592","","img/2to1/1.png","2","203","589","0.5","0.5","2","3","",""
"animation","50","60599","0.0-5.0-2.22","631699e51577c995252cf3fc","bdp_cybrbll","Sat Mar 25 2023 19:05:22 GMT-0400 (Eastern Daylight Time)","424656","1","3","","","","","","","","","","","203","","","","2","3","[{""stimulus"":""img/2to3/1.png"",""time"":100},{""stimulus"":""img/2to3/2.png"",""time"":200},{""stimulus"":""img/2to3/3.png"",""time"":299},{""stimulus"":""img/2to3/4.png"",""time"":407},{""stimulus"":""img/2to3/5.png"",""time"":497},{""stimulus"":""img/2to3/6.png"",""time"":596},{""stimulus"":""img/2to3/7.png"",""time"":704},{""stimulus"":""img/2to3/8.png"",""time"":798},{""stimulus"":""img/2to3/9.png"",""time"":907},{""stimulus"":""img/2to3/10.png"",""time"":1002},{""stimulus"":""img/2to3/11.png"",""time"":1094},{""stimulus"":""img/2to3/12.png"",""time"":1203}]","[]"
"image-keyboard-response","51","61111","0.0-5.0-1.23","631699e51577c995252cf3fc","bdp_cybrbll","Sat Mar 25 2023 19:05:22 GMT-0400 (Eastern Daylight Time)","424656","1","3","","","","observe","","","null","","img/3to2/1.png","null","202","498","0.5","0.5","3","1","",""
"animation","52","62403","0.0-5.0-2.23","631699e51577c995252cf3fc","bdp_cybrbll","Sat Mar 25 2023 19:05:22 GMT-0400 (Eastern Daylight Time)","424656","1","3","","","","","","","","","","","202","","","","3","1","[{""stimulus"":""img/3to1/1.png"",""time"":107},{""stimulus"":""img/3to1/2.png"",""time"":202},{""stimulus"":""img/3to1/3.png"",""time"":310},{""stimulus"":""img/3to1/4.png"",""time"":404},{""stimulus"":""img/3to1/5.png"",""time"":497},{""stimulus"":""img/3to1/6.png"",""time"":605},{""stimulus"":""img/3to1/7.png"",""time"":693},{""stimulus"":""img/3to1/8.png"",""time"":793},{""stimulus"":""img/3to1/9.png"",""time"":902},{""stimulus"":""img/3to1/10.png"",""time"":995},{""stimulus"":""img/3to1/11.png"",""time"":1104},{""stimulus"":""img/3to1/12.png"",""time"":1198}]","[]"
"image-keyboard-response","53","63150","0.0-5.0-1.24","631699e51577c995252cf3fc","bdp_cybrbll","Sat Mar 25 2023 19:05:22 GMT-0400 (Eastern Daylight Time)","424656","1","3","","","","observe","","","null","","img/1to3/1.png","null","201","739","0.5","0.5","1","3","",""
"animation","54","64453","0.0-5.0-2.24","631699e51577c995252cf3fc","bdp_cybrbll","Sat Mar 25 2023 19:05:22 GMT-0400 (Eastern Daylight Time)","424656","1","3","","","","","","","","","","","201","","","","1","3","[{""stimulus"":""img/1to3/1.png"",""time"":108},{""stimulus"":""img/1to3/2.png"",""time"":201},{""stimulus"":""img/1to3/3.png"",""time"":299},{""stimulus"":""img/1to3/4.png"",""time"":403},{""stimulus"":""img/1to3/5.png"",""time"":495},{""stimulus"":""img/1to3/6.png"",""time"":605},{""stimulus"":""img/1to3/7.png"",""time"":698},{""stimulus"":""img/1to3/8.png"",""time"":806},{""stimulus"":""img/1to3/9.png"",""time"":898},{""stimulus"":""img/1to3/10.png"",""time"":991},{""stimulus"":""img/1to3/11.png"",""time"":1103},{""stimulus"":""img/1to3/12.png"",""time"":1196}]","[]"
"image-keyboard-response","55","64694","0.0-5.0-1.25","631699e51577c995252cf3fc","bdp_cybrbll","Sat Mar 25 2023 19:05:22 GMT-0400 (Eastern Daylight Time)","424656","1","3","","","","observe","","","null","","img/3to2/1.png","null","200","228","0.5","0.5","3","1","",""
"animation","56","65982","0.0-5.0-2.25","631699e51577c995252cf3fc","bdp_cybrbll","Sat Mar 25 2023 19:05:22 GMT-0400 (Eastern Daylight Time)","424656","1","3","","","","","","","","","","","200","","","","3","1","[{""stimulus"":""img/3to1/1.png"",""time"":104},{""stimulus"":""img/3to1/2.png"",""time"":200},{""stimulus"":""img/3to1/3.png"",""time"":307},{""stimulus"":""img/3to1/4.png"",""time"":400},{""stimulus"":""img/3to1/5.png"",""time"":508},{""stimulus"":""img/3to1/6.png"",""time"":602},{""stimulus"":""img/3to1/7.png"",""time"":695},{""stimulus"":""img/3to1/8.png"",""time"":804},{""stimulus"":""img/3to1/9.png"",""time"":897},{""stimulus"":""img/3to1/10.png"",""time"":992},{""stimulus"":""img/3to1/11.png"",""time"":1099},{""stimulus"":""img/3to1/12.png"",""time"":1192}]","[]"
"image-keyboard-response","57","66274","0.0-5.0-1.26","631699e51577c995252cf3fc","bdp_cybrbll","Sat Mar 25 2023 19:05:22 GMT-0400 (Eastern Daylight Time)","424656","1","3","","","","observe","","","null","","img/1to3/1.png","null","199","282","0.5","0.5","1","2","",""
"animation","58","67571","0.0-5.0-2.26","631699e51577c995252cf3fc","bdp_cybrbll","Sat Mar 25 2023 19:05:22 GMT-0400 (Eastern Daylight Time)","424656","1","3","","","","","","","","","","","199","","","","1","2","[{""stimulus"":""img/1to2/1.png"",""time"":111},{""stimulus"":""img/1to2/2.png"",""time"":205},{""stimulus"":""img/1to2/3.png"",""time"":313},{""stimulus"":""img/1to2/4.png"",""time"":402},{""stimulus"":""img/1to2/5.png"",""time"":496},{""stimulus"":""img/1to2/6.png"",""time"":609},{""stimulus"":""img/1to2/7.png"",""time"":702},{""stimulus"":""img/1to2/8.png"",""time"":797},{""stimulus"":""img/1to2/9.png"",""time"":906},{""stimulus"":""img/1to2/10.png"",""time"":999},{""stimulus"":""img/1to2/11.png"",""time"":1092},{""stimulus"":""img/1to2/12.png"",""time"":1204}]","[]"
"image-keyboard-response","59","67686","0.0-5.0-1.27","631699e51577c995252cf3fc","bdp_cybrbll","Sat Mar 25 2023 19:05:22 GMT-0400 (Eastern Daylight Time)","424656","1","3","","","","choice","","","114","","img/2to1/1.png","2","198","352","0.5","0.5","2","3","",""
"animation","60","68975","0.0-5.0-2.27","631699e51577c995252cf3fc","bdp_cybrbll","Sat Mar 25 2023 19:05:22 GMT-0400 (Eastern Daylight Time)","424656","1","3","","","","","","","","","","","198","","","","2","3","[{""stimulus"":""img/2to3/1.png"",""time"":100},{""stimulus"":""img/2to3/2.png"",""time"":210},{""stimulus"":""img/2to3/3.png"",""time"":304},{""stimulus"":""img/2to3/4.png"",""time"":398},{""stimulus"":""img/2to3/5.png"",""time"":504},{""stimulus"":""img/2to3/6.png"",""time"":596},{""stimulus"":""img/2to3/7.png"",""time"":706},{""stimulus"":""img/2to3/8.png"",""time"":800},{""stimulus"":""img/2to3/9.png"",""time"":893},{""stimulus"":""img/2to3/10.png"",""time"":1002},{""stimulus"":""img/2to3/11.png"",""time"":1095},{""stimulus"":""img/2to3/12.png"",""time"":1190}]","[]"
"image-keyboard-response","61","69338","0.0-5.0-1.28","631699e51577c995252cf3fc","bdp_cybrbll","Sat Mar 25 2023 19:05:22 GMT-0400 (Eastern Daylight Time)","424656","1","3","","","","observe","","","null","","img/3to2/1.png","null","197","347","0.5","0.5","3","1","",""
"animation","62","70627","0.0-5.0-2.28","631699e51577c995252cf3fc","bdp_cybrbll","Sat Mar 25 2023 19:05:22 GMT-0400 (Eastern Daylight Time)","424656","1","3","","","","","","","","","","","197","","","","3","1","[{""stimulus"":""img/3to1/1.png"",""time"":109},{""stimulus"":""img/3to1/2.png"",""time"":205},{""stimulus"":""img/3to1/3.png"",""time"":314},{""stimulus"":""img/3to1/4.png"",""time"":407},{""stimulus"":""img/3to1/5.png"",""time"":498},{""stimulus"":""img/3to1/6.png"",""time"":610},{""stimulus"":""img/3to1/7.png"",""time"":703},{""stimulus"":""img/3to1/8.png"",""time"":794},{""stimulus"":""img/3to1/9.png"",""time"":894},{""stimulus"":""img/3to1/10.png"",""time"":992},{""stimulus"":""img/3to1/11.png"",""time"":1092},{""stimulus"":""img/3to1/12.png"",""time"":1189}]","[]"
"image-keyboard-response","63","71098","0.0-5.0-1.29","631699e51577c995252cf3fc","bdp_cybrbll","Sat Mar 25 2023 19:05:22 GMT-0400 (Eastern Daylight Time)","424656","1","3","","","","observe","","","null","","img/1to3/1.png","null","196","463","0.5","0.5","1","3","",""
"animation","64","72389","0.0-5.0-2.29","631699e51577c995252cf3fc","bdp_cybrbll","Sat Mar 25 2023 19:05:22 GMT-0400 (Eastern Daylight Time)","424656","1","3","","","","","","","","","","","196","","","","1","3","[{""stimulus"":""img/1to3/1.png"",""time"":108},{""stimulus"":""img/1to3/2.png"",""time"":202},{""stimulus"":""img/1to3/3.png"",""time"":311},{""stimulus"":""img/1to3/4.png"",""time"":405},{""stimulus"":""img/1to3/5.png"",""time"":499},{""stimulus"":""img/1to3/6.png"",""time"":608},{""stimulus"":""img/1to3/7.png"",""time"":701},{""stimulus"":""img/1to3/8.png"",""time"":794},{""stimulus"":""img/1to3/9.png"",""time"":902},{""stimulus"":""img/1to3/10.png"",""time"":992},{""stimulus"":""img/1to3/11.png"",""time"":1091},{""stimulus"":""img/1to3/12.png"",""time"":1200}]","[]"
"image-keyboard-response","65","72670","0.0-5.0-1.30","631699e51577c995252cf3fc","bdp_cybrbll","Sat Mar 25 2023 19:05:22 GMT-0400 (Eastern Daylight Time)","424656","1","3","","","","observe","","","null","","img/3to2/1.png","null","195","266","0.5","0.5","3","1","",""
"animation","66","73962","0.0-5.0-2.30","631699e51577c995252cf3fc","bdp_cybrbll","Sat Mar 25 2023 19:05:22 GMT-0400 (Eastern Daylight Time)","424656","1","3","","","","","","","","","","","195","","","","3","1","[{""stimulus"":""img/3to1/1.png"",""time"":109},{""stimulus"":""img/3to1/2.png"",""time"":202},{""stimulus"":""img/3to1/3.png"",""time"":311},{""stimulus"":""img/3to1/4.png"",""time"":404},{""stimulus"":""img/3to1/5.png"",""time"":498},{""stimulus"":""img/3to1/6.png"",""time"":606},{""stimulus"":""img/3to1/7.png"",""time"":699},{""stimulus"":""img/3to1/8.png"",""time"":794},{""stimulus"":""img/3to1/9.png"",""time"":892},{""stimulus"":""img/3to1/10.png"",""time"":997},{""stimulus"":""img/3to1/11.png"",""time"":1103},{""stimulus"":""img/3to1/12.png"",""time"":1198}]","[]"
"image-keyboard-response","67","74383","0.0-5.0-1.31","631699e51577c995252cf3fc","bdp_cybrbll","Sat Mar 25 2023 19:05:22 GMT-0400 (Eastern Daylight Time)","424656","1","3","","","","observe","","","null","","img/1to3/1.png","null","194","417","0.5","0.5","1","3","",""
"animation","68","75674","0.0-5.0-2.31","631699e51577c995252cf3fc","bdp_cybrbll","Sat Mar 25 2023 19:05:22 GMT-0400 (Eastern Daylight Time)","424656","1","3","","","","","","","","","","","194","","","","1","3","[{""stimulus"":""img/1to3/1.png"",""time"":110},{""stimulus"":""img/1to3/2.png"",""time"":204},{""stimulus"":""img/1to3/3.png"",""time"":313},{""stimulus"":""img/1to3/4.png"",""time"":406},{""stimulus"":""img/1to3/5.png"",""time"":498},{""stimulus"":""img/1to3/6.png"",""time"":608},{""stimulus"":""img/1to3/7.png"",""time"":701},{""stimulus"":""img/1to3/8.png"",""time"":793},{""stimulus"":""img/1to3/9.png"",""time"":904},{""stimulus"":""img/1to3/10.png"",""time"":999},{""stimulus"":""img/1to3/11.png"",""time"":1092},{""stimulus"":""img/1to3/12.png"",""time"":1200}]","[]"
"image-keyboard-response","69","75971","0.0-5.0-1.32","631699e51577c995252cf3fc","bdp_cybrbll","Sat Mar 25 2023 19:05:22 GMT-0400 (Eastern Daylight Time)","424656","1","3","","","","observe","","","null","","img/3to2/1.png","null","193","281","0.5","0.5","3","2","",""
"animation","70","77274","0.0-5.0-2.32","631699e51577c995252cf3fc","bdp_cybrbll","Sat Mar 25 2023 19:05:22 GMT-0400 (Eastern Daylight Time)","424656","1","3","","","","","","","","","","","193","","","","3","2","[{""stimulus"":""img/3to2/1.png"",""time"":108},{""stimulus"":""img/3to2/2.png"",""time"":199},{""stimulus"":""img/3to2/3.png"",""time"":298},{""stimulus"":""img/3to2/4.png"",""time"":404},{""stimulus"":""img/3to2/5.png"",""time"":498},{""stimulus"":""img/3to2/6.png"",""time"":595},{""stimulus"":""img/3to2/7.png"",""time"":700},{""stimulus"":""img/3to2/8.png"",""time"":809},{""stimulus"":""img/3to2/9.png"",""time"":902},{""stimulus"":""img/3to2/10.png"",""time"":994},{""stimulus"":""img/3to2/11.png"",""time"":1102},{""stimulus"":""img/3to2/12.png"",""time"":1197}]","[]"
"image-keyboard-response","71","77327","0.0-5.0-1.33","631699e51577c995252cf3fc","bdp_cybrbll","Sat Mar 25 2023 19:05:22 GMT-0400 (Eastern Daylight Time)","424656","1","3","","","","choice","","","53","","img/2to1/1.png","2","192","356","0.5","0.5","2","3","",""
"animation","72","78615","0.0-5.0-2.33","631699e51577c995252cf3fc","bdp_cybrbll","Sat Mar 25 2023 19:05:22 GMT-0400 (Eastern Daylight Time)","424656","1","3","","","","","","","","","","","192","","","","2","3","[{""stimulus"":""img/2to3/1.png"",""time"":104},{""stimulus"":""img/2to3/2.png"",""time"":214},{""stimulus"":""img/2to3/3.png"",""time"":308},{""stimulus"":""img/2to3/4.png"",""time"":400},{""stimulus"":""img/2to3/5.png"",""time"":510},{""stimulus"":""img/2to3/6.png"",""time"":602},{""stimulus"":""img/2to3/7.png"",""time"":696},{""stimulus"":""img/2to3/8.png"",""time"":804},{""stimulus"":""img/2to3/9.png"",""time"":897},{""stimulus"":""img/2to3/10.png"",""time"":1007},{""stimulus"":""img/2to3/11.png"",""time"":1100},{""stimulus"":""img/2to3/12.png"",""time"":1195}]","[]"
"image-keyboard-response","73","79017","0.0-5.0-1.34","631699e51577c995252cf3fc","bdp_cybrbll","Sat Mar 25 2023 19:05:22 GMT-0400 (Eastern Daylight Time)","424656","1","3","","","","observe","","","null","","img/3to2/1.png","null","191","388","0.5","0.5","3","2","",""
"animation","74","80307","0.0-5.0-2.34","631699e51577c995252cf3fc","bdp_cybrbll","Sat Mar 25 2023 19:05:22 GMT-0400 (Eastern Daylight Time)","424656","1","3","","","","","","","","","","","191","","","","3","2","[{""stimulus"":""img/3to2/1.png"",""time"":109},{""stimulus"":""img/3to2/2.png"",""time"":201},{""stimulus"":""img/3to2/3.png"",""time"":299},{""stimulus"":""img/3to2/4.png"",""time"":404},{""stimulus"":""img/3to2/5.png"",""time"":496},{""stimulus"":""img/3to2/6.png"",""time"":605},{""stimulus"":""img/3to2/7.png"",""time"":699},{""stimulus"":""img/3to2/8.png"",""time"":808},{""stimulus"":""img/3to2/9.png"",""time"":902},{""stimulus"":""img/3to2/10.png"",""time"":995},{""stimulus"":""img/3to2/11.png"",""time"":1103},{""stimulus"":""img/3to2/12.png"",""time"":1197}]","[]"
"image-keyboard-response","75","80359","0.0-5.0-1.35","631699e51577c995252cf3fc","bdp_cybrbll","Sat Mar 25 2023 19:05:22 GMT-0400 (Eastern Daylight Time)","424656","1","3","","","","choice","","","52","","img/2to1/1.png","1","190","392","0.5","0.5","2","1","",""
"animation","76","81649","0.0-5.0-2.35","631699e51577c995252cf3fc","bdp_cybrbll","Sat Mar 25 2023 19:05:22 GMT-0400 (Eastern Daylight Time)","424656","1","3","","","","","","","","","","","190","","","","2","1","[{""stimulus"":""img/2to1/1.png"",""time"":103},{""stimulus"":""img/2to1/2.png"",""time"":212},{""stimulus"":""img/2to1/3.png"",""time"":304},{""stimulus"":""img/2to1/4.png"",""time"":397},{""stimulus"":""img/2to1/5.png"",""time"":496},{""stimulus"":""img/2to1/6.png"",""time"":602},{""stimulus"":""img/2to1/7.png"",""time"":717},{""stimulus"":""img/2to1/8.png"",""time"":807},{""stimulus"":""img/2to1/9.png"",""time"":900},{""stimulus"":""img/2to1/10.png"",""time"":994},{""stimulus"":""img/2to1/11.png"",""time"":1091},{""stimulus"":""img/2to1/12.png"",""time"":1198}]","[]"
"image-keyboard-response","77","82068","0.0-5.0-1.36","631699e51577c995252cf3fc","bdp_cybrbll","Sat Mar 25 2023 19:05:22 GMT-0400 (Eastern Daylight Time)","424656","1","3","","","","observe","","","null","","img/1to3/1.png","null","189","408","0.5","0.5","1","3","",""
"animation","78","83356","0.0-5.0-2.36","631699e51577c995252cf3fc","bdp_cybrbll","Sat Mar 25 2023 19:05:22 GMT-0400 (Eastern Daylight Time)","424656","1","3","","","","","","","","","","","189","","","","1","3","[{""stimulus"":""img/1to3/1.png"",""time"":110},{""stimulus"":""img/1to3/2.png"",""time"":204},{""stimulus"":""img/1to3/3.png"",""time"":312},{""stimulus"":""img/1to3/4.png"",""time"":406},{""stimulus"":""img/1to3/5.png"",""time"":501},{""stimulus"":""img/1to3/6.png"",""time"":609},{""stimulus"":""img/1to3/7.png"",""time"":694},{""stimulus"":""img/1to3/8.png"",""time"":797},{""stimulus"":""img/1to3/9.png"",""time"":905},{""stimulus"":""img/1to3/10.png"",""time"":999},{""stimulus"":""img/1to3/11.png"",""time"":1091},{""stimulus"":""img/1to3/12.png"",""time"":1204}]","[]"
"image-keyboard-response","79","84081","0.0-5.0-1.37","631699e51577c995252cf3fc","bdp_cybrbll","Sat Mar 25 2023 19:05:22 GMT-0400 (Eastern Daylight Time)","424656","1","3","","","","observe","","","null","","img/3to2/1.png","null","188","707","0.5","0.5","3","2","",""
"animation","80","85370","0.0-5.0-2.37","631699e51577c995252cf3fc","bdp_cybrbll","Sat Mar 25 2023 19:05:22 GMT-0400 (Eastern Daylight Time)","424656","1","3","","","","","","","","","","","188","","","","3","2","[{""stimulus"":""img/3to2/1.png"",""time"":108},{""stimulus"":""img/3to2/2.png"",""time"":201},{""stimulus"":""img/3to2/3.png"",""time"":311},{""stimulus"":""img/3to2/4.png"",""time"":403},{""stimulus"":""img/3to2/5.png"",""time"":497},{""stimulus"":""img/3to2/6.png"",""time"":605},{""stimulus"":""img/3to2/7.png"",""time"":695},{""stimulus"":""img/3to2/8.png"",""time"":806},{""stimulus"":""img/3to2/9.png"",""time"":892},{""stimulus"":""img/3to2/10.png"",""time"":993},{""stimulus"":""img/3to2/11.png"",""time"":1101},{""stimulus"":""img/3to2/12.png"",""time"":1196}]","[]"
"image-keyboard-response","81","85400","0.0-5.0-1.38","631699e51577c995252cf3fc","bdp_cybrbll","Sat Mar 25 2023 19:05:22 GMT-0400 (Eastern Daylight Time)","424656","1","3","","","","choice","","","30","","img/2to1/1.png","1","187","349","0.5","0.5","2","1","",""
"animation","82","86692","0.0-5.0-2.38","631699e51577c995252cf3fc","bdp_cybrbll","Sat Mar 25 2023 19:05:22 GMT-0400 (Eastern Daylight Time)","424656","1","3","","","","","","","","","","","187","","","","2","1","[{""stimulus"":""img/2to1/1.png"",""time"":112},{""stimulus"":""img/2to1/2.png"",""time"":199},{""stimulus"":""img/2to1/3.png"",""time"":298},{""stimulus"":""img/2to1/4.png"",""time"":407},{""stimulus"":""img/2to1/5.png"",""time"":501},{""stimulus"":""img/2to1/6.png"",""time"":607},{""stimulus"":""img/2to1/7.png"",""time"":703},{""stimulus"":""img/2to1/8.png"",""time"":793},{""stimulus"":""img/2to1/9.png"",""time"":892},{""stimulus"":""img/2to1/10.png"",""time"":992},{""stimulus"":""img/2to1/11.png"",""time"":1091},{""stimulus"":""img/2to1/12.png"",""time"":1200}]","[]"
"image-keyboard-response","83","87207","0.0-5.0-1.39","631699e51577c995252cf3fc","bdp_cybrbll","Sat Mar 25 2023 19:05:22 GMT-0400 (Eastern Daylight Time)","424656","1","3","","","","observe","","","null","","img/1to3/1.png","null","186","512","0.5","0.5","1","3","",""
"animation","84","88498","0.0-5.0-2.39","631699e51577c995252cf3fc","bdp_cybrbll","Sat Mar 25 2023 19:05:22 GMT-0400 (Eastern Daylight Time)","424656","1","3","","","","","","","","","","","186","","","","1","3","[{""stimulus"":""img/1to3/1.png"",""time"":108},{""stimulus"":""img/1to3/2.png"",""time"":203},{""stimulus"":""img/1to3/3.png"",""time"":310},{""stimulus"":""img/1to3/4.png"",""time"":397},{""stimulus"":""img/1to3/5.png"",""time"":498},{""stimulus"":""img/1to3/6.png"",""time"":606},{""stimulus"":""img/1to3/7.png"",""time"":701},{""stimulus"":""img/1to3/8.png"",""time"":794},{""stimulus"":""img/1to3/9.png"",""time"":903},{""stimulus"":""img/1to3/10.png"",""time"":995},{""stimulus"":""img/1to3/11.png"",""time"":1104},{""stimulus"":""img/1to3/12.png"",""time"":1197}]","[]"
"image-keyboard-response","85","88919","0.0-5.0-1.40","631699e51577c995252cf3fc","bdp_cybrbll","Sat Mar 25 2023 19:05:22 GMT-0400 (Eastern Daylight Time)","424656","1","3","","","","observe","","","null","","img/3to2/1.png","null","185","406","0.5","0.5","3","1","",""
"animation","86","90222","0.0-5.0-2.40","631699e51577c995252cf3fc","bdp_cybrbll","Sat Mar 25 2023 19:05:22 GMT-0400 (Eastern Daylight Time)","424656","1","3","","","","","","","","","","","185","","","","3","1","[{""stimulus"":""img/3to1/1.png"",""time"":109},{""stimulus"":""img/3to1/2.png"",""time"":202},{""stimulus"":""img/3to1/3.png"",""time"":312},{""stimulus"":""img/3to1/4.png"",""time"":398},{""stimulus"":""img/3to1/5.png"",""time"":497},{""stimulus"":""img/3to1/6.png"",""time"":607},{""stimulus"":""img/3to1/7.png"",""time"":699},{""stimulus"":""img/3to1/8.png"",""time"":807},{""stimulus"":""img/3to1/9.png"",""time"":901},{""stimulus"":""img/3to1/10.png"",""time"":993},{""stimulus"":""img/3to1/11.png"",""time"":1102},{""stimulus"":""img/3to1/12.png"",""time"":1196}]","[]"
"image-keyboard-response","87","90644","0.0-5.0-1.41","631699e51577c995252cf3fc","bdp_cybrbll","Sat Mar 25 2023 19:05:22 GMT-0400 (Eastern Daylight Time)","424656","1","3","","","","observe","","","null","","img/1to3/1.png","null","184","408","0.5","0.5","1","2","",""
"animation","88","91933","0.0-5.0-2.41","631699e51577c995252cf3fc","bdp_cybrbll","Sat Mar 25 2023 19:05:22 GMT-0400 (Eastern Daylight Time)","424656","1","3","","","","","","","","","","","184","","","","1","2","[{""stimulus"":""img/1to2/1.png"",""time"":108},{""stimulus"":""img/1to2/2.png"",""time"":199},{""stimulus"":""img/1to2/3.png"",""time"":309},{""stimulus"":""img/1to2/4.png"",""time"":402},{""stimulus"":""img/1to2/5.png"",""time"":496},{""stimulus"":""img/1to2/6.png"",""time"":605},{""stimulus"":""img/1to2/7.png"",""time"":699},{""stimulus"":""img/1to2/8.png"",""time"":808},{""stimulus"":""img/1to2/9.png"",""time"":900},{""stimulus"":""img/1to2/10.png"",""time"":994},{""stimulus"":""img/1to2/11.png"",""time"":1101},{""stimulus"":""img/1to2/12.png"",""time"":1194}]","[]"
"image-keyboard-response","89","91944","0.0-5.0-1.42","631699e51577c995252cf3fc","bdp_cybrbll","Sat Mar 25 2023 19:05:22 GMT-0400 (Eastern Daylight Time)","424656","1","3","","","","choice","","","10","","img/2to1/1.png","2","183","501","0.5","0.5","2","3","",""
"animation","90","93241","0.0-5.0-2.42","631699e51577c995252cf3fc","bdp_cybrbll","Sat Mar 25 2023 19:05:22 GMT-0400 (Eastern Daylight Time)","424656","1","3","","","","","","","","","","","183","","","","2","3","[{""stimulus"":""img/2to3/1.png"",""time"":113},{""stimulus"":""img/2to3/2.png"",""time"":207},{""stimulus"":""img/2to3/3.png"",""time"":298},{""stimulus"":""img/2to3/4.png"",""time"":410},{""stimulus"":""img/2to3/5.png"",""time"":504},{""stimulus"":""img/2to3/6.png"",""time"":596},{""stimulus"":""img/2to3/7.png"",""time"":705},{""stimulus"":""img/2to3/8.png"",""time"":798},{""stimulus"":""img/2to3/9.png"",""time"":892},{""stimulus"":""img/2to3/10.png"",""time"":1000},{""stimulus"":""img/2to3/11.png"",""time"":1096},{""stimulus"":""img/2to3/12.png"",""time"":1188}]","[]"
"image-keyboard-response","91","93741","0.0-5.0-1.43","631699e51577c995252cf3fc","bdp_cybrbll","Sat Mar 25 2023 19:05:22 GMT-0400 (Eastern Daylight Time)","424656","1","3","","","","observe","","","null","","img/3to2/1.png","null","182","496","0.5","0.5","3","1","",""
"animation","92","95033","0.0-5.0-2.43","631699e51577c995252cf3fc","bdp_cybrbll","Sat Mar 25 2023 19:05:22 GMT-0400 (Eastern Daylight Time)","424656","1","3","","","","","","","","","","","182","","","","3","1","[{""stimulus"":""img/3to1/1.png"",""time"":109},{""stimulus"":""img/3to1/2.png"",""time"":202},{""stimulus"":""img/3to1/3.png"",""time"":311},{""stimulus"":""img/3to1/4.png"",""time"":403},{""stimulus"":""img/3to1/5.png"",""time"":497},{""stimulus"":""img/3to1/6.png"",""time"":606},{""stimulus"":""img/3to1/7.png"",""time"":699},{""stimulus"":""img/3to1/8.png"",""time"":793},{""stimulus"":""img/3to1/9.png"",""time"":902},{""stimulus"":""img/3to1/10.png"",""time"":996},{""stimulus"":""img/3to1/11.png"",""time"":1106},{""stimulus"":""img/3to1/12.png"",""time"":1198}]","[]"
"image-keyboard-response","93","95297","0.0-5.0-1.44","631699e51577c995252cf3fc","bdp_cybrbll","Sat Mar 25 2023 19:05:22 GMT-0400 (Eastern Daylight Time)","424656","1","3","","","","observe","","","null","","img/1to3/1.png","null","181","261","0.5","0.5","1","3","",""
"animation","94","96594","0.0-5.0-2.44","631699e51577c995252cf3fc","bdp_cybrbll","Sat Mar 25 2023 19:05:22 GMT-0400 (Eastern Daylight Time)","424656","1","3","","","","","","","","","","","181","","","","1","3","[{""stimulus"":""img/1to3/1.png"",""time"":111},{""stimulus"":""img/1to3/2.png"",""time"":203},{""stimulus"":""img/1to3/3.png"",""time"":311},{""stimulus"":""img/1to3/4.png"",""time"":397},{""stimulus"":""img/1to3/5.png"",""time"":498},{""stimulus"":""img/1to3/6.png"",""time"":596},{""stimulus"":""img/1to3/7.png"",""time"":701},{""stimulus"":""img/1to3/8.png"",""time"":796},{""stimulus"":""img/1to3/9.png"",""time"":906},{""stimulus"":""img/1to3/10.png"",""time"":1001},{""stimulus"":""img/1to3/11.png"",""time"":1094},{""stimulus"":""img/1to3/12.png"",""time"":1190}]","[]"
"image-keyboard-response","95","96951","0.0-5.0-1.45","631699e51577c995252cf3fc","bdp_cybrbll","Sat Mar 25 2023 19:05:22 GMT-0400 (Eastern Daylight Time)","424656","1","3","","","","observe","","","null","","img/3to2/1.png","null","180","345","0.5","0.5","3","2","",""
"animation","96","98239","0.0-5.0-2.45","631699e51577c995252cf3fc","bdp_cybrbll","Sat Mar 25 2023 19:05:22 GMT-0400 (Eastern Daylight Time)","424656","1","3","","","","","","","","","","","180","","","","3","2","[{""stimulus"":""img/3to2/1.png"",""time"":110},{""stimulus"":""img/3to2/2.png"",""time"":207},{""stimulus"":""img/3to2/3.png"",""time"":312},{""stimulus"":""img/3to2/4.png"",""time"":397},{""stimulus"":""img/3to2/5.png"",""time"":499},{""stimulus"":""img/3to2/6.png"",""time"":608},{""stimulus"":""img/3to2/7.png"",""time"":695},{""stimulus"":""img/3to2/8.png"",""time"":795},{""stimulus"":""img/3to2/9.png"",""time"":904},{""stimulus"":""img/3to2/10.png"",""time"":997},{""stimulus"":""img/3to2/11.png"",""time"":1091},{""stimulus"":""img/3to2/12.png"",""time"":1197}]","[]"
"image-keyboard-response","97","107529","0.0-5.0-1.46","631699e51577c995252cf3fc","bdp_cybrbll","Sat Mar 25 2023 19:05:22 GMT-0400 (Eastern Daylight Time)","424656","1","3","","","","choice","","","9290","","img/2to1/1.png","1","179","245","0.5","0.5","2","1","",""
"animation","98","108817","0.0-5.0-2.46","631699e51577c995252cf3fc","bdp_cybrbll","Sat Mar 25 2023 19:05:22 GMT-0400 (Eastern Daylight Time)","424656","1","3","","","","","","","","","","","179","","","","2","1","[{""stimulus"":""img/2to1/1.png"",""time"":100},{""stimulus"":""img/2to1/2.png"",""time"":205},{""stimulus"":""img/2to1/3.png"",""time"":297},{""stimulus"":""img/2to1/4.png"",""time"":407},{""stimulus"":""img/2to1/5.png"",""time"":499},{""stimulus"":""img/2to1/6.png"",""time"":608},{""stimulus"":""img/2to1/7.png"",""time"":701},{""stimulus"":""img/2to1/8.png"",""time"":794},{""stimulus"":""img/2to1/9.png"",""time"":905},{""stimulus"":""img/2to1/10.png"",""time"":990},{""stimulus"":""img/2to1/11.png"",""time"":1091},{""stimulus"":""img/2to1/12.png"",""time"":1199}]","[]"
"image-keyboard-response","99","109241","0.0-5.0-1.47","631699e51577c995252cf3fc","bdp_cybrbll","Sat Mar 25 2023 19:05:22 GMT-0400 (Eastern Daylight Time)","424656","1","3","","","","observe","","","null","","img/1to3/1.png","null","178","423","0.5","0.5","1","3","",""
"animation","100","110531","0.0-5.0-2.47","631699e51577c995252cf3fc","bdp_cybrbll","Sat Mar 25 2023 19:05:22 GMT-0400 (Eastern Daylight Time)","424656","1","3","","","","","","","","","","","178","","","","1","3","[{""stimulus"":""img/1to3/1.png"",""time"":110},{""stimulus"":""img/1to3/2.png"",""time"":202},{""stimulus"":""img/1to3/3.png"",""time"":312},{""stimulus"":""img/1to3/4.png"",""time"":406},{""stimulus"":""img/1to3/5.png"",""time"":498},{""stimulus"":""img/1to3/6.png"",""time"":606},{""stimulus"":""img/1to3/7.png"",""time"":700},{""stimulus"":""img/1to3/8.png"",""time"":793},{""stimulus"":""img/1to3/9.png"",""time"":903},{""stimulus"":""img/1to3/10.png"",""time"":998},{""stimulus"":""img/1to3/11.png"",""time"":1106},{""stimulus"":""img/1to3/12.png"",""time"":1190}]","[]"
"image-keyboard-response","101","111043","0.0-5.0-1.48","631699e51577c995252cf3fc","bdp_cybrbll","Sat Mar 25 2023 19:05:22 GMT-0400 (Eastern Daylight Time)","424656","1","3","","","","observe","","","null","","img/3to2/1.png","null","177","496","0.5","0.5","3","1","",""
"animation","102","112334","0.0-5.0-2.48","631699e51577c995252cf3fc","bdp_cybrbll","Sat Mar 25 2023 19:05:22 GMT-0400 (Eastern Daylight Time)","424656","1","3","","","","","","","","","","","177","","","","3","1","[{""stimulus"":""img/3to1/1.png"",""time"":107},{""stimulus"":""img/3to1/2.png"",""time"":200},{""stimulus"":""img/3to1/3.png"",""time"":311},{""stimulus"":""img/3to1/4.png"",""time"":403},{""stimulus"":""img/3to1/5.png"",""time"":497},{""stimulus"":""img/3to1/6.png"",""time"":607},{""stimulus"":""img/3to1/7.png"",""time"":700},{""stimulus"":""img/3to1/8.png"",""time"":794},{""stimulus"":""img/3to1/9.png"",""time"":892},{""stimulus"":""img/3to1/10.png"",""time"":997},{""stimulus"":""img/3to1/11.png"",""time"":1105},{""stimulus"":""img/3to1/12.png"",""time"":1190}]","[]"
"image-keyboard-response","103","112786","0.0-5.0-1.49","631699e51577c995252cf3fc","bdp_cybrbll","Sat Mar 25 2023 19:05:22 GMT-0400 (Eastern Daylight Time)","424656","1","3","","","","observe","","","null","","img/1to3/1.png","null","176","442","0.5","0.5","1","3","",""
"animation","104","114073","0.0-5.0-2.49","631699e51577c995252cf3fc","bdp_cybrbll","Sat Mar 25 2023 19:05:22 GMT-0400 (Eastern Daylight Time)","424656","1","3","","","","","","","","","","","176","","","","1","3","[{""stimulus"":""img/1to3/1.png"",""time"":109},{""stimulus"":""img/1to3/2.png"",""time"":201},{""stimulus"":""img/1to3/3.png"",""time"":310},{""stimulus"":""img/1to3/4.png"",""time"":397},{""stimulus"":""img/1to3/5.png"",""time"":497},{""stimulus"":""img/1to3/6.png"",""time"":606},{""stimulus"":""img/1to3/7.png"",""time"":699},{""stimulus"":""img/1to3/8.png"",""time"":794},{""stimulus"":""img/1to3/9.png"",""time"":903},{""stimulus"":""img/1to3/10.png"",""time"":996},{""stimulus"":""img/1to3/11.png"",""time"":1104},{""stimulus"":""img/1to3/12.png"",""time"":1189}]","[]"
"image-keyboard-response","105","114432","0.0-5.0-1.50","631699e51577c995252cf3fc","bdp_cybrbll","Sat Mar 25 2023 19:05:22 GMT-0400 (Eastern Daylight Time)","424656","1","3","","","","observe","","","null","","img/3to2/1.png","null","175","350","0.5","0.5","3","2","",""
"animation","106","115722","0.0-5.0-2.50","631699e51577c995252cf3fc","bdp_cybrbll","Sat Mar 25 2023 19:05:22 GMT-0400 (Eastern Daylight Time)","424656","1","3","","","","","","","","","","","175","","","","3","2","[{""stimulus"":""img/3to2/1.png"",""time"":108},{""stimulus"":""img/3to2/2.png"",""time"":201},{""stimulus"":""img/3to2/3.png"",""time"":311},{""stimulus"":""img/3to2/4.png"",""time"":418},{""stimulus"":""img/3to2/5.png"",""time"":498},{""stimulus"":""img/3to2/6.png"",""time"":595},{""stimulus"":""img/3to2/7.png"",""time"":694},{""stimulus"":""img/3to2/8.png"",""time"":794},{""stimulus"":""img/3to2/9.png"",""time"":892},{""stimulus"":""img/3to2/10.png"",""time"":996},{""stimulus"":""img/3to2/11.png"",""time"":1105},{""stimulus"":""img/3to2/12.png"",""time"":1199}]","[]"
"image-keyboard-response","107","116066","0.0-5.0-1.51","631699e51577c995252cf3fc","bdp_cybrbll","Sat Mar 25 2023 19:05:22 GMT-0400 (Eastern Daylight Time)","424656","1","3","","","","choice","","","344","","img/2to1/1.png","2","174","685","0.5","0.5","2","3","",""
"animation","108","117356","0.0-5.0-2.51","631699e51577c995252cf3fc","bdp_cybrbll","Sat Mar 25 2023 19:05:22 GMT-0400 (Eastern Daylight Time)","424656","1","3","","","","","","","","","","","174","","","","2","3","[{""stimulus"":""img/2to3/1.png"",""time"":101},{""stimulus"":""img/2to3/2.png"",""time"":201},{""stimulus"":""img/2to3/3.png"",""time"":309},{""stimulus"":""img/2to3/4.png"",""time"":402},{""stimulus"":""img/2to3/5.png"",""time"":499},{""stimulus"":""img/2to3/6.png"",""time"":596},{""stimulus"":""img/2to3/7.png"",""time"":698},{""stimulus"":""img/2to3/8.png"",""time"":806},{""stimulus"":""img/2to3/9.png"",""time"":901},{""stimulus"":""img/2to3/10.png"",""time"":994},{""stimulus"":""img/2to3/11.png"",""time"":1097},{""stimulus"":""img/2to3/12.png"",""time"":1190}]","[]"
"image-keyboard-response","109","117652","0.0-5.0-1.52","631699e51577c995252cf3fc","bdp_cybrbll","Sat Mar 25 2023 19:05:22 GMT-0400 (Eastern Daylight Time)","424656","1","3","","","","observe","","","null","","img/3to2/1.png","null","173","292","0.5","0.5","3","2","",""
"animation","110","118956","0.0-5.0-2.52","631699e51577c995252cf3fc","bdp_cybrbll","Sat Mar 25 2023 19:05:22 GMT-0400 (Eastern Daylight Time)","424656","1","3","","","","","","","","","","","173","","","","3","2","[{""stimulus"":""img/3to2/1.png"",""time"":108},{""stimulus"":""img/3to2/2.png"",""time"":199},{""stimulus"":""img/3to2/3.png"",""time"":311},{""stimulus"":""img/3to2/4.png"",""time"":398},{""stimulus"":""img/3to2/5.png"",""time"":499},{""stimulus"":""img/3to2/6.png"",""time"":598},{""stimulus"":""img/3to2/7.png"",""time"":695},{""stimulus"":""img/3to2/8.png"",""time"":794},{""stimulus"":""img/3to2/9.png"",""time"":902},{""stimulus"":""img/3to2/10.png"",""time"":997},{""stimulus"":""img/3to2/11.png"",""time"":1092},{""stimulus"":""img/3to2/12.png"",""time"":1201}]","[]"
"image-keyboard-response","111","119051","0.0-5.0-1.53","631699e51577c995252cf3fc","bdp_cybrbll","Sat Mar 25 2023 19:05:22 GMT-0400 (Eastern Daylight Time)","424656","1","3","","","","choice","","","93","","img/2to1/1.png","2","172","261","0.5","0.5","2","3","",""
"animation","112","120339","0.0-5.0-2.53","631699e51577c995252cf3fc","bdp_cybrbll","Sat Mar 25 2023 19:05:22 GMT-0400 (Eastern Daylight Time)","424656","1","3","","","","","","","","","","","172","","","","2","3","[{""stimulus"":""img/2to3/1.png"",""time"":102},{""stimulus"":""img/2to3/2.png"",""time"":200},{""stimulus"":""img/2to3/3.png"",""time"":307},{""stimulus"":""img/2to3/4.png"",""time"":411},{""stimulus"":""img/2to3/5.png"",""time"":499},{""stimulus"":""img/2to3/6.png"",""time"":601},{""stimulus"":""img/2to3/7.png"",""time"":707},{""stimulus"":""img/2to3/8.png"",""time"":801},{""stimulus"":""img/2to3/9.png"",""time"":894},{""stimulus"":""img/2to3/10.png"",""time"":1004},{""stimulus"":""img/2to3/11.png"",""time"":1101},{""stimulus"":""img/2to3/12.png"",""time"":1192}]","[]"
"image-keyboard-response","113","120575","0.0-5.0-1.54","631699e51577c995252cf3fc","bdp_cybrbll","Sat Mar 25 2023 19:05:22 GMT-0400 (Eastern Daylight Time)","424656","1","3","","","","observe","","","null","","img/3to2/1.png","null","171","225","0.5","0.5","3","1","",""
"animation","114","121864","0.0-5.0-2.54","631699e51577c995252cf3fc","bdp_cybrbll","Sat Mar 25 2023 19:05:22 GMT-0400 (Eastern Daylight Time)","424656","1","3","","","","","","","","","","","171","","","","3","1","[{""stimulus"":""img/3to1/1.png"",""time"":108},{""stimulus"":""img/3to1/2.png"",""time"":202},{""stimulus"":""img/3to1/3.png"",""time"":310},{""stimulus"":""img/3to1/4.png"",""time"":403},{""stimulus"":""img/3to1/5.png"",""time"":510},{""stimulus"":""img/3to1/6.png"",""time"":603},{""stimulus"":""img/3to1/7.png"",""time"":696},{""stimulus"":""img/3to1/8.png"",""time"":806},{""stimulus"":""img/3to1/9.png"",""time"":900},{""stimulus"":""img/3to1/10.png"",""time"":993},{""stimulus"":""img/3to1/11.png"",""time"":1103},{""stimulus"":""img/3to1/12.png"",""time"":1196}]","[]"
"image-keyboard-response","115","122174","0.0-5.0-1.55","631699e51577c995252cf3fc","bdp_cybrbll","Sat Mar 25 2023 19:05:22 GMT-0400 (Eastern Daylight Time)","424656","1","3","","","","observe","","","null","","img/1to3/1.png","null","170","298","0.5","0.5","1","3","",""
"animation","116","123466","0.0-5.0-2.55","631699e51577c995252cf3fc","bdp_cybrbll","Sat Mar 25 2023 19:05:22 GMT-0400 (Eastern Daylight Time)","424656","1","3","","","","","","","","","","","170","","","","1","3","[{""stimulus"":""img/1to3/1.png"",""time"":110},{""stimulus"":""img/1to3/2.png"",""time"":199},{""stimulus"":""img/1to3/3.png"",""time"":308},{""stimulus"":""img/1to3/4.png"",""time"":403},{""stimulus"":""img/1to3/5.png"",""time"":496},{""stimulus"":""img/1to3/6.png"",""time"":605},{""stimulus"":""img/1to3/7.png"",""time"":699},{""stimulus"":""img/1to3/8.png"",""time"":794},{""stimulus"":""img/1to3/9.png"",""time"":892},{""stimulus"":""img/1to3/10.png"",""time"":995},{""stimulus"":""img/1to3/11.png"",""time"":1104},{""stimulus"":""img/1to3/12.png"",""time"":1197}]","[]"
"image-keyboard-response","117","123931","0.0-5.0-1.56","631699e51577c995252cf3fc","bdp_cybrbll","Sat Mar 25 2023 19:05:22 GMT-0400 (Eastern Daylight Time)","424656","1","3","","","","observe","","","null","","img/3to2/1.png","null","169","450","0.5","0.5","3","2","",""
"animation","118","125222","0.0-5.0-2.56","631699e51577c995252cf3fc","bdp_cybrbll","Sat Mar 25 2023 19:05:22 GMT-0400 (Eastern Daylight Time)","424656","1","3","","","","","","","","","","","169","","","","3","2","[{""stimulus"":""img/3to2/1.png"",""time"":109},{""stimulus"":""img/3to2/2.png"",""time"":199},{""stimulus"":""img/3to2/3.png"",""time"":299},{""stimulus"":""img/3to2/4.png"",""time"":405},{""stimulus"":""img/3to2/5.png"",""time"":496},{""stimulus"":""img/3to2/6.png"",""time"":609},{""stimulus"":""img/3to2/7.png"",""time"":694},{""stimulus"":""img/3to2/8.png"",""time"":794},{""stimulus"":""img/3to2/9.png"",""time"":904},{""stimulus"":""img/3to2/10.png"",""time"":991},{""stimulus"":""img/3to2/11.png"",""time"":1104},{""stimulus"":""img/3to2/12.png"",""time"":1198}]","[]"
"image-keyboard-response","119","125858","0.0-5.0-1.57","631699e51577c995252cf3fc","bdp_cybrbll","Sat Mar 25 2023 19:05:22 GMT-0400 (Eastern Daylight Time)","424656","1","3","","","","choice","","","635","","img/2to1/1.png","2","168","382","0.5","0.5","2","3","",""
"animation","120","127147","0.0-5.0-2.57","631699e51577c995252cf3fc","bdp_cybrbll","Sat Mar 25 2023 19:05:22 GMT-0400 (Eastern Daylight Time)","424656","1","3","","","","","","","","","","","168","","","","2","3","[{""stimulus"":""img/2to3/1.png"",""time"":100},{""stimulus"":""img/2to3/2.png"",""time"":204},{""stimulus"":""img/2to3/3.png"",""time"":314},{""stimulus"":""img/2to3/4.png"",""time"":398},{""stimulus"":""img/2to3/5.png"",""time"":497},{""stimulus"":""img/2to3/6.png"",""time"":609},{""stimulus"":""img/2to3/7.png"",""time"":704},{""stimulus"":""img/2to3/8.png"",""time"":794},{""stimulus"":""img/2to3/9.png"",""time"":907},{""stimulus"":""img/2to3/10.png"",""time"":992},{""stimulus"":""img/2to3/11.png"",""time"":1091},{""stimulus"":""img/2to3/12.png"",""time"":1189}]","[]"
"image-keyboard-response","121","127976","0.0-5.0-1.58","631699e51577c995252cf3fc","bdp_cybrbll","Sat Mar 25 2023 19:05:22 GMT-0400 (Eastern Daylight Time)","424656","1","3","","","","observe","","","null","","img/3to2/1.png","null","167","819","0.5","0.5","3","2","",""
"animation","122","129279","0.0-5.0-2.58","631699e51577c995252cf3fc","bdp_cybrbll","Sat Mar 25 2023 19:05:22 GMT-0400 (Eastern Daylight Time)","424656","1","3","","","","","","","","","","","167","","","","3","2","[{""stimulus"":""img/3to2/1.png"",""time"":111},{""stimulus"":""img/3to2/2.png"",""time"":203},{""stimulus"":""img/3to2/3.png"",""time"":299},{""stimulus"":""img/3to2/4.png"",""time"":407},{""stimulus"":""img/3to2/5.png"",""time"":497},{""stimulus"":""img/3to2/6.png"",""time"":596},{""stimulus"":""img/3to2/7.png"",""time"":700},{""stimulus"":""img/3to2/8.png"",""time"":808},{""stimulus"":""img/3to2/9.png"",""time"":892},{""stimulus"":""img/3to2/10.png"",""time"":995},{""stimulus"":""img/3to2/11.png"",""time"":1122},{""stimulus"":""img/3to2/12.png"",""time"":1195}]","[]"
"image-keyboard-response","123","130155","0.0-5.0-1.59","631699e51577c995252cf3fc","bdp_cybrbll","Sat Mar 25 2023 19:05:22 GMT-0400 (Eastern Daylight Time)","424656","1","3","","","","choice","","","875","","img/2to1/1.png","1","166","510","0.5","0.5","2","1","",""
"animation","124","131453","0.0-5.0-2.59","631699e51577c995252cf3fc","bdp_cybrbll","Sat Mar 25 2023 19:05:22 GMT-0400 (Eastern Daylight Time)","424656","1","3","","","","","","","","","","","166","","","","2","1","[{""stimulus"":""img/2to1/1.png"",""time"":100},{""stimulus"":""img/2to1/2.png"",""time"":211},{""stimulus"":""img/2to1/3.png"",""time"":304},{""stimulus"":""img/2to1/4.png"",""time"":411},{""stimulus"":""img/2to1/5.png"",""time"":496},{""stimulus"":""img/2to1/6.png"",""time"":597},{""stimulus"":""img/2to1/7.png"",""time"":706},{""stimulus"":""img/2to1/8.png"",""time"":793},{""stimulus"":""img/2to1/9.png"",""time"":892},{""stimulus"":""img/2to1/10.png"",""time"":992},{""stimulus"":""img/2to1/11.png"",""time"":1094},{""stimulus"":""img/2to1/12.png"",""time"":1191}]","[]"
"image-keyboard-response","125","131734","0.0-5.0-1.60","631699e51577c995252cf3fc","bdp_cybrbll","Sat Mar 25 2023 19:05:22 GMT-0400 (Eastern Daylight Time)","424656","1","3","","","","observe","","","null","","img/1to3/1.png","null","165","278","0.5","0.5","1","2","",""
"animation","126","133027","0.0-5.0-2.60","631699e51577c995252cf3fc","bdp_cybrbll","Sat Mar 25 2023 19:05:22 GMT-0400 (Eastern Daylight Time)","424656","1","3","","","","","","","","","","","165","","","","1","2","[{""stimulus"":""img/1to2/1.png"",""time"":109},{""stimulus"":""img/1to2/2.png"",""time"":202},{""stimulus"":""img/1to2/3.png"",""time"":311},{""stimulus"":""img/1to2/4.png"",""time"":404},{""stimulus"":""img/1to2/5.png"",""time"":511},{""stimulus"":""img/1to2/6.png"",""time"":606},{""stimulus"":""img/1to2/7.png"",""time"":699},{""stimulus"":""img/1to2/8.png"",""time"":795},{""stimulus"":""img/1to2/9.png"",""time"":906},{""stimulus"":""img/1to2/10.png"",""time"":992},{""stimulus"":""img/1to2/11.png"",""time"":1091},{""stimulus"":""img/1to2/12.png"",""time"":1189}]","[]"
"image-keyboard-response","127","133090","0.0-5.0-1.61","631699e51577c995252cf3fc","bdp_cybrbll","Sat Mar 25 2023 19:05:22 GMT-0400 (Eastern Daylight Time)","424656","1","3","","","","choice","","","62","","img/2to1/1.png","2","164","414","0.5","0.5","2","3","",""
"animation","128","134381","0.0-5.0-2.61","631699e51577c995252cf3fc","bdp_cybrbll","Sat Mar 25 2023 19:05:22 GMT-0400 (Eastern Daylight Time)","424656","1","3","","","","","","","","","","","164","","","","2","3","[{""stimulus"":""img/2to3/1.png"",""time"":108},{""stimulus"":""img/2to3/2.png"",""time"":200},{""stimulus"":""img/2to3/3.png"",""time"":308},{""stimulus"":""img/2to3/4.png"",""time"":405},{""stimulus"":""img/2to3/5.png"",""time"":496},{""stimulus"":""img/2to3/6.png"",""time"":607},{""stimulus"":""img/2to3/7.png"",""time"":699},{""stimulus"":""img/2to3/8.png"",""time"":793},{""stimulus"":""img/2to3/9.png"",""time"":903},{""stimulus"":""img/2to3/10.png"",""time"":995},{""stimulus"":""img/2to3/11.png"",""time"":1104},{""stimulus"":""img/2to3/12.png"",""time"":1198}]","[]"
"image-keyboard-response","129","134846","0.0-5.0-1.62","631699e51577c995252cf3fc","bdp_cybrbll","Sat Mar 25 2023 19:05:22 GMT-0400 (Eastern Daylight Time)","424656","1","3","","","","observe","","","null","","img/3to2/1.png","null","163","458","0.5","0.5","3","1","",""
"animation","130","136136","0.0-5.0-2.62","631699e51577c995252cf3fc","bdp_cybrbll","Sat Mar 25 2023 19:05:22 GMT-0400 (Eastern Daylight Time)","424656","1","3","","","","","","","","","","","163","","","","3","1","[{""stimulus"":""img/3to1/1.png"",""time"":108},{""stimulus"":""img/3to1/2.png"",""time"":203},{""stimulus"":""img/3to1/3.png"",""time"":311},{""stimulus"":""img/3to1/4.png"",""time"":406},{""stimulus"":""img/3to1/5.png"",""time"":499},{""stimulus"":""img/3to1/6.png"",""time"":608},{""stimulus"":""img/3to1/7.png"",""time"":701},{""stimulus"":""img/3to1/8.png"",""time"":794},{""stimulus"":""img/3to1/9.png"",""time"":892},{""stimulus"":""img/3to1/10.png"",""time"":996},{""stimulus"":""img/3to1/11.png"",""time"":1104},{""stimulus"":""img/3to1/12.png"",""time"":1197}]","[]"
"image-keyboard-response","131","136668","0.0-5.0-1.63","631699e51577c995252cf3fc","bdp_cybrbll","Sat Mar 25 2023 19:05:22 GMT-0400 (Eastern Daylight Time)","424656","1","3","","","","observe","","","null","","img/1to3/1.png","null","162","523","0.5","0.5","1","3","",""
"animation","132","137971","0.0-5.0-2.63","631699e51577c995252cf3fc","bdp_cybrbll","Sat Mar 25 2023 19:05:22 GMT-0400 (Eastern Daylight Time)","424656","1","3","","","","","","","","","","","162","","","","1","3","[{""stimulus"":""img/1to3/1.png"",""time"":107},{""stimulus"":""img/1to3/2.png"",""time"":215},{""stimulus"":""img/1to3/3.png"",""time"":298},{""stimulus"":""img/1to3/4.png"",""time"":400},{""stimulus"":""img/1to3/5.png"",""time"":509},{""stimulus"":""img/1to3/6.png"",""time"":603},{""stimulus"":""img/1to3/7.png"",""time"":695},{""stimulus"":""img/1to3/8.png"",""time"":803},{""stimulus"":""img/1to3/9.png"",""time"":898},{""stimulus"":""img/1to3/10.png"",""time"":1006},{""stimulus"":""img/1to3/11.png"",""time"":1101},{""stimulus"":""img/1to3/12.png"",""time"":1195}]","[]"
"image-keyboard-response","133","138252","0.0-5.0-1.64","631699e51577c995252cf3fc","bdp_cybrbll","Sat Mar 25 2023 19:05:22 GMT-0400 (Eastern Daylight Time)","424656","1","3","","","","observe","","","null","","img/3to2/1.png","null","161","277","0.5","0.5","3","1","",""
"animation","134","139546","0.0-5.0-2.64","631699e51577c995252cf3fc","bdp_cybrbll","Sat Mar 25 2023 19:05:22 GMT-0400 (Eastern Daylight Time)","424656","1","3","","","","","","","","","","","161","","","","3","1","[{""stimulus"":""img/3to1/1.png"",""time"":109},{""stimulus"":""img/3to1/2.png"",""time"":200},{""stimulus"":""img/3to1/3.png"",""time"":310},{""stimulus"":""img/3to1/4.png"",""time"":405},{""stimulus"":""img/3to1/5.png"",""time"":498},{""stimulus"":""img/3to1/6.png"",""time"":607},{""stimulus"":""img/3to1/7.png"",""time"":700},{""stimulus"":""img/3to1/8.png"",""time"":794},{""stimulus"":""img/3to1/9.png"",""time"":902},{""stimulus"":""img/3to1/10.png"",""time"":990},{""stimulus"":""img/3to1/11.png"",""time"":1105},{""stimulus"":""img/3to1/12.png"",""time"":1200}]","[]"
"image-keyboard-response","135","140400","0.0-5.0-1.65","631699e51577c995252cf3fc","bdp_cybrbll","Sat Mar 25 2023 19:05:22 GMT-0400 (Eastern Daylight Time)","424656","1","3","","","","observe","","","null","","img/1to3/1.png","null","160","839","0.5","0.5","1","3","",""
"animation","136","141689","0.0-5.0-2.65","631699e51577c995252cf3fc","bdp_cybrbll","Sat Mar 25 2023 19:05:22 GMT-0400 (Eastern Daylight Time)","424656","1","3","","","","","","","","","","","160","","","","1","3","[{""stimulus"":""img/1to3/1.png"",""time"":109},{""stimulus"":""img/1to3/2.png"",""time"":202},{""stimulus"":""img/1to3/3.png"",""time"":310},{""stimulus"":""img/1to3/4.png"",""time"":397},{""stimulus"":""img/1to3/5.png"",""time"":497},{""stimulus"":""img/1to3/6.png"",""time"":606},{""stimulus"":""img/1to3/7.png"",""time"":699},{""stimulus"":""img/1to3/8.png"",""time"":807},{""stimulus"":""img/1to3/9.png"",""time"":902},{""stimulus"":""img/1to3/10.png"",""time"":995},{""stimulus"":""img/1to3/11.png"",""time"":1100},{""stimulus"":""img/1to3/12.png"",""time"":1196}]","[]"
"image-keyboard-response","137","141987","0.0-5.0-1.66","631699e51577c995252cf3fc","bdp_cybrbll","Sat Mar 25 2023 19:05:22 GMT-0400 (Eastern Daylight Time)","424656","1","3","","","","observe","","","null","","img/3to2/1.png","null","159","289","0.5","0.5","3","1","",""
"animation","138","143278","0.0-5.0-2.66","631699e51577c995252cf3fc","bdp_cybrbll","Sat Mar 25 2023 19:05:22 GMT-0400 (Eastern Daylight Time)","424656","1","3","","","","","","","","","","","159","","","","3","1","[{""stimulus"":""img/3to1/1.png"",""time"":103},{""stimulus"":""img/3to1/2.png"",""time"":201},{""stimulus"":""img/3to1/3.png"",""time"":298},{""stimulus"":""img/3to1/4.png"",""time"":403},{""stimulus"":""img/3to1/5.png"",""time"":496},{""stimulus"":""img/3to1/6.png"",""time"":605},{""stimulus"":""img/3to1/7.png"",""time"":699},{""stimulus"":""img/3to1/8.png"",""time"":807},{""stimulus"":""img/3to1/9.png"",""time"":901},{""stimulus"":""img/3to1/10.png"",""time"":990},{""stimulus"":""img/3to1/11.png"",""time"":1090},{""stimulus"":""img/3to1/12.png"",""time"":1198}]","[]"
"image-keyboard-response","139","143757","0.0-5.0-1.67","631699e51577c995252cf3fc","bdp_cybrbll","Sat Mar 25 2023 19:05:22 GMT-0400 (Eastern Daylight Time)","424656","1","3","","","","observe","","","null","","img/1to3/1.png","null","158","471","0.5","0.5","1","3","",""
"animation","140","145045","0.0-5.0-2.67","631699e51577c995252cf3fc","bdp_cybrbll","Sat Mar 25 2023 19:05:22 GMT-0400 (Eastern Daylight Time)","424656","1","3","","","","","","","","","","","158","","","","1","3","[{""stimulus"":""img/1to3/1.png"",""time"":109},{""stimulus"":""img/1to3/2.png"",""time"":202},{""stimulus"":""img/1to3/3.png"",""time"":310},{""stimulus"":""img/1to3/4.png"",""time"":403},{""stimulus"":""img/1to3/5.png"",""time"":510},{""stimulus"":""img/1to3/6.png"",""time"":595},{""stimulus"":""img/1to3/7.png"",""time"":697},{""stimulus"":""img/1to3/8.png"",""time"":804},{""stimulus"":""img/1to3/9.png"",""time"":897},{""stimulus"":""img/1to3/10.png"",""time"":1006},{""stimulus"":""img/1to3/11.png"",""time"":1101},{""stimulus"":""img/1to3/12.png"",""time"":1194}]","[]"
"image-keyboard-response","141","145373","0.0-5.0-1.68","631699e51577c995252cf3fc","bdp_cybrbll","Sat Mar 25 2023 19:05:22 GMT-0400 (Eastern Daylight Time)","424656","1","3","","","","observe","","","null","","img/3to2/1.png","null","157","317","0.5","0.5","3","1","",""
"animation","142","146661","0.0-5.0-2.68","631699e51577c995252cf3fc","bdp_cybrbll","Sat Mar 25 2023 19:05:22 GMT-0400 (Eastern Daylight Time)","424656","1","3","","","","","","","","","","","157","","","","3","1","[{""stimulus"":""img/3to1/1.png"",""time"":110},{""stimulus"":""img/3to1/2.png"",""time"":205},{""stimulus"":""img/3to1/3.png"",""time"":313},{""stimulus"":""img/3to1/4.png"",""time"":406},{""stimulus"":""img/3to1/5.png"",""time"":496},{""stimulus"":""img/3to1/6.png"",""time"":608},{""stimulus"":""img/3to1/7.png"",""time"":701},{""stimulus"":""img/3to1/8.png"",""time"":794},{""stimulus"":""img/3to1/9.png"",""time"":893},{""stimulus"":""img/3to1/10.png"",""time"":992},{""stimulus"":""img/3to1/11.png"",""time"":1092},{""stimulus"":""img/3to1/12.png"",""time"":1199}]","[]"
"image-keyboard-response","143","146912","0.0-5.0-1.69","631699e51577c995252cf3fc","bdp_cybrbll","Sat Mar 25 2023 19:05:22 GMT-0400 (Eastern Daylight Time)","424656","1","3","","","","observe","","","null","","img/1to3/1.png","null","156","239","0.5","0.5","1","2","",""
"animation","144","148203","0.0-5.0-2.69","631699e51577c995252cf3fc","bdp_cybrbll","Sat Mar 25 2023 19:05:22 GMT-0400 (Eastern Daylight Time)","424656","1","3","","","","","","","","","","","156","","","","1","2","[{""stimulus"":""img/1to2/1.png"",""time"":109},{""stimulus"":""img/1to2/2.png"",""time"":203},{""stimulus"":""img/1to2/3.png"",""time"":312},{""stimulus"":""img/1to2/4.png"",""time"":406},{""stimulus"":""img/1to2/5.png"",""time"":500},{""stimulus"":""img/1to2/6.png"",""time"":597},{""stimulus"":""img/1to2/7.png"",""time"":703},{""stimulus"":""img/1to2/8.png"",""time"":796},{""stimulus"":""img/1to2/9.png"",""time"":905},{""stimulus"":""img/1to2/10.png"",""time"":998},{""stimulus"":""img/1to2/11.png"",""time"":1106},{""stimulus"":""img/1to2/12.png"",""time"":1199}]","[]"
"image-keyboard-response","145","148419","0.0-5.0-1.70","631699e51577c995252cf3fc","bdp_cybrbll","Sat Mar 25 2023 19:05:22 GMT-0400 (Eastern Daylight Time)","424656","1","3","","","","choice","","","215","","img/2to1/1.png","2","155","789","0.5","0.5","2","3","",""
"animation","146","149712","0.0-5.0-2.70","631699e51577c995252cf3fc","bdp_cybrbll","Sat Mar 25 2023 19:05:22 GMT-0400 (Eastern Daylight Time)","424656","1","3","","","","","","","","","","","155","","","","2","3","[{""stimulus"":""img/2to3/1.png"",""time"":99},{""stimulus"":""img/2to3/2.png"",""time"":204},{""stimulus"":""img/2to3/3.png"",""time"":314},{""stimulus"":""img/2to3/4.png"",""time"":397},{""stimulus"":""img/2to3/5.png"",""time"":500},{""stimulus"":""img/2to3/6.png"",""time"":609},{""stimulus"":""img/2to3/7.png"",""time"":702},{""stimulus"":""img/2to3/8.png"",""time"":795},{""stimulus"":""img/2to3/9.png"",""time"":903},{""stimulus"":""img/2to3/10.png"",""time"":997},{""stimulus"":""img/2to3/11.png"",""time"":1090},{""stimulus"":""img/2to3/12.png"",""time"":1199}]","[]"
"image-keyboard-response","147","150409","0.0-5.0-1.71","631699e51577c995252cf3fc","bdp_cybrbll","Sat Mar 25 2023 19:05:22 GMT-0400 (Eastern Daylight Time)","424656","1","3","","","","observe","","","null","","img/3to2/1.png","null","154","687","0.5","0.5","3","1","",""
"animation","148","151700","0.0-5.0-2.71","631699e51577c995252cf3fc","bdp_cybrbll","Sat Mar 25 2023 19:05:22 GMT-0400 (Eastern Daylight Time)","424656","1","3","","","","","","","","","","","154","","","","3","1","[{""stimulus"":""img/3to1/1.png"",""time"":110},{""stimulus"":""img/3to1/2.png"",""time"":200},{""stimulus"":""img/3to1/3.png"",""time"":299},{""stimulus"":""img/3to1/4.png"",""time"":397},{""stimulus"":""img/3to1/5.png"",""time"":496},{""stimulus"":""img/3to1/6.png"",""time"":608},{""stimulus"":""img/3to1/7.png"",""time"":700},{""stimulus"":""img/3to1/8.png"",""time"":793},{""stimulus"":""img/3to1/9.png"",""time"":892},{""stimulus"":""img/3to1/10.png"",""time"":995},{""stimulus"":""img/3to1/11.png"",""time"":1104},{""stimulus"":""img/3to1/12.png"",""time"":1191}]","[]"
"image-keyboard-response","149","152041","0.0-5.0-1.72","631699e51577c995252cf3fc","bdp_cybrbll","Sat Mar 25 2023 19:05:22 GMT-0400 (Eastern Daylight Time)","424656","1","3","","","","observe","","","null","","img/1to3/1.png","null","153","331","0.5","0.5","1","3","",""
"animation","150","153329","0.0-5.0-2.72","631699e51577c995252cf3fc","bdp_cybrbll","Sat Mar 25 2023 19:05:22 GMT-0400 (Eastern Daylight Time)","424656","1","3","","","","","","","","","","","153","","","","1","3","[{""stimulus"":""img/1to3/1.png"",""time"":109},{""stimulus"":""img/1to3/2.png"",""time"":202},{""stimulus"":""img/1to3/3.png"",""time"":312},{""stimulus"":""img/1to3/4.png"",""time"":404},{""stimulus"":""img/1to3/5.png"",""time"":497},{""stimulus"":""img/1to3/6.png"",""time"":607},{""stimulus"":""img/1to3/7.png"",""time"":700},{""stimulus"":""img/1to3/8.png"",""time"":809},{""stimulus"":""img/1to3/9.png"",""time"":902},{""stimulus"":""img/1to3/10.png"",""time"":992},{""stimulus"":""img/1to3/11.png"",""time"":1104},{""stimulus"":""img/1to3/12.png"",""time"":1197}]","[]"
"image-keyboard-response","151","153517","0.0-5.0-1.73","631699e51577c995252cf3fc","bdp_cybrbll","Sat Mar 25 2023 19:05:22 GMT-0400 (Eastern Daylight Time)","424656","1","3","","","","observe","","","null","","img/3to2/1.png","null","152","180","0.5","0.5","3","2","",""
"animation","152","154809","0.0-5.0-2.73","631699e51577c995252cf3fc","bdp_cybrbll","Sat Mar 25 2023 19:05:22 GMT-0400 (Eastern Daylight Time)","424656","1","3","","","","","","","","","","","152","","","","3","2","[{""stimulus"":""img/3to2/1.png"",""time"":107},{""stimulus"":""img/3to2/2.png"",""time"":200},{""stimulus"":""img/3to2/3.png"",""time"":309},{""stimulus"":""img/3to2/4.png"",""time"":403},{""stimulus"":""img/3to2/5.png"",""time"":496},{""stimulus"":""img/3to2/6.png"",""time"":605},{""stimulus"":""img/3to2/7.png"",""time"":699},{""stimulus"":""img/3to2/8.png"",""time"":793},{""stimulus"":""img/3to2/9.png"",""time"":902},{""stimulus"":""img/3to2/10.png"",""time"":990},{""stimulus"":""img/3to2/11.png"",""time"":1106},{""stimulus"":""img/3to2/12.png"",""time"":1198}]","[]"
"image-keyboard-response","153","155028","0.0-5.0-1.74","631699e51577c995252cf3fc","bdp_cybrbll","Sat Mar 25 2023 19:05:22 GMT-0400 (Eastern Daylight Time)","424656","1","3","","","","choice","","","219","","img/2to1/1.png","1","151","687","0.5","0.5","2","1","",""
"animation","154","156331","0.0-5.0-2.74","631699e51577c995252cf3fc","bdp_cybrbll","Sat Mar 25 2023 19:05:22 GMT-0400 (Eastern Daylight Time)","424656","1","3","","","","","","","","","","","151","","","","2","1","[{""stimulus"":""img/2to1/1.png"",""time"":108},{""stimulus"":""img/2to1/2.png"",""time"":200},{""stimulus"":""img/2to1/3.png"",""time"":310},{""stimulus"":""img/2to1/4.png"",""time"":402},{""stimulus"":""img/2to1/5.png"",""time"":497},{""stimulus"":""img/2to1/6.png"",""time"":605},{""stimulus"":""img/2to1/7.png"",""time"":698},{""stimulus"":""img/2to1/8.png"",""time"":807},{""stimulus"":""img/2to1/9.png"",""time"":899},{""stimulus"":""img/2to1/10.png"",""time"":992},{""stimulus"":""img/2to1/11.png"",""time"":1092},{""stimulus"":""img/2to1/12.png"",""time"":1189}]","[]"
"image-keyboard-response","155","156503","0.0-5.0-1.75","631699e51577c995252cf3fc","bdp_cybrbll","Sat Mar 25 2023 19:05:22 GMT-0400 (Eastern Daylight Time)","424656","1","3","","","","observe","","","null","","img/1to3/1.png","null","150","160","0.5","0.5","1","2","",""
"animation","156","157795","0.0-5.0-2.75","631699e51577c995252cf3fc","bdp_cybrbll","Sat Mar 25 2023 19:05:22 GMT-0400 (Eastern Daylight Time)","424656","1","3","","","","","","","","","","","150","","","","1","2","[{""stimulus"":""img/1to2/1.png"",""time"":109},{""stimulus"":""img/1to2/2.png"",""time"":203},{""stimulus"":""img/1to2/3.png"",""time"":311},{""stimulus"":""img/1to2/4.png"",""time"":404},{""stimulus"":""img/1to2/5.png"",""time"":497},{""stimulus"":""img/1to2/6.png"",""time"":606},{""stimulus"":""img/1to2/7.png"",""time"":699},{""stimulus"":""img/1to2/8.png"",""time"":808},{""stimulus"":""img/1to2/9.png"",""time"":902},{""stimulus"":""img/1to2/10.png"",""time"":996},{""stimulus"":""img/1to2/11.png"",""time"":1106},{""stimulus"":""img/1to2/12.png"",""time"":1198}]","[]"
"image-keyboard-response","157","158933","0.0-5.0-1.76","631699e51577c995252cf3fc","bdp_cybrbll","Sat Mar 25 2023 19:05:22 GMT-0400 (Eastern Daylight Time)","424656","1","3","","","","choice","","","1137","","img/2to1/1.png","2","149","682","0.5","0.1","2","3","",""
"animation","158","160234","0.0-5.0-2.76","631699e51577c995252cf3fc","bdp_cybrbll","Sat Mar 25 2023 19:05:22 GMT-0400 (Eastern Daylight Time)","424656","1","3","","","","","","","","","","","149","","","","2","3","[{""stimulus"":""img/2to3/1.png"",""time"":105},{""stimulus"":""img/2to3/2.png"",""time"":200},{""stimulus"":""img/2to3/3.png"",""time"":308},{""stimulus"":""img/2to3/4.png"",""time"":399},{""stimulus"":""img/2to3/5.png"",""time"":511},{""stimulus"":""img/2to3/6.png"",""time"":604},{""stimulus"":""img/2to3/7.png"",""time"":697},{""stimulus"":""img/2to3/8.png"",""time"":800},{""stimulus"":""img/2to3/9.png"",""time"":899},{""stimulus"":""img/2to3/10.png"",""time"":992},{""stimulus"":""img/2to3/11.png"",""time"":1091},{""stimulus"":""img/2to3/12.png"",""time"":1193}]","[]"
"image-keyboard-response","159","160637","0.0-5.0-1.77","631699e51577c995252cf3fc","bdp_cybrbll","Sat Mar 25 2023 19:05:22 GMT-0400 (Eastern Daylight Time)","424656","1","3","","","","observe","","","null","","img/3to2/1.png","null","148","347","0.5","0.1","3","1","",""
"animation","160","161933","0.0-5.0-2.77","631699e51577c995252cf3fc","bdp_cybrbll","Sat Mar 25 2023 19:05:22 GMT-0400 (Eastern Daylight Time)","424656","1","3","","","","","","","","","","","148","","","","3","1","[{""stimulus"":""img/3to1/1.png"",""time"":129},{""stimulus"":""img/3to1/2.png"",""time"":212},{""stimulus"":""img/3to1/3.png"",""time"":306},{""stimulus"":""img/3to1/4.png"",""time"":402},{""stimulus"":""img/3to1/5.png"",""time"":511},{""stimulus"":""img/3to1/6.png"",""time"":608},{""stimulus"":""img/3to1/7.png"",""time"":698},{""stimulus"":""img/3to1/8.png"",""time"":810},{""stimulus"":""img/3to1/9.png"",""time"":895},{""stimulus"":""img/3to1/10.png"",""time"":998},{""stimulus"":""img/3to1/11.png"",""time"":1093},{""stimulus"":""img/3to1/12.png"",""time"":1204}]","[]"
"image-keyboard-response","161","162338","0.0-5.0-1.78","631699e51577c995252cf3fc","bdp_cybrbll","Sat Mar 25 2023 19:05:22 GMT-0400 (Eastern Daylight Time)","424656","1","3","","","","observe","","","null","","img/1to3/1.png","null","147","402","0.5","0.1","1","2","",""
"animation","162","163631","0.0-5.0-2.78","631699e51577c995252cf3fc","bdp_cybrbll","Sat Mar 25 2023 19:05:22 GMT-0400 (Eastern Daylight Time)","424656","1","3","","","","","","","","","","","147","","","","1","2","[{""stimulus"":""img/1to2/1.png"",""time"":109},{""stimulus"":""img/1to2/2.png"",""time"":203},{""stimulus"":""img/1to2/3.png"",""time"":311},{""stimulus"":""img/1to2/4.png"",""time"":397},{""stimulus"":""img/1to2/5.png"",""time"":497},{""stimulus"":""img/1to2/6.png"",""time"":594},{""stimulus"":""img/1to2/7.png"",""time"":700},{""stimulus"":""img/1to2/8.png"",""time"":793},{""stimulus"":""img/1to2/9.png"",""time"":902},{""stimulus"":""img/1to2/10.png"",""time"":996},{""stimulus"":""img/1to2/11.png"",""time"":1091},{""stimulus"":""img/1to2/12.png"",""time"":1200}]","[]"
"image-keyboard-response","163","163805","0.0-5.0-1.79","631699e51577c995252cf3fc","bdp_cybrbll","Sat Mar 25 2023 19:05:22 GMT-0400 (Eastern Daylight Time)","424656","1","3","","","","choice","","","173","","img/2to1/1.png","1","146","262","0.5","0.1","2","1","",""
"animation","164","165094","0.0-5.0-2.79","631699e51577c995252cf3fc","bdp_cybrbll","Sat Mar 25 2023 19:05:22 GMT-0400 (Eastern Daylight Time)","424656","1","3","","","","","","","","","","","146","","","","2","1","[{""stimulus"":""img/2to1/1.png"",""time"":101},{""stimulus"":""img/2to1/2.png"",""time"":200},{""stimulus"":""img/2to1/3.png"",""time"":307},{""stimulus"":""img/2to1/4.png"",""time"":399},{""stimulus"":""img/2to1/5.png"",""time"":509},{""stimulus"":""img/2to1/6.png"",""time"":603},{""stimulus"":""img/2to1/7.png"",""time"":697},{""stimulus"":""img/2to1/8.png"",""time"":808},{""stimulus"":""img/2to1/9.png"",""time"":896},{""stimulus"":""img/2to1/10.png"",""time"":995},{""stimulus"":""img/2to1/11.png"",""time"":1102},{""stimulus"":""img/2to1/12.png"",""time"":1196}]","[]"
"image-keyboard-response","165","165999","0.0-5.0-1.80","631699e51577c995252cf3fc","bdp_cybrbll","Sat Mar 25 2023 19:05:22 GMT-0400 (Eastern Daylight Time)","424656","1","3","","","","observe","","","null","","img/1to3/1.png","null","145","888","0.5","0.1","1","3","",""
"animation","166","167287","0.0-5.0-2.80","631699e51577c995252cf3fc","bdp_cybrbll","Sat Mar 25 2023 19:05:22 GMT-0400 (Eastern Daylight Time)","424656","1","3","","","","","","","","","","","145","","","","1","3","[{""stimulus"":""img/1to3/1.png"",""time"":108},{""stimulus"":""img/1to3/2.png"",""time"":201},{""stimulus"":""img/1to3/3.png"",""time"":311},{""stimulus"":""img/1to3/4.png"",""time"":407},{""stimulus"":""img/1to3/5.png"",""time"":501},{""stimulus"":""img/1to3/6.png"",""time"":608},{""stimulus"":""img/1to3/7.png"",""time"":700},{""stimulus"":""img/1to3/8.png"",""time"":793},{""stimulus"":""img/1to3/9.png"",""time"":901},{""stimulus"":""img/1to3/10.png"",""time"":994},{""stimulus"":""img/1to3/11.png"",""time"":1104},{""stimulus"":""img/1to3/12.png"",""time"":1190}]","[]"
"image-keyboard-response","167","167939","0.0-5.0-1.81","631699e51577c995252cf3fc","bdp_cybrbll","Sat Mar 25 2023 19:05:22 GMT-0400 (Eastern Daylight Time)","424656","1","3","","","","observe","","","null","","img/3to2/1.png","null","144","641","0.5","0.1","3","1","",""
"animation","168","169227","0.0-5.0-2.81","631699e51577c995252cf3fc","bdp_cybrbll","Sat Mar 25 2023 19:05:22 GMT-0400 (Eastern Daylight Time)","424656","1","3","","","","","","","","","","","144","","","","3","1","[{""stimulus"":""img/3to1/1.png"",""time"":108},{""stimulus"":""img/3to1/2.png"",""time"":202},{""stimulus"":""img/3to1/3.png"",""time"":311},{""stimulus"":""img/3to1/4.png"",""time"":406},{""stimulus"":""img/3to1/5.png"",""time"":498},{""stimulus"":""img/3to1/6.png"",""time"":607},{""stimulus"":""img/3to1/7.png"",""time"":700},{""stimulus"":""img/3to1/8.png"",""time"":794},{""stimulus"":""img/3to1/9.png"",""time"":903},{""stimulus"":""img/3to1/10.png"",""time"":991},{""stimulus"":""img/3to1/11.png"",""time"":1090},{""stimulus"":""img/3to1/12.png"",""time"":1198}]","[]"
"image-keyboard-response","169","169870","0.0-5.0-1.82","631699e51577c995252cf3fc","bdp_cybrbll","Sat Mar 25 2023 19:05:22 GMT-0400 (Eastern Daylight Time)","424656","1","3","","","","observe","","","null","","img/1to3/1.png","null","143","630","0.5","0.1","1","2","",""
"animation","170","171162","0.0-5.0-2.82","631699e51577c995252cf3fc","bdp_cybrbll","Sat Mar 25 2023 19:05:22 GMT-0400 (Eastern Daylight Time)","424656","1","3","","","","","","","","","","","143","","","","1","2","[{""stimulus"":""img/1to2/1.png"",""time"":108},{""stimulus"":""img/1to2/2.png"",""time"":201},{""stimulus"":""img/1to2/3.png"",""time"":312},{""stimulus"":""img/1to2/4.png"",""time"":405},{""stimulus"":""img/1to2/5.png"",""time"":499},{""stimulus"":""img/1to2/6.png"",""time"":607},{""stimulus"":""img/1to2/7.png"",""time"":701},{""stimulus"":""img/1to2/8.png"",""time"":795},{""stimulus"":""img/1to2/9.png"",""time"":901},{""stimulus"":""img/1to2/10.png"",""time"":996},{""stimulus"":""img/1to2/11.png"",""time"":1091},{""stimulus"":""img/1to2/12.png"",""time"":1199}]","[]"
"image-keyboard-response","171","172653","0.0-5.0-1.83","631699e51577c995252cf3fc","bdp_cybrbll","Sat Mar 25 2023 19:05:22 GMT-0400 (Eastern Daylight Time)","424656","1","3","","","","choice","","","1490","","img/2to1/1.png","1","142","871","0.5","0.1","2","1","",""
"animation","172","173946","0.0-5.0-2.83","631699e51577c995252cf3fc","bdp_cybrbll","Sat Mar 25 2023 19:05:22 GMT-0400 (Eastern Daylight Time)","424656","1","3","","","","","","","","","","","142","","","","2","1","[{""stimulus"":""img/2to1/1.png"",""time"":111},{""stimulus"":""img/2to1/2.png"",""time"":200},{""stimulus"":""img/2to1/3.png"",""time"":313},{""stimulus"":""img/2to1/4.png"",""time"":406},{""stimulus"":""img/2to1/5.png"",""time"":500},{""stimulus"":""img/2to1/6.png"",""time"":609},{""stimulus"":""img/2to1/7.png"",""time"":702},{""stimulus"":""img/2to1/8.png"",""time"":796},{""stimulus"":""img/2to1/9.png"",""time"":905},{""stimulus"":""img/2to1/10.png"",""time"":998},{""stimulus"":""img/2to1/11.png"",""time"":1091},{""stimulus"":""img/2to1/12.png"",""time"":1201}]","[]"
"image-keyboard-response","173","174907","0.0-5.0-1.84","631699e51577c995252cf3fc","bdp_cybrbll","Sat Mar 25 2023 19:05:22 GMT-0400 (Eastern Daylight Time)","424656","1","3","","","","observe","","","null","","img/1to3/1.png","null","141","957","0.5","0.1","1","3","",""
"animation","174","176198","0.0-5.0-2.84","631699e51577c995252cf3fc","bdp_cybrbll","Sat Mar 25 2023 19:05:22 GMT-0400 (Eastern Daylight Time)","424656","1","3","","","","","","","","","","","141","","","","1","3","[{""stimulus"":""img/1to3/1.png"",""time"":109},{""stimulus"":""img/1to3/2.png"",""time"":202},{""stimulus"":""img/1to3/3.png"",""time"":311},{""stimulus"":""img/1to3/4.png"",""time"":405},{""stimulus"":""img/1to3/5.png"",""time"":498},{""stimulus"":""img/1to3/6.png"",""time"":607},{""stimulus"":""img/1to3/7.png"",""time"":701},{""stimulus"":""img/1to3/8.png"",""time"":794},{""stimulus"":""img/1to3/9.png"",""time"":904},{""stimulus"":""img/1to3/10.png"",""time"":997},{""stimulus"":""img/1to3/11.png"",""time"":1105},{""stimulus"":""img/1to3/12.png"",""time"":1198}]","[]"
"image-keyboard-response","175","176661","0.0-5.0-1.85","631699e51577c995252cf3fc","bdp_cybrbll","Sat Mar 25 2023 19:05:22 GMT-0400 (Eastern Daylight Time)","424656","1","3","","","","observe","","","null","","img/3to2/1.png","null","140","453","0.5","0.1","3","1","",""
"animation","176","177949","0.0-5.0-2.85","631699e51577c995252cf3fc","bdp_cybrbll","Sat Mar 25 2023 19:05:22 GMT-0400 (Eastern Daylight Time)","424656","1","3","","","","","","","","","","","140","","","","3","1","[{""stimulus"":""img/3to1/1.png"",""time"":108},{""stimulus"":""img/3to1/2.png"",""time"":202},{""stimulus"":""img/3to1/3.png"",""time"":310},{""stimulus"":""img/3to1/4.png"",""time"":403},{""stimulus"":""img/3to1/5.png"",""time"":497},{""stimulus"":""img/3to1/6.png"",""time"":606},{""stimulus"":""img/3to1/7.png"",""time"":699},{""stimulus"":""img/3to1/8.png"",""time"":807},{""stimulus"":""img/3to1/9.png"",""time"":900},{""stimulus"":""img/3to1/10.png"",""time"":993},{""stimulus"":""img/3to1/11.png"",""time"":1103},{""stimulus"":""img/3to1/12.png"",""time"":1194}]","[]"
"image-keyboard-response","177","178339","0.0-5.0-1.86","631699e51577c995252cf3fc","bdp_cybrbll","Sat Mar 25 2023 19:05:22 GMT-0400 (Eastern Daylight Time)","424656","1","3","","","","observe","","","null","","img/1to3/1.png","null","139","376","0.5","0.1","1","2","",""
"animation","178","179632","0.0-5.0-2.86","631699e51577c995252cf3fc","bdp_cybrbll","Sat Mar 25 2023 19:05:22 GMT-0400 (Eastern Daylight Time)","424656","1","3","","","","","","","","","","","139","","","","1","2","[{""stimulus"":""img/1to2/1.png"",""time"":108},{""stimulus"":""img/1to2/2.png"",""time"":198},{""stimulus"":""img/1to2/3.png"",""time"":310},{""stimulus"":""img/1to2/4.png"",""time"":397},{""stimulus"":""img/1to2/5.png"",""time"":496},{""stimulus"":""img/1to2/6.png"",""time"":605},{""stimulus"":""img/1to2/7.png"",""time"":693},{""stimulus"":""img/1to2/8.png"",""time"":807},{""stimulus"":""img/1to2/9.png"",""time"":902},{""stimulus"":""img/1to2/10.png"",""time"":995},{""stimulus"":""img/1to2/11.png"",""time"":1105},{""stimulus"":""img/1to2/12.png"",""time"":1198}]","[]"
"image-keyboard-response","179","179782","0.0-5.0-1.87","631699e51577c995252cf3fc","bdp_cybrbll","Sat Mar 25 2023 19:05:22 GMT-0400 (Eastern Daylight Time)","424656","1","3","","","","choice","","","148","","img/2to1/1.png","2","138","244","0.5","0.1","2","3","",""
"animation","180","181070","0.0-5.0-2.87","631699e51577c995252cf3fc","bdp_cybrbll","Sat Mar 25 2023 19:05:22 GMT-0400 (Eastern Daylight Time)","424656","1","3","","","","","","","","","","","138","","","","2","3","[{""stimulus"":""img/2to3/1.png"",""time"":113},{""stimulus"":""img/2to3/2.png"",""time"":200},{""stimulus"":""img/2to3/3.png"",""time"":298},{""stimulus"":""img/2to3/4.png"",""time"":408},{""stimulus"":""img/2to3/5.png"",""time"":502},{""stimulus"":""img/2to3/6.png"",""time"":596},{""stimulus"":""img/2to3/7.png"",""time"":705},{""stimulus"":""img/2to3/8.png"",""time"":793},{""stimulus"":""img/2to3/9.png"",""time"":892},{""stimulus"":""img/2to3/10.png"",""time"":1001},{""stimulus"":""img/2to3/11.png"",""time"":1095},{""stimulus"":""img/2to3/12.png"",""time"":1189}]","[]"
"image-keyboard-response","181","181515","0.0-5.0-1.88","631699e51577c995252cf3fc","bdp_cybrbll","Sat Mar 25 2023 19:05:22 GMT-0400 (Eastern Daylight Time)","424656","1","3","","","","observe","","","null","","img/3to2/1.png","null","137","440","0.5","0.1","3","1","",""
"animation","182","182805","0.0-5.0-2.88","631699e51577c995252cf3fc","bdp_cybrbll","Sat Mar 25 2023 19:05:22 GMT-0400 (Eastern Daylight Time)","424656","1","3","","","","","","","","","","","137","","","","3","1","[{""stimulus"":""img/3to1/1.png"",""time"":109},{""stimulus"":""img/3to1/2.png"",""time"":204},{""stimulus"":""img/3to1/3.png"",""time"":312},{""stimulus"":""img/3to1/4.png"",""time"":405},{""stimulus"":""img/3to1/5.png"",""time"":498},{""stimulus"":""img/3to1/6.png"",""time"":608},{""stimulus"":""img/3to1/7.png"",""time"":702},{""stimulus"":""img/3to1/8.png"",""time"":794},{""stimulus"":""img/3to1/9.png"",""time"":893},{""stimulus"":""img/3to1/10.png"",""time"":992},{""stimulus"":""img/3to1/11.png"",""time"":1091},{""stimulus"":""img/3to1/12.png"",""time"":1197}]","[]"
"image-keyboard-response","183","183304","0.0-5.0-1.89","631699e51577c995252cf3fc","bdp_cybrbll","Sat Mar 25 2023 19:05:22 GMT-0400 (Eastern Daylight Time)","424656","1","3","","","","observe","","","null","","img/1to3/1.png","null","136","489","0.5","0.1","1","2","",""
"animation","184","184596","0.0-5.0-2.89","631699e51577c995252cf3fc","bdp_cybrbll","Sat Mar 25 2023 19:05:22 GMT-0400 (Eastern Daylight Time)","424656","1","3","","","","","","","","","","","136","","","","1","2","[{""stimulus"":""img/1to2/1.png"",""time"":121},{""stimulus"":""img/1to2/2.png"",""time"":205},{""stimulus"":""img/1to2/3.png"",""time"":314},{""stimulus"":""img/1to2/4.png"",""time"":397},{""stimulus"":""img/1to2/5.png"",""time"":500},{""stimulus"":""img/1to2/6.png"",""time"":595},{""stimulus"":""img/1to2/7.png"",""time"":702},{""stimulus"":""img/1to2/8.png"",""time"":793},{""stimulus"":""img/1to2/9.png"",""time"":905},{""stimulus"":""img/1to2/10.png"",""time"":991},{""stimulus"":""img/1to2/11.png"",""time"":1091},{""stimulus"":""img/1to2/12.png"",""time"":1200}]","[]"
"image-keyboard-response","185","184653","0.0-5.0-1.90","631699e51577c995252cf3fc","bdp_cybrbll","Sat Mar 25 2023 19:05:22 GMT-0400 (Eastern Daylight Time)","424656","1","3","","","","choice","","","57","","img/2to1/1.png","1","135","1474","0.5","0.1","2","1","",""
"animation","186","185942","0.0-5.0-2.90","631699e51577c995252cf3fc","bdp_cybrbll","Sat Mar 25 2023 19:05:22 GMT-0400 (Eastern Daylight Time)","424656","1","3","","","","","","","","","","","135","","","","2","1","[{""stimulus"":""img/2to1/1.png"",""time"":114},{""stimulus"":""img/2to1/2.png"",""time"":207},{""stimulus"":""img/2to1/3.png"",""time"":299},{""stimulus"":""img/2to1/4.png"",""time"":409},{""stimulus"":""img/2to1/5.png"",""time"":502},{""stimulus"":""img/2to1/6.png"",""time"":610},{""stimulus"":""img/2to1/7.png"",""time"":704},{""stimulus"":""img/2to1/8.png"",""time"":793},{""stimulus"":""img/2to1/9.png"",""time"":893},{""stimulus"":""img/2to1/10.png"",""time"":992},{""stimulus"":""img/2to1/11.png"",""time"":1091},{""stimulus"":""img/2to1/12.png"",""time"":1199}]","[]"
"image-keyboard-response","187","186694","0.0-5.0-1.91","631699e51577c995252cf3fc","bdp_cybrbll","Sat Mar 25 2023 19:05:22 GMT-0400 (Eastern Daylight Time)","424656","1","3","","","","observe","","","null","","img/1to3/1.png","null","134","736","0.5","0.1","1","3","",""
"animation","188","187982","0.0-5.0-2.91","631699e51577c995252cf3fc","bdp_cybrbll","Sat Mar 25 2023 19:05:22 GMT-0400 (Eastern Daylight Time)","424656","1","3","","","","","","","","","","","134","","","","1","3","[{""stimulus"":""img/1to3/1.png"",""time"":109},{""stimulus"":""img/1to3/2.png"",""time"":198},{""stimulus"":""img/1to3/3.png"",""time"":297},{""stimulus"":""img/1to3/4.png"",""time"":404},{""stimulus"":""img/1to3/5.png"",""time"":498},{""stimulus"":""img/1to3/6.png"",""time"":608},{""stimulus"":""img/1to3/7.png"",""time"":700},{""stimulus"":""img/1to3/8.png"",""time"":796},{""stimulus"":""img/1to3/9.png"",""time"":906},{""stimulus"":""img/1to3/10.png"",""time"":992},{""stimulus"":""img/1to3/11.png"",""time"":1091},{""stimulus"":""img/1to3/12.png"",""time"":1200}]","[]"
"image-keyboard-response","189","188515","0.0-5.0-1.92","631699e51577c995252cf3fc","bdp_cybrbll","Sat Mar 25 2023 19:05:22 GMT-0400 (Eastern Daylight Time)","424656","1","3","","","","observe","","","null","","img/3to2/1.png","null","133","520","0.5","0.1","3","1","",""
