"event","trial","time","trialtype","subject_id","task","startTime","totalTime","fairPartner","unfairPartner","trial_type","trial_index","time_elapsed","internal_node_id","view_history","rt","success","stimulus","key_press","throwsLeft","rtDur","pFair","pUnfair","holder","receiver","animation_sequence","responses"
"focus","0","0","focusevent","62715bfe8dcc19e21152dce0","bdp_cybrbll","Mon Mar 27 2023 23:41:18 GMT-0500 (Central Daylight Time)","537908","1","3","","","","","","","","","","","","","","","","",""
"","","","","62715bfe8dcc19e21152dce0","bdp_cybrbll","Mon Mar 27 2023 23:41:18 GMT-0500 (Central Daylight Time)","537908","1","3","pavlovia","0","3","0.0-0.0","","","","","","","","","","","","",""
"","","","","62715bfe8dcc19e21152dce0","bdp_cybrbll","Mon Mar 27 2023 23:41:18 GMT-0500 (Central Daylight Time)","537908","1","3","instructions","1","14444","0.0-1.0","[{""page_index"":0,""viewing_time"":14440}]","14441","","","","","","","","","","",""
"fullscreenenter","2","17299","fullscreenenter","62715bfe8dcc19e21152dce0","bdp_cybrbll","Mon Mar 27 2023 23:41:18 GMT-0500 (Central Daylight Time)","537908","1","3","","","","","","","","","","","","","","","","",""
"","","","","62715bfe8dcc19e21152dce0","bdp_cybrbll","Mon Mar 27 2023 23:41:18 GMT-0500 (Central Daylight Time)","537908","1","3","fullscreen","2","18285","0.0-2.0","","","true","","","","","","","","","",""
"","","","","62715bfe8dcc19e21152dce0","bdp_cybrbll","Mon Mar 27 2023 23:41:18 GMT-0500 (Central Daylight Time)","537908","1","3","instructions","3","92035","0.0-4.0","[{""page_index"":0,""viewing_time"":73749}]","73749","","","","","","","","","","",""
"","","","choice","62715bfe8dcc19e21152dce0","bdp_cybrbll","Mon Mar 27 2023 23:41:18 GMT-0500 (Central Daylight Time)","537908","1","3","image-keyboard-response","4","131561","0.0-5.0-1.0","","39522","","img/2to1/1.png","2","225","250","0.5","0.5","2","3","",""
"","","","","62715bfe8dcc19e21152dce0","bdp_cybrbll","Mon Mar 27 2023 23:41:18 GMT-0500 (Central Daylight Time)","537908","1","3","animation","5","132864","0.0-5.0-2.0","","","","","","225","","","","2","3","[{""stimulus"":""img/2to3/1.png"",""time"":108},{""stimulus"":""img/2to3/2.png"",""time"":200},{""stimulus"":""img/2to3/3.png"",""time"":309},{""stimulus"":""img/2to3/4.png"",""time"":402},{""stimulus"":""img/2to3/5.png"",""time"":510},{""stimulus"":""img/2to3/6.png"",""time"":603},{""stimulus"":""img/2to3/7.png"",""time"":697},{""stimulus"":""img/2to3/8.png"",""time"":804},{""stimulus"":""img/2to3/9.png"",""time"":892},{""stimulus"":""img/2to3/10.png"",""time"":992},{""stimulus"":""img/2to3/11.png"",""time"":1100},{""stimulus"":""img/2to3/12.png"",""time"":1194}]","[]"
"","","","observe","62715bfe8dcc19e21152dce0","bdp_cybrbll","Mon Mar 27 2023 23:41:18 GMT-0500 (Central Daylight Time)","537908","1","3","image-keyboard-response","6","133390","0.0-5.0-1.1","","null","","img/3to2/1.png","null","224","520","0.5","0.5","3","2","",""
"","","","","62715bfe8dcc19e21152dce0","bdp_cybrbll","Mon Mar 27 2023 23:41:18 GMT-0500 (Central Daylight Time)","537908","1","3","animation","7","134681","0.0-5.0-2.1","","","","","","224","","","","3","2","[{""stimulus"":""img/3to2/1.png"",""time"":109},{""stimulus"":""img/3to2/2.png"",""time"":202},{""stimulus"":""img/3to2/3.png"",""time"":311},{""stimulus"":""img/3to2/4.png"",""time"":404},{""stimulus"":""img/3to2/5.png"",""time"":498},{""stimulus"":""img/3to2/6.png"",""time"":607},{""stimulus"":""img/3to2/7.png"",""time"":700},{""stimulus"":""img/3to2/8.png"",""time"":793},{""stimulus"":""img/3to2/9.png"",""time"":891},{""stimulus"":""img/3to2/10.png"",""time"":996},{""stimulus"":""img/3to2/11.png"",""time"":1105},{""stimulus"":""img/3to2/12.png"",""time"":1198}]","[]"
"","","","choice","62715bfe8dcc19e21152dce0","bdp_cybrbll","Mon Mar 27 2023 23:41:18 GMT-0500 (Central Daylight Time)","537908","1","3","image-keyboard-response","8","135133","0.0-5.0-1.2","","450","","img/2to1/1.png","1","223","1010","0.5","0.5","2","1","",""
"","","","","62715bfe8dcc19e21152dce0","bdp_cybrbll","Mon Mar 27 2023 23:41:18 GMT-0500 (Central Daylight Time)","537908","1","3","animation","9","136420","0.0-5.0-2.2","","","","","","223","","","","2","1","[{""stimulus"":""img/2to1/1.png"",""time"":109},{""stimulus"":""img/2to1/2.png"",""time"":202},{""stimulus"":""img/2to1/3.png"",""time"":310},{""stimulus"":""img/2to1/4.png"",""time"":405},{""stimulus"":""img/2to1/5.png"",""time"":499},{""stimulus"":""img/2to1/6.png"",""time"":607},{""stimulus"":""img/2to1/7.png"",""time"":699},{""stimulus"":""img/2to1/8.png"",""time"":808},{""stimulus"":""img/2to1/9.png"",""time"":901},{""stimulus"":""img/2to1/10.png"",""time"":993},{""stimulus"":""img/2to1/11.png"",""time"":1102},{""stimulus"":""img/2to1/12.png"",""time"":1196}]","[]"
"","","","observe","62715bfe8dcc19e21152dce0","bdp_cybrbll","Mon Mar 27 2023 23:41:18 GMT-0500 (Central Daylight Time)","537908","1","3","image-keyboard-response","10","136937","0.0-5.0-1.3","","null","","img/1to3/1.png","null","222","514","0.5","0.5","1","2","",""
"","","","","62715bfe8dcc19e21152dce0","bdp_cybrbll","Mon Mar 27 2023 23:41:18 GMT-0500 (Central Daylight Time)","537908","1","3","animation","11","138229","0.0-5.0-2.3","","","","","","222","","","","1","2","[{""stimulus"":""img/1to2/1.png"",""time"":109},{""stimulus"":""img/1to2/2.png"",""time"":199},{""stimulus"":""img/1to2/3.png"",""time"":310},{""stimulus"":""img/1to2/4.png"",""time"":405},{""stimulus"":""img/1to2/5.png"",""time"":499},{""stimulus"":""img/1to2/6.png"",""time"":609},{""stimulus"":""img/1to2/7.png"",""time"":703},{""stimulus"":""img/1to2/8.png"",""time"":796},{""stimulus"":""img/1to2/9.png"",""time"":904},{""stimulus"":""img/1to2/10.png"",""time"":997},{""stimulus"":""img/1to2/11.png"",""time"":1105},{""stimulus"":""img/1to2/12.png"",""time"":1199}]","[]"
"","","","choice","62715bfe8dcc19e21152dce0","bdp_cybrbll","Mon Mar 27 2023 23:41:18 GMT-0500 (Central Daylight Time)","537908","1","3","image-keyboard-response","12","138282","0.0-5.0-1.4","","52","","img/2to1/1.png","2","221","311","0.5","0.5","2","3","",""
"","","","","62715bfe8dcc19e21152dce0","bdp_cybrbll","Mon Mar 27 2023 23:41:18 GMT-0500 (Central Daylight Time)","537908","1","3","animation","13","139581","0.0-5.0-2.4","","","","","","221","","","","2","3","[{""stimulus"":""img/2to3/1.png"",""time"":103},{""stimulus"":""img/2to3/2.png"",""time"":199},{""stimulus"":""img/2to3/3.png"",""time"":305},{""stimulus"":""img/2to3/4.png"",""time"":397},{""stimulus"":""img/2to3/5.png"",""time"":506},{""stimulus"":""img/2to3/6.png"",""time"":600},{""stimulus"":""img/2to3/7.png"",""time"":709},{""stimulus"":""img/2to3/8.png"",""time"":793},{""stimulus"":""img/2to3/9.png"",""time"":892},{""stimulus"":""img/2to3/10.png"",""time"":1005},{""stimulus"":""img/2to3/11.png"",""time"":1098},{""stimulus"":""img/2to3/12.png"",""time"":1191}]","[]"
"","","","observe","62715bfe8dcc19e21152dce0","bdp_cybrbll","Mon Mar 27 2023 23:41:18 GMT-0500 (Central Daylight Time)","537908","1","3","image-keyboard-response","14","140107","0.0-5.0-1.5","","null","","img/3to2/1.png","null","220","521","0.5","0.5","3","2","",""
"","","","","62715bfe8dcc19e21152dce0","bdp_cybrbll","Mon Mar 27 2023 23:41:18 GMT-0500 (Central Daylight Time)","537908","1","3","animation","15","141396","0.0-5.0-2.5","","","","","","220","","","","3","2","[{""stimulus"":""img/3to2/1.png"",""time"":108},{""stimulus"":""img/3to2/2.png"",""time"":201},{""stimulus"":""img/3to2/3.png"",""time"":309},{""stimulus"":""img/3to2/4.png"",""time"":403},{""stimulus"":""img/3to2/5.png"",""time"":496},{""stimulus"":""img/3to2/6.png"",""time"":595},{""stimulus"":""img/3to2/7.png"",""time"":699},{""stimulus"":""img/3to2/8.png"",""time"":807},{""stimulus"":""img/3to2/9.png"",""time"":900},{""stimulus"":""img/3to2/10.png"",""time"":993},{""stimulus"":""img/3to2/11.png"",""time"":1100},{""stimulus"":""img/3to2/12.png"",""time"":1194}]","[]"
"","","","choice","62715bfe8dcc19e21152dce0","bdp_cybrbll","Mon Mar 27 2023 23:41:18 GMT-0500 (Central Daylight Time)","537908","1","3","image-keyboard-response","16","141445","0.0-5.0-1.6","","47","","img/2to1/1.png","2","219","331","0.5","0.5","2","3","",""
"","","","","62715bfe8dcc19e21152dce0","bdp_cybrbll","Mon Mar 27 2023 23:41:18 GMT-0500 (Central Daylight Time)","537908","1","3","animation","17","142746","0.0-5.0-2.6","","","","","","219","","","","2","3","[{""stimulus"":""img/2to3/1.png"",""time"":106},{""stimulus"":""img/2to3/2.png"",""time"":214},{""stimulus"":""img/2to3/3.png"",""time"":307},{""stimulus"":""img/2to3/4.png"",""time"":402},{""stimulus"":""img/2to3/5.png"",""time"":510},{""stimulus"":""img/2to3/6.png"",""time"":604},{""stimulus"":""img/2to3/7.png"",""time"":697},{""stimulus"":""img/2to3/8.png"",""time"":793},{""stimulus"":""img/2to3/9.png"",""time"":898},{""stimulus"":""img/2to3/10.png"",""time"":991},{""stimulus"":""img/2to3/11.png"",""time"":1101},{""stimulus"":""img/2to3/12.png"",""time"":1194}]","[]"
"","","","observe","62715bfe8dcc19e21152dce0","bdp_cybrbll","Mon Mar 27 2023 23:41:18 GMT-0500 (Central Daylight Time)","537908","1","3","image-keyboard-response","18","143219","0.0-5.0-1.7","","null","","img/3to2/1.png","null","218","471","0.5","0.5","3","1","",""
"","","","","62715bfe8dcc19e21152dce0","bdp_cybrbll","Mon Mar 27 2023 23:41:18 GMT-0500 (Central Daylight Time)","537908","1","3","animation","19","144520","0.0-5.0-2.7","","","","","","218","","","","3","1","[{""stimulus"":""img/3to1/1.png"",""time"":104},{""stimulus"":""img/3to1/2.png"",""time"":213},{""stimulus"":""img/3to1/3.png"",""time"":306},{""stimulus"":""img/3to1/4.png"",""time"":399},{""stimulus"":""img/3to1/5.png"",""time"":508},{""stimulus"":""img/3to1/6.png"",""time"":602},{""stimulus"":""img/3to1/7.png"",""time"":695},{""stimulus"":""img/3to1/8.png"",""time"":804},{""stimulus"":""img/3to1/9.png"",""time"":892},{""stimulus"":""img/3to1/10.png"",""time"":1005},{""stimulus"":""img/3to1/11.png"",""time"":1098},{""stimulus"":""img/3to1/12.png"",""time"":1188}]","[]"
"","","","observe","62715bfe8dcc19e21152dce0","bdp_cybrbll","Mon Mar 27 2023 23:41:18 GMT-0500 (Central Daylight Time)","537908","1","3","image-keyboard-response","20","144783","0.0-5.0-1.8","","null","","img/1to3/1.png","null","217","258","0.5","0.5","1","3","",""
"","","","","62715bfe8dcc19e21152dce0","bdp_cybrbll","Mon Mar 27 2023 23:41:18 GMT-0500 (Central Daylight Time)","537908","1","3","animation","21","146073","0.0-5.0-2.8","","","","","","217","","","","1","3","[{""stimulus"":""img/1to3/1.png"",""time"":108},{""stimulus"":""img/1to3/2.png"",""time"":200},{""stimulus"":""img/1to3/3.png"",""time"":310},{""stimulus"":""img/1to3/4.png"",""time"":402},{""stimulus"":""img/1to3/5.png"",""time"":496},{""stimulus"":""img/1to3/6.png"",""time"":595},{""stimulus"":""img/1to3/7.png"",""time"":699},{""stimulus"":""img/1to3/8.png"",""time"":807},{""stimulus"":""img/1to3/9.png"",""time"":902},{""stimulus"":""img/1to3/10.png"",""time"":994},{""stimulus"":""img/1to3/11.png"",""time"":1102},{""stimulus"":""img/1to3/12.png"",""time"":1197}]","[]"
"","","","observe","62715bfe8dcc19e21152dce0","bdp_cybrbll","Mon Mar 27 2023 23:41:18 GMT-0500 (Central Daylight Time)","537908","1","3","image-keyboard-response","22","146556","0.0-5.0-1.9","","null","","img/3to2/1.png","null","216","471","0.5","0.5","3","1","",""
"","","","","62715bfe8dcc19e21152dce0","bdp_cybrbll","Mon Mar 27 2023 23:41:18 GMT-0500 (Central Daylight Time)","537908","1","3","animation","23","147848","0.0-5.0-2.9","","","","","","216","","","","3","1","[{""stimulus"":""img/3to1/1.png"",""time"":108},{""stimulus"":""img/3to1/2.png"",""time"":203},{""stimulus"":""img/3to1/3.png"",""time"":310},{""stimulus"":""img/3to1/4.png"",""time"":397},{""stimulus"":""img/3to1/5.png"",""time"":497},{""stimulus"":""img/3to1/6.png"",""time"":606},{""stimulus"":""img/3to1/7.png"",""time"":699},{""stimulus"":""img/3to1/8.png"",""time"":793},{""stimulus"":""img/3to1/9.png"",""time"":902},{""stimulus"":""img/3to1/10.png"",""time"":995},{""stimulus"":""img/3to1/11.png"",""time"":1104},{""stimulus"":""img/3to1/12.png"",""time"":1189}]","[]"
"","","","observe","62715bfe8dcc19e21152dce0","bdp_cybrbll","Mon Mar 27 2023 23:41:18 GMT-0500 (Central Daylight Time)","537908","1","3","image-keyboard-response","24","148111","0.0-5.0-1.10","","null","","img/1to3/1.png","null","215","247","0.5","0.5","1","3","",""
"","","","","62715bfe8dcc19e21152dce0","bdp_cybrbll","Mon Mar 27 2023 23:41:18 GMT-0500 (Central Daylight Time)","537908","1","3","animation","25","149401","0.0-5.0-2.10","","","","","","215","","","","1","3","[{""stimulus"":""img/1to3/1.png"",""time"":110},{""stimulus"":""img/1to3/2.png"",""time"":201},{""stimulus"":""img/1to3/3.png"",""time"":310},{""stimulus"":""img/1to3/4.png"",""time"":404},{""stimulus"":""img/1to3/5.png"",""time"":498},{""stimulus"":""img/1to3/6.png"",""time"":607},{""stimulus"":""img/1to3/7.png"",""time"":702},{""stimulus"":""img/1to3/8.png"",""time"":794},{""stimulus"":""img/1to3/9.png"",""time"":902},{""stimulus"":""img/1to3/10.png"",""time"":996},{""stimulus"":""img/1to3/11.png"",""time"":1091},{""stimulus"":""img/1to3/12.png"",""time"":1189}]","[]"
"","","","observe","62715bfe8dcc19e21152dce0","bdp_cybrbll","Mon Mar 27 2023 23:41:18 GMT-0500 (Central Daylight Time)","537908","1","3","image-keyboard-response","26","150054","0.0-5.0-1.11","","null","","img/3to2/1.png","null","214","644","0.5","0.5","3","2","",""
"","","","","62715bfe8dcc19e21152dce0","bdp_cybrbll","Mon Mar 27 2023 23:41:18 GMT-0500 (Central Daylight Time)","537908","1","3","animation","27","151344","0.0-5.0-2.11","","","","","","214","","","","3","2","[{""stimulus"":""img/3to2/1.png"",""time"":109},{""stimulus"":""img/3to2/2.png"",""time"":202},{""stimulus"":""img/3to2/3.png"",""time"":311},{""stimulus"":""img/3to2/4.png"",""time"":405},{""stimulus"":""img/3to2/5.png"",""time"":498},{""stimulus"":""img/3to2/6.png"",""time"":607},{""stimulus"":""img/3to2/7.png"",""time"":694},{""stimulus"":""img/3to2/8.png"",""time"":794},{""stimulus"":""img/3to2/9.png"",""time"":902},{""stimulus"":""img/3to2/10.png"",""time"":995},{""stimulus"":""img/3to2/11.png"",""time"":1090},{""stimulus"":""img/3to2/12.png"",""time"":1190}]","[]"
"","","","choice","62715bfe8dcc19e21152dce0","bdp_cybrbll","Mon Mar 27 2023 23:41:18 GMT-0500 (Central Daylight Time)","537908","1","3","image-keyboard-response","28","151930","0.0-5.0-1.12","","586","","img/2to1/1.png","1","213","450","0.5","0.5","2","1","",""
"","","","","62715bfe8dcc19e21152dce0","bdp_cybrbll","Mon Mar 27 2023 23:41:18 GMT-0500 (Central Daylight Time)","537908","1","3","animation","29","153227","0.0-5.0-2.12","","","","","","213","","","","2","1","[{""stimulus"":""img/2to1/1.png"",""time"":113},{""stimulus"":""img/2to1/2.png"",""time"":207},{""stimulus"":""img/2to1/3.png"",""time"":299},{""stimulus"":""img/2to1/4.png"",""time"":408},{""stimulus"":""img/2to1/5.png"",""time"":501},{""stimulus"":""img/2to1/6.png"",""time"":610},{""stimulus"":""img/2to1/7.png"",""time"":705},{""stimulus"":""img/2to1/8.png"",""time"":800},{""stimulus"":""img/2to1/9.png"",""time"":894},{""stimulus"":""img/2to1/10.png"",""time"":1003},{""stimulus"":""img/2to1/11.png"",""time"":1097},{""stimulus"":""img/2to1/12.png"",""time"":1189}]","[]"
"","","","observe","62715bfe8dcc19e21152dce0","bdp_cybrbll","Mon Mar 27 2023 23:41:18 GMT-0500 (Central Daylight Time)","537908","1","3","image-keyboard-response","30","153475","0.0-5.0-1.13","","null","","img/1to3/1.png","null","212","239","0.5","0.5","1","3","",""
"","","","","62715bfe8dcc19e21152dce0","bdp_cybrbll","Mon Mar 27 2023 23:41:18 GMT-0500 (Central Daylight Time)","537908","1","3","animation","31","154765","0.0-5.0-2.13","","","","","","212","","","","1","3","[{""stimulus"":""img/1to3/1.png"",""time"":109},{""stimulus"":""img/1to3/2.png"",""time"":201},{""stimulus"":""img/1to3/3.png"",""time"":298},{""stimulus"":""img/1to3/4.png"",""time"":403},{""stimulus"":""img/1to3/5.png"",""time"":496},{""stimulus"":""img/1to3/6.png"",""time"":605},{""stimulus"":""img/1to3/7.png"",""time"":698},{""stimulus"":""img/1to3/8.png"",""time"":794},{""stimulus"":""img/1to3/9.png"",""time"":902},{""stimulus"":""img/1to3/10.png"",""time"":995},{""stimulus"":""img/1to3/11.png"",""time"":1103},{""stimulus"":""img/1to3/12.png"",""time"":1197}]","[]"
"","","","observe","62715bfe8dcc19e21152dce0","bdp_cybrbll","Mon Mar 27 2023 23:41:18 GMT-0500 (Central Daylight Time)","537908","1","3","image-keyboard-response","32","155295","0.0-5.0-1.14","","null","","img/3to2/1.png","null","211","526","0.5","0.5","3","2","",""
"","","","","62715bfe8dcc19e21152dce0","bdp_cybrbll","Mon Mar 27 2023 23:41:18 GMT-0500 (Central Daylight Time)","537908","1","3","animation","33","156583","0.0-5.0-2.14","","","","","","211","","","","3","2","[{""stimulus"":""img/3to2/1.png"",""time"":109},{""stimulus"":""img/3to2/2.png"",""time"":201},{""stimulus"":""img/3to2/3.png"",""time"":310},{""stimulus"":""img/3to2/4.png"",""time"":403},{""stimulus"":""img/3to2/5.png"",""time"":496},{""stimulus"":""img/3to2/6.png"",""time"":604},{""stimulus"":""img/3to2/7.png"",""time"":693},{""stimulus"":""img/3to2/8.png"",""time"":806},{""stimulus"":""img/3to2/9.png"",""time"":899},{""stimulus"":""img/3to2/10.png"",""time"":992},{""stimulus"":""img/3to2/11.png"",""time"":1101},{""stimulus"":""img/3to2/12.png"",""time"":1188}]","[]"
"","","","choice","62715bfe8dcc19e21152dce0","bdp_cybrbll","Mon Mar 27 2023 23:41:18 GMT-0500 (Central Daylight Time)","537908","1","3","image-keyboard-response","34","157255","0.0-5.0-1.15","","671","","img/2to1/1.png","2","210","282","0.5","0.5","2","3","",""
"","","","","62715bfe8dcc19e21152dce0","bdp_cybrbll","Mon Mar 27 2023 23:41:18 GMT-0500 (Central Daylight Time)","537908","1","3","animation","35","158558","0.0-5.0-2.15","","","","","","210","","","","2","3","[{""stimulus"":""img/2to3/1.png"",""time"":102},{""stimulus"":""img/2to3/2.png"",""time"":205},{""stimulus"":""img/2to3/3.png"",""time"":304},{""stimulus"":""img/2to3/4.png"",""time"":398},{""stimulus"":""img/2to3/5.png"",""time"":496},{""stimulus"":""img/2to3/6.png"",""time"":600},{""stimulus"":""img/2to3/7.png"",""time"":694},{""stimulus"":""img/2to3/8.png"",""time"":803},{""stimulus"":""img/2to3/9.png"",""time"":892},{""stimulus"":""img/2to3/10.png"",""time"":991},{""stimulus"":""img/2to3/11.png"",""time"":1100},{""stimulus"":""img/2to3/12.png"",""time"":1194}]","[]"
"","","","observe","62715bfe8dcc19e21152dce0","bdp_cybrbll","Mon Mar 27 2023 23:41:18 GMT-0500 (Central Daylight Time)","537908","1","3","image-keyboard-response","36","158962","0.0-5.0-1.16","","null","","img/3to2/1.png","null","209","402","0.5","0.5","3","1","",""
"","","","","62715bfe8dcc19e21152dce0","bdp_cybrbll","Mon Mar 27 2023 23:41:18 GMT-0500 (Central Daylight Time)","537908","1","3","animation","37","160253","0.0-5.0-2.16","","","","","","209","","","","3","1","[{""stimulus"":""img/3to1/1.png"",""time"":108},{""stimulus"":""img/3to1/2.png"",""time"":201},{""stimulus"":""img/3to1/3.png"",""time"":312},{""stimulus"":""img/3to1/4.png"",""time"":396},{""stimulus"":""img/3to1/5.png"",""time"":495},{""stimulus"":""img/3to1/6.png"",""time"":607},{""stimulus"":""img/3to1/7.png"",""time"":699},{""stimulus"":""img/3to1/8.png"",""time"":807},{""stimulus"":""img/3to1/9.png"",""time"":901},{""stimulus"":""img/3to1/10.png"",""time"":994},{""stimulus"":""img/3to1/11.png"",""time"":1089},{""stimulus"":""img/3to1/12.png"",""time"":1197}]","[]"
"","","","observe","62715bfe8dcc19e21152dce0","bdp_cybrbll","Mon Mar 27 2023 23:41:18 GMT-0500 (Central Daylight Time)","537908","1","3","image-keyboard-response","38","161105","0.0-5.0-1.17","","null","","img/1to3/1.png","null","208","847","0.5","0.5","1","3","",""
"","","","","62715bfe8dcc19e21152dce0","bdp_cybrbll","Mon Mar 27 2023 23:41:18 GMT-0500 (Central Daylight Time)","537908","1","3","animation","39","162396","0.0-5.0-2.17","","","","","","208","","","","1","3","[{""stimulus"":""img/1to3/1.png"",""time"":108},{""stimulus"":""img/1to3/2.png"",""time"":201},{""stimulus"":""img/1to3/3.png"",""time"":309},{""stimulus"":""img/1to3/4.png"",""time"":403},{""stimulus"":""img/1to3/5.png"",""time"":497},{""stimulus"":""img/1to3/6.png"",""time"":605},{""stimulus"":""img/1to3/7.png"",""time"":698},{""stimulus"":""img/1to3/8.png"",""time"":793},{""stimulus"":""img/1to3/9.png"",""time"":901},{""stimulus"":""img/1to3/10.png"",""time"":994},{""stimulus"":""img/1to3/11.png"",""time"":1102},{""stimulus"":""img/1to3/12.png"",""time"":1188}]","[]"
"","","","observe","62715bfe8dcc19e21152dce0","bdp_cybrbll","Mon Mar 27 2023 23:41:18 GMT-0500 (Central Daylight Time)","537908","1","3","image-keyboard-response","40","163235","0.0-5.0-1.18","","null","","img/3to2/1.png","null","207","835","0.5","0.5","3","2","",""
"","","","","62715bfe8dcc19e21152dce0","bdp_cybrbll","Mon Mar 27 2023 23:41:18 GMT-0500 (Central Daylight Time)","537908","1","3","animation","41","164526","0.0-5.0-2.18","","","","","","207","","","","3","2","[{""stimulus"":""img/3to2/1.png"",""time"":109},{""stimulus"":""img/3to2/2.png"",""time"":202},{""stimulus"":""img/3to2/3.png"",""time"":312},{""stimulus"":""img/3to2/4.png"",""time"":405},{""stimulus"":""img/3to2/5.png"",""time"":496},{""stimulus"":""img/3to2/6.png"",""time"":609},{""stimulus"":""img/3to2/7.png"",""time"":702},{""stimulus"":""img/3to2/8.png"",""time"":795},{""stimulus"":""img/3to2/9.png"",""time"":904},{""stimulus"":""img/3to2/10.png"",""time"":997},{""stimulus"":""img/3to2/11.png"",""time"":1105},{""stimulus"":""img/3to2/12.png"",""time"":1197}]","[]"
"","","","choice","62715bfe8dcc19e21152dce0","bdp_cybrbll","Mon Mar 27 2023 23:41:18 GMT-0500 (Central Daylight Time)","537908","1","3","image-keyboard-response","42","165262","0.0-5.0-1.19","","735","","img/2to1/1.png","1","206","130","0.5","0.5","2","1","",""
"","","","","62715bfe8dcc19e21152dce0","bdp_cybrbll","Mon Mar 27 2023 23:41:18 GMT-0500 (Central Daylight Time)","537908","1","3","animation","43","166550","0.0-5.0-2.19","","","","","","206","","","","2","1","[{""stimulus"":""img/2to1/1.png"",""time"":100},{""stimulus"":""img/2to1/2.png"",""time"":210},{""stimulus"":""img/2to1/3.png"",""time"":303},{""stimulus"":""img/2to1/4.png"",""time"":398},{""stimulus"":""img/2to1/5.png"",""time"":495},{""stimulus"":""img/2to1/6.png"",""time"":601},{""stimulus"":""img/2to1/7.png"",""time"":694},{""stimulus"":""img/2to1/8.png"",""time"":792},{""stimulus"":""img/2to1/9.png"",""time"":897},{""stimulus"":""img/2to1/10.png"",""time"":991},{""stimulus"":""img/2to1/11.png"",""time"":1100},{""stimulus"":""img/2to1/12.png"",""time"":1188}]","[]"
"","","","observe","62715bfe8dcc19e21152dce0","bdp_cybrbll","Mon Mar 27 2023 23:41:18 GMT-0500 (Central Daylight Time)","537908","1","3","image-keyboard-response","44","167386","0.0-5.0-1.20","","null","","img/1to3/1.png","null","205","835","0.5","0.5","1","3","",""
"","","","","62715bfe8dcc19e21152dce0","bdp_cybrbll","Mon Mar 27 2023 23:41:18 GMT-0500 (Central Daylight Time)","537908","1","3","animation","45","168682","0.0-5.0-2.20","","","","","","205","","","","1","3","[{""stimulus"":""img/1to3/1.png"",""time"":109},{""stimulus"":""img/1to3/2.png"",""time"":203},{""stimulus"":""img/1to3/3.png"",""time"":311},{""stimulus"":""img/1to3/4.png"",""time"":396},{""stimulus"":""img/1to3/5.png"",""time"":500},{""stimulus"":""img/1to3/6.png"",""time"":608},{""stimulus"":""img/1to3/7.png"",""time"":701},{""stimulus"":""img/1to3/8.png"",""time"":796},{""stimulus"":""img/1to3/9.png"",""time"":892},{""stimulus"":""img/1to3/10.png"",""time"":999},{""stimulus"":""img/1to3/11.png"",""time"":1094},{""stimulus"":""img/1to3/12.png"",""time"":1202}]","[]"
"","","","observe","62715bfe8dcc19e21152dce0","bdp_cybrbll","Mon Mar 27 2023 23:41:18 GMT-0500 (Central Daylight Time)","537908","1","3","image-keyboard-response","46","169008","0.0-5.0-1.21","","null","","img/3to2/1.png","null","204","319","0.5","0.5","3","1","",""
"","","","","62715bfe8dcc19e21152dce0","bdp_cybrbll","Mon Mar 27 2023 23:41:18 GMT-0500 (Central Daylight Time)","537908","1","3","animation","47","170298","0.0-5.0-2.21","","","","","","204","","","","3","1","[{""stimulus"":""img/3to1/1.png"",""time"":109},{""stimulus"":""img/3to1/2.png"",""time"":204},{""stimulus"":""img/3to1/3.png"",""time"":313},{""stimulus"":""img/3to1/4.png"",""time"":406},{""stimulus"":""img/3to1/5.png"",""time"":496},{""stimulus"":""img/3to1/6.png"",""time"":596},{""stimulus"":""img/3to1/7.png"",""time"":701},{""stimulus"":""img/3to1/8.png"",""time"":795},{""stimulus"":""img/3to1/9.png"",""time"":902},{""stimulus"":""img/3to1/10.png"",""time"":995},{""stimulus"":""img/3to1/11.png"",""time"":1089},{""stimulus"":""img/3to1/12.png"",""time"":1197}]","[]"
"","","","observe","62715bfe8dcc19e21152dce0","bdp_cybrbll","Mon Mar 27 2023 23:41:18 GMT-0500 (Central Daylight Time)","537908","1","3","image-keyboard-response","48","170560","0.0-5.0-1.22","","null","","img/1to3/1.png","null","203","257","0.5","0.5","1","2","",""
"","","","","62715bfe8dcc19e21152dce0","bdp_cybrbll","Mon Mar 27 2023 23:41:18 GMT-0500 (Central Daylight Time)","537908","1","3","animation","49","171852","0.0-5.0-2.22","","","","","","203","","","","1","2","[{""stimulus"":""img/1to2/1.png"",""time"":109},{""stimulus"":""img/1to2/2.png"",""time"":198},{""stimulus"":""img/1to2/3.png"",""time"":297},{""stimulus"":""img/1to2/4.png"",""time"":404},{""stimulus"":""img/1to2/5.png"",""time"":496},{""stimulus"":""img/1to2/6.png"",""time"":607},{""stimulus"":""img/1to2/7.png"",""time"":700},{""stimulus"":""img/1to2/8.png"",""time"":792},{""stimulus"":""img/1to2/9.png"",""time"":891},{""stimulus"":""img/1to2/10.png"",""time"":996},{""stimulus"":""img/1to2/11.png"",""time"":1090},{""stimulus"":""img/1to2/12.png"",""time"":1199}]","[]"
"","","","choice","62715bfe8dcc19e21152dce0","bdp_cybrbll","Mon Mar 27 2023 23:41:18 GMT-0500 (Central Daylight Time)","537908","1","3","image-keyboard-response","50","171970","0.0-5.0-1.23","","117","","img/2to1/1.png","2","202","488","0.5","0.5","2","3","",""
"","","","","62715bfe8dcc19e21152dce0","bdp_cybrbll","Mon Mar 27 2023 23:41:18 GMT-0500 (Central Daylight Time)","537908","1","3","animation","51","173258","0.0-5.0-2.23","","","","","","202","","","","2","3","[{""stimulus"":""img/2to3/1.png"",""time"":101},{""stimulus"":""img/2to3/2.png"",""time"":209},{""stimulus"":""img/2to3/3.png"",""time"":302},{""stimulus"":""img/2to3/4.png"",""time"":411},{""stimulus"":""img/2to3/5.png"",""time"":503},{""stimulus"":""img/2to3/6.png"",""time"":597},{""stimulus"":""img/2to3/7.png"",""time"":694},{""stimulus"":""img/2to3/8.png"",""time"":800},{""stimulus"":""img/2to3/9.png"",""time"":893},{""stimulus"":""img/2to3/10.png"",""time"":1002},{""stimulus"":""img/2to3/11.png"",""time"":1095},{""stimulus"":""img/2to3/12.png"",""time"":1189}]","[]"
"","","","observe","62715bfe8dcc19e21152dce0","bdp_cybrbll","Mon Mar 27 2023 23:41:18 GMT-0500 (Central Daylight Time)","537908","1","3","image-keyboard-response","52","173484","0.0-5.0-1.24","","null","","img/3to2/1.png","null","201","224","0.5","0.5","3","1","",""
"","","","","62715bfe8dcc19e21152dce0","bdp_cybrbll","Mon Mar 27 2023 23:41:18 GMT-0500 (Central Daylight Time)","537908","1","3","animation","53","174775","0.0-5.0-2.24","","","","","","201","","","","3","1","[{""stimulus"":""img/3to1/1.png"",""time"":110},{""stimulus"":""img/3to1/2.png"",""time"":203},{""stimulus"":""img/3to1/3.png"",""time"":298},{""stimulus"":""img/3to1/4.png"",""time"":405},{""stimulus"":""img/3to1/5.png"",""time"":498},{""stimulus"":""img/3to1/6.png"",""time"":608},{""stimulus"":""img/3to1/7.png"",""time"":702},{""stimulus"":""img/3to1/8.png"",""time"":793},{""stimulus"":""img/3to1/9.png"",""time"":892},{""stimulus"":""img/3to1/10.png"",""time"":997},{""stimulus"":""img/3to1/11.png"",""time"":1090},{""stimulus"":""img/3to1/12.png"",""time"":1199}]","[]"
"","","","observe","62715bfe8dcc19e21152dce0","bdp_cybrbll","Mon Mar 27 2023 23:41:18 GMT-0500 (Central Daylight Time)","537908","1","3","image-keyboard-response","54","175909","0.0-5.0-1.25","","null","","img/1to3/1.png","null","200","1131","0.5","0.5","1","2","",""
"","","","","62715bfe8dcc19e21152dce0","bdp_cybrbll","Mon Mar 27 2023 23:41:18 GMT-0500 (Central Daylight Time)","537908","1","3","animation","55","177198","0.0-5.0-2.25","","","","","","200","","","","1","2","[{""stimulus"":""img/1to2/1.png"",""time"":110},{""stimulus"":""img/1to2/2.png"",""time"":203},{""stimulus"":""img/1to2/3.png"",""time"":311},{""stimulus"":""img/1to2/4.png"",""time"":404},{""stimulus"":""img/1to2/5.png"",""time"":499},{""stimulus"":""img/1to2/6.png"",""time"":609},{""stimulus"":""img/1to2/7.png"",""time"":701},{""stimulus"":""img/1to2/8.png"",""time"":794},{""stimulus"":""img/1to2/9.png"",""time"":902},{""stimulus"":""img/1to2/10.png"",""time"":997},{""stimulus"":""img/1to2/11.png"",""time"":1105},{""stimulus"":""img/1to2/12.png"",""time"":1198}]","[]"
"","","","choice","62715bfe8dcc19e21152dce0","bdp_cybrbll","Mon Mar 27 2023 23:41:18 GMT-0500 (Central Daylight Time)","537908","1","3","image-keyboard-response","56","177577","0.0-5.0-1.26","","378","","img/2to1/1.png","2","199","194","0.5","0.5","2","3","",""
"","","","","62715bfe8dcc19e21152dce0","bdp_cybrbll","Mon Mar 27 2023 23:41:18 GMT-0500 (Central Daylight Time)","537908","1","3","animation","57","178878","0.0-5.0-2.26","","","","","","199","","","","2","3","[{""stimulus"":""img/2to3/1.png"",""time"":105},{""stimulus"":""img/2to3/2.png"",""time"":214},{""stimulus"":""img/2to3/3.png"",""time"":307},{""stimulus"":""img/2to3/4.png"",""time"":401},{""stimulus"":""img/2to3/5.png"",""time"":509},{""stimulus"":""img/2to3/6.png"",""time"":601},{""stimulus"":""img/2to3/7.png"",""time"":709},{""stimulus"":""img/2to3/8.png"",""time"":802},{""stimulus"":""img/2to3/9.png"",""time"":895},{""stimulus"":""img/2to3/10.png"",""time"":1004},{""stimulus"":""img/2to3/11.png"",""time"":1098},{""stimulus"":""img/2to3/12.png"",""time"":1191}]","[]"
"","","","observe","62715bfe8dcc19e21152dce0","bdp_cybrbll","Mon Mar 27 2023 23:41:18 GMT-0500 (Central Daylight Time)","537908","1","3","image-keyboard-response","58","179778","0.0-5.0-1.27","","null","","img/3to2/1.png","null","198","895","0.5","0.5","3","2","",""
"","","","","62715bfe8dcc19e21152dce0","bdp_cybrbll","Mon Mar 27 2023 23:41:18 GMT-0500 (Central Daylight Time)","537908","1","3","animation","59","181072","0.0-5.0-2.27","","","","","","198","","","","3","2","[{""stimulus"":""img/3to2/1.png"",""time"":108},{""stimulus"":""img/3to2/2.png"",""time"":199},{""stimulus"":""img/3to2/3.png"",""time"":311},{""stimulus"":""img/3to2/4.png"",""time"":403},{""stimulus"":""img/3to2/5.png"",""time"":497},{""stimulus"":""img/3to2/6.png"",""time"":607},{""stimulus"":""img/3to2/7.png"",""time"":703},{""stimulus"":""img/3to2/8.png"",""time"":797},{""stimulus"":""img/3to2/9.png"",""time"":906},{""stimulus"":""img/3to2/10.png"",""time"":999},{""stimulus"":""img/3to2/11.png"",""time"":1093},{""stimulus"":""img/3to2/12.png"",""time"":1202}]","[]"
"","","","choice","62715bfe8dcc19e21152dce0","bdp_cybrbll","Mon Mar 27 2023 23:41:18 GMT-0500 (Central Daylight Time)","537908","1","3","image-keyboard-response","60","181210","0.0-5.0-1.28","","137","","img/2to1/1.png","2","197","312","0.5","0.5","2","3","",""
"","","","","62715bfe8dcc19e21152dce0","bdp_cybrbll","Mon Mar 27 2023 23:41:18 GMT-0500 (Central Daylight Time)","537908","1","3","animation","61","182501","0.0-5.0-2.28","","","","","","197","","","","2","3","[{""stimulus"":""img/2to3/1.png"",""time"":111},{""stimulus"":""img/2to3/2.png"",""time"":204},{""stimulus"":""img/2to3/3.png"",""time"":313},{""stimulus"":""img/2to3/4.png"",""time"":408},{""stimulus"":""img/2to3/5.png"",""time"":501},{""stimulus"":""img/2to3/6.png"",""time"":609},{""stimulus"":""img/2to3/7.png"",""time"":703},{""stimulus"":""img/2to3/8.png"",""time"":797},{""stimulus"":""img/2to3/9.png"",""time"":905},{""stimulus"":""img/2to3/10.png"",""time"":998},{""stimulus"":""img/2to3/11.png"",""time"":1106},{""stimulus"":""img/2to3/12.png"",""time"":1198}]","[]"
"","","","observe","62715bfe8dcc19e21152dce0","bdp_cybrbll","Mon Mar 27 2023 23:41:18 GMT-0500 (Central Daylight Time)","537908","1","3","image-keyboard-response","62","183338","0.0-5.0-1.29","","null","","img/3to2/1.png","null","196","836","0.5","0.5","3","2","",""
"","","","","62715bfe8dcc19e21152dce0","bdp_cybrbll","Mon Mar 27 2023 23:41:18 GMT-0500 (Central Daylight Time)","537908","1","3","animation","63","184630","0.0-5.0-2.29","","","","","","196","","","","3","2","[{""stimulus"":""img/3to2/1.png"",""time"":109},{""stimulus"":""img/3to2/2.png"",""time"":202},{""stimulus"":""img/3to2/3.png"",""time"":310},{""stimulus"":""img/3to2/4.png"",""time"":404},{""stimulus"":""img/3to2/5.png"",""time"":497},{""stimulus"":""img/3to2/6.png"",""time"":605},{""stimulus"":""img/3to2/7.png"",""time"":694},{""stimulus"":""img/3to2/8.png"",""time"":807},{""stimulus"":""img/3to2/9.png"",""time"":891},{""stimulus"":""img/3to2/10.png"",""time"":991},{""stimulus"":""img/3to2/11.png"",""time"":1104},{""stimulus"":""img/3to2/12.png"",""time"":1197}]","[]"
"","","","choice","62715bfe8dcc19e21152dce0","bdp_cybrbll","Mon Mar 27 2023 23:41:18 GMT-0500 (Central Daylight Time)","537908","1","3","image-keyboard-response","64","185311","0.0-5.0-1.30","","680","","img/2to1/1.png","2","195","554","0.5","0.5","2","3","",""
"","","","","62715bfe8dcc19e21152dce0","bdp_cybrbll","Mon Mar 27 2023 23:41:18 GMT-0500 (Central Daylight Time)","537908","1","3","animation","65","186604","0.0-5.0-2.30","","","","","","195","","","","2","3","[{""stimulus"":""img/2to3/1.png"",""time"":109},{""stimulus"":""img/2to3/2.png"",""time"":203},{""stimulus"":""img/2to3/3.png"",""time"":312},{""stimulus"":""img/2to3/4.png"",""time"":405},{""stimulus"":""img/2to3/5.png"",""time"":500},{""stimulus"":""img/2to3/6.png"",""time"":595},{""stimulus"":""img/2to3/7.png"",""time"":694},{""stimulus"":""img/2to3/8.png"",""time"":796},{""stimulus"":""img/2to3/9.png"",""time"":904},{""stimulus"":""img/2to3/10.png"",""time"":998},{""stimulus"":""img/2to3/11.png"",""time"":1091},{""stimulus"":""img/2to3/12.png"",""time"":1201}]","[]"
"","","","observe","62715bfe8dcc19e21152dce0","bdp_cybrbll","Mon Mar 27 2023 23:41:18 GMT-0500 (Central Daylight Time)","537908","1","3","image-keyboard-response","66","187086","0.0-5.0-1.31","","null","","img/3to2/1.png","null","194","472","0.5","0.5","3","2","",""
"","","","","62715bfe8dcc19e21152dce0","bdp_cybrbll","Mon Mar 27 2023 23:41:18 GMT-0500 (Central Daylight Time)","537908","1","3","animation","67","188379","0.0-5.0-2.31","","","","","","194","","","","3","2","[{""stimulus"":""img/3to2/1.png"",""time"":110},{""stimulus"":""img/3to2/2.png"",""time"":203},{""stimulus"":""img/3to2/3.png"",""time"":312},{""stimulus"":""img/3to2/4.png"",""time"":397},{""stimulus"":""img/3to2/5.png"",""time"":498},{""stimulus"":""img/3to2/6.png"",""time"":606},{""stimulus"":""img/3to2/7.png"",""time"":699},{""stimulus"":""img/3to2/8.png"",""time"":793},{""stimulus"":""img/3to2/9.png"",""time"":904},{""stimulus"":""img/3to2/10.png"",""time"":998},{""stimulus"":""img/3to2/11.png"",""time"":1106},{""stimulus"":""img/3to2/12.png"",""time"":1189}]","[]"
"","","","choice","62715bfe8dcc19e21152dce0","bdp_cybrbll","Mon Mar 27 2023 23:41:18 GMT-0500 (Central Daylight Time)","537908","1","3","image-keyboard-response","68","188764","0.0-5.0-1.32","","385","","img/2to1/1.png","1","193","716","0.5","0.5","2","1","",""
"","","","","62715bfe8dcc19e21152dce0","bdp_cybrbll","Mon Mar 27 2023 23:41:18 GMT-0500 (Central Daylight Time)","537908","1","3","animation","69","190060","0.0-5.0-2.32","","","","","","193","","","","2","1","[{""stimulus"":""img/2to1/1.png"",""time"":112},{""stimulus"":""img/2to1/2.png"",""time"":205},{""stimulus"":""img/2to1/3.png"",""time"":298},{""stimulus"":""img/2to1/4.png"",""time"":407},{""stimulus"":""img/2to1/5.png"",""time"":501},{""stimulus"":""img/2to1/6.png"",""time"":596},{""stimulus"":""img/2to1/7.png"",""time"":704},{""stimulus"":""img/2to1/8.png"",""time"":798},{""stimulus"":""img/2to1/9.png"",""time"":906},{""stimulus"":""img/2to1/10.png"",""time"":1000},{""stimulus"":""img/2to1/11.png"",""time"":1093},{""stimulus"":""img/2to1/12.png"",""time"":1201}]","[]"
"","","","observe","62715bfe8dcc19e21152dce0","bdp_cybrbll","Mon Mar 27 2023 23:41:18 GMT-0500 (Central Daylight Time)","537908","1","3","image-keyboard-response","70","190620","0.0-5.0-1.33","","null","","img/1to3/1.png","null","192","555","0.5","0.5","1","3","",""
"","","","","62715bfe8dcc19e21152dce0","bdp_cybrbll","Mon Mar 27 2023 23:41:18 GMT-0500 (Central Daylight Time)","537908","1","3","animation","71","191923","0.0-5.0-2.33","","","","","","192","","","","1","3","[{""stimulus"":""img/1to3/1.png"",""time"":108},{""stimulus"":""img/1to3/2.png"",""time"":200},{""stimulus"":""img/1to3/3.png"",""time"":309},{""stimulus"":""img/1to3/4.png"",""time"":397},{""stimulus"":""img/1to3/5.png"",""time"":496},{""stimulus"":""img/1to3/6.png"",""time"":603},{""stimulus"":""img/1to3/7.png"",""time"":696},{""stimulus"":""img/1to3/8.png"",""time"":805},{""stimulus"":""img/1to3/9.png"",""time"":900},{""stimulus"":""img/1to3/10.png"",""time"":993},{""stimulus"":""img/1to3/11.png"",""time"":1101},{""stimulus"":""img/1to3/12.png"",""time"":1189}]","[]"
"","","","observe","62715bfe8dcc19e21152dce0","bdp_cybrbll","Mon Mar 27 2023 23:41:18 GMT-0500 (Central Daylight Time)","537908","1","3","image-keyboard-response","72","192153","0.0-5.0-1.34","","null","","img/3to2/1.png","null","191","228","0.5","0.5","3","2","",""
"","","","","62715bfe8dcc19e21152dce0","bdp_cybrbll","Mon Mar 27 2023 23:41:18 GMT-0500 (Central Daylight Time)","537908","1","3","animation","73","193447","0.0-5.0-2.34","","","","","","191","","","","3","2","[{""stimulus"":""img/3to2/1.png"",""time"":113},{""stimulus"":""img/3to2/2.png"",""time"":199},{""stimulus"":""img/3to2/3.png"",""time"":299},{""stimulus"":""img/3to2/4.png"",""time"":408},{""stimulus"":""img/3to2/5.png"",""time"":500},{""stimulus"":""img/3to2/6.png"",""time"":610},{""stimulus"":""img/3to2/7.png"",""time"":703},{""stimulus"":""img/3to2/8.png"",""time"":795},{""stimulus"":""img/3to2/9.png"",""time"":904},{""stimulus"":""img/3to2/10.png"",""time"":998},{""stimulus"":""img/3to2/11.png"",""time"":1091},{""stimulus"":""img/3to2/12.png"",""time"":1200}]","[]"
"","","","choice","62715bfe8dcc19e21152dce0","bdp_cybrbll","Mon Mar 27 2023 23:41:18 GMT-0500 (Central Daylight Time)","537908","1","3","image-keyboard-response","74","194444","0.0-5.0-1.35","","996","","img/2to1/1.png","1","190","620","0.5","0.5","2","1","",""
"","","","","62715bfe8dcc19e21152dce0","bdp_cybrbll","Mon Mar 27 2023 23:41:18 GMT-0500 (Central Daylight Time)","537908","1","3","animation","75","195745","0.0-5.0-2.35","","","","","","190","","","","2","1","[{""stimulus"":""img/2to1/1.png"",""time"":106},{""stimulus"":""img/2to1/2.png"",""time"":199},{""stimulus"":""img/2to1/3.png"",""time"":298},{""stimulus"":""img/2to1/4.png"",""time"":401},{""stimulus"":""img/2to1/5.png"",""time"":511},{""stimulus"":""img/2to1/6.png"",""time"":604},{""stimulus"":""img/2to1/7.png"",""time"":696},{""stimulus"":""img/2to1/8.png"",""time"":806},{""stimulus"":""img/2to1/9.png"",""time"":899},{""stimulus"":""img/2to1/10.png"",""time"":991},{""stimulus"":""img/2to1/11.png"",""time"":1100},{""stimulus"":""img/2to1/12.png"",""time"":1189}]","[]"
"","","","observe","62715bfe8dcc19e21152dce0","bdp_cybrbll","Mon Mar 27 2023 23:41:18 GMT-0500 (Central Daylight Time)","537908","1","3","image-keyboard-response","76","196427","0.0-5.0-1.36","","null","","img/1to3/1.png","null","189","671","0.5","0.5","1","2","",""
"","","","","62715bfe8dcc19e21152dce0","bdp_cybrbll","Mon Mar 27 2023 23:41:18 GMT-0500 (Central Daylight Time)","537908","1","3","animation","77","197725","0.0-5.0-2.36","","","","","","189","","","","1","2","[{""stimulus"":""img/1to2/1.png"",""time"":111},{""stimulus"":""img/1to2/2.png"",""time"":212},{""stimulus"":""img/1to2/3.png"",""time"":299},{""stimulus"":""img/1to2/4.png"",""time"":408},{""stimulus"":""img/1to2/5.png"",""time"":503},{""stimulus"":""img/1to2/6.png"",""time"":596},{""stimulus"":""img/1to2/7.png"",""time"":706},{""stimulus"":""img/1to2/8.png"",""time"":799},{""stimulus"":""img/1to2/9.png"",""time"":892},{""stimulus"":""img/1to2/10.png"",""time"":991},{""stimulus"":""img/1to2/11.png"",""time"":1095},{""stimulus"":""img/1to2/12.png"",""time"":1189}]","[]"
"","","","choice","62715bfe8dcc19e21152dce0","bdp_cybrbll","Mon Mar 27 2023 23:41:18 GMT-0500 (Central Daylight Time)","537908","1","3","image-keyboard-response","78","198101","0.0-5.0-1.37","","375","","img/2to1/1.png","1","188","440","0.5","0.5","2","1","",""
"","","","","62715bfe8dcc19e21152dce0","bdp_cybrbll","Mon Mar 27 2023 23:41:18 GMT-0500 (Central Daylight Time)","537908","1","3","animation","79","199394","0.0-5.0-2.37","","","","","","188","","","","2","1","[{""stimulus"":""img/2to1/1.png"",""time"":107},{""stimulus"":""img/2to1/2.png"",""time"":200},{""stimulus"":""img/2to1/3.png"",""time"":309},{""stimulus"":""img/2to1/4.png"",""time"":403},{""stimulus"":""img/2to1/5.png"",""time"":501},{""stimulus"":""img/2to1/6.png"",""time"":608},{""stimulus"":""img/2to1/7.png"",""time"":694},{""stimulus"":""img/2to1/8.png"",""time"":792},{""stimulus"":""img/2to1/9.png"",""time"":892},{""stimulus"":""img/2to1/10.png"",""time"":991},{""stimulus"":""img/2to1/11.png"",""time"":1105},{""stimulus"":""img/2to1/12.png"",""time"":1198}]","[]"
"","","","observe","62715bfe8dcc19e21152dce0","bdp_cybrbll","Mon Mar 27 2023 23:41:18 GMT-0500 (Central Daylight Time)","537908","1","3","image-keyboard-response","80","199674","0.0-5.0-1.38","","null","","img/1to3/1.png","null","187","267","0.5","0.5","1","3","",""
"","","","","62715bfe8dcc19e21152dce0","bdp_cybrbll","Mon Mar 27 2023 23:41:18 GMT-0500 (Central Daylight Time)","537908","1","3","animation","81","200975","0.0-5.0-2.38","","","","","","187","","","","1","3","[{""stimulus"":""img/1to3/1.png"",""time"":108},{""stimulus"":""img/1to3/2.png"",""time"":201},{""stimulus"":""img/1to3/3.png"",""time"":317},{""stimulus"":""img/1to3/4.png"",""time"":410},{""stimulus"":""img/1to3/5.png"",""time"":503},{""stimulus"":""img/1to3/6.png"",""time"":599},{""stimulus"":""img/1to3/7.png"",""time"":706},{""stimulus"":""img/1to3/8.png"",""time"":799},{""stimulus"":""img/1to3/9.png"",""time"":894},{""stimulus"":""img/1to3/10.png"",""time"":1011},{""stimulus"":""img/1to3/11.png"",""time"":1099},{""stimulus"":""img/1to3/12.png"",""time"":1192}]","[]"
"","","","observe","62715bfe8dcc19e21152dce0","bdp_cybrbll","Mon Mar 27 2023 23:41:18 GMT-0500 (Central Daylight Time)","537908","1","3","image-keyboard-response","82","201364","0.0-5.0-1.39","","null","","img/3to2/1.png","null","186","375","0.5","0.5","3","2","",""
"","","","","62715bfe8dcc19e21152dce0","bdp_cybrbll","Mon Mar 27 2023 23:41:18 GMT-0500 (Central Daylight Time)","537908","1","3","animation","83","202652","0.0-5.0-2.39","","","","","","186","","","","3","2","[{""stimulus"":""img/3to2/1.png"",""time"":109},{""stimulus"":""img/3to2/2.png"",""time"":202},{""stimulus"":""img/3to2/3.png"",""time"":311},{""stimulus"":""img/3to2/4.png"",""time"":405},{""stimulus"":""img/3to2/5.png"",""time"":500},{""stimulus"":""img/3to2/6.png"",""time"":610},{""stimulus"":""img/3to2/7.png"",""time"":703},{""stimulus"":""img/3to2/8.png"",""time"":793},{""stimulus"":""img/3to2/9.png"",""time"":912},{""stimulus"":""img/3to2/10.png"",""time"":999},{""stimulus"":""img/3to2/11.png"",""time"":1095},{""stimulus"":""img/3to2/12.png"",""time"":1204}]","[]"
"","","","choice","62715bfe8dcc19e21152dce0","bdp_cybrbll","Mon Mar 27 2023 23:41:18 GMT-0500 (Central Daylight Time)","537908","1","3","image-keyboard-response","84","203233","0.0-5.0-1.40","","579","","img/2to1/1.png","1","185","1175","0.5","0.5","2","1","",""
"","","","","62715bfe8dcc19e21152dce0","bdp_cybrbll","Mon Mar 27 2023 23:41:18 GMT-0500 (Central Daylight Time)","537908","1","3","animation","85","204524","0.0-5.0-2.40","","","","","","185","","","","2","1","[{""stimulus"":""img/2to1/1.png"",""time"":110},{""stimulus"":""img/2to1/2.png"",""time"":204},{""stimulus"":""img/2to1/3.png"",""time"":313},{""stimulus"":""img/2to1/4.png"",""time"":406},{""stimulus"":""img/2to1/5.png"",""time"":499},{""stimulus"":""img/2to1/6.png"",""time"":607},{""stimulus"":""img/2to1/7.png"",""time"":700},{""stimulus"":""img/2to1/8.png"",""time"":793},{""stimulus"":""img/2to1/9.png"",""time"":901},{""stimulus"":""img/2to1/10.png"",""time"":996},{""stimulus"":""img/2to1/11.png"",""time"":1105},{""stimulus"":""img/2to1/12.png"",""time"":1197}]","[]"
"","","","observe","62715bfe8dcc19e21152dce0","bdp_cybrbll","Mon Mar 27 2023 23:41:18 GMT-0500 (Central Daylight Time)","537908","1","3","image-keyboard-response","86","205081","0.0-5.0-1.41","","null","","img/1to3/1.png","null","184","556","0.5","0.5","1","2","",""
"","","","","62715bfe8dcc19e21152dce0","bdp_cybrbll","Mon Mar 27 2023 23:41:18 GMT-0500 (Central Daylight Time)","537908","1","3","animation","87","206378","0.0-5.0-2.41","","","","","","184","","","","1","2","[{""stimulus"":""img/1to2/1.png"",""time"":109},{""stimulus"":""img/1to2/2.png"",""time"":205},{""stimulus"":""img/1to2/3.png"",""time"":313},{""stimulus"":""img/1to2/4.png"",""time"":397},{""stimulus"":""img/1to2/5.png"",""time"":499},{""stimulus"":""img/1to2/6.png"",""time"":608},{""stimulus"":""img/1to2/7.png"",""time"":701},{""stimulus"":""img/1to2/8.png"",""time"":795},{""stimulus"":""img/1to2/9.png"",""time"":905},{""stimulus"":""img/1to2/10.png"",""time"":991},{""stimulus"":""img/1to2/11.png"",""time"":1094},{""stimulus"":""img/1to2/12.png"",""time"":1189}]","[]"
"","","","choice","62715bfe8dcc19e21152dce0","bdp_cybrbll","Mon Mar 27 2023 23:41:18 GMT-0500 (Central Daylight Time)","537908","1","3","image-keyboard-response","88","206623","0.0-5.0-1.42","","244","","img/2to1/1.png","1","183","304","0.5","0.5","2","1","",""
"","","","","62715bfe8dcc19e21152dce0","bdp_cybrbll","Mon Mar 27 2023 23:41:18 GMT-0500 (Central Daylight Time)","537908","1","3","animation","89","207911","0.0-5.0-2.42","","","","","","183","","","","2","1","[{""stimulus"":""img/2to1/1.png"",""time"":112},{""stimulus"":""img/2to1/2.png"",""time"":204},{""stimulus"":""img/2to1/3.png"",""time"":298},{""stimulus"":""img/2to1/4.png"",""time"":407},{""stimulus"":""img/2to1/5.png"",""time"":501},{""stimulus"":""img/2to1/6.png"",""time"":610},{""stimulus"":""img/2to1/7.png"",""time"":703},{""stimulus"":""img/2to1/8.png"",""time"":796},{""stimulus"":""img/2to1/9.png"",""time"":906},{""stimulus"":""img/2to1/10.png"",""time"":991},{""stimulus"":""img/2to1/11.png"",""time"":1092},{""stimulus"":""img/2to1/12.png"",""time"":1200}]","[]"
"","","","observe","62715bfe8dcc19e21152dce0","bdp_cybrbll","Mon Mar 27 2023 23:41:18 GMT-0500 (Central Daylight Time)","537908","1","3","image-keyboard-response","90","208523","0.0-5.0-1.43","","null","","img/1to3/1.png","null","182","605","0.5","0.5","1","2","",""
"","","","","62715bfe8dcc19e21152dce0","bdp_cybrbll","Mon Mar 27 2023 23:41:18 GMT-0500 (Central Daylight Time)","537908","1","3","animation","91","209825","0.0-5.0-2.43","","","","","","182","","","","1","2","[{""stimulus"":""img/1to2/1.png"",""time"":109},{""stimulus"":""img/1to2/2.png"",""time"":198},{""stimulus"":""img/1to2/3.png"",""time"":310},{""stimulus"":""img/1to2/4.png"",""time"":403},{""stimulus"":""img/1to2/5.png"",""time"":496},{""stimulus"":""img/1to2/6.png"",""time"":604},{""stimulus"":""img/1to2/7.png"",""time"":697},{""stimulus"":""img/1to2/8.png"",""time"":807},{""stimulus"":""img/1to2/9.png"",""time"":899},{""stimulus"":""img/1to2/10.png"",""time"":993},{""stimulus"":""img/1to2/11.png"",""time"":1101},{""stimulus"":""img/1to2/12.png"",""time"":1194}]","[]"
"","","","choice","62715bfe8dcc19e21152dce0","bdp_cybrbll","Mon Mar 27 2023 23:41:18 GMT-0500 (Central Daylight Time)","537908","1","3","image-keyboard-response","92","210023","0.0-5.0-1.44","","197","","img/2to1/1.png","1","181","385","0.5","0.5","2","1","",""
"","","","","62715bfe8dcc19e21152dce0","bdp_cybrbll","Mon Mar 27 2023 23:41:18 GMT-0500 (Central Daylight Time)","537908","1","3","animation","93","211313","0.0-5.0-2.44","","","","","","181","","","","2","1","[{""stimulus"":""img/2to1/1.png"",""time"":113},{""stimulus"":""img/2to1/2.png"",""time"":205},{""stimulus"":""img/2to1/3.png"",""time"":299},{""stimulus"":""img/2to1/4.png"",""time"":406},{""stimulus"":""img/2to1/5.png"",""time"":501},{""stimulus"":""img/2to1/6.png"",""time"":610},{""stimulus"":""img/2to1/7.png"",""time"":703},{""stimulus"":""img/2to1/8.png"",""time"":796},{""stimulus"":""img/2to1/9.png"",""time"":905},{""stimulus"":""img/2to1/10.png"",""time"":997},{""stimulus"":""img/2to1/11.png"",""time"":1090},{""stimulus"":""img/2to1/12.png"",""time"":1198}]","[]"
"","","","observe","62715bfe8dcc19e21152dce0","bdp_cybrbll","Mon Mar 27 2023 23:41:18 GMT-0500 (Central Daylight Time)","537908","1","3","image-keyboard-response","94","211733","0.0-5.0-1.45","","null","","img/1to3/1.png","null","180","406","0.5","0.5","1","3","",""
"","","","","62715bfe8dcc19e21152dce0","bdp_cybrbll","Mon Mar 27 2023 23:41:18 GMT-0500 (Central Daylight Time)","537908","1","3","animation","95","213026","0.0-5.0-2.45","","","","","","180","","","","1","3","[{""stimulus"":""img/1to3/1.png"",""time"":109},{""stimulus"":""img/1to3/2.png"",""time"":203},{""stimulus"":""img/1to3/3.png"",""time"":299},{""stimulus"":""img/1to3/4.png"",""time"":397},{""stimulus"":""img/1to3/5.png"",""time"":500},{""stimulus"":""img/1to3/6.png"",""time"":595},{""stimulus"":""img/1to3/7.png"",""time"":695},{""stimulus"":""img/1to3/8.png"",""time"":793},{""stimulus"":""img/1to3/9.png"",""time"":905},{""stimulus"":""img/1to3/10.png"",""time"":998},{""stimulus"":""img/1to3/11.png"",""time"":1091},{""stimulus"":""img/1to3/12.png"",""time"":1200}]","[]"
"","","","observe","62715bfe8dcc19e21152dce0","bdp_cybrbll","Mon Mar 27 2023 23:41:18 GMT-0500 (Central Daylight Time)","537908","1","3","image-keyboard-response","96","213291","0.0-5.0-1.46","","null","","img/3to2/1.png","null","179","260","0.5","0.5","3","1","",""
"","","","","62715bfe8dcc19e21152dce0","bdp_cybrbll","Mon Mar 27 2023 23:41:18 GMT-0500 (Central Daylight Time)","537908","1","3","animation","97","214579","0.0-5.0-2.46","","","","","","179","","","","3","1","[{""stimulus"":""img/3to1/1.png"",""time"":109},{""stimulus"":""img/3to1/2.png"",""time"":203},{""stimulus"":""img/3to1/3.png"",""time"":311},{""stimulus"":""img/3to1/4.png"",""time"":406},{""stimulus"":""img/3to1/5.png"",""time"":499},{""stimulus"":""img/3to1/6.png"",""time"":607},{""stimulus"":""img/3to1/7.png"",""time"":701},{""stimulus"":""img/3to1/8.png"",""time"":794},{""stimulus"":""img/3to1/9.png"",""time"":905},{""stimulus"":""img/3to1/10.png"",""time"":998},{""stimulus"":""img/3to1/11.png"",""time"":1091},{""stimulus"":""img/3to1/12.png"",""time"":1200}]","[]"
"","","","observe","62715bfe8dcc19e21152dce0","bdp_cybrbll","Mon Mar 27 2023 23:41:18 GMT-0500 (Central Daylight Time)","537908","1","3","image-keyboard-response","98","214941","0.0-5.0-1.47","","null","","img/1to3/1.png","null","178","358","0.5","0.5","1","2","",""
"","","","","62715bfe8dcc19e21152dce0","bdp_cybrbll","Mon Mar 27 2023 23:41:18 GMT-0500 (Central Daylight Time)","537908","1","3","animation","99","216229","0.0-5.0-2.47","","","","","","178","","","","1","2","[{""stimulus"":""img/1to2/1.png"",""time"":110},{""stimulus"":""img/1to2/2.png"",""time"":199},{""stimulus"":""img/1to2/3.png"",""time"":298},{""stimulus"":""img/1to2/4.png"",""time"":405},{""stimulus"":""img/1to2/5.png"",""time"":499},{""stimulus"":""img/1to2/6.png"",""time"":608},{""stimulus"":""img/1to2/7.png"",""time"":701},{""stimulus"":""img/1to2/8.png"",""time"":794},{""stimulus"":""img/1to2/9.png"",""time"":902},{""stimulus"":""img/1to2/10.png"",""time"":996},{""stimulus"":""img/1to2/11.png"",""time"":1104},{""stimulus"":""img/1to2/12.png"",""time"":1198}]","[]"
"","","","choice","62715bfe8dcc19e21152dce0","bdp_cybrbll","Mon Mar 27 2023 23:41:18 GMT-0500 (Central Daylight Time)","537908","1","3","image-keyboard-response","100","216530","0.0-5.0-1.48","","301","","img/2to1/1.png","2","177","1861","0.5","0.5","2","3","",""
"","","","","62715bfe8dcc19e21152dce0","bdp_cybrbll","Mon Mar 27 2023 23:41:18 GMT-0500 (Central Daylight Time)","537908","1","3","animation","101","217830","0.0-5.0-2.48","","","","","","177","","","","2","3","[{""stimulus"":""img/2to3/1.png"",""time"":104},{""stimulus"":""img/2to3/2.png"",""time"":212},{""stimulus"":""img/2to3/3.png"",""time"":305},{""stimulus"":""img/2to3/4.png"",""time"":397},{""stimulus"":""img/2to3/5.png"",""time"":506},{""stimulus"":""img/2to3/6.png"",""time"":595},{""stimulus"":""img/2to3/7.png"",""time"":693},{""stimulus"":""img/2to3/8.png"",""time"":802},{""stimulus"":""img/2to3/9.png"",""time"":896},{""stimulus"":""img/2to3/10.png"",""time"":1003},{""stimulus"":""img/2to3/11.png"",""time"":1097},{""stimulus"":""img/2to3/12.png"",""time"":1190}]","[]"
"","","","observe","62715bfe8dcc19e21152dce0","bdp_cybrbll","Mon Mar 27 2023 23:41:18 GMT-0500 (Central Daylight Time)","537908","1","3","image-keyboard-response","102","218250","0.0-5.0-1.49","","null","","img/3to2/1.png","null","176","415","0.5","0.5","3","1","",""
"","","","","62715bfe8dcc19e21152dce0","bdp_cybrbll","Mon Mar 27 2023 23:41:18 GMT-0500 (Central Daylight Time)","537908","1","3","animation","103","219541","0.0-5.0-2.49","","","","","","176","","","","3","1","[{""stimulus"":""img/3to1/1.png"",""time"":109},{""stimulus"":""img/3to1/2.png"",""time"":202},{""stimulus"":""img/3to1/3.png"",""time"":298},{""stimulus"":""img/3to1/4.png"",""time"":406},{""stimulus"":""img/3to1/5.png"",""time"":496},{""stimulus"":""img/3to1/6.png"",""time"":609},{""stimulus"":""img/3to1/7.png"",""time"":703},{""stimulus"":""img/3to1/8.png"",""time"":795},{""stimulus"":""img/3to1/9.png"",""time"":904},{""stimulus"":""img/3to1/10.png"",""time"":996},{""stimulus"":""img/3to1/11.png"",""time"":1105},{""stimulus"":""img/3to1/12.png"",""time"":1199}]","[]"
"","","","observe","62715bfe8dcc19e21152dce0","bdp_cybrbll","Mon Mar 27 2023 23:41:18 GMT-0500 (Central Daylight Time)","537908","1","3","image-keyboard-response","104","219789","0.0-5.0-1.50","","null","","img/1to3/1.png","null","175","238","0.5","0.5","1","3","",""
"","","","","62715bfe8dcc19e21152dce0","bdp_cybrbll","Mon Mar 27 2023 23:41:18 GMT-0500 (Central Daylight Time)","537908","1","3","animation","105","221077","0.0-5.0-2.50","","","","","","175","","","","1","3","[{""stimulus"":""img/1to3/1.png"",""time"":108},{""stimulus"":""img/1to3/2.png"",""time"":202},{""stimulus"":""img/1to3/3.png"",""time"":311},{""stimulus"":""img/1to3/4.png"",""time"":405},{""stimulus"":""img/1to3/5.png"",""time"":498},{""stimulus"":""img/1to3/6.png"",""time"":607},{""stimulus"":""img/1to3/7.png"",""time"":700},{""stimulus"":""img/1to3/8.png"",""time"":793},{""stimulus"":""img/1to3/9.png"",""time"":902},{""stimulus"":""img/1to3/10.png"",""time"":995},{""stimulus"":""img/1to3/11.png"",""time"":1104},{""stimulus"":""img/1to3/12.png"",""time"":1188}]","[]"
"","","","observe","62715bfe8dcc19e21152dce0","bdp_cybrbll","Mon Mar 27 2023 23:41:18 GMT-0500 (Central Daylight Time)","537908","1","3","image-keyboard-response","106","221437","0.0-5.0-1.51","","null","","img/3to2/1.png","null","174","349","0.5","0.5","3","2","",""
"","","","","62715bfe8dcc19e21152dce0","bdp_cybrbll","Mon Mar 27 2023 23:41:18 GMT-0500 (Central Daylight Time)","537908","1","3","animation","107","222727","0.0-5.0-2.51","","","","","","174","","","","3","2","[{""stimulus"":""img/3to2/1.png"",""time"":109},{""stimulus"":""img/3to2/2.png"",""time"":201},{""stimulus"":""img/3to2/3.png"",""time"":310},{""stimulus"":""img/3to2/4.png"",""time"":404},{""stimulus"":""img/3to2/5.png"",""time"":497},{""stimulus"":""img/3to2/6.png"",""time"":606},{""stimulus"":""img/3to2/7.png"",""time"":699},{""stimulus"":""img/3to2/8.png"",""time"":794},{""stimulus"":""img/3to2/9.png"",""time"":892},{""stimulus"":""img/3to2/10.png"",""time"":994},{""stimulus"":""img/3to2/11.png"",""time"":1103},{""stimulus"":""img/3to2/12.png"",""time"":1197}]","[]"
"","","","choice","62715bfe8dcc19e21152dce0","bdp_cybrbll","Mon Mar 27 2023 23:41:18 GMT-0500 (Central Daylight Time)","537908","1","3","image-keyboard-response","108","223377","0.0-5.0-1.52","","650","","img/2to1/1.png","1","173","511","0.5","0.5","2","1","",""
"","","","","62715bfe8dcc19e21152dce0","bdp_cybrbll","Mon Mar 27 2023 23:41:18 GMT-0500 (Central Daylight Time)","537908","1","3","animation","109","224668","0.0-5.0-2.52","","","","","","173","","","","2","1","[{""stimulus"":""img/2to1/1.png"",""time"":111},{""stimulus"":""img/2to1/2.png"",""time"":204},{""stimulus"":""img/2to1/3.png"",""time"":313},{""stimulus"":""img/2to1/4.png"",""time"":407},{""stimulus"":""img/2to1/5.png"",""time"":500},{""stimulus"":""img/2to1/6.png"",""time"":609},{""stimulus"":""img/2to1/7.png"",""time"":702},{""stimulus"":""img/2to1/8.png"",""time"":793},{""stimulus"":""img/2to1/9.png"",""time"":904},{""stimulus"":""img/2to1/10.png"",""time"":996},{""stimulus"":""img/2to1/11.png"",""time"":1105},{""stimulus"":""img/2to1/12.png"",""time"":1198}]","[]"
"","","","observe","62715bfe8dcc19e21152dce0","bdp_cybrbll","Mon Mar 27 2023 23:41:18 GMT-0500 (Central Daylight Time)","537908","1","3","image-keyboard-response","110","224884","0.0-5.0-1.53","","null","","img/1to3/1.png","null","172","214","0.5","0.5","1","3","",""
"","","","","62715bfe8dcc19e21152dce0","bdp_cybrbll","Mon Mar 27 2023 23:41:18 GMT-0500 (Central Daylight Time)","537908","1","3","animation","111","226172","0.0-5.0-2.53","","","","","","172","","","","1","3","[{""stimulus"":""img/1to3/1.png"",""time"":110},{""stimulus"":""img/1to3/2.png"",""time"":204},{""stimulus"":""img/1to3/3.png"",""time"":312},{""stimulus"":""img/1to3/4.png"",""time"":405},{""stimulus"":""img/1to3/5.png"",""time"":498},{""stimulus"":""img/1to3/6.png"",""time"":607},{""stimulus"":""img/1to3/7.png"",""time"":700},{""stimulus"":""img/1to3/8.png"",""time"":793},{""stimulus"":""img/1to3/9.png"",""time"":901},{""stimulus"":""img/1to3/10.png"",""time"":992},{""stimulus"":""img/1to3/11.png"",""time"":1102},{""stimulus"":""img/1to3/12.png"",""time"":1194}]","[]"
"","","","observe","62715bfe8dcc19e21152dce0","bdp_cybrbll","Mon Mar 27 2023 23:41:18 GMT-0500 (Central Daylight Time)","537908","1","3","image-keyboard-response","112","226513","0.0-5.0-1.54","","null","","img/3to2/1.png","null","171","336","0.5","0.5","3","1","",""
"","","","","62715bfe8dcc19e21152dce0","bdp_cybrbll","Mon Mar 27 2023 23:41:18 GMT-0500 (Central Daylight Time)","537908","1","3","animation","113","227808","0.0-5.0-2.54","","","","","","171","","","","3","1","[{""stimulus"":""img/3to1/1.png"",""time"":109},{""stimulus"":""img/3to1/2.png"",""time"":202},{""stimulus"":""img/3to1/3.png"",""time"":312},{""stimulus"":""img/3to1/4.png"",""time"":397},{""stimulus"":""img/3to1/5.png"",""time"":500},{""stimulus"":""img/3to1/6.png"",""time"":608},{""stimulus"":""img/3to1/7.png"",""time"":702},{""stimulus"":""img/3to1/8.png"",""time"":796},{""stimulus"":""img/3to1/9.png"",""time"":905},{""stimulus"":""img/3to1/10.png"",""time"":998},{""stimulus"":""img/3to1/11.png"",""time"":1093},{""stimulus"":""img/3to1/12.png"",""time"":1202}]","[]"
"","","","observe","62715bfe8dcc19e21152dce0","bdp_cybrbll","Mon Mar 27 2023 23:41:18 GMT-0500 (Central Daylight Time)","537908","1","3","image-keyboard-response","114","228258","0.0-5.0-1.55","","null","","img/1to3/1.png","null","170","442","0.5","0.5","1","2","",""
"","","","","62715bfe8dcc19e21152dce0","bdp_cybrbll","Mon Mar 27 2023 23:41:18 GMT-0500 (Central Daylight Time)","537908","1","3","animation","115","229551","0.0-5.0-2.55","","","","","","170","","","","1","2","[{""stimulus"":""img/1to2/1.png"",""time"":108},{""stimulus"":""img/1to2/2.png"",""time"":201},{""stimulus"":""img/1to2/3.png"",""time"":311},{""stimulus"":""img/1to2/4.png"",""time"":404},{""stimulus"":""img/1to2/5.png"",""time"":496},{""stimulus"":""img/1to2/6.png"",""time"":607},{""stimulus"":""img/1to2/7.png"",""time"":701},{""stimulus"":""img/1to2/8.png"",""time"":794},{""stimulus"":""img/1to2/9.png"",""time"":904},{""stimulus"":""img/1to2/10.png"",""time"":997},{""stimulus"":""img/1to2/11.png"",""time"":1090},{""stimulus"":""img/1to2/12.png"",""time"":1200}]","[]"
"","","","choice","62715bfe8dcc19e21152dce0","bdp_cybrbll","Mon Mar 27 2023 23:41:18 GMT-0500 (Central Daylight Time)","537908","1","3","image-keyboard-response","116","230603","0.0-5.0-1.56","","1051","","img/2to1/1.png","2","169","467","0.5","0.5","2","3","",""
"","","","","62715bfe8dcc19e21152dce0","bdp_cybrbll","Mon Mar 27 2023 23:41:18 GMT-0500 (Central Daylight Time)","537908","1","3","animation","117","231892","0.0-5.0-2.56","","","","","","169","","","","2","3","[{""stimulus"":""img/2to3/1.png"",""time"":110},{""stimulus"":""img/2to3/2.png"",""time"":203},{""stimulus"":""img/2to3/3.png"",""time"":311},{""stimulus"":""img/2to3/4.png"",""time"":405},{""stimulus"":""img/2to3/5.png"",""time"":498},{""stimulus"":""img/2to3/6.png"",""time"":608},{""stimulus"":""img/2to3/7.png"",""time"":701},{""stimulus"":""img/2to3/8.png"",""time"":793},{""stimulus"":""img/2to3/9.png"",""time"":901},{""stimulus"":""img/2to3/10.png"",""time"":995},{""stimulus"":""img/2to3/11.png"",""time"":1103},{""stimulus"":""img/2to3/12.png"",""time"":1196}]","[]"
"","","","observe","62715bfe8dcc19e21152dce0","bdp_cybrbll","Mon Mar 27 2023 23:41:18 GMT-0500 (Central Daylight Time)","537908","1","3","image-keyboard-response","118","232217","0.0-5.0-1.57","","null","","img/3to2/1.png","null","168","310","0.5","0.5","3","1","",""
"","","","","62715bfe8dcc19e21152dce0","bdp_cybrbll","Mon Mar 27 2023 23:41:18 GMT-0500 (Central Daylight Time)","537908","1","3","animation","119","233505","0.0-5.0-2.57","","","","","","168","","","","3","1","[{""stimulus"":""img/3to1/1.png"",""time"":109},{""stimulus"":""img/3to1/2.png"",""time"":201},{""stimulus"":""img/3to1/3.png"",""time"":309},{""stimulus"":""img/3to1/4.png"",""time"":404},{""stimulus"":""img/3to1/5.png"",""time"":495},{""stimulus"":""img/3to1/6.png"",""time"":607},{""stimulus"":""img/3to1/7.png"",""time"":700},{""stimulus"":""img/3to1/8.png"",""time"":793},{""stimulus"":""img/3to1/9.png"",""time"":901},{""stimulus"":""img/3to1/10.png"",""time"":994},{""stimulus"":""img/3to1/11.png"",""time"":1102},{""stimulus"":""img/3to1/12.png"",""time"":1188}]","[]"
"","","","observe","62715bfe8dcc19e21152dce0","bdp_cybrbll","Mon Mar 27 2023 23:41:18 GMT-0500 (Central Daylight Time)","537908","1","3","image-keyboard-response","120","234032","0.0-5.0-1.58","","null","","img/1to3/1.png","null","167","513","0.5","0.5","1","2","",""
"","","","","62715bfe8dcc19e21152dce0","bdp_cybrbll","Mon Mar 27 2023 23:41:18 GMT-0500 (Central Daylight Time)","537908","1","3","animation","121","235320","0.0-5.0-2.58","","","","","","167","","","","1","2","[{""stimulus"":""img/1to2/1.png"",""time"":108},{""stimulus"":""img/1to2/2.png"",""time"":202},{""stimulus"":""img/1to2/3.png"",""time"":311},{""stimulus"":""img/1to2/4.png"",""time"":404},{""stimulus"":""img/1to2/5.png"",""time"":497},{""stimulus"":""img/1to2/6.png"",""time"":608},{""stimulus"":""img/1to2/7.png"",""time"":702},{""stimulus"":""img/1to2/8.png"",""time"":795},{""stimulus"":""img/1to2/9.png"",""time"":904},{""stimulus"":""img/1to2/10.png"",""time"":998},{""stimulus"":""img/1to2/11.png"",""time"":1090},{""stimulus"":""img/1to2/12.png"",""time"":1199}]","[]"
"","","","choice","62715bfe8dcc19e21152dce0","bdp_cybrbll","Mon Mar 27 2023 23:41:18 GMT-0500 (Central Daylight Time)","537908","1","3","image-keyboard-response","122","235395","0.0-5.0-1.59","","75","","img/2to1/1.png","2","166","741","0.5","0.5","2","3","",""
"","","","","62715bfe8dcc19e21152dce0","bdp_cybrbll","Mon Mar 27 2023 23:41:18 GMT-0500 (Central Daylight Time)","537908","1","3","animation","123","236693","0.0-5.0-2.59","","","","","","166","","","","2","3","[{""stimulus"":""img/2to3/1.png"",""time"":115},{""stimulus"":""img/2to3/2.png"",""time"":199},{""stimulus"":""img/2to3/3.png"",""time"":298},{""stimulus"":""img/2to3/4.png"",""time"":397},{""stimulus"":""img/2to3/5.png"",""time"":503},{""stimulus"":""img/2to3/6.png"",""time"":596},{""stimulus"":""img/2to3/7.png"",""time"":705},{""stimulus"":""img/2to3/8.png"",""time"":798},{""stimulus"":""img/2to3/9.png"",""time"":907},{""stimulus"":""img/2to3/10.png"",""time"":991},{""stimulus"":""img/2to3/11.png"",""time"":1096},{""stimulus"":""img/2to3/12.png"",""time"":1205}]","[]"
"","","","observe","62715bfe8dcc19e21152dce0","bdp_cybrbll","Mon Mar 27 2023 23:41:18 GMT-0500 (Central Daylight Time)","537908","1","3","image-keyboard-response","124","238302","0.0-5.0-1.60","","null","","img/3to2/1.png","null","165","1603","0.5","0.5","3","1","",""
"","","","","62715bfe8dcc19e21152dce0","bdp_cybrbll","Mon Mar 27 2023 23:41:18 GMT-0500 (Central Daylight Time)","537908","1","3","animation","125","239597","0.0-5.0-2.60","","","","","","165","","","","3","1","[{""stimulus"":""img/3to1/1.png"",""time"":109},{""stimulus"":""img/3to1/2.png"",""time"":202},{""stimulus"":""img/3to1/3.png"",""time"":312},{""stimulus"":""img/3to1/4.png"",""time"":405},{""stimulus"":""img/3to1/5.png"",""time"":498},{""stimulus"":""img/3to1/6.png"",""time"":607},{""stimulus"":""img/3to1/7.png"",""time"":694},{""stimulus"":""img/3to1/8.png"",""time"":795},{""stimulus"":""img/3to1/9.png"",""time"":905},{""stimulus"":""img/3to1/10.png"",""time"":990},{""stimulus"":""img/3to1/11.png"",""time"":1092},{""stimulus"":""img/3to1/12.png"",""time"":1200}]","[]"
"","","","observe","62715bfe8dcc19e21152dce0","bdp_cybrbll","Mon Mar 27 2023 23:41:18 GMT-0500 (Central Daylight Time)","537908","1","3","image-keyboard-response","126","239874","0.0-5.0-1.61","","null","","img/1to3/1.png","null","164","262","0.5","0.5","1","2","",""
"","","","","62715bfe8dcc19e21152dce0","bdp_cybrbll","Mon Mar 27 2023 23:41:18 GMT-0500 (Central Daylight Time)","537908","1","3","animation","127","241177","0.0-5.0-2.61","","","","","","164","","","","1","2","[{""stimulus"":""img/1to2/1.png"",""time"":109},{""stimulus"":""img/1to2/2.png"",""time"":200},{""stimulus"":""img/1to2/3.png"",""time"":298},{""stimulus"":""img/1to2/4.png"",""time"":403},{""stimulus"":""img/1to2/5.png"",""time"":497},{""stimulus"":""img/1to2/6.png"",""time"":596},{""stimulus"":""img/1to2/7.png"",""time"":698},{""stimulus"":""img/1to2/8.png"",""time"":793},{""stimulus"":""img/1to2/9.png"",""time"":899},{""stimulus"":""img/1to2/10.png"",""time"":993},{""stimulus"":""img/1to2/11.png"",""time"":1103},{""stimulus"":""img/1to2/12.png"",""time"":1195}]","[]"
"","","","choice","62715bfe8dcc19e21152dce0","bdp_cybrbll","Mon Mar 27 2023 23:41:18 GMT-0500 (Central Daylight Time)","537908","1","3","image-keyboard-response","128","241830","0.0-5.0-1.62","","652","","img/2to1/1.png","2","163","503","0.5","0.5","2","3","",""
"","","","","62715bfe8dcc19e21152dce0","bdp_cybrbll","Mon Mar 27 2023 23:41:18 GMT-0500 (Central Daylight Time)","537908","1","3","animation","129","243118","0.0-5.0-2.62","","","","","","163","","","","2","3","[{""stimulus"":""img/2to3/1.png"",""time"":109},{""stimulus"":""img/2to3/2.png"",""time"":199},{""stimulus"":""img/2to3/3.png"",""time"":298},{""stimulus"":""img/2to3/4.png"",""time"":397},{""stimulus"":""img/2to3/5.png"",""time"":499},{""stimulus"":""img/2to3/6.png"",""time"":609},{""stimulus"":""img/2to3/7.png"",""time"":703},{""stimulus"":""img/2to3/8.png"",""time"":795},{""stimulus"":""img/2to3/9.png"",""time"":892},{""stimulus"":""img/2to3/10.png"",""time"":997},{""stimulus"":""img/2to3/11.png"",""time"":1091},{""stimulus"":""img/2to3/12.png"",""time"":1200}]","[]"
"","","","observe","62715bfe8dcc19e21152dce0","bdp_cybrbll","Mon Mar 27 2023 23:41:18 GMT-0500 (Central Daylight Time)","537908","1","3","image-keyboard-response","130","243387","0.0-5.0-1.63","","null","","img/3to2/1.png","null","162","261","0.5","0.5","3","1","",""
"","","","","62715bfe8dcc19e21152dce0","bdp_cybrbll","Mon Mar 27 2023 23:41:18 GMT-0500 (Central Daylight Time)","537908","1","3","animation","131","244675","0.0-5.0-2.63","","","","","","162","","","","3","1","[{""stimulus"":""img/3to1/1.png"",""time"":110},{""stimulus"":""img/3to1/2.png"",""time"":203},{""stimulus"":""img/3to1/3.png"",""time"":312},{""stimulus"":""img/3to1/4.png"",""time"":405},{""stimulus"":""img/3to1/5.png"",""time"":498},{""stimulus"":""img/3to1/6.png"",""time"":595},{""stimulus"":""img/3to1/7.png"",""time"":699},{""stimulus"":""img/3to1/8.png"",""time"":808},{""stimulus"":""img/3to1/9.png"",""time"":901},{""stimulus"":""img/3to1/10.png"",""time"":994},{""stimulus"":""img/3to1/11.png"",""time"":1104},{""stimulus"":""img/3to1/12.png"",""time"":1198}]","[]"
"","","","observe","62715bfe8dcc19e21152dce0","bdp_cybrbll","Mon Mar 27 2023 23:41:18 GMT-0500 (Central Daylight Time)","537908","1","3","image-keyboard-response","132","245199","0.0-5.0-1.64","","null","","img/1to3/1.png","null","161","523","0.5","0.5","1","3","",""
"","","","","62715bfe8dcc19e21152dce0","bdp_cybrbll","Mon Mar 27 2023 23:41:18 GMT-0500 (Central Daylight Time)","537908","1","3","animation","133","246487","0.0-5.0-2.64","","","","","","161","","","","1","3","[{""stimulus"":""img/1to3/1.png"",""time"":101},{""stimulus"":""img/1to3/2.png"",""time"":199},{""stimulus"":""img/1to3/3.png"",""time"":298},{""stimulus"":""img/1to3/4.png"",""time"":397},{""stimulus"":""img/1to3/5.png"",""time"":505},{""stimulus"":""img/1to3/6.png"",""time"":598},{""stimulus"":""img/1to3/7.png"",""time"":708},{""stimulus"":""img/1to3/8.png"",""time"":801},{""stimulus"":""img/1to3/9.png"",""time"":894},{""stimulus"":""img/1to3/10.png"",""time"":1004},{""stimulus"":""img/1to3/11.png"",""time"":1090},{""stimulus"":""img/1to3/12.png"",""time"":1190}]","[]"
"","","","observe","62715bfe8dcc19e21152dce0","bdp_cybrbll","Mon Mar 27 2023 23:41:18 GMT-0500 (Central Daylight Time)","537908","1","3","image-keyboard-response","134","247181","0.0-5.0-1.65","","null","","img/3to2/1.png","null","160","686","0.5","0.5","3","1","",""
"","","","","62715bfe8dcc19e21152dce0","bdp_cybrbll","Mon Mar 27 2023 23:41:18 GMT-0500 (Central Daylight Time)","537908","1","3","animation","135","248471","0.0-5.0-2.65","","","","","","160","","","","3","1","[{""stimulus"":""img/3to1/1.png"",""time"":109},{""stimulus"":""img/3to1/2.png"",""time"":199},{""stimulus"":""img/3to1/3.png"",""time"":298},{""stimulus"":""img/3to1/4.png"",""time"":403},{""stimulus"":""img/3to1/5.png"",""time"":498},{""stimulus"":""img/3to1/6.png"",""time"":606},{""stimulus"":""img/3to1/7.png"",""time"":698},{""stimulus"":""img/3to1/8.png"",""time"":808},{""stimulus"":""img/3to1/9.png"",""time"":901},{""stimulus"":""img/3to1/10.png"",""time"":994},{""stimulus"":""img/3to1/11.png"",""time"":1104},{""stimulus"":""img/3to1/12.png"",""time"":1196}]","[]"
"","","","observe","62715bfe8dcc19e21152dce0","bdp_cybrbll","Mon Mar 27 2023 23:41:18 GMT-0500 (Central Daylight Time)","537908","1","3","image-keyboard-response","136","248644","0.0-5.0-1.66","","null","","img/1to3/1.png","null","159","162","0.5","0.5","1","3","",""
"","","","","62715bfe8dcc19e21152dce0","bdp_cybrbll","Mon Mar 27 2023 23:41:18 GMT-0500 (Central Daylight Time)","537908","1","3","animation","137","249937","0.0-5.0-2.66","","","","","","159","","","","1","3","[{""stimulus"":""img/1to3/1.png"",""time"":109},{""stimulus"":""img/1to3/2.png"",""time"":203},{""stimulus"":""img/1to3/3.png"",""time"":313},{""stimulus"":""img/1to3/4.png"",""time"":406},{""stimulus"":""img/1to3/5.png"",""time"":499},{""stimulus"":""img/1to3/6.png"",""time"":595},{""stimulus"":""img/1to3/7.png"",""time"":694},{""stimulus"":""img/1to3/8.png"",""time"":795},{""stimulus"":""img/1to3/9.png"",""time"":892},{""stimulus"":""img/1to3/10.png"",""time"":992},{""stimulus"":""img/1to3/11.png"",""time"":1092},{""stimulus"":""img/1to3/12.png"",""time"":1200}]","[]"
"","","","observe","62715bfe8dcc19e21152dce0","bdp_cybrbll","Mon Mar 27 2023 23:41:18 GMT-0500 (Central Daylight Time)","537908","1","3","image-keyboard-response","138","250479","0.0-5.0-1.67","","null","","img/3to2/1.png","null","158","536","0.5","0.5","3","2","",""
"","","","","62715bfe8dcc19e21152dce0","bdp_cybrbll","Mon Mar 27 2023 23:41:18 GMT-0500 (Central Daylight Time)","537908","1","3","animation","139","251770","0.0-5.0-2.67","","","","","","158","","","","3","2","[{""stimulus"":""img/3to2/1.png"",""time"":109},{""stimulus"":""img/3to2/2.png"",""time"":201},{""stimulus"":""img/3to2/3.png"",""time"":309},{""stimulus"":""img/3to2/4.png"",""time"":403},{""stimulus"":""img/3to2/5.png"",""time"":495},{""stimulus"":""img/3to2/6.png"",""time"":604},{""stimulus"":""img/3to2/7.png"",""time"":697},{""stimulus"":""img/3to2/8.png"",""time"":806},{""stimulus"":""img/3to2/9.png"",""time"":891},{""stimulus"":""img/3to2/10.png"",""time"":990},{""stimulus"":""img/3to2/11.png"",""time"":1103},{""stimulus"":""img/3to2/12.png"",""time"":1196}]","[]"
"","","","choice","62715bfe8dcc19e21152dce0","bdp_cybrbll","Mon Mar 27 2023 23:41:18 GMT-0500 (Central Daylight Time)","537908","1","3","image-keyboard-response","140","252235","0.0-5.0-1.68","","464","","img/2to1/1.png","1","157","668","0.5","0.5","2","1","",""
"","","","","62715bfe8dcc19e21152dce0","bdp_cybrbll","Mon Mar 27 2023 23:41:18 GMT-0500 (Central Daylight Time)","537908","1","3","animation","141","253526","0.0-5.0-2.68","","","","","","157","","","","2","1","[{""stimulus"":""img/2to1/1.png"",""time"":111},{""stimulus"":""img/2to1/2.png"",""time"":204},{""stimulus"":""img/2to1/3.png"",""time"":298},{""stimulus"":""img/2to1/4.png"",""time"":407},{""stimulus"":""img/2to1/5.png"",""time"":500},{""stimulus"":""img/2to1/6.png"",""time"":608},{""stimulus"":""img/2to1/7.png"",""time"":701},{""stimulus"":""img/2to1/8.png"",""time"":795},{""stimulus"":""img/2to1/9.png"",""time"":903},{""stimulus"":""img/2to1/10.png"",""time"":996},{""stimulus"":""img/2to1/11.png"",""time"":1104},{""stimulus"":""img/2to1/12.png"",""time"":1197}]","[]"
"","","","observe","62715bfe8dcc19e21152dce0","bdp_cybrbll","Mon Mar 27 2023 23:41:18 GMT-0500 (Central Daylight Time)","537908","1","3","image-keyboard-response","142","253806","0.0-5.0-1.69","","null","","img/1to3/1.png","null","156","265","0.5","0.5","1","3","",""
"","","","","62715bfe8dcc19e21152dce0","bdp_cybrbll","Mon Mar 27 2023 23:41:18 GMT-0500 (Central Daylight Time)","537908","1","3","animation","143","255101","0.0-5.0-2.69","","","","","","156","","","","1","3","[{""stimulus"":""img/1to3/1.png"",""time"":111},{""stimulus"":""img/1to3/2.png"",""time"":204},{""stimulus"":""img/1to3/3.png"",""time"":298},{""stimulus"":""img/1to3/4.png"",""time"":397},{""stimulus"":""img/1to3/5.png"",""time"":496},{""stimulus"":""img/1to3/6.png"",""time"":609},{""stimulus"":""img/1to3/7.png"",""time"":704},{""stimulus"":""img/1to3/8.png"",""time"":793},{""stimulus"":""img/1to3/9.png"",""time"":892},{""stimulus"":""img/1to3/10.png"",""time"":1000},{""stimulus"":""img/1to3/11.png"",""time"":1090},{""stimulus"":""img/1to3/12.png"",""time"":1201}]","[]"
"","","","observe","62715bfe8dcc19e21152dce0","bdp_cybrbll","Mon Mar 27 2023 23:41:18 GMT-0500 (Central Daylight Time)","537908","1","3","image-keyboard-response","144","255380","0.0-5.0-1.70","","null","","img/3to2/1.png","null","155","264","0.5","0.5","3","1","",""
"","","","","62715bfe8dcc19e21152dce0","bdp_cybrbll","Mon Mar 27 2023 23:41:18 GMT-0500 (Central Daylight Time)","537908","1","3","animation","145","256670","0.0-5.0-2.70","","","","","","155","","","","3","1","[{""stimulus"":""img/3to1/1.png"",""time"":109},{""stimulus"":""img/3to1/2.png"",""time"":202},{""stimulus"":""img/3to1/3.png"",""time"":310},{""stimulus"":""img/3to1/4.png"",""time"":403},{""stimulus"":""img/3to1/5.png"",""time"":495},{""stimulus"":""img/3to1/6.png"",""time"":603},{""stimulus"":""img/3to1/7.png"",""time"":697},{""stimulus"":""img/3to1/8.png"",""time"":807},{""stimulus"":""img/3to1/9.png"",""time"":899},{""stimulus"":""img/3to1/10.png"",""time"":992},{""stimulus"":""img/3to1/11.png"",""time"":1101},{""stimulus"":""img/3to1/12.png"",""time"":1195}]","[]"
"","","","observe","62715bfe8dcc19e21152dce0","bdp_cybrbll","Mon Mar 27 2023 23:41:18 GMT-0500 (Central Daylight Time)","537908","1","3","image-keyboard-response","146","257012","0.0-5.0-1.71","","null","","img/1to3/1.png","null","154","340","0.5","0.5","1","2","",""
"","","","","62715bfe8dcc19e21152dce0","bdp_cybrbll","Mon Mar 27 2023 23:41:18 GMT-0500 (Central Daylight Time)","537908","1","3","animation","147","258307","0.0-5.0-2.71","","","","","","154","","","","1","2","[{""stimulus"":""img/1to2/1.png"",""time"":109},{""stimulus"":""img/1to2/2.png"",""time"":199},{""stimulus"":""img/1to2/3.png"",""time"":310},{""stimulus"":""img/1to2/4.png"",""time"":403},{""stimulus"":""img/1to2/5.png"",""time"":496},{""stimulus"":""img/1to2/6.png"",""time"":607},{""stimulus"":""img/1to2/7.png"",""time"":701},{""stimulus"":""img/1to2/8.png"",""time"":796},{""stimulus"":""img/1to2/9.png"",""time"":905},{""stimulus"":""img/1to2/10.png"",""time"":999},{""stimulus"":""img/1to2/11.png"",""time"":1093},{""stimulus"":""img/1to2/12.png"",""time"":1202}]","[]"
"","","","choice","62715bfe8dcc19e21152dce0","bdp_cybrbll","Mon Mar 27 2023 23:41:18 GMT-0500 (Central Daylight Time)","537908","1","3","image-keyboard-response","148","258328","0.0-5.0-1.72","","20","","img/2to1/1.png","2","153","273","0.5","0.5","2","3","",""
"","","","","62715bfe8dcc19e21152dce0","bdp_cybrbll","Mon Mar 27 2023 23:41:18 GMT-0500 (Central Daylight Time)","537908","1","3","animation","149","259618","0.0-5.0-2.72","","","","","","153","","","","2","3","[{""stimulus"":""img/2to3/1.png"",""time"":103},{""stimulus"":""img/2to3/2.png"",""time"":214},{""stimulus"":""img/2to3/3.png"",""time"":308},{""stimulus"":""img/2to3/4.png"",""time"":400},{""stimulus"":""img/2to3/5.png"",""time"":495},{""stimulus"":""img/2to3/6.png"",""time"":603},{""stimulus"":""img/2to3/7.png"",""time"":697},{""stimulus"":""img/2to3/8.png"",""time"":793},{""stimulus"":""img/2to3/9.png"",""time"":901},{""stimulus"":""img/2to3/10.png"",""time"":995},{""stimulus"":""img/2to3/11.png"",""time"":1103},{""stimulus"":""img/2to3/12.png"",""time"":1196}]","[]"
"","","","observe","62715bfe8dcc19e21152dce0","bdp_cybrbll","Mon Mar 27 2023 23:41:18 GMT-0500 (Central Daylight Time)","537908","1","3","image-keyboard-response","150","259977","0.0-5.0-1.73","","null","","img/3to2/1.png","null","152","348","0.5","0.5","3","1","",""
"","","","","62715bfe8dcc19e21152dce0","bdp_cybrbll","Mon Mar 27 2023 23:41:18 GMT-0500 (Central Daylight Time)","537908","1","3","animation","151","261273","0.0-5.0-2.73","","","","","","152","","","","3","1","[{""stimulus"":""img/3to1/1.png"",""time"":109},{""stimulus"":""img/3to1/2.png"",""time"":199},{""stimulus"":""img/3to1/3.png"",""time"":299},{""stimulus"":""img/3to1/4.png"",""time"":408},{""stimulus"":""img/3to1/5.png"",""time"":500},{""stimulus"":""img/3to1/6.png"",""time"":594},{""stimulus"":""img/3to1/7.png"",""time"":703},{""stimulus"":""img/3to1/8.png"",""time"":798},{""stimulus"":""img/3to1/9.png"",""time"":893},{""stimulus"":""img/3to1/10.png"",""time"":1002},{""stimulus"":""img/3to1/11.png"",""time"":1094},{""stimulus"":""img/3to1/12.png"",""time"":1203}]","[]"
"","","","observe","62715bfe8dcc19e21152dce0","bdp_cybrbll","Mon Mar 27 2023 23:41:18 GMT-0500 (Central Daylight Time)","537908","1","3","image-keyboard-response","152","261769","0.0-5.0-1.74","","null","","img/1to3/1.png","null","151","493","0.5","0.5","1","3","",""
"","","","","62715bfe8dcc19e21152dce0","bdp_cybrbll","Mon Mar 27 2023 23:41:18 GMT-0500 (Central Daylight Time)","537908","1","3","animation","153","263062","0.0-5.0-2.74","","","","","","151","","","","1","3","[{""stimulus"":""img/1to3/1.png"",""time"":108},{""stimulus"":""img/1to3/2.png"",""time"":202},{""stimulus"":""img/1to3/3.png"",""time"":312},{""stimulus"":""img/1to3/4.png"",""time"":405},{""stimulus"":""img/1to3/5.png"",""time"":498},{""stimulus"":""img/1to3/6.png"",""time"":607},{""stimulus"":""img/1to3/7.png"",""time"":701},{""stimulus"":""img/1to3/8.png"",""time"":794},{""stimulus"":""img/1to3/9.png"",""time"":892},{""stimulus"":""img/1to3/10.png"",""time"":996},{""stimulus"":""img/1to3/11.png"",""time"":1105},{""stimulus"":""img/1to3/12.png"",""time"":1189}]","[]"
"","","","observe","62715bfe8dcc19e21152dce0","bdp_cybrbll","Mon Mar 27 2023 23:41:18 GMT-0500 (Central Daylight Time)","537908","1","3","image-keyboard-response","154","263745","0.0-5.0-1.75","","null","","img/3to2/1.png","null","150","674","0.5","0.5","3","1","",""
"","","","","62715bfe8dcc19e21152dce0","bdp_cybrbll","Mon Mar 27 2023 23:41:18 GMT-0500 (Central Daylight Time)","537908","1","3","animation","155","265038","0.0-5.0-2.75","","","","","","150","","","","3","1","[{""stimulus"":""img/3to1/1.png"",""time"":108},{""stimulus"":""img/3to1/2.png"",""time"":202},{""stimulus"":""img/3to1/3.png"",""time"":311},{""stimulus"":""img/3to1/4.png"",""time"":397},{""stimulus"":""img/3to1/5.png"",""time"":496},{""stimulus"":""img/3to1/6.png"",""time"":595},{""stimulus"":""img/3to1/7.png"",""time"":694},{""stimulus"":""img/3to1/8.png"",""time"":794},{""stimulus"":""img/3to1/9.png"",""time"":903},{""stimulus"":""img/3to1/10.png"",""time"":996},{""stimulus"":""img/3to1/11.png"",""time"":1091},{""stimulus"":""img/3to1/12.png"",""time"":1201}]","[]"
"","","","observe","62715bfe8dcc19e21152dce0","bdp_cybrbll","Mon Mar 27 2023 23:41:18 GMT-0500 (Central Daylight Time)","537908","1","3","image-keyboard-response","156","265861","0.0-5.0-1.76","","null","","img/1to3/1.png","null","149","819","0.5","0.1","1","2","",""
"","","","","62715bfe8dcc19e21152dce0","bdp_cybrbll","Mon Mar 27 2023 23:41:18 GMT-0500 (Central Daylight Time)","537908","1","3","animation","157","267151","0.0-5.0-2.76","","","","","","149","","","","1","2","[{""stimulus"":""img/1to2/1.png"",""time"":108},{""stimulus"":""img/1to2/2.png"",""time"":201},{""stimulus"":""img/1to2/3.png"",""time"":310},{""stimulus"":""img/1to2/4.png"",""time"":403},{""stimulus"":""img/1to2/5.png"",""time"":497},{""stimulus"":""img/1to2/6.png"",""time"":606},{""stimulus"":""img/1to2/7.png"",""time"":693},{""stimulus"":""img/1to2/8.png"",""time"":808},{""stimulus"":""img/1to2/9.png"",""time"":901},{""stimulus"":""img/1to2/10.png"",""time"":994},{""stimulus"":""img/1to2/11.png"",""time"":1103},{""stimulus"":""img/1to2/12.png"",""time"":1188}]","[]"
"","","","choice","62715bfe8dcc19e21152dce0","bdp_cybrbll","Mon Mar 27 2023 23:41:18 GMT-0500 (Central Daylight Time)","537908","1","3","image-keyboard-response","158","267617","0.0-5.0-1.77","","465","","img/2to1/1.png","2","148","219","0.5","0.1","2","3","",""
"","","","","62715bfe8dcc19e21152dce0","bdp_cybrbll","Mon Mar 27 2023 23:41:18 GMT-0500 (Central Daylight Time)","537908","1","3","animation","159","268911","0.0-5.0-2.77","","","","","","148","","","","2","3","[{""stimulus"":""img/2to3/1.png"",""time"":109},{""stimulus"":""img/2to3/2.png"",""time"":203},{""stimulus"":""img/2to3/3.png"",""time"":312},{""stimulus"":""img/2to3/4.png"",""time"":405},{""stimulus"":""img/2to3/5.png"",""time"":499},{""stimulus"":""img/2to3/6.png"",""time"":607},{""stimulus"":""img/2to3/7.png"",""time"":701},{""stimulus"":""img/2to3/8.png"",""time"":794},{""stimulus"":""img/2to3/9.png"",""time"":903},{""stimulus"":""img/2to3/10.png"",""time"":997},{""stimulus"":""img/2to3/11.png"",""time"":1091},{""stimulus"":""img/2to3/12.png"",""time"":1200}]","[]"
"","","","observe","62715bfe8dcc19e21152dce0","bdp_cybrbll","Mon Mar 27 2023 23:41:18 GMT-0500 (Central Daylight Time)","537908","1","3","image-keyboard-response","160","269598","0.0-5.0-1.78","","null","","img/3to2/1.png","null","147","672","0.5","0.1","3","1","",""
"","","","","62715bfe8dcc19e21152dce0","bdp_cybrbll","Mon Mar 27 2023 23:41:18 GMT-0500 (Central Daylight Time)","537908","1","3","animation","161","270888","0.0-5.0-2.78","","","","","","147","","","","3","1","[{""stimulus"":""img/3to1/1.png"",""time"":110},{""stimulus"":""img/3to1/2.png"",""time"":203},{""stimulus"":""img/3to1/3.png"",""time"":311},{""stimulus"":""img/3to1/4.png"",""time"":403},{""stimulus"":""img/3to1/5.png"",""time"":496},{""stimulus"":""img/3to1/6.png"",""time"":605},{""stimulus"":""img/3to1/7.png"",""time"":699},{""stimulus"":""img/3to1/8.png"",""time"":807},{""stimulus"":""img/3to1/9.png"",""time"":893},{""stimulus"":""img/3to1/10.png"",""time"":994},{""stimulus"":""img/3to1/11.png"",""time"":1090},{""stimulus"":""img/3to1/12.png"",""time"":1197}]","[]"
"","","","observe","62715bfe8dcc19e21152dce0","bdp_cybrbll","Mon Mar 27 2023 23:41:18 GMT-0500 (Central Daylight Time)","537908","1","3","image-keyboard-response","162","271398","0.0-5.0-1.79","","null","","img/1to3/1.png","null","146","503","0.5","0.1","1","2","",""
"","","","","62715bfe8dcc19e21152dce0","bdp_cybrbll","Mon Mar 27 2023 23:41:18 GMT-0500 (Central Daylight Time)","537908","1","3","animation","163","272694","0.0-5.0-2.79","","","","","","146","","","","1","2","[{""stimulus"":""img/1to2/1.png"",""time"":110},{""stimulus"":""img/1to2/2.png"",""time"":199},{""stimulus"":""img/1to2/3.png"",""time"":297},{""stimulus"":""img/1to2/4.png"",""time"":405},{""stimulus"":""img/1to2/5.png"",""time"":498},{""stimulus"":""img/1to2/6.png"",""time"":606},{""stimulus"":""img/1to2/7.png"",""time"":694},{""stimulus"":""img/1to2/8.png"",""time"":794},{""stimulus"":""img/1to2/9.png"",""time"":903},{""stimulus"":""img/1to2/10.png"",""time"":998},{""stimulus"":""img/1to2/11.png"",""time"":1093},{""stimulus"":""img/1to2/12.png"",""time"":1202}]","[]"
"","","","choice","62715bfe8dcc19e21152dce0","bdp_cybrbll","Mon Mar 27 2023 23:41:18 GMT-0500 (Central Daylight Time)","537908","1","3","image-keyboard-response","164","273236","0.0-5.0-1.80","","541","","img/2to1/1.png","1","145","604","0.5","0.1","2","1","",""
"","","","","62715bfe8dcc19e21152dce0","bdp_cybrbll","Mon Mar 27 2023 23:41:18 GMT-0500 (Central Daylight Time)","537908","1","3","animation","165","274530","0.0-5.0-2.80","","","","","","145","","","","2","1","[{""stimulus"":""img/2to1/1.png"",""time"":111},{""stimulus"":""img/2to1/2.png"",""time"":203},{""stimulus"":""img/2to1/3.png"",""time"":313},{""stimulus"":""img/2to1/4.png"",""time"":406},{""stimulus"":""img/2to1/5.png"",""time"":499},{""stimulus"":""img/2to1/6.png"",""time"":608},{""stimulus"":""img/2to1/7.png"",""time"":702},{""stimulus"":""img/2to1/8.png"",""time"":797},{""stimulus"":""img/2to1/9.png"",""time"":892},{""stimulus"":""img/2to1/10.png"",""time"":1000},{""stimulus"":""img/2to1/11.png"",""time"":1092},{""stimulus"":""img/2to1/12.png"",""time"":1201}]","[]"
"","","","observe","62715bfe8dcc19e21152dce0","bdp_cybrbll","Mon Mar 27 2023 23:41:18 GMT-0500 (Central Daylight Time)","537908","1","3","image-keyboard-response","166","274949","0.0-5.0-1.81","","null","","img/1to3/1.png","null","144","416","0.5","0.1","1","3","",""
"","","","","62715bfe8dcc19e21152dce0","bdp_cybrbll","Mon Mar 27 2023 23:41:18 GMT-0500 (Central Daylight Time)","537908","1","3","animation","167","276237","0.0-5.0-2.81","","","","","","144","","","","1","3","[{""stimulus"":""img/1to3/1.png"",""time"":109},{""stimulus"":""img/1to3/2.png"",""time"":203},{""stimulus"":""img/1to3/3.png"",""time"":298},{""stimulus"":""img/1to3/4.png"",""time"":406},{""stimulus"":""img/1to3/5.png"",""time"":500},{""stimulus"":""img/1to3/6.png"",""time"":609},{""stimulus"":""img/1to3/7.png"",""time"":703},{""stimulus"":""img/1to3/8.png"",""time"":796},{""stimulus"":""img/1to3/9.png"",""time"":906},{""stimulus"":""img/1to3/10.png"",""time"":999},{""stimulus"":""img/1to3/11.png"",""time"":1091},{""stimulus"":""img/1to3/12.png"",""time"":1199}]","[]"
"","","","observe","62715bfe8dcc19e21152dce0","bdp_cybrbll","Mon Mar 27 2023 23:41:18 GMT-0500 (Central Daylight Time)","537908","1","3","image-keyboard-response","168","276552","0.0-5.0-1.82","","null","","img/3to2/1.png","null","143","313","0.5","0.1","3","2","",""
"","","","","62715bfe8dcc19e21152dce0","bdp_cybrbll","Mon Mar 27 2023 23:41:18 GMT-0500 (Central Daylight Time)","537908","1","3","animation","169","277845","0.0-5.0-2.82","","","","","","143","","","","3","2","[{""stimulus"":""img/3to2/1.png"",""time"":110},{""stimulus"":""img/3to2/2.png"",""time"":203},{""stimulus"":""img/3to2/3.png"",""time"":312},{""stimulus"":""img/3to2/4.png"",""time"":405},{""stimulus"":""img/3to2/5.png"",""time"":498},{""stimulus"":""img/3to2/6.png"",""time"":607},{""stimulus"":""img/3to2/7.png"",""time"":700},{""stimulus"":""img/3to2/8.png"",""time"":795},{""stimulus"":""img/3to2/9.png"",""time"":904},{""stimulus"":""img/3to2/10.png"",""time"":997},{""stimulus"":""img/3to2/11.png"",""time"":1091},{""stimulus"":""img/3to2/12.png"",""time"":1200}]","[]"
"","","","choice","62715bfe8dcc19e21152dce0","bdp_cybrbll","Mon Mar 27 2023 23:41:18 GMT-0500 (Central Daylight Time)","537908","1","3","image-keyboard-response","170","278537","0.0-5.0-1.83","","691","","img/2to1/1.png","2","142","691","0.5","0.1","2","3","",""
"","","","","62715bfe8dcc19e21152dce0","bdp_cybrbll","Mon Mar 27 2023 23:41:18 GMT-0500 (Central Daylight Time)","537908","1","3","animation","171","279824","0.0-5.0-2.83","","","","","","142","","","","2","3","[{""stimulus"":""img/2to3/1.png"",""time"":100},{""stimulus"":""img/2to3/2.png"",""time"":208},{""stimulus"":""img/2to3/3.png"",""time"":302},{""stimulus"":""img/2to3/4.png"",""time"":412},{""stimulus"":""img/2to3/5.png"",""time"":504},{""stimulus"":""img/2to3/6.png"",""time"":597},{""stimulus"":""img/2to3/7.png"",""time"":706},{""stimulus"":""img/2to3/8.png"",""time"":799},{""stimulus"":""img/2to3/9.png"",""time"":893},{""stimulus"":""img/2to3/10.png"",""time"":1003},{""stimulus"":""img/2to3/11.png"",""time"":1098},{""stimulus"":""img/2to3/12.png"",""time"":1190}]","[]"
"","","","observe","62715bfe8dcc19e21152dce0","bdp_cybrbll","Mon Mar 27 2023 23:41:18 GMT-0500 (Central Daylight Time)","537908","1","3","image-keyboard-response","172","280814","0.0-5.0-1.84","","null","","img/3to2/1.png","null","141","979","0.5","0.1","3","1","",""
"","","","","62715bfe8dcc19e21152dce0","bdp_cybrbll","Mon Mar 27 2023 23:41:18 GMT-0500 (Central Daylight Time)","537908","1","3","animation","173","282107","0.0-5.0-2.84","","","","","","141","","","","3","1","[{""stimulus"":""img/3to1/1.png"",""time"":109},{""stimulus"":""img/3to1/2.png"",""time"":203},{""stimulus"":""img/3to1/3.png"",""time"":313},{""stimulus"":""img/3to1/4.png"",""time"":396},{""stimulus"":""img/3to1/5.png"",""time"":498},{""stimulus"":""img/3to1/6.png"",""time"":606},{""stimulus"":""img/3to1/7.png"",""time"":701},{""stimulus"":""img/3to1/8.png"",""time"":793},{""stimulus"":""img/3to1/9.png"",""time"":903},{""stimulus"":""img/3to1/10.png"",""time"":997},{""stimulus"":""img/3to1/11.png"",""time"":1090},{""stimulus"":""img/3to1/12.png"",""time"":1199}]","[]"
"","","","observe","62715bfe8dcc19e21152dce0","bdp_cybrbll","Mon Mar 27 2023 23:41:18 GMT-0500 (Central Daylight Time)","537908","1","3","image-keyboard-response","174","282713","0.0-5.0-1.85","","null","","img/1to3/1.png","null","140","595","0.5","0.1","1","3","",""
"","","","","62715bfe8dcc19e21152dce0","bdp_cybrbll","Mon Mar 27 2023 23:41:18 GMT-0500 (Central Daylight Time)","537908","1","3","animation","175","284003","0.0-5.0-2.85","","","","","","140","","","","1","3","[{""stimulus"":""img/1to3/1.png"",""time"":109},{""stimulus"":""img/1to3/2.png"",""time"":202},{""stimulus"":""img/1to3/3.png"",""time"":310},{""stimulus"":""img/1to3/4.png"",""time"":403},{""stimulus"":""img/1to3/5.png"",""time"":496},{""stimulus"":""img/1to3/6.png"",""time"":607},{""stimulus"":""img/1to3/7.png"",""time"":699},{""stimulus"":""img/1to3/8.png"",""time"":793},{""stimulus"":""img/1to3/9.png"",""time"":901},{""stimulus"":""img/1to3/10.png"",""time"":991},{""stimulus"":""img/1to3/11.png"",""time"":1103},{""stimulus"":""img/1to3/12.png"",""time"":1189}]","[]"
"","","","observe","62715bfe8dcc19e21152dce0","bdp_cybrbll","Mon Mar 27 2023 23:41:18 GMT-0500 (Central Daylight Time)","537908","1","3","image-keyboard-response","176","284498","0.0-5.0-1.86","","null","","img/3to2/1.png","null","139","483","0.5","0.1","3","1","",""
"","","","","62715bfe8dcc19e21152dce0","bdp_cybrbll","Mon Mar 27 2023 23:41:18 GMT-0500 (Central Daylight Time)","537908","1","3","animation","177","285788","0.0-5.0-2.86","","","","","","139","","","","3","1","[{""stimulus"":""img/3to1/1.png"",""time"":108},{""stimulus"":""img/3to1/2.png"",""time"":199},{""stimulus"":""img/3to1/3.png"",""time"":298},{""stimulus"":""img/3to1/4.png"",""time"":404},{""stimulus"":""img/3to1/5.png"",""time"":498},{""stimulus"":""img/3to1/6.png"",""time"":606},{""stimulus"":""img/3to1/7.png"",""time"":694},{""stimulus"":""img/3to1/8.png"",""time"":793},{""stimulus"":""img/3to1/9.png"",""time"":902},{""stimulus"":""img/3to1/10.png"",""time"":994},{""stimulus"":""img/3to1/11.png"",""time"":1103},{""stimulus"":""img/3to1/12.png"",""time"":1188}]","[]"
"","","","observe","62715bfe8dcc19e21152dce0","bdp_cybrbll","Mon Mar 27 2023 23:41:18 GMT-0500 (Central Daylight Time)","537908","1","3","image-keyboard-response","178","286176","0.0-5.0-1.87","","null","","img/1to3/1.png","null","138","372","0.5","0.1","1","3","",""
"","","","","62715bfe8dcc19e21152dce0","bdp_cybrbll","Mon Mar 27 2023 23:41:18 GMT-0500 (Central Daylight Time)","537908","1","3","animation","179","287467","0.0-5.0-2.87","","","","","","138","","","","1","3","[{""stimulus"":""img/1to3/1.png"",""time"":109},{""stimulus"":""img/1to3/2.png"",""time"":202},{""stimulus"":""img/1to3/3.png"",""time"":310},{""stimulus"":""img/1to3/4.png"",""time"":405},{""stimulus"":""img/1to3/5.png"",""time"":496},{""stimulus"":""img/1to3/6.png"",""time"":594},{""stimulus"":""img/1to3/7.png"",""time"":701},{""stimulus"":""img/1to3/8.png"",""time"":794},{""stimulus"":""img/1to3/9.png"",""time"":903},{""stimulus"":""img/1to3/10.png"",""time"":996},{""stimulus"":""img/1to3/11.png"",""time"":1090},{""stimulus"":""img/1to3/12.png"",""time"":1198}]","[]"
"","","","observe","62715bfe8dcc19e21152dce0","bdp_cybrbll","Mon Mar 27 2023 23:41:18 GMT-0500 (Central Daylight Time)","537908","1","3","image-keyboard-response","180","288213","0.0-5.0-1.88","","null","","img/3to2/1.png","null","137","736","0.5","0.1","3","1","",""
"","","","","62715bfe8dcc19e21152dce0","bdp_cybrbll","Mon Mar 27 2023 23:41:18 GMT-0500 (Central Daylight Time)","537908","1","3","animation","181","289505","0.0-5.0-2.88","","","","","","137","","","","3","1","[{""stimulus"":""img/3to1/1.png"",""time"":109},{""stimulus"":""img/3to1/2.png"",""time"":202},{""stimulus"":""img/3to1/3.png"",""time"":312},{""stimulus"":""img/3to1/4.png"",""time"":406},{""stimulus"":""img/3to1/5.png"",""time"":499},{""stimulus"":""img/3to1/6.png"",""time"":595},{""stimulus"":""img/3to1/7.png"",""time"":700},{""stimulus"":""img/3to1/8.png"",""time"":794},{""stimulus"":""img/3to1/9.png"",""time"":903},{""stimulus"":""img/3to1/10.png"",""time"":997},{""stimulus"":""img/3to1/11.png"",""time"":1091},{""stimulus"":""img/3to1/12.png"",""time"":1199}]","[]"
"","","","observe","62715bfe8dcc19e21152dce0","bdp_cybrbll","Mon Mar 27 2023 23:41:18 GMT-0500 (Central Daylight Time)","537908","1","3","image-keyboard-response","182","289754","0.0-5.0-1.89","","null","","img/1to3/1.png","null","136","247","0.5","0.1","1","2","",""
"","","","","62715bfe8dcc19e21152dce0","bdp_cybrbll","Mon Mar 27 2023 23:41:18 GMT-0500 (Central Daylight Time)","537908","1","3","animation","183","291047","0.0-5.0-2.89","","","","","","136","","","","1","2","[{""stimulus"":""img/1to2/1.png"",""time"":108},{""stimulus"":""img/1to2/2.png"",""time"":202},{""stimulus"":""img/1to2/3.png"",""time"":311},{""stimulus"":""img/1to2/4.png"",""time"":404},{""stimulus"":""img/1to2/5.png"",""time"":497},{""stimulus"":""img/1to2/6.png"",""time"":607},{""stimulus"":""img/1to2/7.png"",""time"":701},{""stimulus"":""img/1to2/8.png"",""time"":792},{""stimulus"":""img/1to2/9.png"",""time"":902},{""stimulus"":""img/1to2/10.png"",""time"":995},{""stimulus"":""img/1to2/11.png"",""time"":1090},{""stimulus"":""img/1to2/12.png"",""time"":1199}]","[]"
"","","","choice","62715bfe8dcc19e21152dce0","bdp_cybrbll","Mon Mar 27 2023 23:41:18 GMT-0500 (Central Daylight Time)","537908","1","3","image-keyboard-response","184","291302","0.0-5.0-1.90","","254","","img/2to1/1.png","2","135","841","0.5","0.1","2","3","",""
"","","","","62715bfe8dcc19e21152dce0","bdp_cybrbll","Mon Mar 27 2023 23:41:18 GMT-0500 (Central Daylight Time)","537908","1","3","animation","185","292590","0.0-5.0-2.90","","","","","","135","","","","2","3","[{""stimulus"":""img/2to3/1.png"",""time"":103},{""stimulus"":""img/2to3/2.png"",""time"":211},{""stimulus"":""img/2to3/3.png"",""time"":304},{""stimulus"":""img/2to3/4.png"",""time"":397},{""stimulus"":""img/2to3/5.png"",""time"":505},{""stimulus"":""img/2to3/6.png"",""time"":595},{""stimulus"":""img/2to3/7.png"",""time"":706},{""stimulus"":""img/2to3/8.png"",""time"":799},{""stimulus"":""img/2to3/9.png"",""time"":892},{""stimulus"":""img/2to3/10.png"",""time"":1002},{""stimulus"":""img/2to3/11.png"",""time"":1095},{""stimulus"":""img/2to3/12.png"",""time"":1188}]","[]"
"","","","observe","62715bfe8dcc19e21152dce0","bdp_cybrbll","Mon Mar 27 2023 23:41:18 GMT-0500 (Central Daylight Time)","537908","1","3","image-keyboard-response","186","293111","0.0-5.0-1.91","","null","","img/3to2/1.png","null","134","510","0.5","0.1","3","1","",""
"","","","","62715bfe8dcc19e21152dce0","bdp_cybrbll","Mon Mar 27 2023 23:41:18 GMT-0500 (Central Daylight Time)","537908","1","3","animation","187","294402","0.0-5.0-2.91","","","","","","134","","","","3","1","[{""stimulus"":""img/3to1/1.png"",""time"":108},{""stimulus"":""img/3to1/2.png"",""time"":199},{""stimulus"":""img/3to1/3.png"",""time"":309},{""stimulus"":""img/3to1/4.png"",""time"":404},{""stimulus"":""img/3to1/5.png"",""time"":498},{""stimulus"":""img/3to1/6.png"",""time"":606},{""stimulus"":""img/3to1/7.png"",""time"":700},{""stimulus"":""img/3to1/8.png"",""time"":794},{""stimulus"":""img/3to1/9.png"",""time"":903},{""stimulus"":""img/3to1/10.png"",""time"":991},{""stimulus"":""img/3to1/11.png"",""time"":1105},{""stimulus"":""img/3to1/12.png"",""time"":1198}]","[]"
"","","","observe","62715bfe8dcc19e21152dce0","bdp_cybrbll","Mon Mar 27 2023 23:41:18 GMT-0500 (Central Daylight Time)","537908","1","3","image-keyboard-response","188","294696","0.0-5.0-1.92","","null","","img/1to3/1.png","null","133","286","0.5","0.1","1","3","",""
"","","","","62715bfe8dcc19e21152dce0","bdp_cybrbll","Mon Mar 27 2023 23:41:18 GMT-0500 (Central Daylight Time)","537908","1","3","animation","189","295986","0.0-5.0-2.92","","","","","","133","","","","1","3","[{""stimulus"":""img/1to3/1.png"",""time"":108},{""stimulus"":""img/1to3/2.png"",""time"":201},{""stimulus"":""img/1to3/3.png"",""time"":311},{""stimulus"":""img/1to3/4.png"",""time"":403},{""stimulus"":""img/1to3/5.png"",""time"":497},{""stimulus"":""img/1to3/6.png"",""time"":594},{""stimulus"":""img/1to3/7.png"",""time"":699},{""stimulus"":""img/1to3/8.png"",""time"":792},{""stimulus"":""img/1to3/9.png"",""time"":901},{""stimulus"":""img/1to3/10.png"",""time"":994},{""stimulus"":""img/1to3/11.png"",""time"":1103},{""stimulus"":""img/1to3/12.png"",""time"":1188}]","[]"
"","","","observe","62715bfe8dcc19e21152dce0","bdp_cybrbll","Mon Mar 27 2023 23:41:18 GMT-0500 (Central Daylight Time)","537908","1","3","image-keyboard-response","190","296560","0.0-5.0-1.93","","null","","img/3to2/1.png","null","132","571","0.5","0.1","3","2","",""
