"trial_type","trial_index","time_elapsed","internal_node_id","subject_id","task","startTime","totalTime","fairPartner","unfairPartner","view_history","rt","event","trial","time","trialtype","success","stimulus","key_press","throwsLeft","rtDur","pFair","pUnfair","holder","receiver","animation_sequence","responses"
"pavlovia","0","2","0.0-0.0","5bf0cb0411439b000168edda","bdp_cybrbll","Sun Mar 26 2023 23:44:29 GMT-0400 (Eastern Daylight Time)","584903","3","1","","","","","","","","","","","","","","","","",""
"instructions","1","3003","0.0-1.0","5bf0cb0411439b000168edda","bdp_cybrbll","Sun Mar 26 2023 23:44:29 GMT-0400 (Eastern Daylight Time)","584903","3","1","[{""page_index"":0,""viewing_time"":3001}]","3001","","","","","","","","","","","","","","",""
"","","","","5bf0cb0411439b000168edda","bdp_cybrbll","Sun Mar 26 2023 23:44:29 GMT-0400 (Eastern Daylight Time)","584903","3","1","","","fullscreenenter","2","45943","fullscreenenter","","","","","","","","","","",""
"fullscreen","2","46933","0.0-2.0","5bf0cb0411439b000168edda","bdp_cybrbll","Sun Mar 26 2023 23:44:29 GMT-0400 (Eastern Daylight Time)","584903","3","1","","","","","","","true","","","","","","","","","",""
"instructions","3","144835","0.0-4.0","5bf0cb0411439b000168edda","bdp_cybrbll","Sun Mar 26 2023 23:44:29 GMT-0400 (Eastern Daylight Time)","584903","3","1","[{""page_index"":0,""viewing_time"":97901}]","97901","","","","","","","","","","","","","","",""
"image-keyboard-response","4","146307","0.0-5.0-1.0","5bf0cb0411439b000168edda","bdp_cybrbll","Sun Mar 26 2023 23:44:29 GMT-0400 (Eastern Daylight Time)","584903","3","1","","1470","","","","choice","","img/2to1/1.png","1","225","262","0.5","0.5","2","1","",""
"animation","5","147596","0.0-5.0-2.0","5bf0cb0411439b000168edda","bdp_cybrbll","Sun Mar 26 2023 23:44:29 GMT-0400 (Eastern Daylight Time)","584903","3","1","","","","","","","","","","225","","","","2","1","[{""stimulus"":""img/2to1/1.png"",""time"":100},{""stimulus"":""img/2to1/2.png"",""time"":198},{""stimulus"":""img/2to1/3.png"",""time"":313},{""stimulus"":""img/2to1/4.png"",""time"":396},{""stimulus"":""img/2to1/5.png"",""time"":496},{""stimulus"":""img/2to1/6.png"",""time"":595},{""stimulus"":""img/2to1/7.png"",""time"":694},{""stimulus"":""img/2to1/8.png"",""time"":793},{""stimulus"":""img/2to1/9.png"",""time"":892},{""stimulus"":""img/2to1/10.png"",""time"":991},{""stimulus"":""img/2to1/11.png"",""time"":1089},{""stimulus"":""img/2to1/12.png"",""time"":1189}]","[]"
"image-keyboard-response","6","147876","0.0-5.0-1.1","5bf0cb0411439b000168edda","bdp_cybrbll","Sun Mar 26 2023 23:44:29 GMT-0400 (Eastern Daylight Time)","584903","3","1","","null","","","","observe","","img/1to3/1.png","null","224","279","0.5","0.5","1","2","",""
"animation","7","149164","0.0-5.0-2.1","5bf0cb0411439b000168edda","bdp_cybrbll","Sun Mar 26 2023 23:44:29 GMT-0400 (Eastern Daylight Time)","584903","3","1","","","","","","","","","","224","","","","1","2","[{""stimulus"":""img/1to2/1.png"",""time"":100},{""stimulus"":""img/1to2/2.png"",""time"":200},{""stimulus"":""img/1to2/3.png"",""time"":298},{""stimulus"":""img/1to2/4.png"",""time"":398},{""stimulus"":""img/1to2/5.png"",""time"":496},{""stimulus"":""img/1to2/6.png"",""time"":595},{""stimulus"":""img/1to2/7.png"",""time"":694},{""stimulus"":""img/1to2/8.png"",""time"":793},{""stimulus"":""img/1to2/9.png"",""time"":892},{""stimulus"":""img/1to2/10.png"",""time"":991},{""stimulus"":""img/1to2/11.png"",""time"":1090},{""stimulus"":""img/1to2/12.png"",""time"":1189}]","[]"
"image-keyboard-response","8","149579","0.0-5.0-1.2","5bf0cb0411439b000168edda","bdp_cybrbll","Sun Mar 26 2023 23:44:29 GMT-0400 (Eastern Daylight Time)","584903","3","1","","415","","","","choice","","img/2to1/1.png","2","223","341","0.5","0.5","2","3","",""
"animation","9","150867","0.0-5.0-2.2","5bf0cb0411439b000168edda","bdp_cybrbll","Sun Mar 26 2023 23:44:29 GMT-0400 (Eastern Daylight Time)","584903","3","1","","","","","","","","","","223","","","","2","3","[{""stimulus"":""img/2to3/1.png"",""time"":100},{""stimulus"":""img/2to3/2.png"",""time"":198},{""stimulus"":""img/2to3/3.png"",""time"":298},{""stimulus"":""img/2to3/4.png"",""time"":398},{""stimulus"":""img/2to3/5.png"",""time"":496},{""stimulus"":""img/2to3/6.png"",""time"":595},{""stimulus"":""img/2to3/7.png"",""time"":693},{""stimulus"":""img/2to3/8.png"",""time"":793},{""stimulus"":""img/2to3/9.png"",""time"":892},{""stimulus"":""img/2to3/10.png"",""time"":990},{""stimulus"":""img/2to3/11.png"",""time"":1090},{""stimulus"":""img/2to3/12.png"",""time"":1189}]","[]"
"image-keyboard-response","10","151780","0.0-5.0-1.3","5bf0cb0411439b000168edda","bdp_cybrbll","Sun Mar 26 2023 23:44:29 GMT-0400 (Eastern Daylight Time)","584903","3","1","","null","","","","observe","","img/3to2/1.png","null","222","911","0.5","0.5","3","1","",""
"animation","11","153069","0.0-5.0-2.3","5bf0cb0411439b000168edda","bdp_cybrbll","Sun Mar 26 2023 23:44:29 GMT-0400 (Eastern Daylight Time)","584903","3","1","","","","","","","","","","222","","","","3","1","[{""stimulus"":""img/3to1/1.png"",""time"":100},{""stimulus"":""img/3to1/2.png"",""time"":199},{""stimulus"":""img/3to1/3.png"",""time"":298},{""stimulus"":""img/3to1/4.png"",""time"":397},{""stimulus"":""img/3to1/5.png"",""time"":496},{""stimulus"":""img/3to1/6.png"",""time"":606},{""stimulus"":""img/3to1/7.png"",""time"":695},{""stimulus"":""img/3to1/8.png"",""time"":793},{""stimulus"":""img/3to1/9.png"",""time"":892},{""stimulus"":""img/3to1/10.png"",""time"":990},{""stimulus"":""img/3to1/11.png"",""time"":1090},{""stimulus"":""img/3to1/12.png"",""time"":1189}]","[]"
"image-keyboard-response","12","153472","0.0-5.0-1.4","5bf0cb0411439b000168edda","bdp_cybrbll","Sun Mar 26 2023 23:44:29 GMT-0400 (Eastern Daylight Time)","584903","3","1","","null","","","","observe","","img/1to3/1.png","null","221","402","0.5","0.5","1","3","",""
"animation","13","154760","0.0-5.0-2.4","5bf0cb0411439b000168edda","bdp_cybrbll","Sun Mar 26 2023 23:44:29 GMT-0400 (Eastern Daylight Time)","584903","3","1","","","","","","","","","","221","","","","1","3","[{""stimulus"":""img/1to3/1.png"",""time"":99},{""stimulus"":""img/1to3/2.png"",""time"":198},{""stimulus"":""img/1to3/3.png"",""time"":298},{""stimulus"":""img/1to3/4.png"",""time"":397},{""stimulus"":""img/1to3/5.png"",""time"":496},{""stimulus"":""img/1to3/6.png"",""time"":595},{""stimulus"":""img/1to3/7.png"",""time"":694},{""stimulus"":""img/1to3/8.png"",""time"":794},{""stimulus"":""img/1to3/9.png"",""time"":891},{""stimulus"":""img/1to3/10.png"",""time"":991},{""stimulus"":""img/1to3/11.png"",""time"":1089},{""stimulus"":""img/1to3/12.png"",""time"":1188}]","[]"
"image-keyboard-response","14","155550","0.0-5.0-1.5","5bf0cb0411439b000168edda","bdp_cybrbll","Sun Mar 26 2023 23:44:29 GMT-0400 (Eastern Daylight Time)","584903","3","1","","null","","","","observe","","img/3to2/1.png","null","220","789","0.5","0.5","3","1","",""
"animation","15","156837","0.0-5.0-2.5","5bf0cb0411439b000168edda","bdp_cybrbll","Sun Mar 26 2023 23:44:29 GMT-0400 (Eastern Daylight Time)","584903","3","1","","","","","","","","","","220","","","","3","1","[{""stimulus"":""img/3to1/1.png"",""time"":99},{""stimulus"":""img/3to1/2.png"",""time"":200},{""stimulus"":""img/3to1/3.png"",""time"":297},{""stimulus"":""img/3to1/4.png"",""time"":397},{""stimulus"":""img/3to1/5.png"",""time"":496},{""stimulus"":""img/3to1/6.png"",""time"":594},{""stimulus"":""img/3to1/7.png"",""time"":695},{""stimulus"":""img/3to1/8.png"",""time"":793},{""stimulus"":""img/3to1/9.png"",""time"":892},{""stimulus"":""img/3to1/10.png"",""time"":990},{""stimulus"":""img/3to1/11.png"",""time"":1090},{""stimulus"":""img/3to1/12.png"",""time"":1189}]","[]"
"image-keyboard-response","16","157599","0.0-5.0-1.6","5bf0cb0411439b000168edda","bdp_cybrbll","Sun Mar 26 2023 23:44:29 GMT-0400 (Eastern Daylight Time)","584903","3","1","","null","","","","observe","","img/1to3/1.png","null","219","761","0.5","0.5","1","2","",""
"animation","17","158887","0.0-5.0-2.6","5bf0cb0411439b000168edda","bdp_cybrbll","Sun Mar 26 2023 23:44:29 GMT-0400 (Eastern Daylight Time)","584903","3","1","","","","","","","","","","219","","","","1","2","[{""stimulus"":""img/1to2/1.png"",""time"":100},{""stimulus"":""img/1to2/2.png"",""time"":198},{""stimulus"":""img/1to2/3.png"",""time"":298},{""stimulus"":""img/1to2/4.png"",""time"":398},{""stimulus"":""img/1to2/5.png"",""time"":496},{""stimulus"":""img/1to2/6.png"",""time"":595},{""stimulus"":""img/1to2/7.png"",""time"":694},{""stimulus"":""img/1to2/8.png"",""time"":793},{""stimulus"":""img/1to2/9.png"",""time"":892},{""stimulus"":""img/1to2/10.png"",""time"":991},{""stimulus"":""img/1to2/11.png"",""time"":1090},{""stimulus"":""img/1to2/12.png"",""time"":1189}]","[]"
"image-keyboard-response","18","159331","0.0-5.0-1.7","5bf0cb0411439b000168edda","bdp_cybrbll","Sun Mar 26 2023 23:44:29 GMT-0400 (Eastern Daylight Time)","584903","3","1","","444","","","","choice","","img/2to1/1.png","2","218","206","0.5","0.5","2","3","",""
"animation","19","160619","0.0-5.0-2.7","5bf0cb0411439b000168edda","bdp_cybrbll","Sun Mar 26 2023 23:44:29 GMT-0400 (Eastern Daylight Time)","584903","3","1","","","","","","","","","","218","","","","2","3","[{""stimulus"":""img/2to3/1.png"",""time"":100},{""stimulus"":""img/2to3/2.png"",""time"":199},{""stimulus"":""img/2to3/3.png"",""time"":298},{""stimulus"":""img/2to3/4.png"",""time"":397},{""stimulus"":""img/2to3/5.png"",""time"":497},{""stimulus"":""img/2to3/6.png"",""time"":596},{""stimulus"":""img/2to3/7.png"",""time"":694},{""stimulus"":""img/2to3/8.png"",""time"":793},{""stimulus"":""img/2to3/9.png"",""time"":892},{""stimulus"":""img/2to3/10.png"",""time"":991},{""stimulus"":""img/2to3/11.png"",""time"":1091},{""stimulus"":""img/2to3/12.png"",""time"":1190}]","[]"
"image-keyboard-response","20","160779","0.0-5.0-1.8","5bf0cb0411439b000168edda","bdp_cybrbll","Sun Mar 26 2023 23:44:29 GMT-0400 (Eastern Daylight Time)","584903","3","1","","null","","","","observe","","img/3to2/1.png","null","217","158","0.5","0.5","3","2","",""
"animation","21","162068","0.0-5.0-2.8","5bf0cb0411439b000168edda","bdp_cybrbll","Sun Mar 26 2023 23:44:29 GMT-0400 (Eastern Daylight Time)","584903","3","1","","","","","","","","","","217","","","","3","2","[{""stimulus"":""img/3to2/1.png"",""time"":100},{""stimulus"":""img/3to2/2.png"",""time"":200},{""stimulus"":""img/3to2/3.png"",""time"":298},{""stimulus"":""img/3to2/4.png"",""time"":397},{""stimulus"":""img/3to2/5.png"",""time"":497},{""stimulus"":""img/3to2/6.png"",""time"":595},{""stimulus"":""img/3to2/7.png"",""time"":694},{""stimulus"":""img/3to2/8.png"",""time"":793},{""stimulus"":""img/3to2/9.png"",""time"":892},{""stimulus"":""img/3to2/10.png"",""time"":992},{""stimulus"":""img/3to2/11.png"",""time"":1090},{""stimulus"":""img/3to2/12.png"",""time"":1189}]","[]"
"image-keyboard-response","22","162546","0.0-5.0-1.9","5bf0cb0411439b000168edda","bdp_cybrbll","Sun Mar 26 2023 23:44:29 GMT-0400 (Eastern Daylight Time)","584903","3","1","","478","","","","choice","","img/2to1/1.png","1","216","331","0.5","0.5","2","1","",""
"animation","23","163834","0.0-5.0-2.9","5bf0cb0411439b000168edda","bdp_cybrbll","Sun Mar 26 2023 23:44:29 GMT-0400 (Eastern Daylight Time)","584903","3","1","","","","","","","","","","216","","","","2","1","[{""stimulus"":""img/2to1/1.png"",""time"":100},{""stimulus"":""img/2to1/2.png"",""time"":199},{""stimulus"":""img/2to1/3.png"",""time"":299},{""stimulus"":""img/2to1/4.png"",""time"":411},{""stimulus"":""img/2to1/5.png"",""time"":496},{""stimulus"":""img/2to1/6.png"",""time"":596},{""stimulus"":""img/2to1/7.png"",""time"":694},{""stimulus"":""img/2to1/8.png"",""time"":793},{""stimulus"":""img/2to1/9.png"",""time"":892},{""stimulus"":""img/2to1/10.png"",""time"":991},{""stimulus"":""img/2to1/11.png"",""time"":1090},{""stimulus"":""img/2to1/12.png"",""time"":1189}]","[]"
"image-keyboard-response","24","164307","0.0-5.0-1.10","5bf0cb0411439b000168edda","bdp_cybrbll","Sun Mar 26 2023 23:44:29 GMT-0400 (Eastern Daylight Time)","584903","3","1","","null","","","","observe","","img/1to3/1.png","null","215","472","0.5","0.5","1","2","",""
"animation","25","165595","0.0-5.0-2.10","5bf0cb0411439b000168edda","bdp_cybrbll","Sun Mar 26 2023 23:44:29 GMT-0400 (Eastern Daylight Time)","584903","3","1","","","","","","","","","","215","","","","1","2","[{""stimulus"":""img/1to2/1.png"",""time"":99},{""stimulus"":""img/1to2/2.png"",""time"":199},{""stimulus"":""img/1to2/3.png"",""time"":297},{""stimulus"":""img/1to2/4.png"",""time"":396},{""stimulus"":""img/1to2/5.png"",""time"":495},{""stimulus"":""img/1to2/6.png"",""time"":595},{""stimulus"":""img/1to2/7.png"",""time"":693},{""stimulus"":""img/1to2/8.png"",""time"":793},{""stimulus"":""img/1to2/9.png"",""time"":891},{""stimulus"":""img/1to2/10.png"",""time"":991},{""stimulus"":""img/1to2/11.png"",""time"":1090},{""stimulus"":""img/1to2/12.png"",""time"":1189}]","[]"
"image-keyboard-response","26","166771","0.0-5.0-1.11","5bf0cb0411439b000168edda","bdp_cybrbll","Sun Mar 26 2023 23:44:29 GMT-0400 (Eastern Daylight Time)","584903","3","1","","1175","","","","choice","","img/2to1/1.png","2","214","218","0.5","0.5","2","3","",""
"animation","27","168060","0.0-5.0-2.11","5bf0cb0411439b000168edda","bdp_cybrbll","Sun Mar 26 2023 23:44:29 GMT-0400 (Eastern Daylight Time)","584903","3","1","","","","","","","","","","214","","","","2","3","[{""stimulus"":""img/2to3/1.png"",""time"":100},{""stimulus"":""img/2to3/2.png"",""time"":199},{""stimulus"":""img/2to3/3.png"",""time"":298},{""stimulus"":""img/2to3/4.png"",""time"":397},{""stimulus"":""img/2to3/5.png"",""time"":495},{""stimulus"":""img/2to3/6.png"",""time"":594},{""stimulus"":""img/2to3/7.png"",""time"":694},{""stimulus"":""img/2to3/8.png"",""time"":793},{""stimulus"":""img/2to3/9.png"",""time"":892},{""stimulus"":""img/2to3/10.png"",""time"":991},{""stimulus"":""img/2to3/11.png"",""time"":1090},{""stimulus"":""img/2to3/12.png"",""time"":1188}]","[]"
"image-keyboard-response","28","168659","0.0-5.0-1.12","5bf0cb0411439b000168edda","bdp_cybrbll","Sun Mar 26 2023 23:44:29 GMT-0400 (Eastern Daylight Time)","584903","3","1","","null","","","","observe","","img/3to2/1.png","null","213","598","0.5","0.5","3","1","",""
"animation","29","169947","0.0-5.0-2.12","5bf0cb0411439b000168edda","bdp_cybrbll","Sun Mar 26 2023 23:44:29 GMT-0400 (Eastern Daylight Time)","584903","3","1","","","","","","","","","","213","","","","3","1","[{""stimulus"":""img/3to1/1.png"",""time"":100},{""stimulus"":""img/3to1/2.png"",""time"":200},{""stimulus"":""img/3to1/3.png"",""time"":299},{""stimulus"":""img/3to1/4.png"",""time"":398},{""stimulus"":""img/3to1/5.png"",""time"":496},{""stimulus"":""img/3to1/6.png"",""time"":596},{""stimulus"":""img/3to1/7.png"",""time"":694},{""stimulus"":""img/3to1/8.png"",""time"":793},{""stimulus"":""img/3to1/9.png"",""time"":892},{""stimulus"":""img/3to1/10.png"",""time"":991},{""stimulus"":""img/3to1/11.png"",""time"":1090},{""stimulus"":""img/3to1/12.png"",""time"":1189}]","[]"
"image-keyboard-response","30","170704","0.0-5.0-1.13","5bf0cb0411439b000168edda","bdp_cybrbll","Sun Mar 26 2023 23:44:29 GMT-0400 (Eastern Daylight Time)","584903","3","1","","null","","","","observe","","img/1to3/1.png","null","212","756","0.5","0.5","1","2","",""
"animation","31","171992","0.0-5.0-2.13","5bf0cb0411439b000168edda","bdp_cybrbll","Sun Mar 26 2023 23:44:29 GMT-0400 (Eastern Daylight Time)","584903","3","1","","","","","","","","","","212","","","","1","2","[{""stimulus"":""img/1to2/1.png"",""time"":101},{""stimulus"":""img/1to2/2.png"",""time"":199},{""stimulus"":""img/1to2/3.png"",""time"":298},{""stimulus"":""img/1to2/4.png"",""time"":397},{""stimulus"":""img/1to2/5.png"",""time"":496},{""stimulus"":""img/1to2/6.png"",""time"":596},{""stimulus"":""img/1to2/7.png"",""time"":695},{""stimulus"":""img/1to2/8.png"",""time"":794},{""stimulus"":""img/1to2/9.png"",""time"":893},{""stimulus"":""img/1to2/10.png"",""time"":992},{""stimulus"":""img/1to2/11.png"",""time"":1090},{""stimulus"":""img/1to2/12.png"",""time"":1189}]","[]"
"image-keyboard-response","32","172034","0.0-5.0-1.14","5bf0cb0411439b000168edda","bdp_cybrbll","Sun Mar 26 2023 23:44:29 GMT-0400 (Eastern Daylight Time)","584903","3","1","","42","","","","choice","","img/2to1/1.png","2","211","188","0.5","0.5","2","3","",""
"animation","33","173323","0.0-5.0-2.14","5bf0cb0411439b000168edda","bdp_cybrbll","Sun Mar 26 2023 23:44:29 GMT-0400 (Eastern Daylight Time)","584903","3","1","","","","","","","","","","211","","","","2","3","[{""stimulus"":""img/2to3/1.png"",""time"":101},{""stimulus"":""img/2to3/2.png"",""time"":200},{""stimulus"":""img/2to3/3.png"",""time"":298},{""stimulus"":""img/2to3/4.png"",""time"":397},{""stimulus"":""img/2to3/5.png"",""time"":497},{""stimulus"":""img/2to3/6.png"",""time"":595},{""stimulus"":""img/2to3/7.png"",""time"":695},{""stimulus"":""img/2to3/8.png"",""time"":794},{""stimulus"":""img/2to3/9.png"",""time"":892},{""stimulus"":""img/2to3/10.png"",""time"":991},{""stimulus"":""img/2to3/11.png"",""time"":1090},{""stimulus"":""img/2to3/12.png"",""time"":1189}]","[]"
"image-keyboard-response","34","173851","0.0-5.0-1.15","5bf0cb0411439b000168edda","bdp_cybrbll","Sun Mar 26 2023 23:44:29 GMT-0400 (Eastern Daylight Time)","584903","3","1","","null","","","","observe","","img/3to2/1.png","null","210","527","0.5","0.5","3","2","",""
"animation","35","175139","0.0-5.0-2.15","5bf0cb0411439b000168edda","bdp_cybrbll","Sun Mar 26 2023 23:44:29 GMT-0400 (Eastern Daylight Time)","584903","3","1","","","","","","","","","","210","","","","3","2","[{""stimulus"":""img/3to2/1.png"",""time"":100},{""stimulus"":""img/3to2/2.png"",""time"":199},{""stimulus"":""img/3to2/3.png"",""time"":298},{""stimulus"":""img/3to2/4.png"",""time"":397},{""stimulus"":""img/3to2/5.png"",""time"":496},{""stimulus"":""img/3to2/6.png"",""time"":595},{""stimulus"":""img/3to2/7.png"",""time"":694},{""stimulus"":""img/3to2/8.png"",""time"":793},{""stimulus"":""img/3to2/9.png"",""time"":892},{""stimulus"":""img/3to2/10.png"",""time"":991},{""stimulus"":""img/3to2/11.png"",""time"":1091},{""stimulus"":""img/3to2/12.png"",""time"":1189}]","[]"
"image-keyboard-response","36","175379","0.0-5.0-1.16","5bf0cb0411439b000168edda","bdp_cybrbll","Sun Mar 26 2023 23:44:29 GMT-0400 (Eastern Daylight Time)","584903","3","1","","239","","","","choice","","img/2to1/1.png","1","209","614","0.5","0.5","2","1","",""
"animation","37","176666","0.0-5.0-2.16","5bf0cb0411439b000168edda","bdp_cybrbll","Sun Mar 26 2023 23:44:29 GMT-0400 (Eastern Daylight Time)","584903","3","1","","","","","","","","","","209","","","","2","1","[{""stimulus"":""img/2to1/1.png"",""time"":101},{""stimulus"":""img/2to1/2.png"",""time"":199},{""stimulus"":""img/2to1/3.png"",""time"":298},{""stimulus"":""img/2to1/4.png"",""time"":397},{""stimulus"":""img/2to1/5.png"",""time"":496},{""stimulus"":""img/2to1/6.png"",""time"":595},{""stimulus"":""img/2to1/7.png"",""time"":694},{""stimulus"":""img/2to1/8.png"",""time"":792},{""stimulus"":""img/2to1/9.png"",""time"":891},{""stimulus"":""img/2to1/10.png"",""time"":991},{""stimulus"":""img/2to1/11.png"",""time"":1090},{""stimulus"":""img/2to1/12.png"",""time"":1189}]","[]"
"image-keyboard-response","38","177589","0.0-5.0-1.17","5bf0cb0411439b000168edda","bdp_cybrbll","Sun Mar 26 2023 23:44:29 GMT-0400 (Eastern Daylight Time)","584903","3","1","","null","","","","observe","","img/1to3/1.png","null","208","921","0.5","0.5","1","3","",""
"animation","39","178877","0.0-5.0-2.17","5bf0cb0411439b000168edda","bdp_cybrbll","Sun Mar 26 2023 23:44:29 GMT-0400 (Eastern Daylight Time)","584903","3","1","","","","","","","","","","208","","","","1","3","[{""stimulus"":""img/1to3/1.png"",""time"":100},{""stimulus"":""img/1to3/2.png"",""time"":199},{""stimulus"":""img/1to3/3.png"",""time"":298},{""stimulus"":""img/1to3/4.png"",""time"":397},{""stimulus"":""img/1to3/5.png"",""time"":496},{""stimulus"":""img/1to3/6.png"",""time"":595},{""stimulus"":""img/1to3/7.png"",""time"":693},{""stimulus"":""img/1to3/8.png"",""time"":793},{""stimulus"":""img/1to3/9.png"",""time"":892},{""stimulus"":""img/1to3/10.png"",""time"":991},{""stimulus"":""img/1to3/11.png"",""time"":1090},{""stimulus"":""img/1to3/12.png"",""time"":1189}]","[]"
"image-keyboard-response","40","179163","0.0-5.0-1.18","5bf0cb0411439b000168edda","bdp_cybrbll","Sun Mar 26 2023 23:44:29 GMT-0400 (Eastern Daylight Time)","584903","3","1","","null","","","","observe","","img/3to2/1.png","null","207","285","0.5","0.5","3","1","",""
"animation","41","180451","0.0-5.0-2.18","5bf0cb0411439b000168edda","bdp_cybrbll","Sun Mar 26 2023 23:44:29 GMT-0400 (Eastern Daylight Time)","584903","3","1","","","","","","","","","","207","","","","3","1","[{""stimulus"":""img/3to1/1.png"",""time"":101},{""stimulus"":""img/3to1/2.png"",""time"":199},{""stimulus"":""img/3to1/3.png"",""time"":298},{""stimulus"":""img/3to1/4.png"",""time"":397},{""stimulus"":""img/3to1/5.png"",""time"":496},{""stimulus"":""img/3to1/6.png"",""time"":595},{""stimulus"":""img/3to1/7.png"",""time"":694},{""stimulus"":""img/3to1/8.png"",""time"":792},{""stimulus"":""img/3to1/9.png"",""time"":892},{""stimulus"":""img/3to1/10.png"",""time"":993},{""stimulus"":""img/3to1/11.png"",""time"":1090},{""stimulus"":""img/3to1/12.png"",""time"":1189}]","[]"
"image-keyboard-response","42","181006","0.0-5.0-1.19","5bf0cb0411439b000168edda","bdp_cybrbll","Sun Mar 26 2023 23:44:29 GMT-0400 (Eastern Daylight Time)","584903","3","1","","null","","","","observe","","img/1to3/1.png","null","206","554","0.5","0.5","1","2","",""
"animation","43","182293","0.0-5.0-2.19","5bf0cb0411439b000168edda","bdp_cybrbll","Sun Mar 26 2023 23:44:29 GMT-0400 (Eastern Daylight Time)","584903","3","1","","","","","","","","","","206","","","","1","2","[{""stimulus"":""img/1to2/1.png"",""time"":100},{""stimulus"":""img/1to2/2.png"",""time"":198},{""stimulus"":""img/1to2/3.png"",""time"":298},{""stimulus"":""img/1to2/4.png"",""time"":397},{""stimulus"":""img/1to2/5.png"",""time"":496},{""stimulus"":""img/1to2/6.png"",""time"":595},{""stimulus"":""img/1to2/7.png"",""time"":694},{""stimulus"":""img/1to2/8.png"",""time"":793},{""stimulus"":""img/1to2/9.png"",""time"":892},{""stimulus"":""img/1to2/10.png"",""time"":991},{""stimulus"":""img/1to2/11.png"",""time"":1090},{""stimulus"":""img/1to2/12.png"",""time"":1189}]","[]"
"image-keyboard-response","44","182331","0.0-5.0-1.20","5bf0cb0411439b000168edda","bdp_cybrbll","Sun Mar 26 2023 23:44:29 GMT-0400 (Eastern Daylight Time)","584903","3","1","","37","","","","choice","","img/2to1/1.png","2","205","189","0.5","0.5","2","3","",""
"animation","45","183619","0.0-5.0-2.20","5bf0cb0411439b000168edda","bdp_cybrbll","Sun Mar 26 2023 23:44:29 GMT-0400 (Eastern Daylight Time)","584903","3","1","","","","","","","","","","205","","","","2","3","[{""stimulus"":""img/2to3/1.png"",""time"":100},{""stimulus"":""img/2to3/2.png"",""time"":199},{""stimulus"":""img/2to3/3.png"",""time"":298},{""stimulus"":""img/2to3/4.png"",""time"":397},{""stimulus"":""img/2to3/5.png"",""time"":497},{""stimulus"":""img/2to3/6.png"",""time"":595},{""stimulus"":""img/2to3/7.png"",""time"":695},{""stimulus"":""img/2to3/8.png"",""time"":794},{""stimulus"":""img/2to3/9.png"",""time"":893},{""stimulus"":""img/2to3/10.png"",""time"":991},{""stimulus"":""img/2to3/11.png"",""time"":1091},{""stimulus"":""img/2to3/12.png"",""time"":1190}]","[]"
"image-keyboard-response","46","183900","0.0-5.0-1.21","5bf0cb0411439b000168edda","bdp_cybrbll","Sun Mar 26 2023 23:44:29 GMT-0400 (Eastern Daylight Time)","584903","3","1","","null","","","","observe","","img/3to2/1.png","null","204","280","0.5","0.5","3","1","",""
"animation","47","185188","0.0-5.0-2.21","5bf0cb0411439b000168edda","bdp_cybrbll","Sun Mar 26 2023 23:44:29 GMT-0400 (Eastern Daylight Time)","584903","3","1","","","","","","","","","","204","","","","3","1","[{""stimulus"":""img/3to1/1.png"",""time"":99},{""stimulus"":""img/3to1/2.png"",""time"":199},{""stimulus"":""img/3to1/3.png"",""time"":297},{""stimulus"":""img/3to1/4.png"",""time"":397},{""stimulus"":""img/3to1/5.png"",""time"":496},{""stimulus"":""img/3to1/6.png"",""time"":595},{""stimulus"":""img/3to1/7.png"",""time"":694},{""stimulus"":""img/3to1/8.png"",""time"":793},{""stimulus"":""img/3to1/9.png"",""time"":892},{""stimulus"":""img/3to1/10.png"",""time"":991},{""stimulus"":""img/3to1/11.png"",""time"":1090},{""stimulus"":""img/3to1/12.png"",""time"":1188}]","[]"
"image-keyboard-response","48","186009","0.0-5.0-1.22","5bf0cb0411439b000168edda","bdp_cybrbll","Sun Mar 26 2023 23:44:29 GMT-0400 (Eastern Daylight Time)","584903","3","1","","null","","","","observe","","img/1to3/1.png","null","203","819","0.5","0.5","1","2","",""
"animation","49","187297","0.0-5.0-2.22","5bf0cb0411439b000168edda","bdp_cybrbll","Sun Mar 26 2023 23:44:29 GMT-0400 (Eastern Daylight Time)","584903","3","1","","","","","","","","","","203","","","","1","2","[{""stimulus"":""img/1to2/1.png"",""time"":100},{""stimulus"":""img/1to2/2.png"",""time"":199},{""stimulus"":""img/1to2/3.png"",""time"":297},{""stimulus"":""img/1to2/4.png"",""time"":397},{""stimulus"":""img/1to2/5.png"",""time"":497},{""stimulus"":""img/1to2/6.png"",""time"":595},{""stimulus"":""img/1to2/7.png"",""time"":694},{""stimulus"":""img/1to2/8.png"",""time"":793},{""stimulus"":""img/1to2/9.png"",""time"":891},{""stimulus"":""img/1to2/10.png"",""time"":991},{""stimulus"":""img/1to2/11.png"",""time"":1090},{""stimulus"":""img/1to2/12.png"",""time"":1188}]","[]"
"image-keyboard-response","50","187611","0.0-5.0-1.23","5bf0cb0411439b000168edda","bdp_cybrbll","Sun Mar 26 2023 23:44:29 GMT-0400 (Eastern Daylight Time)","584903","3","1","","314","","","","choice","","img/2to1/1.png","2","202","584","0.5","0.5","2","3","",""
"animation","51","188898","0.0-5.0-2.23","5bf0cb0411439b000168edda","bdp_cybrbll","Sun Mar 26 2023 23:44:29 GMT-0400 (Eastern Daylight Time)","584903","3","1","","","","","","","","","","202","","","","2","3","[{""stimulus"":""img/2to3/1.png"",""time"":100},{""stimulus"":""img/2to3/2.png"",""time"":199},{""stimulus"":""img/2to3/3.png"",""time"":297},{""stimulus"":""img/2to3/4.png"",""time"":396},{""stimulus"":""img/2to3/5.png"",""time"":496},{""stimulus"":""img/2to3/6.png"",""time"":594},{""stimulus"":""img/2to3/7.png"",""time"":693},{""stimulus"":""img/2to3/8.png"",""time"":792},{""stimulus"":""img/2to3/9.png"",""time"":892},{""stimulus"":""img/2to3/10.png"",""time"":991},{""stimulus"":""img/2to3/11.png"",""time"":1090},{""stimulus"":""img/2to3/12.png"",""time"":1188}]","[]"
"image-keyboard-response","52","189396","0.0-5.0-1.24","5bf0cb0411439b000168edda","bdp_cybrbll","Sun Mar 26 2023 23:44:29 GMT-0400 (Eastern Daylight Time)","584903","3","1","","null","","","","observe","","img/3to2/1.png","null","201","496","0.5","0.5","3","1","",""
"animation","53","190684","0.0-5.0-2.24","5bf0cb0411439b000168edda","bdp_cybrbll","Sun Mar 26 2023 23:44:29 GMT-0400 (Eastern Daylight Time)","584903","3","1","","","","","","","","","","201","","","","3","1","[{""stimulus"":""img/3to1/1.png"",""time"":100},{""stimulus"":""img/3to1/2.png"",""time"":198},{""stimulus"":""img/3to1/3.png"",""time"":299},{""stimulus"":""img/3to1/4.png"",""time"":396},{""stimulus"":""img/3to1/5.png"",""time"":497},{""stimulus"":""img/3to1/6.png"",""time"":595},{""stimulus"":""img/3to1/7.png"",""time"":694},{""stimulus"":""img/3to1/8.png"",""time"":793},{""stimulus"":""img/3to1/9.png"",""time"":892},{""stimulus"":""img/3to1/10.png"",""time"":990},{""stimulus"":""img/3to1/11.png"",""time"":1089},{""stimulus"":""img/3to1/12.png"",""time"":1189}]","[]"
"image-keyboard-response","54","190900","0.0-5.0-1.25","5bf0cb0411439b000168edda","bdp_cybrbll","Sun Mar 26 2023 23:44:29 GMT-0400 (Eastern Daylight Time)","584903","3","1","","null","","","","observe","","img/1to3/1.png","null","200","215","0.5","0.5","1","2","",""
"animation","55","192188","0.0-5.0-2.25","5bf0cb0411439b000168edda","bdp_cybrbll","Sun Mar 26 2023 23:44:29 GMT-0400 (Eastern Daylight Time)","584903","3","1","","","","","","","","","","200","","","","1","2","[{""stimulus"":""img/1to2/1.png"",""time"":100},{""stimulus"":""img/1to2/2.png"",""time"":199},{""stimulus"":""img/1to2/3.png"",""time"":298},{""stimulus"":""img/1to2/4.png"",""time"":397},{""stimulus"":""img/1to2/5.png"",""time"":495},{""stimulus"":""img/1to2/6.png"",""time"":595},{""stimulus"":""img/1to2/7.png"",""time"":694},{""stimulus"":""img/1to2/8.png"",""time"":793},{""stimulus"":""img/1to2/9.png"",""time"":892},{""stimulus"":""img/1to2/10.png"",""time"":991},{""stimulus"":""img/1to2/11.png"",""time"":1090},{""stimulus"":""img/1to2/12.png"",""time"":1189}]","[]"
"image-keyboard-response","56","192411","0.0-5.0-1.26","5bf0cb0411439b000168edda","bdp_cybrbll","Sun Mar 26 2023 23:44:29 GMT-0400 (Eastern Daylight Time)","584903","3","1","","222","","","","choice","","img/2to1/1.png","1","199","839","0.5","0.5","2","1","",""
"animation","57","193699","0.0-5.0-2.26","5bf0cb0411439b000168edda","bdp_cybrbll","Sun Mar 26 2023 23:44:29 GMT-0400 (Eastern Daylight Time)","584903","3","1","","","","","","","","","","199","","","","2","1","[{""stimulus"":""img/2to1/1.png"",""time"":101},{""stimulus"":""img/2to1/2.png"",""time"":200},{""stimulus"":""img/2to1/3.png"",""time"":298},{""stimulus"":""img/2to1/4.png"",""time"":397},{""stimulus"":""img/2to1/5.png"",""time"":496},{""stimulus"":""img/2to1/6.png"",""time"":595},{""stimulus"":""img/2to1/7.png"",""time"":694},{""stimulus"":""img/2to1/8.png"",""time"":794},{""stimulus"":""img/2to1/9.png"",""time"":892},{""stimulus"":""img/2to1/10.png"",""time"":991},{""stimulus"":""img/2to1/11.png"",""time"":1091},{""stimulus"":""img/2to1/12.png"",""time"":1189}]","[]"
"image-keyboard-response","58","194019","0.0-5.0-1.27","5bf0cb0411439b000168edda","bdp_cybrbll","Sun Mar 26 2023 23:44:29 GMT-0400 (Eastern Daylight Time)","584903","3","1","","null","","","","observe","","img/1to3/1.png","null","198","319","0.5","0.5","1","3","",""
"animation","59","195307","0.0-5.0-2.27","5bf0cb0411439b000168edda","bdp_cybrbll","Sun Mar 26 2023 23:44:29 GMT-0400 (Eastern Daylight Time)","584903","3","1","","","","","","","","","","198","","","","1","3","[{""stimulus"":""img/1to3/1.png"",""time"":100},{""stimulus"":""img/1to3/2.png"",""time"":198},{""stimulus"":""img/1to3/3.png"",""time"":297},{""stimulus"":""img/1to3/4.png"",""time"":397},{""stimulus"":""img/1to3/5.png"",""time"":495},{""stimulus"":""img/1to3/6.png"",""time"":594},{""stimulus"":""img/1to3/7.png"",""time"":694},{""stimulus"":""img/1to3/8.png"",""time"":793},{""stimulus"":""img/1to3/9.png"",""time"":892},{""stimulus"":""img/1to3/10.png"",""time"":991},{""stimulus"":""img/1to3/11.png"",""time"":1090},{""stimulus"":""img/1to3/12.png"",""time"":1189}]","[]"
"image-keyboard-response","60","195636","0.0-5.0-1.28","5bf0cb0411439b000168edda","bdp_cybrbll","Sun Mar 26 2023 23:44:29 GMT-0400 (Eastern Daylight Time)","584903","3","1","","null","","","","observe","","img/3to2/1.png","null","197","328","0.5","0.5","3","1","",""
"animation","61","196923","0.0-5.0-2.28","5bf0cb0411439b000168edda","bdp_cybrbll","Sun Mar 26 2023 23:44:29 GMT-0400 (Eastern Daylight Time)","584903","3","1","","","","","","","","","","197","","","","3","1","[{""stimulus"":""img/3to1/1.png"",""time"":99},{""stimulus"":""img/3to1/2.png"",""time"":199},{""stimulus"":""img/3to1/3.png"",""time"":298},{""stimulus"":""img/3to1/4.png"",""time"":397},{""stimulus"":""img/3to1/5.png"",""time"":496},{""stimulus"":""img/3to1/6.png"",""time"":595},{""stimulus"":""img/3to1/7.png"",""time"":694},{""stimulus"":""img/3to1/8.png"",""time"":792},{""stimulus"":""img/3to1/9.png"",""time"":891},{""stimulus"":""img/3to1/10.png"",""time"":991},{""stimulus"":""img/3to1/11.png"",""time"":1091},{""stimulus"":""img/3to1/12.png"",""time"":1188}]","[]"
"image-keyboard-response","62","198087","0.0-5.0-1.29","5bf0cb0411439b000168edda","bdp_cybrbll","Sun Mar 26 2023 23:44:29 GMT-0400 (Eastern Daylight Time)","584903","3","1","","null","","","","observe","","img/1to3/1.png","null","196","1163","0.5","0.5","1","3","",""
"animation","63","199374","0.0-5.0-2.29","5bf0cb0411439b000168edda","bdp_cybrbll","Sun Mar 26 2023 23:44:29 GMT-0400 (Eastern Daylight Time)","584903","3","1","","","","","","","","","","196","","","","1","3","[{""stimulus"":""img/1to3/1.png"",""time"":100},{""stimulus"":""img/1to3/2.png"",""time"":199},{""stimulus"":""img/1to3/3.png"",""time"":297},{""stimulus"":""img/1to3/4.png"",""time"":398},{""stimulus"":""img/1to3/5.png"",""time"":496},{""stimulus"":""img/1to3/6.png"",""time"":595},{""stimulus"":""img/1to3/7.png"",""time"":694},{""stimulus"":""img/1to3/8.png"",""time"":793},{""stimulus"":""img/1to3/9.png"",""time"":891},{""stimulus"":""img/1to3/10.png"",""time"":991},{""stimulus"":""img/1to3/11.png"",""time"":1090},{""stimulus"":""img/1to3/12.png"",""time"":1189}]","[]"
"image-keyboard-response","64","199922","0.0-5.0-1.30","5bf0cb0411439b000168edda","bdp_cybrbll","Sun Mar 26 2023 23:44:29 GMT-0400 (Eastern Daylight Time)","584903","3","1","","null","","","","observe","","img/3to2/1.png","null","195","546","0.5","0.5","3","2","",""
"animation","65","201210","0.0-5.0-2.30","5bf0cb0411439b000168edda","bdp_cybrbll","Sun Mar 26 2023 23:44:29 GMT-0400 (Eastern Daylight Time)","584903","3","1","","","","","","","","","","195","","","","3","2","[{""stimulus"":""img/3to2/1.png"",""time"":100},{""stimulus"":""img/3to2/2.png"",""time"":199},{""stimulus"":""img/3to2/3.png"",""time"":299},{""stimulus"":""img/3to2/4.png"",""time"":396},{""stimulus"":""img/3to2/5.png"",""time"":496},{""stimulus"":""img/3to2/6.png"",""time"":596},{""stimulus"":""img/3to2/7.png"",""time"":694},{""stimulus"":""img/3to2/8.png"",""time"":793},{""stimulus"":""img/3to2/9.png"",""time"":892},{""stimulus"":""img/3to2/10.png"",""time"":991},{""stimulus"":""img/3to2/11.png"",""time"":1090},{""stimulus"":""img/3to2/12.png"",""time"":1189}]","[]"
"image-keyboard-response","66","201290","0.0-5.0-1.31","5bf0cb0411439b000168edda","bdp_cybrbll","Sun Mar 26 2023 23:44:29 GMT-0400 (Eastern Daylight Time)","584903","3","1","","79","","","","choice","","img/2to1/1.png","2","194","724","0.5","0.5","2","3","",""
"animation","67","202578","0.0-5.0-2.31","5bf0cb0411439b000168edda","bdp_cybrbll","Sun Mar 26 2023 23:44:29 GMT-0400 (Eastern Daylight Time)","584903","3","1","","","","","","","","","","194","","","","2","3","[{""stimulus"":""img/2to3/1.png"",""time"":100},{""stimulus"":""img/2to3/2.png"",""time"":200},{""stimulus"":""img/2to3/3.png"",""time"":298},{""stimulus"":""img/2to3/4.png"",""time"":397},{""stimulus"":""img/2to3/5.png"",""time"":496},{""stimulus"":""img/2to3/6.png"",""time"":596},{""stimulus"":""img/2to3/7.png"",""time"":694},{""stimulus"":""img/2to3/8.png"",""time"":794},{""stimulus"":""img/2to3/9.png"",""time"":892},{""stimulus"":""img/2to3/10.png"",""time"":992},{""stimulus"":""img/2to3/11.png"",""time"":1090},{""stimulus"":""img/2to3/12.png"",""time"":1190}]","[]"
"image-keyboard-response","68","203374","0.0-5.0-1.32","5bf0cb0411439b000168edda","bdp_cybrbll","Sun Mar 26 2023 23:44:29 GMT-0400 (Eastern Daylight Time)","584903","3","1","","null","","","","observe","","img/3to2/1.png","null","193","795","0.5","0.5","3","2","",""
"animation","69","204662","0.0-5.0-2.32","5bf0cb0411439b000168edda","bdp_cybrbll","Sun Mar 26 2023 23:44:29 GMT-0400 (Eastern Daylight Time)","584903","3","1","","","","","","","","","","193","","","","3","2","[{""stimulus"":""img/3to2/1.png"",""time"":100},{""stimulus"":""img/3to2/2.png"",""time"":199},{""stimulus"":""img/3to2/3.png"",""time"":298},{""stimulus"":""img/3to2/4.png"",""time"":397},{""stimulus"":""img/3to2/5.png"",""time"":496},{""stimulus"":""img/3to2/6.png"",""time"":594},{""stimulus"":""img/3to2/7.png"",""time"":694},{""stimulus"":""img/3to2/8.png"",""time"":792},{""stimulus"":""img/3to2/9.png"",""time"":892},{""stimulus"":""img/3to2/10.png"",""time"":990},{""stimulus"":""img/3to2/11.png"",""time"":1090},{""stimulus"":""img/3to2/12.png"",""time"":1188}]","[]"
"image-keyboard-response","70","204738","0.0-5.0-1.33","5bf0cb0411439b000168edda","bdp_cybrbll","Sun Mar 26 2023 23:44:29 GMT-0400 (Eastern Daylight Time)","584903","3","1","","75","","","","choice","","img/2to1/1.png","1","192","429","0.5","0.5","2","1","",""
"animation","71","206027","0.0-5.0-2.33","5bf0cb0411439b000168edda","bdp_cybrbll","Sun Mar 26 2023 23:44:29 GMT-0400 (Eastern Daylight Time)","584903","3","1","","","","","","","","","","192","","","","2","1","[{""stimulus"":""img/2to1/1.png"",""time"":99},{""stimulus"":""img/2to1/2.png"",""time"":198},{""stimulus"":""img/2to1/3.png"",""time"":298},{""stimulus"":""img/2to1/4.png"",""time"":396},{""stimulus"":""img/2to1/5.png"",""time"":496},{""stimulus"":""img/2to1/6.png"",""time"":594},{""stimulus"":""img/2to1/7.png"",""time"":694},{""stimulus"":""img/2to1/8.png"",""time"":792},{""stimulus"":""img/2to1/9.png"",""time"":891},{""stimulus"":""img/2to1/10.png"",""time"":991},{""stimulus"":""img/2to1/11.png"",""time"":1090},{""stimulus"":""img/2to1/12.png"",""time"":1189}]","[]"
"image-keyboard-response","72","206225","0.0-5.0-1.34","5bf0cb0411439b000168edda","bdp_cybrbll","Sun Mar 26 2023 23:44:29 GMT-0400 (Eastern Daylight Time)","584903","3","1","","null","","","","observe","","img/1to3/1.png","null","191","196","0.5","0.5","1","3","",""
"animation","73","207513","0.0-5.0-2.34","5bf0cb0411439b000168edda","bdp_cybrbll","Sun Mar 26 2023 23:44:29 GMT-0400 (Eastern Daylight Time)","584903","3","1","","","","","","","","","","191","","","","1","3","[{""stimulus"":""img/1to3/1.png"",""time"":100},{""stimulus"":""img/1to3/2.png"",""time"":200},{""stimulus"":""img/1to3/3.png"",""time"":299},{""stimulus"":""img/1to3/4.png"",""time"":398},{""stimulus"":""img/1to3/5.png"",""time"":497},{""stimulus"":""img/1to3/6.png"",""time"":595},{""stimulus"":""img/1to3/7.png"",""time"":695},{""stimulus"":""img/1to3/8.png"",""time"":793},{""stimulus"":""img/1to3/9.png"",""time"":892},{""stimulus"":""img/1to3/10.png"",""time"":993},{""stimulus"":""img/1to3/11.png"",""time"":1091},{""stimulus"":""img/1to3/12.png"",""time"":1190}]","[]"
"image-keyboard-response","74","208545","0.0-5.0-1.35","5bf0cb0411439b000168edda","bdp_cybrbll","Sun Mar 26 2023 23:44:29 GMT-0400 (Eastern Daylight Time)","584903","3","1","","null","","","","observe","","img/3to2/1.png","null","190","1031","0.5","0.5","3","1","",""
"animation","75","209833","0.0-5.0-2.35","5bf0cb0411439b000168edda","bdp_cybrbll","Sun Mar 26 2023 23:44:29 GMT-0400 (Eastern Daylight Time)","584903","3","1","","","","","","","","","","190","","","","3","1","[{""stimulus"":""img/3to1/1.png"",""time"":101},{""stimulus"":""img/3to1/2.png"",""time"":200},{""stimulus"":""img/3to1/3.png"",""time"":299},{""stimulus"":""img/3to1/4.png"",""time"":397},{""stimulus"":""img/3to1/5.png"",""time"":497},{""stimulus"":""img/3to1/6.png"",""time"":595},{""stimulus"":""img/3to1/7.png"",""time"":695},{""stimulus"":""img/3to1/8.png"",""time"":794},{""stimulus"":""img/3to1/9.png"",""time"":893},{""stimulus"":""img/3to1/10.png"",""time"":991},{""stimulus"":""img/3to1/11.png"",""time"":1091},{""stimulus"":""img/3to1/12.png"",""time"":1190}]","[]"
"image-keyboard-response","76","210876","0.0-5.0-1.36","5bf0cb0411439b000168edda","bdp_cybrbll","Sun Mar 26 2023 23:44:29 GMT-0400 (Eastern Daylight Time)","584903","3","1","","null","","","","observe","","img/1to3/1.png","null","189","1042","0.5","0.5","1","3","",""
"animation","77","212165","0.0-5.0-2.36","5bf0cb0411439b000168edda","bdp_cybrbll","Sun Mar 26 2023 23:44:29 GMT-0400 (Eastern Daylight Time)","584903","3","1","","","","","","","","","","189","","","","1","3","[{""stimulus"":""img/1to3/1.png"",""time"":99},{""stimulus"":""img/1to3/2.png"",""time"":198},{""stimulus"":""img/1to3/3.png"",""time"":298},{""stimulus"":""img/1to3/4.png"",""time"":396},{""stimulus"":""img/1to3/5.png"",""time"":496},{""stimulus"":""img/1to3/6.png"",""time"":594},{""stimulus"":""img/1to3/7.png"",""time"":693},{""stimulus"":""img/1to3/8.png"",""time"":793},{""stimulus"":""img/1to3/9.png"",""time"":892},{""stimulus"":""img/1to3/10.png"",""time"":990},{""stimulus"":""img/1to3/11.png"",""time"":1091},{""stimulus"":""img/1to3/12.png"",""time"":1189}]","[]"
"image-keyboard-response","78","212554","0.0-5.0-1.37","5bf0cb0411439b000168edda","bdp_cybrbll","Sun Mar 26 2023 23:44:29 GMT-0400 (Eastern Daylight Time)","584903","3","1","","null","","","","observe","","img/3to2/1.png","null","188","388","0.5","0.5","3","1","",""
"animation","79","213843","0.0-5.0-2.37","5bf0cb0411439b000168edda","bdp_cybrbll","Sun Mar 26 2023 23:44:29 GMT-0400 (Eastern Daylight Time)","584903","3","1","","","","","","","","","","188","","","","3","1","[{""stimulus"":""img/3to1/1.png"",""time"":101},{""stimulus"":""img/3to1/2.png"",""time"":198},{""stimulus"":""img/3to1/3.png"",""time"":298},{""stimulus"":""img/3to1/4.png"",""time"":396},{""stimulus"":""img/3to1/5.png"",""time"":495},{""stimulus"":""img/3to1/6.png"",""time"":594},{""stimulus"":""img/3to1/7.png"",""time"":694},{""stimulus"":""img/3to1/8.png"",""time"":793},{""stimulus"":""img/3to1/9.png"",""time"":892},{""stimulus"":""img/3to1/10.png"",""time"":990},{""stimulus"":""img/3to1/11.png"",""time"":1089},{""stimulus"":""img/3to1/12.png"",""time"":1189}]","[]"
"image-keyboard-response","80","215095","0.0-5.0-1.38","5bf0cb0411439b000168edda","bdp_cybrbll","Sun Mar 26 2023 23:44:29 GMT-0400 (Eastern Daylight Time)","584903","3","1","","null","","","","observe","","img/1to3/1.png","null","187","1249","0.5","0.5","1","2","",""
"animation","81","216383","0.0-5.0-2.38","5bf0cb0411439b000168edda","bdp_cybrbll","Sun Mar 26 2023 23:44:29 GMT-0400 (Eastern Daylight Time)","584903","3","1","","","","","","","","","","187","","","","1","2","[{""stimulus"":""img/1to2/1.png"",""time"":100},{""stimulus"":""img/1to2/2.png"",""time"":199},{""stimulus"":""img/1to2/3.png"",""time"":299},{""stimulus"":""img/1to2/4.png"",""time"":398},{""stimulus"":""img/1to2/5.png"",""time"":496},{""stimulus"":""img/1to2/6.png"",""time"":595},{""stimulus"":""img/1to2/7.png"",""time"":695},{""stimulus"":""img/1to2/8.png"",""time"":793},{""stimulus"":""img/1to2/9.png"",""time"":892},{""stimulus"":""img/1to2/10.png"",""time"":991},{""stimulus"":""img/1to2/11.png"",""time"":1090},{""stimulus"":""img/1to2/12.png"",""time"":1189}]","[]"
"image-keyboard-response","82","216835","0.0-5.0-1.39","5bf0cb0411439b000168edda","bdp_cybrbll","Sun Mar 26 2023 23:44:29 GMT-0400 (Eastern Daylight Time)","584903","3","1","","452","","","","choice","","img/2to1/1.png","1","186","836","0.5","0.5","2","1","",""
"animation","83","218123","0.0-5.0-2.39","5bf0cb0411439b000168edda","bdp_cybrbll","Sun Mar 26 2023 23:44:29 GMT-0400 (Eastern Daylight Time)","584903","3","1","","","","","","","","","","186","","","","2","1","[{""stimulus"":""img/2to1/1.png"",""time"":101},{""stimulus"":""img/2to1/2.png"",""time"":200},{""stimulus"":""img/2to1/3.png"",""time"":298},{""stimulus"":""img/2to1/4.png"",""time"":397},{""stimulus"":""img/2to1/5.png"",""time"":496},{""stimulus"":""img/2to1/6.png"",""time"":595},{""stimulus"":""img/2to1/7.png"",""time"":694},{""stimulus"":""img/2to1/8.png"",""time"":793},{""stimulus"":""img/2to1/9.png"",""time"":893},{""stimulus"":""img/2to1/10.png"",""time"":991},{""stimulus"":""img/2to1/11.png"",""time"":1090},{""stimulus"":""img/2to1/12.png"",""time"":1190}]","[]"
"image-keyboard-response","84","219064","0.0-5.0-1.40","5bf0cb0411439b000168edda","bdp_cybrbll","Sun Mar 26 2023 23:44:29 GMT-0400 (Eastern Daylight Time)","584903","3","1","","null","","","","observe","","img/1to3/1.png","null","185","940","0.5","0.5","1","2","",""
"animation","85","220352","0.0-5.0-2.40","5bf0cb0411439b000168edda","bdp_cybrbll","Sun Mar 26 2023 23:44:29 GMT-0400 (Eastern Daylight Time)","584903","3","1","","","","","","","","","","185","","","","1","2","[{""stimulus"":""img/1to2/1.png"",""time"":99},{""stimulus"":""img/1to2/2.png"",""time"":199},{""stimulus"":""img/1to2/3.png"",""time"":298},{""stimulus"":""img/1to2/4.png"",""time"":397},{""stimulus"":""img/1to2/5.png"",""time"":496},{""stimulus"":""img/1to2/6.png"",""time"":594},{""stimulus"":""img/1to2/7.png"",""time"":694},{""stimulus"":""img/1to2/8.png"",""time"":793},{""stimulus"":""img/1to2/9.png"",""time"":893},{""stimulus"":""img/1to2/10.png"",""time"":991},{""stimulus"":""img/1to2/11.png"",""time"":1091},{""stimulus"":""img/1to2/12.png"",""time"":1189}]","[]"
"image-keyboard-response","86","220411","0.0-5.0-1.41","5bf0cb0411439b000168edda","bdp_cybrbll","Sun Mar 26 2023 23:44:29 GMT-0400 (Eastern Daylight Time)","584903","3","1","","58","","","","choice","","img/2to1/1.png","2","184","759","0.5","0.5","2","3","",""
"animation","87","221698","0.0-5.0-2.41","5bf0cb0411439b000168edda","bdp_cybrbll","Sun Mar 26 2023 23:44:29 GMT-0400 (Eastern Daylight Time)","584903","3","1","","","","","","","","","","184","","","","2","3","[{""stimulus"":""img/2to3/1.png"",""time"":100},{""stimulus"":""img/2to3/2.png"",""time"":199},{""stimulus"":""img/2to3/3.png"",""time"":298},{""stimulus"":""img/2to3/4.png"",""time"":398},{""stimulus"":""img/2to3/5.png"",""time"":496},{""stimulus"":""img/2to3/6.png"",""time"":596},{""stimulus"":""img/2to3/7.png"",""time"":693},{""stimulus"":""img/2to3/8.png"",""time"":793},{""stimulus"":""img/2to3/9.png"",""time"":892},{""stimulus"":""img/2to3/10.png"",""time"":991},{""stimulus"":""img/2to3/11.png"",""time"":1091},{""stimulus"":""img/2to3/12.png"",""time"":1189}]","[]"
"image-keyboard-response","88","222288","0.0-5.0-1.42","5bf0cb0411439b000168edda","bdp_cybrbll","Sun Mar 26 2023 23:44:29 GMT-0400 (Eastern Daylight Time)","584903","3","1","","null","","","","observe","","img/3to2/1.png","null","183","589","0.5","0.5","3","1","",""
"animation","89","223577","0.0-5.0-2.42","5bf0cb0411439b000168edda","bdp_cybrbll","Sun Mar 26 2023 23:44:29 GMT-0400 (Eastern Daylight Time)","584903","3","1","","","","","","","","","","183","","","","3","1","[{""stimulus"":""img/3to1/1.png"",""time"":101},{""stimulus"":""img/3to1/2.png"",""time"":199},{""stimulus"":""img/3to1/3.png"",""time"":298},{""stimulus"":""img/3to1/4.png"",""time"":397},{""stimulus"":""img/3to1/5.png"",""time"":497},{""stimulus"":""img/3to1/6.png"",""time"":595},{""stimulus"":""img/3to1/7.png"",""time"":695},{""stimulus"":""img/3to1/8.png"",""time"":793},{""stimulus"":""img/3to1/9.png"",""time"":892},{""stimulus"":""img/3to1/10.png"",""time"":992},{""stimulus"":""img/3to1/11.png"",""time"":1091},{""stimulus"":""img/3to1/12.png"",""time"":1189}]","[]"
"image-keyboard-response","90","224135","0.0-5.0-1.43","5bf0cb0411439b000168edda","bdp_cybrbll","Sun Mar 26 2023 23:44:29 GMT-0400 (Eastern Daylight Time)","584903","3","1","","null","","","","observe","","img/1to3/1.png","null","182","558","0.5","0.5","1","2","",""
"animation","91","225423","0.0-5.0-2.43","5bf0cb0411439b000168edda","bdp_cybrbll","Sun Mar 26 2023 23:44:29 GMT-0400 (Eastern Daylight Time)","584903","3","1","","","","","","","","","","182","","","","1","2","[{""stimulus"":""img/1to2/1.png"",""time"":101},{""stimulus"":""img/1to2/2.png"",""time"":200},{""stimulus"":""img/1to2/3.png"",""time"":298},{""stimulus"":""img/1to2/4.png"",""time"":397},{""stimulus"":""img/1to2/5.png"",""time"":496},{""stimulus"":""img/1to2/6.png"",""time"":596},{""stimulus"":""img/1to2/7.png"",""time"":694},{""stimulus"":""img/1to2/8.png"",""time"":794},{""stimulus"":""img/1to2/9.png"",""time"":892},{""stimulus"":""img/1to2/10.png"",""time"":991},{""stimulus"":""img/1to2/11.png"",""time"":1090},{""stimulus"":""img/1to2/12.png"",""time"":1189}]","[]"
"image-keyboard-response","92","225642","0.0-5.0-1.44","5bf0cb0411439b000168edda","bdp_cybrbll","Sun Mar 26 2023 23:44:29 GMT-0400 (Eastern Daylight Time)","584903","3","1","","218","","","","choice","","img/2to1/1.png","2","181","552","0.5","0.5","2","3","",""
"animation","93","226930","0.0-5.0-2.44","5bf0cb0411439b000168edda","bdp_cybrbll","Sun Mar 26 2023 23:44:29 GMT-0400 (Eastern Daylight Time)","584903","3","1","","","","","","","","","","181","","","","2","3","[{""stimulus"":""img/2to3/1.png"",""time"":100},{""stimulus"":""img/2to3/2.png"",""time"":199},{""stimulus"":""img/2to3/3.png"",""time"":298},{""stimulus"":""img/2to3/4.png"",""time"":397},{""stimulus"":""img/2to3/5.png"",""time"":496},{""stimulus"":""img/2to3/6.png"",""time"":595},{""stimulus"":""img/2to3/7.png"",""time"":693},{""stimulus"":""img/2to3/8.png"",""time"":793},{""stimulus"":""img/2to3/9.png"",""time"":892},{""stimulus"":""img/2to3/10.png"",""time"":990},{""stimulus"":""img/2to3/11.png"",""time"":1090},{""stimulus"":""img/2to3/12.png"",""time"":1189}]","[]"
"image-keyboard-response","94","227206","0.0-5.0-1.45","5bf0cb0411439b000168edda","bdp_cybrbll","Sun Mar 26 2023 23:44:29 GMT-0400 (Eastern Daylight Time)","584903","3","1","","null","","","","observe","","img/3to2/1.png","null","180","274","0.5","0.5","3","2","",""
"animation","95","228495","0.0-5.0-2.45","5bf0cb0411439b000168edda","bdp_cybrbll","Sun Mar 26 2023 23:44:29 GMT-0400 (Eastern Daylight Time)","584903","3","1","","","","","","","","","","180","","","","3","2","[{""stimulus"":""img/3to2/1.png"",""time"":100},{""stimulus"":""img/3to2/2.png"",""time"":198},{""stimulus"":""img/3to2/3.png"",""time"":298},{""stimulus"":""img/3to2/4.png"",""time"":396},{""stimulus"":""img/3to2/5.png"",""time"":495},{""stimulus"":""img/3to2/6.png"",""time"":595},{""stimulus"":""img/3to2/7.png"",""time"":693},{""stimulus"":""img/3to2/8.png"",""time"":792},{""stimulus"":""img/3to2/9.png"",""time"":891},{""stimulus"":""img/3to2/10.png"",""time"":991},{""stimulus"":""img/3to2/11.png"",""time"":1089},{""stimulus"":""img/3to2/12.png"",""time"":1189}]","[]"
"image-keyboard-response","96","228787","0.0-5.0-1.46","5bf0cb0411439b000168edda","bdp_cybrbll","Sun Mar 26 2023 23:44:29 GMT-0400 (Eastern Daylight Time)","584903","3","1","","292","","","","choice","","img/2to1/1.png","1","179","335","0.5","0.5","2","1","",""
"animation","97","230076","0.0-5.0-2.46","5bf0cb0411439b000168edda","bdp_cybrbll","Sun Mar 26 2023 23:44:29 GMT-0400 (Eastern Daylight Time)","584903","3","1","","","","","","","","","","179","","","","2","1","[{""stimulus"":""img/2to1/1.png"",""time"":101},{""stimulus"":""img/2to1/2.png"",""time"":199},{""stimulus"":""img/2to1/3.png"",""time"":298},{""stimulus"":""img/2to1/4.png"",""time"":398},{""stimulus"":""img/2to1/5.png"",""time"":496},{""stimulus"":""img/2to1/6.png"",""time"":596},{""stimulus"":""img/2to1/7.png"",""time"":694},{""stimulus"":""img/2to1/8.png"",""time"":793},{""stimulus"":""img/2to1/9.png"",""time"":892},{""stimulus"":""img/2to1/10.png"",""time"":991},{""stimulus"":""img/2to1/11.png"",""time"":1090},{""stimulus"":""img/2to1/12.png"",""time"":1189}]","[]"
"image-keyboard-response","98","230492","0.0-5.0-1.47","5bf0cb0411439b000168edda","bdp_cybrbll","Sun Mar 26 2023 23:44:29 GMT-0400 (Eastern Daylight Time)","584903","3","1","","null","","","","observe","","img/1to3/1.png","null","178","415","0.5","0.5","1","3","",""
"animation","99","231780","0.0-5.0-2.47","5bf0cb0411439b000168edda","bdp_cybrbll","Sun Mar 26 2023 23:44:29 GMT-0400 (Eastern Daylight Time)","584903","3","1","","","","","","","","","","178","","","","1","3","[{""stimulus"":""img/1to3/1.png"",""time"":99},{""stimulus"":""img/1to3/2.png"",""time"":199},{""stimulus"":""img/1to3/3.png"",""time"":298},{""stimulus"":""img/1to3/4.png"",""time"":397},{""stimulus"":""img/1to3/5.png"",""time"":496},{""stimulus"":""img/1to3/6.png"",""time"":595},{""stimulus"":""img/1to3/7.png"",""time"":694},{""stimulus"":""img/1to3/8.png"",""time"":793},{""stimulus"":""img/1to3/9.png"",""time"":892},{""stimulus"":""img/1to3/10.png"",""time"":991},{""stimulus"":""img/1to3/11.png"",""time"":1090},{""stimulus"":""img/1to3/12.png"",""time"":1189}]","[]"
"image-keyboard-response","100","232135","0.0-5.0-1.48","5bf0cb0411439b000168edda","bdp_cybrbll","Sun Mar 26 2023 23:44:29 GMT-0400 (Eastern Daylight Time)","584903","3","1","","null","","","","observe","","img/3to2/1.png","null","177","354","0.5","0.5","3","2","",""
"animation","101","233424","0.0-5.0-2.48","5bf0cb0411439b000168edda","bdp_cybrbll","Sun Mar 26 2023 23:44:29 GMT-0400 (Eastern Daylight Time)","584903","3","1","","","","","","","","","","177","","","","3","2","[{""stimulus"":""img/3to2/1.png"",""time"":100},{""stimulus"":""img/3to2/2.png"",""time"":200},{""stimulus"":""img/3to2/3.png"",""time"":298},{""stimulus"":""img/3to2/4.png"",""time"":396},{""stimulus"":""img/3to2/5.png"",""time"":496},{""stimulus"":""img/3to2/6.png"",""time"":595},{""stimulus"":""img/3to2/7.png"",""time"":694},{""stimulus"":""img/3to2/8.png"",""time"":793},{""stimulus"":""img/3to2/9.png"",""time"":892},{""stimulus"":""img/3to2/10.png"",""time"":991},{""stimulus"":""img/3to2/11.png"",""time"":1089},{""stimulus"":""img/3to2/12.png"",""time"":1189}]","[]"
"image-keyboard-response","102","233483","0.0-5.0-1.49","5bf0cb0411439b000168edda","bdp_cybrbll","Sun Mar 26 2023 23:44:29 GMT-0400 (Eastern Daylight Time)","584903","3","1","","59","","","","choice","","img/2to1/1.png","1","176","449","0.5","0.5","2","1","",""
"animation","103","234771","0.0-5.0-2.49","5bf0cb0411439b000168edda","bdp_cybrbll","Sun Mar 26 2023 23:44:29 GMT-0400 (Eastern Daylight Time)","584903","3","1","","","","","","","","","","176","","","","2","1","[{""stimulus"":""img/2to1/1.png"",""time"":101},{""stimulus"":""img/2to1/2.png"",""time"":199},{""stimulus"":""img/2to1/3.png"",""time"":299},{""stimulus"":""img/2to1/4.png"",""time"":397},{""stimulus"":""img/2to1/5.png"",""time"":496},{""stimulus"":""img/2to1/6.png"",""time"":595},{""stimulus"":""img/2to1/7.png"",""time"":695},{""stimulus"":""img/2to1/8.png"",""time"":793},{""stimulus"":""img/2to1/9.png"",""time"":893},{""stimulus"":""img/2to1/10.png"",""time"":991},{""stimulus"":""img/2to1/11.png"",""time"":1090},{""stimulus"":""img/2to1/12.png"",""time"":1189}]","[]"
"image-keyboard-response","104","235001","0.0-5.0-1.50","5bf0cb0411439b000168edda","bdp_cybrbll","Sun Mar 26 2023 23:44:29 GMT-0400 (Eastern Daylight Time)","584903","3","1","","null","","","","observe","","img/1to3/1.png","null","175","229","0.5","0.5","1","3","",""
"animation","105","236289","0.0-5.0-2.50","5bf0cb0411439b000168edda","bdp_cybrbll","Sun Mar 26 2023 23:44:29 GMT-0400 (Eastern Daylight Time)","584903","3","1","","","","","","","","","","175","","","","1","3","[{""stimulus"":""img/1to3/1.png"",""time"":100},{""stimulus"":""img/1to3/2.png"",""time"":200},{""stimulus"":""img/1to3/3.png"",""time"":299},{""stimulus"":""img/1to3/4.png"",""time"":397},{""stimulus"":""img/1to3/5.png"",""time"":496},{""stimulus"":""img/1to3/6.png"",""time"":595},{""stimulus"":""img/1to3/7.png"",""time"":694},{""stimulus"":""img/1to3/8.png"",""time"":794},{""stimulus"":""img/1to3/9.png"",""time"":893},{""stimulus"":""img/1to3/10.png"",""time"":991},{""stimulus"":""img/1to3/11.png"",""time"":1090},{""stimulus"":""img/1to3/12.png"",""time"":1189}]","[]"
"image-keyboard-response","106","236614","0.0-5.0-1.51","5bf0cb0411439b000168edda","bdp_cybrbll","Sun Mar 26 2023 23:44:29 GMT-0400 (Eastern Daylight Time)","584903","3","1","","null","","","","observe","","img/3to2/1.png","null","174","324","0.5","0.5","3","2","",""
"animation","107","237902","0.0-5.0-2.51","5bf0cb0411439b000168edda","bdp_cybrbll","Sun Mar 26 2023 23:44:29 GMT-0400 (Eastern Daylight Time)","584903","3","1","","","","","","","","","","174","","","","3","2","[{""stimulus"":""img/3to2/1.png"",""time"":100},{""stimulus"":""img/3to2/2.png"",""time"":199},{""stimulus"":""img/3to2/3.png"",""time"":299},{""stimulus"":""img/3to2/4.png"",""time"":397},{""stimulus"":""img/3to2/5.png"",""time"":496},{""stimulus"":""img/3to2/6.png"",""time"":596},{""stimulus"":""img/3to2/7.png"",""time"":694},{""stimulus"":""img/3to2/8.png"",""time"":794},{""stimulus"":""img/3to2/9.png"",""time"":892},{""stimulus"":""img/3to2/10.png"",""time"":991},{""stimulus"":""img/3to2/11.png"",""time"":1091},{""stimulus"":""img/3to2/12.png"",""time"":1189}]","[]"
"image-keyboard-response","108","237963","0.0-5.0-1.52","5bf0cb0411439b000168edda","bdp_cybrbll","Sun Mar 26 2023 23:44:29 GMT-0400 (Eastern Daylight Time)","584903","3","1","","60","","","","choice","","img/2to1/1.png","1","173","334","0.5","0.5","2","1","",""
"animation","109","239251","0.0-5.0-2.52","5bf0cb0411439b000168edda","bdp_cybrbll","Sun Mar 26 2023 23:44:29 GMT-0400 (Eastern Daylight Time)","584903","3","1","","","","","","","","","","173","","","","2","1","[{""stimulus"":""img/2to1/1.png"",""time"":100},{""stimulus"":""img/2to1/2.png"",""time"":199},{""stimulus"":""img/2to1/3.png"",""time"":298},{""stimulus"":""img/2to1/4.png"",""time"":397},{""stimulus"":""img/2to1/5.png"",""time"":496},{""stimulus"":""img/2to1/6.png"",""time"":595},{""stimulus"":""img/2to1/7.png"",""time"":694},{""stimulus"":""img/2to1/8.png"",""time"":793},{""stimulus"":""img/2to1/9.png"",""time"":892},{""stimulus"":""img/2to1/10.png"",""time"":991},{""stimulus"":""img/2to1/11.png"",""time"":1090},{""stimulus"":""img/2to1/12.png"",""time"":1188}]","[]"
"image-keyboard-response","110","239765","0.0-5.0-1.53","5bf0cb0411439b000168edda","bdp_cybrbll","Sun Mar 26 2023 23:44:29 GMT-0400 (Eastern Daylight Time)","584903","3","1","","null","","","","observe","","img/1to3/1.png","null","172","511","0.5","0.5","1","3","",""
"animation","111","241053","0.0-5.0-2.53","5bf0cb0411439b000168edda","bdp_cybrbll","Sun Mar 26 2023 23:44:29 GMT-0400 (Eastern Daylight Time)","584903","3","1","","","","","","","","","","172","","","","1","3","[{""stimulus"":""img/1to3/1.png"",""time"":100},{""stimulus"":""img/1to3/2.png"",""time"":200},{""stimulus"":""img/1to3/3.png"",""time"":298},{""stimulus"":""img/1to3/4.png"",""time"":397},{""stimulus"":""img/1to3/5.png"",""time"":496},{""stimulus"":""img/1to3/6.png"",""time"":595},{""stimulus"":""img/1to3/7.png"",""time"":694},{""stimulus"":""img/1to3/8.png"",""time"":793},{""stimulus"":""img/1to3/9.png"",""time"":892},{""stimulus"":""img/1to3/10.png"",""time"":991},{""stimulus"":""img/1to3/11.png"",""time"":1090},{""stimulus"":""img/1to3/12.png"",""time"":1189}]","[]"
"image-keyboard-response","112","241598","0.0-5.0-1.54","5bf0cb0411439b000168edda","bdp_cybrbll","Sun Mar 26 2023 23:44:29 GMT-0400 (Eastern Daylight Time)","584903","3","1","","null","","","","observe","","img/3to2/1.png","null","171","544","0.5","0.5","3","1","",""
"animation","113","242886","0.0-5.0-2.54","5bf0cb0411439b000168edda","bdp_cybrbll","Sun Mar 26 2023 23:44:29 GMT-0400 (Eastern Daylight Time)","584903","3","1","","","","","","","","","","171","","","","3","1","[{""stimulus"":""img/3to1/1.png"",""time"":100},{""stimulus"":""img/3to1/2.png"",""time"":198},{""stimulus"":""img/3to1/3.png"",""time"":297},{""stimulus"":""img/3to1/4.png"",""time"":397},{""stimulus"":""img/3to1/5.png"",""time"":496},{""stimulus"":""img/3to1/6.png"",""time"":594},{""stimulus"":""img/3to1/7.png"",""time"":694},{""stimulus"":""img/3to1/8.png"",""time"":792},{""stimulus"":""img/3to1/9.png"",""time"":891},{""stimulus"":""img/3to1/10.png"",""time"":991},{""stimulus"":""img/3to1/11.png"",""time"":1090},{""stimulus"":""img/3to1/12.png"",""time"":1189}]","[]"
"image-keyboard-response","114","243330","0.0-5.0-1.55","5bf0cb0411439b000168edda","bdp_cybrbll","Sun Mar 26 2023 23:44:29 GMT-0400 (Eastern Daylight Time)","584903","3","1","","null","","","","observe","","img/1to3/1.png","null","170","443","0.5","0.5","1","2","",""
"animation","115","244618","0.0-5.0-2.55","5bf0cb0411439b000168edda","bdp_cybrbll","Sun Mar 26 2023 23:44:29 GMT-0400 (Eastern Daylight Time)","584903","3","1","","","","","","","","","","170","","","","1","2","[{""stimulus"":""img/1to2/1.png"",""time"":99},{""stimulus"":""img/1to2/2.png"",""time"":199},{""stimulus"":""img/1to2/3.png"",""time"":297},{""stimulus"":""img/1to2/4.png"",""time"":397},{""stimulus"":""img/1to2/5.png"",""time"":496},{""stimulus"":""img/1to2/6.png"",""time"":595},{""stimulus"":""img/1to2/7.png"",""time"":694},{""stimulus"":""img/1to2/8.png"",""time"":793},{""stimulus"":""img/1to2/9.png"",""time"":891},{""stimulus"":""img/1to2/10.png"",""time"":991},{""stimulus"":""img/1to2/11.png"",""time"":1090},{""stimulus"":""img/1to2/12.png"",""time"":1189}]","[]"
"image-keyboard-response","116","244835","0.0-5.0-1.56","5bf0cb0411439b000168edda","bdp_cybrbll","Sun Mar 26 2023 23:44:29 GMT-0400 (Eastern Daylight Time)","584903","3","1","","216","","","","choice","","img/2to1/1.png","2","169","534","0.5","0.5","2","3","",""
"animation","117","246123","0.0-5.0-2.56","5bf0cb0411439b000168edda","bdp_cybrbll","Sun Mar 26 2023 23:44:29 GMT-0400 (Eastern Daylight Time)","584903","3","1","","","","","","","","","","169","","","","2","3","[{""stimulus"":""img/2to3/1.png"",""time"":100},{""stimulus"":""img/2to3/2.png"",""time"":198},{""stimulus"":""img/2to3/3.png"",""time"":297},{""stimulus"":""img/2to3/4.png"",""time"":396},{""stimulus"":""img/2to3/5.png"",""time"":496},{""stimulus"":""img/2to3/6.png"",""time"":595},{""stimulus"":""img/2to3/7.png"",""time"":694},{""stimulus"":""img/2to3/8.png"",""time"":793},{""stimulus"":""img/2to3/9.png"",""time"":892},{""stimulus"":""img/2to3/10.png"",""time"":991},{""stimulus"":""img/2to3/11.png"",""time"":1090},{""stimulus"":""img/2to3/12.png"",""time"":1189}]","[]"
"image-keyboard-response","118","246972","0.0-5.0-1.57","5bf0cb0411439b000168edda","bdp_cybrbll","Sun Mar 26 2023 23:44:29 GMT-0400 (Eastern Daylight Time)","584903","3","1","","null","","","","observe","","img/3to2/1.png","null","168","848","0.5","0.5","3","1","",""
"animation","119","248260","0.0-5.0-2.57","5bf0cb0411439b000168edda","bdp_cybrbll","Sun Mar 26 2023 23:44:29 GMT-0400 (Eastern Daylight Time)","584903","3","1","","","","","","","","","","168","","","","3","1","[{""stimulus"":""img/3to1/1.png"",""time"":100},{""stimulus"":""img/3to1/2.png"",""time"":199},{""stimulus"":""img/3to1/3.png"",""time"":297},{""stimulus"":""img/3to1/4.png"",""time"":396},{""stimulus"":""img/3to1/5.png"",""time"":496},{""stimulus"":""img/3to1/6.png"",""time"":595},{""stimulus"":""img/3to1/7.png"",""time"":694},{""stimulus"":""img/3to1/8.png"",""time"":792},{""stimulus"":""img/3to1/9.png"",""time"":892},{""stimulus"":""img/3to1/10.png"",""time"":991},{""stimulus"":""img/3to1/11.png"",""time"":1090},{""stimulus"":""img/3to1/12.png"",""time"":1189}]","[]"
"image-keyboard-response","120","248575","0.0-5.0-1.58","5bf0cb0411439b000168edda","bdp_cybrbll","Sun Mar 26 2023 23:44:29 GMT-0400 (Eastern Daylight Time)","584903","3","1","","null","","","","observe","","img/1to3/1.png","null","167","314","0.5","0.5","1","2","",""
"animation","121","249863","0.0-5.0-2.58","5bf0cb0411439b000168edda","bdp_cybrbll","Sun Mar 26 2023 23:44:29 GMT-0400 (Eastern Daylight Time)","584903","3","1","","","","","","","","","","167","","","","1","2","[{""stimulus"":""img/1to2/1.png"",""time"":100},{""stimulus"":""img/1to2/2.png"",""time"":200},{""stimulus"":""img/1to2/3.png"",""time"":298},{""stimulus"":""img/1to2/4.png"",""time"":397},{""stimulus"":""img/1to2/5.png"",""time"":497},{""stimulus"":""img/1to2/6.png"",""time"":596},{""stimulus"":""img/1to2/7.png"",""time"":694},{""stimulus"":""img/1to2/8.png"",""time"":793},{""stimulus"":""img/1to2/9.png"",""time"":892},{""stimulus"":""img/1to2/10.png"",""time"":992},{""stimulus"":""img/1to2/11.png"",""time"":1091},{""stimulus"":""img/1to2/12.png"",""time"":1190}]","[]"
"image-keyboard-response","122","250164","0.0-5.0-1.59","5bf0cb0411439b000168edda","bdp_cybrbll","Sun Mar 26 2023 23:44:29 GMT-0400 (Eastern Daylight Time)","584903","3","1","","300","","","","choice","","img/2to1/1.png","1","166","424","0.5","0.5","2","1","",""
"animation","123","251453","0.0-5.0-2.59","5bf0cb0411439b000168edda","bdp_cybrbll","Sun Mar 26 2023 23:44:29 GMT-0400 (Eastern Daylight Time)","584903","3","1","","","","","","","","","","166","","","","2","1","[{""stimulus"":""img/2to1/1.png"",""time"":100},{""stimulus"":""img/2to1/2.png"",""time"":200},{""stimulus"":""img/2to1/3.png"",""time"":298},{""stimulus"":""img/2to1/4.png"",""time"":397},{""stimulus"":""img/2to1/5.png"",""time"":496},{""stimulus"":""img/2to1/6.png"",""time"":595},{""stimulus"":""img/2to1/7.png"",""time"":695},{""stimulus"":""img/2to1/8.png"",""time"":793},{""stimulus"":""img/2to1/9.png"",""time"":892},{""stimulus"":""img/2to1/10.png"",""time"":991},{""stimulus"":""img/2to1/11.png"",""time"":1091},{""stimulus"":""img/2to1/12.png"",""time"":1190}]","[]"
"image-keyboard-response","124","252189","0.0-5.0-1.60","5bf0cb0411439b000168edda","bdp_cybrbll","Sun Mar 26 2023 23:44:29 GMT-0400 (Eastern Daylight Time)","584903","3","1","","null","","","","observe","","img/1to3/1.png","null","165","736","0.5","0.5","1","3","",""
"animation","125","253478","0.0-5.0-2.60","5bf0cb0411439b000168edda","bdp_cybrbll","Sun Mar 26 2023 23:44:29 GMT-0400 (Eastern Daylight Time)","584903","3","1","","","","","","","","","","165","","","","1","3","[{""stimulus"":""img/1to3/1.png"",""time"":100},{""stimulus"":""img/1to3/2.png"",""time"":198},{""stimulus"":""img/1to3/3.png"",""time"":298},{""stimulus"":""img/1to3/4.png"",""time"":397},{""stimulus"":""img/1to3/5.png"",""time"":496},{""stimulus"":""img/1to3/6.png"",""time"":595},{""stimulus"":""img/1to3/7.png"",""time"":695},{""stimulus"":""img/1to3/8.png"",""time"":793},{""stimulus"":""img/1to3/9.png"",""time"":892},{""stimulus"":""img/1to3/10.png"",""time"":991},{""stimulus"":""img/1to3/11.png"",""time"":1090},{""stimulus"":""img/1to3/12.png"",""time"":1190}]","[]"
"image-keyboard-response","126","254116","0.0-5.0-1.61","5bf0cb0411439b000168edda","bdp_cybrbll","Sun Mar 26 2023 23:44:29 GMT-0400 (Eastern Daylight Time)","584903","3","1","","null","","","","observe","","img/3to2/1.png","null","164","637","0.5","0.5","3","2","",""
"animation","127","255405","0.0-5.0-2.61","5bf0cb0411439b000168edda","bdp_cybrbll","Sun Mar 26 2023 23:44:29 GMT-0400 (Eastern Daylight Time)","584903","3","1","","","","","","","","","","164","","","","3","2","[{""stimulus"":""img/3to2/1.png"",""time"":100},{""stimulus"":""img/3to2/2.png"",""time"":199},{""stimulus"":""img/3to2/3.png"",""time"":299},{""stimulus"":""img/3to2/4.png"",""time"":397},{""stimulus"":""img/3to2/5.png"",""time"":496},{""stimulus"":""img/3to2/6.png"",""time"":596},{""stimulus"":""img/3to2/7.png"",""time"":694},{""stimulus"":""img/3to2/8.png"",""time"":794},{""stimulus"":""img/3to2/9.png"",""time"":892},{""stimulus"":""img/3to2/10.png"",""time"":991},{""stimulus"":""img/3to2/11.png"",""time"":1090},{""stimulus"":""img/3to2/12.png"",""time"":1189}]","[]"
"image-keyboard-response","128","255555","0.0-5.0-1.62","5bf0cb0411439b000168edda","bdp_cybrbll","Sun Mar 26 2023 23:44:29 GMT-0400 (Eastern Daylight Time)","584903","3","1","","150","","","","choice","","img/2to1/1.png","2","163","581","0.5","0.5","2","3","",""
"animation","129","256844","0.0-5.0-2.62","5bf0cb0411439b000168edda","bdp_cybrbll","Sun Mar 26 2023 23:44:29 GMT-0400 (Eastern Daylight Time)","584903","3","1","","","","","","","","","","163","","","","2","3","[{""stimulus"":""img/2to3/1.png"",""time"":99},{""stimulus"":""img/2to3/2.png"",""time"":200},{""stimulus"":""img/2to3/3.png"",""time"":301},{""stimulus"":""img/2to3/4.png"",""time"":397},{""stimulus"":""img/2to3/5.png"",""time"":496},{""stimulus"":""img/2to3/6.png"",""time"":595},{""stimulus"":""img/2to3/7.png"",""time"":694},{""stimulus"":""img/2to3/8.png"",""time"":793},{""stimulus"":""img/2to3/9.png"",""time"":892},{""stimulus"":""img/2to3/10.png"",""time"":990},{""stimulus"":""img/2to3/11.png"",""time"":1090},{""stimulus"":""img/2to3/12.png"",""time"":1189}]","[]"
"image-keyboard-response","130","257639","0.0-5.0-1.63","5bf0cb0411439b000168edda","bdp_cybrbll","Sun Mar 26 2023 23:44:29 GMT-0400 (Eastern Daylight Time)","584903","3","1","","null","","","","observe","","img/3to2/1.png","null","162","794","0.5","0.5","3","2","",""
"animation","131","258927","0.0-5.0-2.63","5bf0cb0411439b000168edda","bdp_cybrbll","Sun Mar 26 2023 23:44:29 GMT-0400 (Eastern Daylight Time)","584903","3","1","","","","","","","","","","162","","","","3","2","[{""stimulus"":""img/3to2/1.png"",""time"":100},{""stimulus"":""img/3to2/2.png"",""time"":199},{""stimulus"":""img/3to2/3.png"",""time"":298},{""stimulus"":""img/3to2/4.png"",""time"":397},{""stimulus"":""img/3to2/5.png"",""time"":497},{""stimulus"":""img/3to2/6.png"",""time"":596},{""stimulus"":""img/3to2/7.png"",""time"":694},{""stimulus"":""img/3to2/8.png"",""time"":794},{""stimulus"":""img/3to2/9.png"",""time"":892},{""stimulus"":""img/3to2/10.png"",""time"":991},{""stimulus"":""img/3to2/11.png"",""time"":1090},{""stimulus"":""img/3to2/12.png"",""time"":1189}]","[]"
"image-keyboard-response","132","259131","0.0-5.0-1.64","5bf0cb0411439b000168edda","bdp_cybrbll","Sun Mar 26 2023 23:44:29 GMT-0400 (Eastern Daylight Time)","584903","3","1","","203","","","","choice","","img/2to1/1.png","1","161","526","0.5","0.5","2","1","",""
"animation","133","260419","0.0-5.0-2.64","5bf0cb0411439b000168edda","bdp_cybrbll","Sun Mar 26 2023 23:44:29 GMT-0400 (Eastern Daylight Time)","584903","3","1","","","","","","","","","","161","","","","2","1","[{""stimulus"":""img/2to1/1.png"",""time"":114},{""stimulus"":""img/2to1/2.png"",""time"":199},{""stimulus"":""img/2to1/3.png"",""time"":297},{""stimulus"":""img/2to1/4.png"",""time"":397},{""stimulus"":""img/2to1/5.png"",""time"":495},{""stimulus"":""img/2to1/6.png"",""time"":595},{""stimulus"":""img/2to1/7.png"",""time"":693},{""stimulus"":""img/2to1/8.png"",""time"":793},{""stimulus"":""img/2to1/9.png"",""time"":891},{""stimulus"":""img/2to1/10.png"",""time"":990},{""stimulus"":""img/2to1/11.png"",""time"":1090},{""stimulus"":""img/2to1/12.png"",""time"":1189}]","[]"
"image-keyboard-response","134","260664","0.0-5.0-1.65","5bf0cb0411439b000168edda","bdp_cybrbll","Sun Mar 26 2023 23:44:29 GMT-0400 (Eastern Daylight Time)","584903","3","1","","null","","","","observe","","img/1to3/1.png","null","160","244","0.5","0.5","1","3","",""
"animation","135","261952","0.0-5.0-2.65","5bf0cb0411439b000168edda","bdp_cybrbll","Sun Mar 26 2023 23:44:29 GMT-0400 (Eastern Daylight Time)","584903","3","1","","","","","","","","","","160","","","","1","3","[{""stimulus"":""img/1to3/1.png"",""time"":101},{""stimulus"":""img/1to3/2.png"",""time"":200},{""stimulus"":""img/1to3/3.png"",""time"":298},{""stimulus"":""img/1to3/4.png"",""time"":397},{""stimulus"":""img/1to3/5.png"",""time"":497},{""stimulus"":""img/1to3/6.png"",""time"":595},{""stimulus"":""img/1to3/7.png"",""time"":694},{""stimulus"":""img/1to3/8.png"",""time"":793},{""stimulus"":""img/1to3/9.png"",""time"":892},{""stimulus"":""img/1to3/10.png"",""time"":991},{""stimulus"":""img/1to3/11.png"",""time"":1091},{""stimulus"":""img/1to3/12.png"",""time"":1189}]","[]"
"image-keyboard-response","136","262463","0.0-5.0-1.66","5bf0cb0411439b000168edda","bdp_cybrbll","Sun Mar 26 2023 23:44:29 GMT-0400 (Eastern Daylight Time)","584903","3","1","","null","","","","observe","","img/3to2/1.png","null","159","510","0.5","0.5","3","1","",""
"animation","137","263751","0.0-5.0-2.66","5bf0cb0411439b000168edda","bdp_cybrbll","Sun Mar 26 2023 23:44:29 GMT-0400 (Eastern Daylight Time)","584903","3","1","","","","","","","","","","159","","","","3","1","[{""stimulus"":""img/3to1/1.png"",""time"":100},{""stimulus"":""img/3to1/2.png"",""time"":199},{""stimulus"":""img/3to1/3.png"",""time"":298},{""stimulus"":""img/3to1/4.png"",""time"":396},{""stimulus"":""img/3to1/5.png"",""time"":495},{""stimulus"":""img/3to1/6.png"",""time"":595},{""stimulus"":""img/3to1/7.png"",""time"":694},{""stimulus"":""img/3to1/8.png"",""time"":793},{""stimulus"":""img/3to1/9.png"",""time"":892},{""stimulus"":""img/3to1/10.png"",""time"":991},{""stimulus"":""img/3to1/11.png"",""time"":1090},{""stimulus"":""img/3to1/12.png"",""time"":1189}]","[]"
"image-keyboard-response","138","264291","0.0-5.0-1.67","5bf0cb0411439b000168edda","bdp_cybrbll","Sun Mar 26 2023 23:44:29 GMT-0400 (Eastern Daylight Time)","584903","3","1","","null","","","","observe","","img/1to3/1.png","null","158","539","0.5","0.5","1","2","",""
"animation","139","265579","0.0-5.0-2.67","5bf0cb0411439b000168edda","bdp_cybrbll","Sun Mar 26 2023 23:44:29 GMT-0400 (Eastern Daylight Time)","584903","3","1","","","","","","","","","","158","","","","1","2","[{""stimulus"":""img/1to2/1.png"",""time"":100},{""stimulus"":""img/1to2/2.png"",""time"":199},{""stimulus"":""img/1to2/3.png"",""time"":299},{""stimulus"":""img/1to2/4.png"",""time"":397},{""stimulus"":""img/1to2/5.png"",""time"":496},{""stimulus"":""img/1to2/6.png"",""time"":595},{""stimulus"":""img/1to2/7.png"",""time"":695},{""stimulus"":""img/1to2/8.png"",""time"":795},{""stimulus"":""img/1to2/9.png"",""time"":893},{""stimulus"":""img/1to2/10.png"",""time"":991},{""stimulus"":""img/1to2/11.png"",""time"":1091},{""stimulus"":""img/1to2/12.png"",""time"":1190}]","[]"
"image-keyboard-response","140","265907","0.0-5.0-1.68","5bf0cb0411439b000168edda","bdp_cybrbll","Sun Mar 26 2023 23:44:29 GMT-0400 (Eastern Daylight Time)","584903","3","1","","327","","","","choice","","img/2to1/1.png","2","157","666","0.5","0.5","2","3","",""
"animation","141","267196","0.0-5.0-2.68","5bf0cb0411439b000168edda","bdp_cybrbll","Sun Mar 26 2023 23:44:29 GMT-0400 (Eastern Daylight Time)","584903","3","1","","","","","","","","","","157","","","","2","3","[{""stimulus"":""img/2to3/1.png"",""time"":100},{""stimulus"":""img/2to3/2.png"",""time"":199},{""stimulus"":""img/2to3/3.png"",""time"":298},{""stimulus"":""img/2to3/4.png"",""time"":397},{""stimulus"":""img/2to3/5.png"",""time"":496},{""stimulus"":""img/2to3/6.png"",""time"":595},{""stimulus"":""img/2to3/7.png"",""time"":694},{""stimulus"":""img/2to3/8.png"",""time"":792},{""stimulus"":""img/2to3/9.png"",""time"":892},{""stimulus"":""img/2to3/10.png"",""time"":991},{""stimulus"":""img/2to3/11.png"",""time"":1090},{""stimulus"":""img/2to3/12.png"",""time"":1188}]","[]"
"image-keyboard-response","142","267816","0.0-5.0-1.69","5bf0cb0411439b000168edda","bdp_cybrbll","Sun Mar 26 2023 23:44:29 GMT-0400 (Eastern Daylight Time)","584903","3","1","","null","","","","observe","","img/3to2/1.png","null","156","619","0.5","0.5","3","1","",""
"animation","143","269104","0.0-5.0-2.69","5bf0cb0411439b000168edda","bdp_cybrbll","Sun Mar 26 2023 23:44:29 GMT-0400 (Eastern Daylight Time)","584903","3","1","","","","","","","","","","156","","","","3","1","[{""stimulus"":""img/3to1/1.png"",""time"":100},{""stimulus"":""img/3to1/2.png"",""time"":199},{""stimulus"":""img/3to1/3.png"",""time"":298},{""stimulus"":""img/3to1/4.png"",""time"":397},{""stimulus"":""img/3to1/5.png"",""time"":496},{""stimulus"":""img/3to1/6.png"",""time"":595},{""stimulus"":""img/3to1/7.png"",""time"":694},{""stimulus"":""img/3to1/8.png"",""time"":793},{""stimulus"":""img/3to1/9.png"",""time"":892},{""stimulus"":""img/3to1/10.png"",""time"":991},{""stimulus"":""img/3to1/11.png"",""time"":1090},{""stimulus"":""img/3to1/12.png"",""time"":1189}]","[]"
"image-keyboard-response","144","269352","0.0-5.0-1.70","5bf0cb0411439b000168edda","bdp_cybrbll","Sun Mar 26 2023 23:44:29 GMT-0400 (Eastern Daylight Time)","584903","3","1","","null","","","","observe","","img/1to3/1.png","null","155","246","0.5","0.5","1","3","",""
"animation","145","270640","0.0-5.0-2.70","5bf0cb0411439b000168edda","bdp_cybrbll","Sun Mar 26 2023 23:44:29 GMT-0400 (Eastern Daylight Time)","584903","3","1","","","","","","","","","","155","","","","1","3","[{""stimulus"":""img/1to3/1.png"",""time"":100},{""stimulus"":""img/1to3/2.png"",""time"":199},{""stimulus"":""img/1to3/3.png"",""time"":298},{""stimulus"":""img/1to3/4.png"",""time"":397},{""stimulus"":""img/1to3/5.png"",""time"":496},{""stimulus"":""img/1to3/6.png"",""time"":595},{""stimulus"":""img/1to3/7.png"",""time"":694},{""stimulus"":""img/1to3/8.png"",""time"":793},{""stimulus"":""img/1to3/9.png"",""time"":892},{""stimulus"":""img/1to3/10.png"",""time"":991},{""stimulus"":""img/1to3/11.png"",""time"":1090},{""stimulus"":""img/1to3/12.png"",""time"":1188}]","[]"
"image-keyboard-response","146","271124","0.0-5.0-1.71","5bf0cb0411439b000168edda","bdp_cybrbll","Sun Mar 26 2023 23:44:29 GMT-0400 (Eastern Daylight Time)","584903","3","1","","null","","","","observe","","img/3to2/1.png","null","154","483","0.5","0.5","3","2","",""
"animation","147","272411","0.0-5.0-2.71","5bf0cb0411439b000168edda","bdp_cybrbll","Sun Mar 26 2023 23:44:29 GMT-0400 (Eastern Daylight Time)","584903","3","1","","","","","","","","","","154","","","","3","2","[{""stimulus"":""img/3to2/1.png"",""time"":100},{""stimulus"":""img/3to2/2.png"",""time"":199},{""stimulus"":""img/3to2/3.png"",""time"":297},{""stimulus"":""img/3to2/4.png"",""time"":397},{""stimulus"":""img/3to2/5.png"",""time"":496},{""stimulus"":""img/3to2/6.png"",""time"":595},{""stimulus"":""img/3to2/7.png"",""time"":694},{""stimulus"":""img/3to2/8.png"",""time"":793},{""stimulus"":""img/3to2/9.png"",""time"":892},{""stimulus"":""img/3to2/10.png"",""time"":991},{""stimulus"":""img/3to2/11.png"",""time"":1090},{""stimulus"":""img/3to2/12.png"",""time"":1188}]","[]"
"image-keyboard-response","148","272651","0.0-5.0-1.72","5bf0cb0411439b000168edda","bdp_cybrbll","Sun Mar 26 2023 23:44:29 GMT-0400 (Eastern Daylight Time)","584903","3","1","","239","","","","choice","","img/2to1/1.png","1","153","274","0.5","0.5","2","1","",""
"animation","149","273939","0.0-5.0-2.72","5bf0cb0411439b000168edda","bdp_cybrbll","Sun Mar 26 2023 23:44:29 GMT-0400 (Eastern Daylight Time)","584903","3","1","","","","","","","","","","153","","","","2","1","[{""stimulus"":""img/2to1/1.png"",""time"":101},{""stimulus"":""img/2to1/2.png"",""time"":200},{""stimulus"":""img/2to1/3.png"",""time"":299},{""stimulus"":""img/2to1/4.png"",""time"":397},{""stimulus"":""img/2to1/5.png"",""time"":496},{""stimulus"":""img/2to1/6.png"",""time"":596},{""stimulus"":""img/2to1/7.png"",""time"":694},{""stimulus"":""img/2to1/8.png"",""time"":795},{""stimulus"":""img/2to1/9.png"",""time"":893},{""stimulus"":""img/2to1/10.png"",""time"":992},{""stimulus"":""img/2to1/11.png"",""time"":1091},{""stimulus"":""img/2to1/12.png"",""time"":1190}]","[]"
"image-keyboard-response","150","274332","0.0-5.0-1.73","5bf0cb0411439b000168edda","bdp_cybrbll","Sun Mar 26 2023 23:44:29 GMT-0400 (Eastern Daylight Time)","584903","3","1","","null","","","","observe","","img/1to3/1.png","null","152","392","0.5","0.5","1","3","",""
"animation","151","275621","0.0-5.0-2.73","5bf0cb0411439b000168edda","bdp_cybrbll","Sun Mar 26 2023 23:44:29 GMT-0400 (Eastern Daylight Time)","584903","3","1","","","","","","","","","","152","","","","1","3","[{""stimulus"":""img/1to3/1.png"",""time"":100},{""stimulus"":""img/1to3/2.png"",""time"":199},{""stimulus"":""img/1to3/3.png"",""time"":299},{""stimulus"":""img/1to3/4.png"",""time"":397},{""stimulus"":""img/1to3/5.png"",""time"":497},{""stimulus"":""img/1to3/6.png"",""time"":596},{""stimulus"":""img/1to3/7.png"",""time"":695},{""stimulus"":""img/1to3/8.png"",""time"":794},{""stimulus"":""img/1to3/9.png"",""time"":893},{""stimulus"":""img/1to3/10.png"",""time"":992},{""stimulus"":""img/1to3/11.png"",""time"":1091},{""stimulus"":""img/1to3/12.png"",""time"":1190}]","[]"
"image-keyboard-response","152","275919","0.0-5.0-1.74","5bf0cb0411439b000168edda","bdp_cybrbll","Sun Mar 26 2023 23:44:29 GMT-0400 (Eastern Daylight Time)","584903","3","1","","null","","","","observe","","img/3to2/1.png","null","151","297","0.5","0.5","3","1","",""
"animation","153","277206","0.0-5.0-2.74","5bf0cb0411439b000168edda","bdp_cybrbll","Sun Mar 26 2023 23:44:29 GMT-0400 (Eastern Daylight Time)","584903","3","1","","","","","","","","","","151","","","","3","1","[{""stimulus"":""img/3to1/1.png"",""time"":100},{""stimulus"":""img/3to1/2.png"",""time"":199},{""stimulus"":""img/3to1/3.png"",""time"":299},{""stimulus"":""img/3to1/4.png"",""time"":397},{""stimulus"":""img/3to1/5.png"",""time"":497},{""stimulus"":""img/3to1/6.png"",""time"":595},{""stimulus"":""img/3to1/7.png"",""time"":694},{""stimulus"":""img/3to1/8.png"",""time"":793},{""stimulus"":""img/3to1/9.png"",""time"":892},{""stimulus"":""img/3to1/10.png"",""time"":991},{""stimulus"":""img/3to1/11.png"",""time"":1090},{""stimulus"":""img/3to1/12.png"",""time"":1188}]","[]"
"image-keyboard-response","154","277572","0.0-5.0-1.75","5bf0cb0411439b000168edda","bdp_cybrbll","Sun Mar 26 2023 23:44:29 GMT-0400 (Eastern Daylight Time)","584903","3","1","","null","","","","observe","","img/1to3/1.png","null","150","365","0.5","0.5","1","3","",""
"animation","155","278860","0.0-5.0-2.75","5bf0cb0411439b000168edda","bdp_cybrbll","Sun Mar 26 2023 23:44:29 GMT-0400 (Eastern Daylight Time)","584903","3","1","","","","","","","","","","150","","","","1","3","[{""stimulus"":""img/1to3/1.png"",""time"":100},{""stimulus"":""img/1to3/2.png"",""time"":199},{""stimulus"":""img/1to3/3.png"",""time"":298},{""stimulus"":""img/1to3/4.png"",""time"":397},{""stimulus"":""img/1to3/5.png"",""time"":496},{""stimulus"":""img/1to3/6.png"",""time"":595},{""stimulus"":""img/1to3/7.png"",""time"":694},{""stimulus"":""img/1to3/8.png"",""time"":793},{""stimulus"":""img/1to3/9.png"",""time"":892},{""stimulus"":""img/1to3/10.png"",""time"":991},{""stimulus"":""img/1to3/11.png"",""time"":1090},{""stimulus"":""img/1to3/12.png"",""time"":1189}]","[]"
"image-keyboard-response","156","279267","0.0-5.0-1.76","5bf0cb0411439b000168edda","bdp_cybrbll","Sun Mar 26 2023 23:44:29 GMT-0400 (Eastern Daylight Time)","584903","3","1","","null","","","","observe","","img/3to2/1.png","null","149","406","0.5","0.1","3","1","",""
"animation","157","280555","0.0-5.0-2.76","5bf0cb0411439b000168edda","bdp_cybrbll","Sun Mar 26 2023 23:44:29 GMT-0400 (Eastern Daylight Time)","584903","3","1","","","","","","","","","","149","","","","3","1","[{""stimulus"":""img/3to1/1.png"",""time"":100},{""stimulus"":""img/3to1/2.png"",""time"":199},{""stimulus"":""img/3to1/3.png"",""time"":298},{""stimulus"":""img/3to1/4.png"",""time"":397},{""stimulus"":""img/3to1/5.png"",""time"":496},{""stimulus"":""img/3to1/6.png"",""time"":595},{""stimulus"":""img/3to1/7.png"",""time"":694},{""stimulus"":""img/3to1/8.png"",""time"":793},{""stimulus"":""img/3to1/9.png"",""time"":892},{""stimulus"":""img/3to1/10.png"",""time"":991},{""stimulus"":""img/3to1/11.png"",""time"":1090},{""stimulus"":""img/3to1/12.png"",""time"":1189}]","[]"
"image-keyboard-response","158","281100","0.0-5.0-1.77","5bf0cb0411439b000168edda","bdp_cybrbll","Sun Mar 26 2023 23:44:29 GMT-0400 (Eastern Daylight Time)","584903","3","1","","null","","","","observe","","img/1to3/1.png","null","148","543","0.5","0.1","1","3","",""
"animation","159","282388","0.0-5.0-2.77","5bf0cb0411439b000168edda","bdp_cybrbll","Sun Mar 26 2023 23:44:29 GMT-0400 (Eastern Daylight Time)","584903","3","1","","","","","","","","","","148","","","","1","3","[{""stimulus"":""img/1to3/1.png"",""time"":100},{""stimulus"":""img/1to3/2.png"",""time"":199},{""stimulus"":""img/1to3/3.png"",""time"":298},{""stimulus"":""img/1to3/4.png"",""time"":397},{""stimulus"":""img/1to3/5.png"",""time"":496},{""stimulus"":""img/1to3/6.png"",""time"":596},{""stimulus"":""img/1to3/7.png"",""time"":694},{""stimulus"":""img/1to3/8.png"",""time"":793},{""stimulus"":""img/1to3/9.png"",""time"":892},{""stimulus"":""img/1to3/10.png"",""time"":991},{""stimulus"":""img/1to3/11.png"",""time"":1090},{""stimulus"":""img/1to3/12.png"",""time"":1190}]","[]"
"image-keyboard-response","160","282865","0.0-5.0-1.78","5bf0cb0411439b000168edda","bdp_cybrbll","Sun Mar 26 2023 23:44:29 GMT-0400 (Eastern Daylight Time)","584903","3","1","","null","","","","observe","","img/3to2/1.png","null","147","475","0.5","0.1","3","1","",""
"animation","161","284153","0.0-5.0-2.78","5bf0cb0411439b000168edda","bdp_cybrbll","Sun Mar 26 2023 23:44:29 GMT-0400 (Eastern Daylight Time)","584903","3","1","","","","","","","","","","147","","","","3","1","[{""stimulus"":""img/3to1/1.png"",""time"":101},{""stimulus"":""img/3to1/2.png"",""time"":199},{""stimulus"":""img/3to1/3.png"",""time"":299},{""stimulus"":""img/3to1/4.png"",""time"":397},{""stimulus"":""img/3to1/5.png"",""time"":497},{""stimulus"":""img/3to1/6.png"",""time"":596},{""stimulus"":""img/3to1/7.png"",""time"":694},{""stimulus"":""img/3to1/8.png"",""time"":793},{""stimulus"":""img/3to1/9.png"",""time"":893},{""stimulus"":""img/3to1/10.png"",""time"":991},{""stimulus"":""img/3to1/11.png"",""time"":1090},{""stimulus"":""img/3to1/12.png"",""time"":1189}]","[]"
"image-keyboard-response","162","284596","0.0-5.0-1.79","5bf0cb0411439b000168edda","bdp_cybrbll","Sun Mar 26 2023 23:44:29 GMT-0400 (Eastern Daylight Time)","584903","3","1","","null","","","","observe","","img/1to3/1.png","null","146","442","0.5","0.1","1","2","",""
"animation","163","285884","0.0-5.0-2.79","5bf0cb0411439b000168edda","bdp_cybrbll","Sun Mar 26 2023 23:44:29 GMT-0400 (Eastern Daylight Time)","584903","3","1","","","","","","","","","","146","","","","1","2","[{""stimulus"":""img/1to2/1.png"",""time"":99},{""stimulus"":""img/1to2/2.png"",""time"":198},{""stimulus"":""img/1to2/3.png"",""time"":298},{""stimulus"":""img/1to2/4.png"",""time"":397},{""stimulus"":""img/1to2/5.png"",""time"":495},{""stimulus"":""img/1to2/6.png"",""time"":594},{""stimulus"":""img/1to2/7.png"",""time"":694},{""stimulus"":""img/1to2/8.png"",""time"":793},{""stimulus"":""img/1to2/9.png"",""time"":892},{""stimulus"":""img/1to2/10.png"",""time"":991},{""stimulus"":""img/1to2/11.png"",""time"":1090},{""stimulus"":""img/1to2/12.png"",""time"":1188}]","[]"
"image-keyboard-response","164","286187","0.0-5.0-1.80","5bf0cb0411439b000168edda","bdp_cybrbll","Sun Mar 26 2023 23:44:29 GMT-0400 (Eastern Daylight Time)","584903","3","1","","302","","","","choice","","img/2to1/1.png","2","145","357","0.5","0.1","2","3","",""
"animation","165","287475","0.0-5.0-2.80","5bf0cb0411439b000168edda","bdp_cybrbll","Sun Mar 26 2023 23:44:29 GMT-0400 (Eastern Daylight Time)","584903","3","1","","","","","","","","","","145","","","","2","3","[{""stimulus"":""img/2to3/1.png"",""time"":101},{""stimulus"":""img/2to3/2.png"",""time"":199},{""stimulus"":""img/2to3/3.png"",""time"":298},{""stimulus"":""img/2to3/4.png"",""time"":397},{""stimulus"":""img/2to3/5.png"",""time"":497},{""stimulus"":""img/2to3/6.png"",""time"":594},{""stimulus"":""img/2to3/7.png"",""time"":694},{""stimulus"":""img/2to3/8.png"",""time"":793},{""stimulus"":""img/2to3/9.png"",""time"":893},{""stimulus"":""img/2to3/10.png"",""time"":991},{""stimulus"":""img/2to3/11.png"",""time"":1090},{""stimulus"":""img/2to3/12.png"",""time"":1189}]","[]"
"image-keyboard-response","166","287987","0.0-5.0-1.81","5bf0cb0411439b000168edda","bdp_cybrbll","Sun Mar 26 2023 23:44:29 GMT-0400 (Eastern Daylight Time)","584903","3","1","","null","","","","observe","","img/3to2/1.png","null","144","511","0.5","0.1","3","1","",""
"animation","167","289277","0.0-5.0-2.81","5bf0cb0411439b000168edda","bdp_cybrbll","Sun Mar 26 2023 23:44:29 GMT-0400 (Eastern Daylight Time)","584903","3","1","","","","","","","","","","144","","","","3","1","[{""stimulus"":""img/3to1/1.png"",""time"":99},{""stimulus"":""img/3to1/2.png"",""time"":198},{""stimulus"":""img/3to1/3.png"",""time"":298},{""stimulus"":""img/3to1/4.png"",""time"":397},{""stimulus"":""img/3to1/5.png"",""time"":496},{""stimulus"":""img/3to1/6.png"",""time"":594},{""stimulus"":""img/3to1/7.png"",""time"":693},{""stimulus"":""img/3to1/8.png"",""time"":793},{""stimulus"":""img/3to1/9.png"",""time"":891},{""stimulus"":""img/3to1/10.png"",""time"":990},{""stimulus"":""img/3to1/11.png"",""time"":1089},{""stimulus"":""img/3to1/12.png"",""time"":1189}]","[]"
"image-keyboard-response","168","289587","0.0-5.0-1.82","5bf0cb0411439b000168edda","bdp_cybrbll","Sun Mar 26 2023 23:44:29 GMT-0400 (Eastern Daylight Time)","584903","3","1","","null","","","","observe","","img/1to3/1.png","null","143","309","0.5","0.1","1","3","",""
"animation","169","290875","0.0-5.0-2.82","5bf0cb0411439b000168edda","bdp_cybrbll","Sun Mar 26 2023 23:44:29 GMT-0400 (Eastern Daylight Time)","584903","3","1","","","","","","","","","","143","","","","1","3","[{""stimulus"":""img/1to3/1.png"",""time"":101},{""stimulus"":""img/1to3/2.png"",""time"":199},{""stimulus"":""img/1to3/3.png"",""time"":299},{""stimulus"":""img/1to3/4.png"",""time"":397},{""stimulus"":""img/1to3/5.png"",""time"":496},{""stimulus"":""img/1to3/6.png"",""time"":597},{""stimulus"":""img/1to3/7.png"",""time"":694},{""stimulus"":""img/1to3/8.png"",""time"":794},{""stimulus"":""img/1to3/9.png"",""time"":893},{""stimulus"":""img/1to3/10.png"",""time"":991},{""stimulus"":""img/1to3/11.png"",""time"":1090},{""stimulus"":""img/1to3/12.png"",""time"":1189}]","[]"
"image-keyboard-response","170","291664","0.0-5.0-1.83","5bf0cb0411439b000168edda","bdp_cybrbll","Sun Mar 26 2023 23:44:29 GMT-0400 (Eastern Daylight Time)","584903","3","1","","null","","","","observe","","img/3to2/1.png","null","142","787","0.5","0.1","3","1","",""
"animation","171","292952","0.0-5.0-2.83","5bf0cb0411439b000168edda","bdp_cybrbll","Sun Mar 26 2023 23:44:29 GMT-0400 (Eastern Daylight Time)","584903","3","1","","","","","","","","","","142","","","","3","1","[{""stimulus"":""img/3to1/1.png"",""time"":101},{""stimulus"":""img/3to1/2.png"",""time"":199},{""stimulus"":""img/3to1/3.png"",""time"":298},{""stimulus"":""img/3to1/4.png"",""time"":397},{""stimulus"":""img/3to1/5.png"",""time"":496},{""stimulus"":""img/3to1/6.png"",""time"":596},{""stimulus"":""img/3to1/7.png"",""time"":694},{""stimulus"":""img/3to1/8.png"",""time"":793},{""stimulus"":""img/3to1/9.png"",""time"":892},{""stimulus"":""img/3to1/10.png"",""time"":991},{""stimulus"":""img/3to1/11.png"",""time"":1091},{""stimulus"":""img/3to1/12.png"",""time"":1190}]","[]"
"image-keyboard-response","172","293453","0.0-5.0-1.84","5bf0cb0411439b000168edda","bdp_cybrbll","Sun Mar 26 2023 23:44:29 GMT-0400 (Eastern Daylight Time)","584903","3","1","","null","","","","observe","","img/1to3/1.png","null","141","499","0.5","0.1","1","3","",""
"animation","173","294741","0.0-5.0-2.84","5bf0cb0411439b000168edda","bdp_cybrbll","Sun Mar 26 2023 23:44:29 GMT-0400 (Eastern Daylight Time)","584903","3","1","","","","","","","","","","141","","","","1","3","[{""stimulus"":""img/1to3/1.png"",""time"":100},{""stimulus"":""img/1to3/2.png"",""time"":199},{""stimulus"":""img/1to3/3.png"",""time"":297},{""stimulus"":""img/1to3/4.png"",""time"":397},{""stimulus"":""img/1to3/5.png"",""time"":496},{""stimulus"":""img/1to3/6.png"",""time"":595},{""stimulus"":""img/1to3/7.png"",""time"":694},{""stimulus"":""img/1to3/8.png"",""time"":793},{""stimulus"":""img/1to3/9.png"",""time"":892},{""stimulus"":""img/1to3/10.png"",""time"":992},{""stimulus"":""img/1to3/11.png"",""time"":1090},{""stimulus"":""img/1to3/12.png"",""time"":1189}]","[]"
"image-keyboard-response","174","295088","0.0-5.0-1.85","5bf0cb0411439b000168edda","bdp_cybrbll","Sun Mar 26 2023 23:44:29 GMT-0400 (Eastern Daylight Time)","584903","3","1","","null","","","","observe","","img/3to2/1.png","null","140","345","0.5","0.1","3","2","",""
"animation","175","296376","0.0-5.0-2.85","5bf0cb0411439b000168edda","bdp_cybrbll","Sun Mar 26 2023 23:44:29 GMT-0400 (Eastern Daylight Time)","584903","3","1","","","","","","","","","","140","","","","3","2","[{""stimulus"":""img/3to2/1.png"",""time"":101},{""stimulus"":""img/3to2/2.png"",""time"":199},{""stimulus"":""img/3to2/3.png"",""time"":298},{""stimulus"":""img/3to2/4.png"",""time"":397},{""stimulus"":""img/3to2/5.png"",""time"":496},{""stimulus"":""img/3to2/6.png"",""time"":595},{""stimulus"":""img/3to2/7.png"",""time"":694},{""stimulus"":""img/3to2/8.png"",""time"":793},{""stimulus"":""img/3to2/9.png"",""time"":892},{""stimulus"":""img/3to2/10.png"",""time"":991},{""stimulus"":""img/3to2/11.png"",""time"":1090},{""stimulus"":""img/3to2/12.png"",""time"":1189}]","[]"
"image-keyboard-response","176","297195","0.0-5.0-1.86","5bf0cb0411439b000168edda","bdp_cybrbll","Sun Mar 26 2023 23:44:29 GMT-0400 (Eastern Daylight Time)","584903","3","1","","817","","","","choice","","img/2to1/1.png","1","139","195","0.5","0.1","2","1","",""
"animation","177","298483","0.0-5.0-2.86","5bf0cb0411439b000168edda","bdp_cybrbll","Sun Mar 26 2023 23:44:29 GMT-0400 (Eastern Daylight Time)","584903","3","1","","","","","","","","","","139","","","","2","1","[{""stimulus"":""img/2to1/1.png"",""time"":100},{""stimulus"":""img/2to1/2.png"",""time"":199},{""stimulus"":""img/2to1/3.png"",""time"":297},{""stimulus"":""img/2to1/4.png"",""time"":396},{""stimulus"":""img/2to1/5.png"",""time"":495},{""stimulus"":""img/2to1/6.png"",""time"":594},{""stimulus"":""img/2to1/7.png"",""time"":695},{""stimulus"":""img/2to1/8.png"",""time"":792},{""stimulus"":""img/2to1/9.png"",""time"":892},{""stimulus"":""img/2to1/10.png"",""time"":991},{""stimulus"":""img/2to1/11.png"",""time"":1091},{""stimulus"":""img/2to1/12.png"",""time"":1189}]","[]"
"image-keyboard-response","178","298842","0.0-5.0-1.87","5bf0cb0411439b000168edda","bdp_cybrbll","Sun Mar 26 2023 23:44:29 GMT-0400 (Eastern Daylight Time)","584903","3","1","","null","","","","observe","","img/1to3/1.png","null","138","358","0.5","0.1","1","3","",""
"animation","179","300130","0.0-5.0-2.87","5bf0cb0411439b000168edda","bdp_cybrbll","Sun Mar 26 2023 23:44:29 GMT-0400 (Eastern Daylight Time)","584903","3","1","","","","","","","","","","138","","","","1","3","[{""stimulus"":""img/1to3/1.png"",""time"":100},{""stimulus"":""img/1to3/2.png"",""time"":199},{""stimulus"":""img/1to3/3.png"",""time"":299},{""stimulus"":""img/1to3/4.png"",""time"":397},{""stimulus"":""img/1to3/5.png"",""time"":497},{""stimulus"":""img/1to3/6.png"",""time"":597},{""stimulus"":""img/1to3/7.png"",""time"":694},{""stimulus"":""img/1to3/8.png"",""time"":794},{""stimulus"":""img/1to3/9.png"",""time"":893},{""stimulus"":""img/1to3/10.png"",""time"":992},{""stimulus"":""img/1to3/11.png"",""time"":1091},{""stimulus"":""img/1to3/12.png"",""time"":1190}]","[]"
"image-keyboard-response","180","300307","0.0-5.0-1.88","5bf0cb0411439b000168edda","bdp_cybrbll","Sun Mar 26 2023 23:44:29 GMT-0400 (Eastern Daylight Time)","584903","3","1","","null","","","","observe","","img/3to2/1.png","null","137","175","0.5","0.1","3","1","",""
"animation","181","301595","0.0-5.0-2.88","5bf0cb0411439b000168edda","bdp_cybrbll","Sun Mar 26 2023 23:44:29 GMT-0400 (Eastern Daylight Time)","584903","3","1","","","","","","","","","","137","","","","3","1","[{""stimulus"":""img/3to1/1.png"",""time"":99},{""stimulus"":""img/3to1/2.png"",""time"":198},{""stimulus"":""img/3to1/3.png"",""time"":298},{""stimulus"":""img/3to1/4.png"",""time"":397},{""stimulus"":""img/3to1/5.png"",""time"":496},{""stimulus"":""img/3to1/6.png"",""time"":595},{""stimulus"":""img/3to1/7.png"",""time"":694},{""stimulus"":""img/3to1/8.png"",""time"":793},{""stimulus"":""img/3to1/9.png"",""time"":892},{""stimulus"":""img/3to1/10.png"",""time"":991},{""stimulus"":""img/3to1/11.png"",""time"":1090},{""stimulus"":""img/3to1/12.png"",""time"":1188}]","[]"
"image-keyboard-response","182","301850","0.0-5.0-1.89","5bf0cb0411439b000168edda","bdp_cybrbll","Sun Mar 26 2023 23:44:29 GMT-0400 (Eastern Daylight Time)","584903","3","1","","null","","","","observe","","img/1to3/1.png","null","136","253","0.5","0.1","1","2","",""
"animation","183","303137","0.0-5.0-2.89","5bf0cb0411439b000168edda","bdp_cybrbll","Sun Mar 26 2023 23:44:29 GMT-0400 (Eastern Daylight Time)","584903","3","1","","","","","","","","","","136","","","","1","2","[{""stimulus"":""img/1to2/1.png"",""time"":100},{""stimulus"":""img/1to2/2.png"",""time"":200},{""stimulus"":""img/1to2/3.png"",""time"":299},{""stimulus"":""img/1to2/4.png"",""time"":397},{""stimulus"":""img/1to2/5.png"",""time"":496},{""stimulus"":""img/1to2/6.png"",""time"":596},{""stimulus"":""img/1to2/7.png"",""time"":695},{""stimulus"":""img/1to2/8.png"",""time"":794},{""stimulus"":""img/1to2/9.png"",""time"":893},{""stimulus"":""img/1to2/10.png"",""time"":992},{""stimulus"":""img/1to2/11.png"",""time"":1090},{""stimulus"":""img/1to2/12.png"",""time"":1189}]","[]"
"image-keyboard-response","184","304083","0.0-5.0-1.90","5bf0cb0411439b000168edda","bdp_cybrbll","Sun Mar 26 2023 23:44:29 GMT-0400 (Eastern Daylight Time)","584903","3","1","","945","","","","choice","","img/2to1/1.png","2","135","559","0.5","0.1","2","3","",""
"animation","185","305372","0.0-5.0-2.90","5bf0cb0411439b000168edda","bdp_cybrbll","Sun Mar 26 2023 23:44:29 GMT-0400 (Eastern Daylight Time)","584903","3","1","","","","","","","","","","135","","","","2","3","[{""stimulus"":""img/2to3/1.png"",""time"":99},{""stimulus"":""img/2to3/2.png"",""time"":198},{""stimulus"":""img/2to3/3.png"",""time"":298},{""stimulus"":""img/2to3/4.png"",""time"":397},{""stimulus"":""img/2to3/5.png"",""time"":496},{""stimulus"":""img/2to3/6.png"",""time"":595},{""stimulus"":""img/2to3/7.png"",""time"":694},{""stimulus"":""img/2to3/8.png"",""time"":792},{""stimulus"":""img/2to3/9.png"",""time"":893},{""stimulus"":""img/2to3/10.png"",""time"":991},{""stimulus"":""img/2to3/11.png"",""time"":1090},{""stimulus"":""img/2to3/12.png"",""time"":1188}]","[]"
"image-keyboard-response","186","305925","0.0-5.0-1.91","5bf0cb0411439b000168edda","bdp_cybrbll","Sun Mar 26 2023 23:44:29 GMT-0400 (Eastern Daylight Time)","584903","3","1","","null","","","","observe","","img/3to2/1.png","null","134","552","0.5","0.1","3","1","",""
"animation","187","307214","0.0-5.0-2.91","5bf0cb0411439b000168edda","bdp_cybrbll","Sun Mar 26 2023 23:44:29 GMT-0400 (Eastern Daylight Time)","584903","3","1","","","","","","","","","","134","","","","3","1","[{""stimulus"":""img/3to1/1.png"",""time"":100},{""stimulus"":""img/3to1/2.png"",""time"":199},{""stimulus"":""img/3to1/3.png"",""time"":299},{""stimulus"":""img/3to1/4.png"",""time"":397},{""stimulus"":""img/3to1/5.png"",""time"":497},{""stimulus"":""img/3to1/6.png"",""time"":596},{""stimulus"":""img/3to1/7.png"",""time"":694},{""stimulus"":""img/3to1/8.png"",""time"":794},{""stimulus"":""img/3to1/9.png"",""time"":892},{""stimulus"":""img/3to1/10.png"",""time"":991},{""stimulus"":""img/3to1/11.png"",""time"":1090},{""stimulus"":""img/3to1/12.png"",""time"":1190}]","[]"
"image-keyboard-response","188","307505","0.0-5.0-1.92","5bf0cb0411439b000168edda","bdp_cybrbll","Sun Mar 26 2023 23:44:29 GMT-0400 (Eastern Daylight Time)","584903","3","1","","null","","","","observe","","img/1to3/1.png","null","133","290","0.5","0.1","1","3","",""
"animation","189","308792","0.0-5.0-2.92","5bf0cb0411439b000168edda","bdp_cybrbll","Sun Mar 26 2023 23:44:29 GMT-0400 (Eastern Daylight Time)","584903","3","1","","","","","","","","","","133","","","","1","3","[{""stimulus"":""img/1to3/1.png"",""time"":99},{""stimulus"":""img/1to3/2.png"",""time"":199},{""stimulus"":""img/1to3/3.png"",""time"":299},{""stimulus"":""img/1to3/4.png"",""time"":398},{""stimulus"":""img/1to3/5.png"",""time"":496},{""stimulus"":""img/1to3/6.png"",""time"":595},{""stimulus"":""img/1to3/7.png"",""time"":694},{""stimulus"":""img/1to3/8.png"",""time"":793},{""stimulus"":""img/1to3/9.png"",""time"":891},{""stimulus"":""img/1to3/10.png"",""time"":991},{""stimulus"":""img/1to3/11.png"",""time"":1091},{""stimulus"":""img/1to3/12.png"",""time"":1189}]","[]"
"image-keyboard-response","190","309080","0.0-5.0-1.93","5bf0cb0411439b000168edda","bdp_cybrbll","Sun Mar 26 2023 23:44:29 GMT-0400 (Eastern Daylight Time)","584903","3","1","","null","","","","observe","","img/3to2/1.png","null","132","287","0.5","0.1","3","1","",""
