"trial_type","trial_index","time_elapsed","internal_node_id","subject_id","task","startTime","totalTime","fairPartner","unfairPartner","view_history","rt","event","trial","time","trialtype","success","stimulus","key_press","throwsLeft","rtDur","pFair","pUnfair","holder","receiver","animation_sequence","responses","numBlurs"
"pavlovia","0","2","0.0-0.0","63d80145d2f0da3ee6a8d523","bdp_cybrbll","Sun Mar 26 2023 09:02:29 GMT-0500 (Central Daylight Time)","462553","3","1","","","","","","","","","","","","","","","","","",""
"instructions","1","1060","0.0-1.0","63d80145d2f0da3ee6a8d523","bdp_cybrbll","Sun Mar 26 2023 09:02:29 GMT-0500 (Central Daylight Time)","462553","3","1","[{""page_index"":0,""viewing_time"":1057}]","1058","","","","","","","","","","","","","","","",""
"","","","","63d80145d2f0da3ee6a8d523","bdp_cybrbll","Sun Mar 26 2023 09:02:29 GMT-0500 (Central Daylight Time)","462553","3","1","","","fullscreenenter","2","2313","fullscreenenter","","","","","","","","","","","",""
"fullscreen","2","3313","0.0-2.0","63d80145d2f0da3ee6a8d523","bdp_cybrbll","Sun Mar 26 2023 09:02:29 GMT-0500 (Central Daylight Time)","462553","3","1","","","","","","","true","","","","","","","","","","",""
"instructions","3","8336","0.0-4.0","63d80145d2f0da3ee6a8d523","bdp_cybrbll","Sun Mar 26 2023 09:02:29 GMT-0500 (Central Daylight Time)","462553","3","1","[{""page_index"":0,""viewing_time"":5022}]","5022","","","","","","","","","","","","","","","",""
"image-keyboard-response","4","10591","0.0-5.0-1.0","63d80145d2f0da3ee6a8d523","bdp_cybrbll","Sun Mar 26 2023 09:02:29 GMT-0500 (Central Daylight Time)","462553","3","1","","2254","","","","choice","","img/2to1/1.png","2","225","663","0.5","0.5","2","3","","",""
"animation","5","11886","0.0-5.0-2.0","63d80145d2f0da3ee6a8d523","bdp_cybrbll","Sun Mar 26 2023 09:02:29 GMT-0500 (Central Daylight Time)","462553","3","1","","","","","","","","","","225","","","","2","3","[{""stimulus"":""img/2to3/1.png"",""time"":113},{""stimulus"":""img/2to3/2.png"",""time"":209},{""stimulus"":""img/2to3/3.png"",""time"":305},{""stimulus"":""img/2to3/4.png"",""time"":402},{""stimulus"":""img/2to3/5.png"",""time"":498},{""stimulus"":""img/2to3/6.png"",""time"":609},{""stimulus"":""img/2to3/7.png"",""time"":704},{""stimulus"":""img/2to3/8.png"",""time"":800},{""stimulus"":""img/2to3/9.png"",""time"":892},{""stimulus"":""img/2to3/10.png"",""time"":991},{""stimulus"":""img/2to3/11.png"",""time"":1104},{""stimulus"":""img/2to3/12.png"",""time"":1200}]","[]",""
"image-keyboard-response","6","12158","0.0-5.0-1.1","63d80145d2f0da3ee6a8d523","bdp_cybrbll","Sun Mar 26 2023 09:02:29 GMT-0500 (Central Daylight Time)","462553","3","1","","null","","","","observe","","img/3to2/1.png","null","224","258","0.5","0.5","3","1","","",""
"animation","7","13448","0.0-5.0-2.1","63d80145d2f0da3ee6a8d523","bdp_cybrbll","Sun Mar 26 2023 09:02:29 GMT-0500 (Central Daylight Time)","462553","3","1","","","","","","","","","","224","","","","3","1","[{""stimulus"":""img/3to1/1.png"",""time"":112},{""stimulus"":""img/3to1/2.png"",""time"":207},{""stimulus"":""img/3to1/3.png"",""time"":303},{""stimulus"":""img/3to1/4.png"",""time"":399},{""stimulus"":""img/3to1/5.png"",""time"":511},{""stimulus"":""img/3to1/6.png"",""time"":607},{""stimulus"":""img/3to1/7.png"",""time"":702},{""stimulus"":""img/3to1/8.png"",""time"":796},{""stimulus"":""img/3to1/9.png"",""time"":892},{""stimulus"":""img/3to1/10.png"",""time"":1003},{""stimulus"":""img/3to1/11.png"",""time"":1099},{""stimulus"":""img/3to1/12.png"",""time"":1195}]","[]",""
"image-keyboard-response","8","13911","0.0-5.0-1.2","63d80145d2f0da3ee6a8d523","bdp_cybrbll","Sun Mar 26 2023 09:02:29 GMT-0500 (Central Daylight Time)","462553","3","1","","null","","","","observe","","img/1to3/1.png","null","223","450","0.5","0.5","1","3","","",""
"animation","9","15205","0.0-5.0-2.2","63d80145d2f0da3ee6a8d523","bdp_cybrbll","Sun Mar 26 2023 09:02:29 GMT-0500 (Central Daylight Time)","462553","3","1","","","","","","","","","","223","","","","1","3","[{""stimulus"":""img/1to3/1.png"",""time"":111},{""stimulus"":""img/1to3/2.png"",""time"":207},{""stimulus"":""img/1to3/3.png"",""time"":303},{""stimulus"":""img/1to3/4.png"",""time"":398},{""stimulus"":""img/1to3/5.png"",""time"":510},{""stimulus"":""img/1to3/6.png"",""time"":607},{""stimulus"":""img/1to3/7.png"",""time"":703},{""stimulus"":""img/1to3/8.png"",""time"":799},{""stimulus"":""img/1to3/9.png"",""time"":895},{""stimulus"":""img/1to3/10.png"",""time"":1006},{""stimulus"":""img/1to3/11.png"",""time"":1102},{""stimulus"":""img/1to3/12.png"",""time"":1198}]","[]",""
"image-keyboard-response","10","16003","0.0-5.0-1.3","63d80145d2f0da3ee6a8d523","bdp_cybrbll","Sun Mar 26 2023 09:02:29 GMT-0500 (Central Daylight Time)","462553","3","1","","null","","","","observe","","img/3to2/1.png","null","222","794","0.5","0.5","3","2","","",""
"animation","11","17297","0.0-5.0-2.3","63d80145d2f0da3ee6a8d523","bdp_cybrbll","Sun Mar 26 2023 09:02:29 GMT-0500 (Central Daylight Time)","462553","3","1","","","","","","","","","","222","","","","3","2","[{""stimulus"":""img/3to2/1.png"",""time"":112},{""stimulus"":""img/3to2/2.png"",""time"":208},{""stimulus"":""img/3to2/3.png"",""time"":304},{""stimulus"":""img/3to2/4.png"",""time"":399},{""stimulus"":""img/3to2/5.png"",""time"":495},{""stimulus"":""img/3to2/6.png"",""time"":608},{""stimulus"":""img/3to2/7.png"",""time"":704},{""stimulus"":""img/3to2/8.png"",""time"":800},{""stimulus"":""img/3to2/9.png"",""time"":896},{""stimulus"":""img/3to2/10.png"",""time"":992},{""stimulus"":""img/3to2/11.png"",""time"":1103},{""stimulus"":""img/3to2/12.png"",""time"":1199}]","[]",""
"image-keyboard-response","12","17754","0.0-5.0-1.4","63d80145d2f0da3ee6a8d523","bdp_cybrbll","Sun Mar 26 2023 09:02:29 GMT-0500 (Central Daylight Time)","462553","3","1","","456","","","","choice","","img/2to1/1.png","1","221","672","0.5","0.5","2","1","","",""
"animation","13","19057","0.0-5.0-2.4","63d80145d2f0da3ee6a8d523","bdp_cybrbll","Sun Mar 26 2023 09:02:29 GMT-0500 (Central Daylight Time)","462553","3","1","","","","","","","","","","221","","","","2","1","[{""stimulus"":""img/2to1/1.png"",""time"":104},{""stimulus"":""img/2to1/2.png"",""time"":200},{""stimulus"":""img/2to1/3.png"",""time"":312},{""stimulus"":""img/2to1/4.png"",""time"":408},{""stimulus"":""img/2to1/5.png"",""time"":504},{""stimulus"":""img/2to1/6.png"",""time"":599},{""stimulus"":""img/2to1/7.png"",""time"":694},{""stimulus"":""img/2to1/8.png"",""time"":806},{""stimulus"":""img/2to1/9.png"",""time"":902},{""stimulus"":""img/2to1/10.png"",""time"":998},{""stimulus"":""img/2to1/11.png"",""time"":1095},{""stimulus"":""img/2to1/12.png"",""time"":1191}]","[]",""
"image-keyboard-response","14","19216","0.0-5.0-1.5","63d80145d2f0da3ee6a8d523","bdp_cybrbll","Sun Mar 26 2023 09:02:29 GMT-0500 (Central Daylight Time)","462553","3","1","","null","","","","observe","","img/1to3/1.png","null","220","149","0.5","0.5","1","2","","",""
"animation","15","20509","0.0-5.0-2.5","63d80145d2f0da3ee6a8d523","bdp_cybrbll","Sun Mar 26 2023 09:02:29 GMT-0500 (Central Daylight Time)","462553","3","1","","","","","","","","","","220","","","","1","2","[{""stimulus"":""img/1to2/1.png"",""time"":111},{""stimulus"":""img/1to2/2.png"",""time"":207},{""stimulus"":""img/1to2/3.png"",""time"":303},{""stimulus"":""img/1to2/4.png"",""time"":399},{""stimulus"":""img/1to2/5.png"",""time"":509},{""stimulus"":""img/1to2/6.png"",""time"":605},{""stimulus"":""img/1to2/7.png"",""time"":702},{""stimulus"":""img/1to2/8.png"",""time"":798},{""stimulus"":""img/1to2/9.png"",""time"":894},{""stimulus"":""img/1to2/10.png"",""time"":1005},{""stimulus"":""img/1to2/11.png"",""time"":1101},{""stimulus"":""img/1to2/12.png"",""time"":1197}]","[]",""
"image-keyboard-response","16","21163","0.0-5.0-1.6","63d80145d2f0da3ee6a8d523","bdp_cybrbll","Sun Mar 26 2023 09:02:29 GMT-0500 (Central Daylight Time)","462553","3","1","","654","","","","choice","","img/2to1/1.png","2","219","1269","0.5","0.5","2","3","","",""
"animation","17","22453","0.0-5.0-2.6","63d80145d2f0da3ee6a8d523","bdp_cybrbll","Sun Mar 26 2023 09:02:29 GMT-0500 (Central Daylight Time)","462553","3","1","","","","","","","","","","219","","","","2","3","[{""stimulus"":""img/2to3/1.png"",""time"":111},{""stimulus"":""img/2to3/2.png"",""time"":207},{""stimulus"":""img/2to3/3.png"",""time"":303},{""stimulus"":""img/2to3/4.png"",""time"":398},{""stimulus"":""img/2to3/5.png"",""time"":510},{""stimulus"":""img/2to3/6.png"",""time"":606},{""stimulus"":""img/2to3/7.png"",""time"":701},{""stimulus"":""img/2to3/8.png"",""time"":796},{""stimulus"":""img/2to3/9.png"",""time"":893},{""stimulus"":""img/2to3/10.png"",""time"":1005},{""stimulus"":""img/2to3/11.png"",""time"":1100},{""stimulus"":""img/2to3/12.png"",""time"":1194}]","[]",""
"image-keyboard-response","18","22977","0.0-5.0-1.7","63d80145d2f0da3ee6a8d523","bdp_cybrbll","Sun Mar 26 2023 09:02:29 GMT-0500 (Central Daylight Time)","462553","3","1","","null","","","","observe","","img/3to2/1.png","null","218","514","0.5","0.5","3","1","","",""
"animation","19","24265","0.0-5.0-2.7","63d80145d2f0da3ee6a8d523","bdp_cybrbll","Sun Mar 26 2023 09:02:29 GMT-0500 (Central Daylight Time)","462553","3","1","","","","","","","","","","218","","","","3","1","[{""stimulus"":""img/3to1/1.png"",""time"":113},{""stimulus"":""img/3to1/2.png"",""time"":208},{""stimulus"":""img/3to1/3.png"",""time"":305},{""stimulus"":""img/3to1/4.png"",""time"":401},{""stimulus"":""img/3to1/5.png"",""time"":497},{""stimulus"":""img/3to1/6.png"",""time"":609},{""stimulus"":""img/3to1/7.png"",""time"":704},{""stimulus"":""img/3to1/8.png"",""time"":800},{""stimulus"":""img/3to1/9.png"",""time"":896},{""stimulus"":""img/3to1/10.png"",""time"":992},{""stimulus"":""img/3to1/11.png"",""time"":1104},{""stimulus"":""img/3to1/12.png"",""time"":1200}]","[]",""
"image-keyboard-response","20","24641","0.0-5.0-1.8","63d80145d2f0da3ee6a8d523","bdp_cybrbll","Sun Mar 26 2023 09:02:29 GMT-0500 (Central Daylight Time)","462553","3","1","","null","","","","observe","","img/1to3/1.png","null","217","371","0.5","0.5","1","3","","",""
"animation","21","25936","0.0-5.0-2.8","63d80145d2f0da3ee6a8d523","bdp_cybrbll","Sun Mar 26 2023 09:02:29 GMT-0500 (Central Daylight Time)","462553","3","1","","","","","","","","","","217","","","","1","3","[{""stimulus"":""img/1to3/1.png"",""time"":112},{""stimulus"":""img/1to3/2.png"",""time"":208},{""stimulus"":""img/1to3/3.png"",""time"":304},{""stimulus"":""img/1to3/4.png"",""time"":400},{""stimulus"":""img/1to3/5.png"",""time"":496},{""stimulus"":""img/1to3/6.png"",""time"":609},{""stimulus"":""img/1to3/7.png"",""time"":704},{""stimulus"":""img/1to3/8.png"",""time"":799},{""stimulus"":""img/1to3/9.png"",""time"":896},{""stimulus"":""img/1to3/10.png"",""time"":992},{""stimulus"":""img/1to3/11.png"",""time"":1104},{""stimulus"":""img/1to3/12.png"",""time"":1200}]","[]",""
"image-keyboard-response","22","26272","0.0-5.0-1.9","63d80145d2f0da3ee6a8d523","bdp_cybrbll","Sun Mar 26 2023 09:02:29 GMT-0500 (Central Daylight Time)","462553","3","1","","null","","","","observe","","img/3to2/1.png","null","216","326","0.5","0.5","3","2","","",""
"animation","23","27565","0.0-5.0-2.9","63d80145d2f0da3ee6a8d523","bdp_cybrbll","Sun Mar 26 2023 09:02:29 GMT-0500 (Central Daylight Time)","462553","3","1","","","","","","","","","","216","","","","3","2","[{""stimulus"":""img/3to2/1.png"",""time"":111},{""stimulus"":""img/3to2/2.png"",""time"":208},{""stimulus"":""img/3to2/3.png"",""time"":304},{""stimulus"":""img/3to2/4.png"",""time"":400},{""stimulus"":""img/3to2/5.png"",""time"":496},{""stimulus"":""img/3to2/6.png"",""time"":608},{""stimulus"":""img/3to2/7.png"",""time"":704},{""stimulus"":""img/3to2/8.png"",""time"":800},{""stimulus"":""img/3to2/9.png"",""time"":895},{""stimulus"":""img/3to2/10.png"",""time"":1006},{""stimulus"":""img/3to2/11.png"",""time"":1101},{""stimulus"":""img/3to2/12.png"",""time"":1197}]","[]",""
"image-keyboard-response","24","27746","0.0-5.0-1.10","63d80145d2f0da3ee6a8d523","bdp_cybrbll","Sun Mar 26 2023 09:02:29 GMT-0500 (Central Daylight Time)","462553","3","1","","180","","","","choice","","img/2to1/1.png","1","215","730","0.5","0.5","2","1","","",""
"animation","25","29035","0.0-5.0-2.10","63d80145d2f0da3ee6a8d523","bdp_cybrbll","Sun Mar 26 2023 09:02:29 GMT-0500 (Central Daylight Time)","462553","3","1","","","","","","","","","","215","","","","2","1","[{""stimulus"":""img/2to1/1.png"",""time"":108},{""stimulus"":""img/2to1/2.png"",""time"":204},{""stimulus"":""img/2to1/3.png"",""time"":300},{""stimulus"":""img/2to1/4.png"",""time"":397},{""stimulus"":""img/2to1/5.png"",""time"":506},{""stimulus"":""img/2to1/6.png"",""time"":602},{""stimulus"":""img/2to1/7.png"",""time"":698},{""stimulus"":""img/2to1/8.png"",""time"":794},{""stimulus"":""img/2to1/9.png"",""time"":905},{""stimulus"":""img/2to1/10.png"",""time"":1000},{""stimulus"":""img/2to1/11.png"",""time"":1097},{""stimulus"":""img/2to1/12.png"",""time"":1193}]","[]",""
"image-keyboard-response","26","29656","0.0-5.0-1.11","63d80145d2f0da3ee6a8d523","bdp_cybrbll","Sun Mar 26 2023 09:02:29 GMT-0500 (Central Daylight Time)","462553","3","1","","null","","","","observe","","img/1to3/1.png","null","214","620","0.5","0.5","1","3","","",""
"animation","27","30944","0.0-5.0-2.11","63d80145d2f0da3ee6a8d523","bdp_cybrbll","Sun Mar 26 2023 09:02:29 GMT-0500 (Central Daylight Time)","462553","3","1","","","","","","","","","","214","","","","1","3","[{""stimulus"":""img/1to3/1.png"",""time"":101},{""stimulus"":""img/1to3/2.png"",""time"":200},{""stimulus"":""img/1to3/3.png"",""time"":298},{""stimulus"":""img/1to3/4.png"",""time"":397},{""stimulus"":""img/1to3/5.png"",""time"":496},{""stimulus"":""img/1to3/6.png"",""time"":595},{""stimulus"":""img/1to3/7.png"",""time"":694},{""stimulus"":""img/1to3/8.png"",""time"":793},{""stimulus"":""img/1to3/9.png"",""time"":892},{""stimulus"":""img/1to3/10.png"",""time"":991},{""stimulus"":""img/1to3/11.png"",""time"":1090},{""stimulus"":""img/1to3/12.png"",""time"":1189}]","[]",""
"image-keyboard-response","28","31190","0.0-5.0-1.12","63d80145d2f0da3ee6a8d523","bdp_cybrbll","Sun Mar 26 2023 09:02:29 GMT-0500 (Central Daylight Time)","462553","3","1","","null","","","","observe","","img/3to2/1.png","null","213","245","0.5","0.5","3","2","","",""
"animation","29","32478","0.0-5.0-2.12","63d80145d2f0da3ee6a8d523","bdp_cybrbll","Sun Mar 26 2023 09:02:29 GMT-0500 (Central Daylight Time)","462553","3","1","","","","","","","","","","213","","","","3","2","[{""stimulus"":""img/3to2/1.png"",""time"":100},{""stimulus"":""img/3to2/2.png"",""time"":199},{""stimulus"":""img/3to2/3.png"",""time"":297},{""stimulus"":""img/3to2/4.png"",""time"":396},{""stimulus"":""img/3to2/5.png"",""time"":495},{""stimulus"":""img/3to2/6.png"",""time"":594},{""stimulus"":""img/3to2/7.png"",""time"":693},{""stimulus"":""img/3to2/8.png"",""time"":792},{""stimulus"":""img/3to2/9.png"",""time"":892},{""stimulus"":""img/3to2/10.png"",""time"":991},{""stimulus"":""img/3to2/11.png"",""time"":1090},{""stimulus"":""img/3to2/12.png"",""time"":1189}]","[]",""
"image-keyboard-response","30","32649","0.0-5.0-1.13","63d80145d2f0da3ee6a8d523","bdp_cybrbll","Sun Mar 26 2023 09:02:29 GMT-0500 (Central Daylight Time)","462553","3","1","","171","","","","choice","","img/2to1/1.png","2","212","416","0.5","0.5","2","3","","",""
"animation","31","33936","0.0-5.0-2.13","63d80145d2f0da3ee6a8d523","bdp_cybrbll","Sun Mar 26 2023 09:02:29 GMT-0500 (Central Daylight Time)","462553","3","1","","","","","","","","","","212","","","","2","3","[{""stimulus"":""img/2to3/1.png"",""time"":99},{""stimulus"":""img/2to3/2.png"",""time"":198},{""stimulus"":""img/2to3/3.png"",""time"":297},{""stimulus"":""img/2to3/4.png"",""time"":396},{""stimulus"":""img/2to3/5.png"",""time"":496},{""stimulus"":""img/2to3/6.png"",""time"":595},{""stimulus"":""img/2to3/7.png"",""time"":694},{""stimulus"":""img/2to3/8.png"",""time"":793},{""stimulus"":""img/2to3/9.png"",""time"":892},{""stimulus"":""img/2to3/10.png"",""time"":991},{""stimulus"":""img/2to3/11.png"",""time"":1090},{""stimulus"":""img/2to3/12.png"",""time"":1188}]","[]",""
"image-keyboard-response","32","34439","0.0-5.0-1.14","63d80145d2f0da3ee6a8d523","bdp_cybrbll","Sun Mar 26 2023 09:02:29 GMT-0500 (Central Daylight Time)","462553","3","1","","null","","","","observe","","img/3to2/1.png","null","211","502","0.5","0.5","3","1","","",""
"animation","33","35727","0.0-5.0-2.14","63d80145d2f0da3ee6a8d523","bdp_cybrbll","Sun Mar 26 2023 09:02:29 GMT-0500 (Central Daylight Time)","462553","3","1","","","","","","","","","","211","","","","3","1","[{""stimulus"":""img/3to1/1.png"",""time"":100},{""stimulus"":""img/3to1/2.png"",""time"":198},{""stimulus"":""img/3to1/3.png"",""time"":297},{""stimulus"":""img/3to1/4.png"",""time"":396},{""stimulus"":""img/3to1/5.png"",""time"":495},{""stimulus"":""img/3to1/6.png"",""time"":594},{""stimulus"":""img/3to1/7.png"",""time"":693},{""stimulus"":""img/3to1/8.png"",""time"":792},{""stimulus"":""img/3to1/9.png"",""time"":891},{""stimulus"":""img/3to1/10.png"",""time"":991},{""stimulus"":""img/3to1/11.png"",""time"":1090},{""stimulus"":""img/3to1/12.png"",""time"":1189}]","[]",""
"image-keyboard-response","34","36029","0.0-5.0-1.15","63d80145d2f0da3ee6a8d523","bdp_cybrbll","Sun Mar 26 2023 09:02:29 GMT-0500 (Central Daylight Time)","462553","3","1","","null","","","","observe","","img/1to3/1.png","null","210","301","0.5","0.5","1","3","","",""
"animation","35","37317","0.0-5.0-2.15","63d80145d2f0da3ee6a8d523","bdp_cybrbll","Sun Mar 26 2023 09:02:29 GMT-0500 (Central Daylight Time)","462553","3","1","","","","","","","","","","210","","","","1","3","[{""stimulus"":""img/1to3/1.png"",""time"":100},{""stimulus"":""img/1to3/2.png"",""time"":199},{""stimulus"":""img/1to3/3.png"",""time"":297},{""stimulus"":""img/1to3/4.png"",""time"":396},{""stimulus"":""img/1to3/5.png"",""time"":496},{""stimulus"":""img/1to3/6.png"",""time"":595},{""stimulus"":""img/1to3/7.png"",""time"":694},{""stimulus"":""img/1to3/8.png"",""time"":793},{""stimulus"":""img/1to3/9.png"",""time"":892},{""stimulus"":""img/1to3/10.png"",""time"":991},{""stimulus"":""img/1to3/11.png"",""time"":1090},{""stimulus"":""img/1to3/12.png"",""time"":1189}]","[]",""
"image-keyboard-response","36","37767","0.0-5.0-1.16","63d80145d2f0da3ee6a8d523","bdp_cybrbll","Sun Mar 26 2023 09:02:29 GMT-0500 (Central Daylight Time)","462553","3","1","","null","","","","observe","","img/3to2/1.png","null","209","449","0.5","0.5","3","2","","",""
"animation","37","39056","0.0-5.0-2.16","63d80145d2f0da3ee6a8d523","bdp_cybrbll","Sun Mar 26 2023 09:02:29 GMT-0500 (Central Daylight Time)","462553","3","1","","","","","","","","","","209","","","","3","2","[{""stimulus"":""img/3to2/1.png"",""time"":100},{""stimulus"":""img/3to2/2.png"",""time"":199},{""stimulus"":""img/3to2/3.png"",""time"":297},{""stimulus"":""img/3to2/4.png"",""time"":396},{""stimulus"":""img/3to2/5.png"",""time"":495},{""stimulus"":""img/3to2/6.png"",""time"":594},{""stimulus"":""img/3to2/7.png"",""time"":693},{""stimulus"":""img/3to2/8.png"",""time"":792},{""stimulus"":""img/3to2/9.png"",""time"":892},{""stimulus"":""img/3to2/10.png"",""time"":991},{""stimulus"":""img/3to2/11.png"",""time"":1090},{""stimulus"":""img/3to2/12.png"",""time"":1189}]","[]",""
"image-keyboard-response","38","39113","0.0-5.0-1.17","63d80145d2f0da3ee6a8d523","bdp_cybrbll","Sun Mar 26 2023 09:02:29 GMT-0500 (Central Daylight Time)","462553","3","1","","57","","","","choice","","img/2to1/1.png","1","208","229","0.5","0.5","2","1","","",""
"animation","39","40401","0.0-5.0-2.17","63d80145d2f0da3ee6a8d523","bdp_cybrbll","Sun Mar 26 2023 09:02:29 GMT-0500 (Central Daylight Time)","462553","3","1","","","","","","","","","","208","","","","2","1","[{""stimulus"":""img/2to1/1.png"",""time"":100},{""stimulus"":""img/2to1/2.png"",""time"":199},{""stimulus"":""img/2to1/3.png"",""time"":298},{""stimulus"":""img/2to1/4.png"",""time"":397},{""stimulus"":""img/2to1/5.png"",""time"":495},{""stimulus"":""img/2to1/6.png"",""time"":594},{""stimulus"":""img/2to1/7.png"",""time"":699},{""stimulus"":""img/2to1/8.png"",""time"":793},{""stimulus"":""img/2to1/9.png"",""time"":892},{""stimulus"":""img/2to1/10.png"",""time"":991},{""stimulus"":""img/2to1/11.png"",""time"":1090},{""stimulus"":""img/2to1/12.png"",""time"":1189}]","[]",""
"image-keyboard-response","40","41290","0.0-5.0-1.18","63d80145d2f0da3ee6a8d523","bdp_cybrbll","Sun Mar 26 2023 09:02:29 GMT-0500 (Central Daylight Time)","462553","3","1","","null","","","","observe","","img/1to3/1.png","null","207","888","0.5","0.5","1","2","","",""
"animation","41","42578","0.0-5.0-2.18","63d80145d2f0da3ee6a8d523","bdp_cybrbll","Sun Mar 26 2023 09:02:29 GMT-0500 (Central Daylight Time)","462553","3","1","","","","","","","","","","207","","","","1","2","[{""stimulus"":""img/1to2/1.png"",""time"":100},{""stimulus"":""img/1to2/2.png"",""time"":198},{""stimulus"":""img/1to2/3.png"",""time"":297},{""stimulus"":""img/1to2/4.png"",""time"":396},{""stimulus"":""img/1to2/5.png"",""time"":495},{""stimulus"":""img/1to2/6.png"",""time"":594},{""stimulus"":""img/1to2/7.png"",""time"":693},{""stimulus"":""img/1to2/8.png"",""time"":793},{""stimulus"":""img/1to2/9.png"",""time"":892},{""stimulus"":""img/1to2/10.png"",""time"":991},{""stimulus"":""img/1to2/11.png"",""time"":1090},{""stimulus"":""img/1to2/12.png"",""time"":1189}]","[]",""
"image-keyboard-response","42","43856","0.0-5.0-1.19","63d80145d2f0da3ee6a8d523","bdp_cybrbll","Sun Mar 26 2023 09:02:29 GMT-0500 (Central Daylight Time)","462553","3","1","","1278","","","","choice","","img/2to1/1.png","1","206","178","0.5","0.5","2","1","","",""
"animation","43","45143","0.0-5.0-2.19","63d80145d2f0da3ee6a8d523","bdp_cybrbll","Sun Mar 26 2023 09:02:29 GMT-0500 (Central Daylight Time)","462553","3","1","","","","","","","","","","206","","","","2","1","[{""stimulus"":""img/2to1/1.png"",""time"":100},{""stimulus"":""img/2to1/2.png"",""time"":198},{""stimulus"":""img/2to1/3.png"",""time"":298},{""stimulus"":""img/2to1/4.png"",""time"":397},{""stimulus"":""img/2to1/5.png"",""time"":496},{""stimulus"":""img/2to1/6.png"",""time"":595},{""stimulus"":""img/2to1/7.png"",""time"":694},{""stimulus"":""img/2to1/8.png"",""time"":793},{""stimulus"":""img/2to1/9.png"",""time"":892},{""stimulus"":""img/2to1/10.png"",""time"":991},{""stimulus"":""img/2to1/11.png"",""time"":1090},{""stimulus"":""img/2to1/12.png"",""time"":1189}]","[]",""
"image-keyboard-response","44","45340","0.0-5.0-1.20","63d80145d2f0da3ee6a8d523","bdp_cybrbll","Sun Mar 26 2023 09:02:29 GMT-0500 (Central Daylight Time)","462553","3","1","","null","","","","observe","","img/1to3/1.png","null","205","196","0.5","0.5","1","2","","",""
"animation","45","46629","0.0-5.0-2.20","63d80145d2f0da3ee6a8d523","bdp_cybrbll","Sun Mar 26 2023 09:02:29 GMT-0500 (Central Daylight Time)","462553","3","1","","","","","","","","","","205","","","","1","2","[{""stimulus"":""img/1to2/1.png"",""time"":101},{""stimulus"":""img/1to2/2.png"",""time"":199},{""stimulus"":""img/1to2/3.png"",""time"":298},{""stimulus"":""img/1to2/4.png"",""time"":397},{""stimulus"":""img/1to2/5.png"",""time"":496},{""stimulus"":""img/1to2/6.png"",""time"":595},{""stimulus"":""img/1to2/7.png"",""time"":694},{""stimulus"":""img/1to2/8.png"",""time"":793},{""stimulus"":""img/1to2/9.png"",""time"":892},{""stimulus"":""img/1to2/10.png"",""time"":991},{""stimulus"":""img/1to2/11.png"",""time"":1091},{""stimulus"":""img/1to2/12.png"",""time"":1190}]","[]",""
"image-keyboard-response","46","46723","0.0-5.0-1.21","63d80145d2f0da3ee6a8d523","bdp_cybrbll","Sun Mar 26 2023 09:02:29 GMT-0500 (Central Daylight Time)","462553","3","1","","94","","","","choice","","img/2to1/1.png","1","204","329","0.5","0.5","2","1","","",""
"animation","47","48011","0.0-5.0-2.21","63d80145d2f0da3ee6a8d523","bdp_cybrbll","Sun Mar 26 2023 09:02:29 GMT-0500 (Central Daylight Time)","462553","3","1","","","","","","","","","","204","","","","2","1","[{""stimulus"":""img/2to1/1.png"",""time"":100},{""stimulus"":""img/2to1/2.png"",""time"":199},{""stimulus"":""img/2to1/3.png"",""time"":298},{""stimulus"":""img/2to1/4.png"",""time"":397},{""stimulus"":""img/2to1/5.png"",""time"":495},{""stimulus"":""img/2to1/6.png"",""time"":594},{""stimulus"":""img/2to1/7.png"",""time"":693},{""stimulus"":""img/2to1/8.png"",""time"":792},{""stimulus"":""img/2to1/9.png"",""time"":892},{""stimulus"":""img/2to1/10.png"",""time"":991},{""stimulus"":""img/2to1/11.png"",""time"":1090},{""stimulus"":""img/2to1/12.png"",""time"":1189}]","[]",""
"image-keyboard-response","48","49106","0.0-5.0-1.22","63d80145d2f0da3ee6a8d523","bdp_cybrbll","Sun Mar 26 2023 09:02:29 GMT-0500 (Central Daylight Time)","462553","3","1","","null","","","","observe","","img/1to3/1.png","null","203","1094","0.5","0.5","1","3","","",""
"animation","49","50394","0.0-5.0-2.22","63d80145d2f0da3ee6a8d523","bdp_cybrbll","Sun Mar 26 2023 09:02:29 GMT-0500 (Central Daylight Time)","462553","3","1","","","","","","","","","","203","","","","1","3","[{""stimulus"":""img/1to3/1.png"",""time"":100},{""stimulus"":""img/1to3/2.png"",""time"":198},{""stimulus"":""img/1to3/3.png"",""time"":297},{""stimulus"":""img/1to3/4.png"",""time"":396},{""stimulus"":""img/1to3/5.png"",""time"":495},{""stimulus"":""img/1to3/6.png"",""time"":595},{""stimulus"":""img/1to3/7.png"",""time"":694},{""stimulus"":""img/1to3/8.png"",""time"":793},{""stimulus"":""img/1to3/9.png"",""time"":892},{""stimulus"":""img/1to3/10.png"",""time"":991},{""stimulus"":""img/1to3/11.png"",""time"":1090},{""stimulus"":""img/1to3/12.png"",""time"":1189}]","[]",""
"image-keyboard-response","50","51152","0.0-5.0-1.23","63d80145d2f0da3ee6a8d523","bdp_cybrbll","Sun Mar 26 2023 09:02:29 GMT-0500 (Central Daylight Time)","462553","3","1","","null","","","","observe","","img/3to2/1.png","null","202","757","0.5","0.5","3","2","","",""
"animation","51","52440","0.0-5.0-2.23","63d80145d2f0da3ee6a8d523","bdp_cybrbll","Sun Mar 26 2023 09:02:29 GMT-0500 (Central Daylight Time)","462553","3","1","","","","","","","","","","202","","","","3","2","[{""stimulus"":""img/3to2/1.png"",""time"":100},{""stimulus"":""img/3to2/2.png"",""time"":204},{""stimulus"":""img/3to2/3.png"",""time"":297},{""stimulus"":""img/3to2/4.png"",""time"":396},{""stimulus"":""img/3to2/5.png"",""time"":495},{""stimulus"":""img/3to2/6.png"",""time"":594},{""stimulus"":""img/3to2/7.png"",""time"":693},{""stimulus"":""img/3to2/8.png"",""time"":793},{""stimulus"":""img/3to2/9.png"",""time"":892},{""stimulus"":""img/3to2/10.png"",""time"":991},{""stimulus"":""img/3to2/11.png"",""time"":1090},{""stimulus"":""img/3to2/12.png"",""time"":1189}]","[]",""
"image-keyboard-response","52","52554","0.0-5.0-1.24","63d80145d2f0da3ee6a8d523","bdp_cybrbll","Sun Mar 26 2023 09:02:29 GMT-0500 (Central Daylight Time)","462553","3","1","","114","","","","choice","","img/2to1/1.png","2","201","224","0.5","0.5","2","3","","",""
"animation","53","53842","0.0-5.0-2.24","63d80145d2f0da3ee6a8d523","bdp_cybrbll","Sun Mar 26 2023 09:02:29 GMT-0500 (Central Daylight Time)","462553","3","1","","","","","","","","","","201","","","","2","3","[{""stimulus"":""img/2to3/1.png"",""time"":100},{""stimulus"":""img/2to3/2.png"",""time"":199},{""stimulus"":""img/2to3/3.png"",""time"":302},{""stimulus"":""img/2to3/4.png"",""time"":397},{""stimulus"":""img/2to3/5.png"",""time"":496},{""stimulus"":""img/2to3/6.png"",""time"":595},{""stimulus"":""img/2to3/7.png"",""time"":694},{""stimulus"":""img/2to3/8.png"",""time"":793},{""stimulus"":""img/2to3/9.png"",""time"":892},{""stimulus"":""img/2to3/10.png"",""time"":991},{""stimulus"":""img/2to3/11.png"",""time"":1090},{""stimulus"":""img/2to3/12.png"",""time"":1189}]","[]",""
"image-keyboard-response","54","54517","0.0-5.0-1.25","63d80145d2f0da3ee6a8d523","bdp_cybrbll","Sun Mar 26 2023 09:02:29 GMT-0500 (Central Daylight Time)","462553","3","1","","null","","","","observe","","img/3to2/1.png","null","200","674","0.5","0.5","3","2","","",""
"animation","55","55805","0.0-5.0-2.25","63d80145d2f0da3ee6a8d523","bdp_cybrbll","Sun Mar 26 2023 09:02:29 GMT-0500 (Central Daylight Time)","462553","3","1","","","","","","","","","","200","","","","3","2","[{""stimulus"":""img/3to2/1.png"",""time"":100},{""stimulus"":""img/3to2/2.png"",""time"":199},{""stimulus"":""img/3to2/3.png"",""time"":297},{""stimulus"":""img/3to2/4.png"",""time"":396},{""stimulus"":""img/3to2/5.png"",""time"":495},{""stimulus"":""img/3to2/6.png"",""time"":594},{""stimulus"":""img/3to2/7.png"",""time"":693},{""stimulus"":""img/3to2/8.png"",""time"":793},{""stimulus"":""img/3to2/9.png"",""time"":892},{""stimulus"":""img/3to2/10.png"",""time"":991},{""stimulus"":""img/3to2/11.png"",""time"":1090},{""stimulus"":""img/3to2/12.png"",""time"":1189}]","[]",""
"image-keyboard-response","56","56529","0.0-5.0-1.26","63d80145d2f0da3ee6a8d523","bdp_cybrbll","Sun Mar 26 2023 09:02:29 GMT-0500 (Central Daylight Time)","462553","3","1","","724","","","","choice","","img/2to1/1.png","1","199","391","0.5","0.5","2","1","","",""
"animation","57","57817","0.0-5.0-2.26","63d80145d2f0da3ee6a8d523","bdp_cybrbll","Sun Mar 26 2023 09:02:29 GMT-0500 (Central Daylight Time)","462553","3","1","","","","","","","","","","199","","","","2","1","[{""stimulus"":""img/2to1/1.png"",""time"":100},{""stimulus"":""img/2to1/2.png"",""time"":199},{""stimulus"":""img/2to1/3.png"",""time"":298},{""stimulus"":""img/2to1/4.png"",""time"":397},{""stimulus"":""img/2to1/5.png"",""time"":496},{""stimulus"":""img/2to1/6.png"",""time"":595},{""stimulus"":""img/2to1/7.png"",""time"":694},{""stimulus"":""img/2to1/8.png"",""time"":792},{""stimulus"":""img/2to1/9.png"",""time"":891},{""stimulus"":""img/2to1/10.png"",""time"":991},{""stimulus"":""img/2to1/11.png"",""time"":1090},{""stimulus"":""img/2to1/12.png"",""time"":1189}]","[]",""
"image-keyboard-response","58","58120","0.0-5.0-1.27","63d80145d2f0da3ee6a8d523","bdp_cybrbll","Sun Mar 26 2023 09:02:29 GMT-0500 (Central Daylight Time)","462553","3","1","","null","","","","observe","","img/1to3/1.png","null","198","302","0.5","0.5","1","2","","",""
"animation","59","59408","0.0-5.0-2.27","63d80145d2f0da3ee6a8d523","bdp_cybrbll","Sun Mar 26 2023 09:02:29 GMT-0500 (Central Daylight Time)","462553","3","1","","","","","","","","","","198","","","","1","2","[{""stimulus"":""img/1to2/1.png"",""time"":100},{""stimulus"":""img/1to2/2.png"",""time"":199},{""stimulus"":""img/1to2/3.png"",""time"":297},{""stimulus"":""img/1to2/4.png"",""time"":396},{""stimulus"":""img/1to2/5.png"",""time"":496},{""stimulus"":""img/1to2/6.png"",""time"":595},{""stimulus"":""img/1to2/7.png"",""time"":694},{""stimulus"":""img/1to2/8.png"",""time"":793},{""stimulus"":""img/1to2/9.png"",""time"":892},{""stimulus"":""img/1to2/10.png"",""time"":991},{""stimulus"":""img/1to2/11.png"",""time"":1090},{""stimulus"":""img/1to2/12.png"",""time"":1189}]","[]",""
"image-keyboard-response","60","59948","0.0-5.0-1.28","63d80145d2f0da3ee6a8d523","bdp_cybrbll","Sun Mar 26 2023 09:02:29 GMT-0500 (Central Daylight Time)","462553","3","1","","539","","","","choice","","img/2to1/1.png","2","197","281","0.5","0.5","2","3","","",""
"animation","61","61236","0.0-5.0-2.28","63d80145d2f0da3ee6a8d523","bdp_cybrbll","Sun Mar 26 2023 09:02:29 GMT-0500 (Central Daylight Time)","462553","3","1","","","","","","","","","","197","","","","2","3","[{""stimulus"":""img/2to3/1.png"",""time"":99},{""stimulus"":""img/2to3/2.png"",""time"":198},{""stimulus"":""img/2to3/3.png"",""time"":297},{""stimulus"":""img/2to3/4.png"",""time"":396},{""stimulus"":""img/2to3/5.png"",""time"":495},{""stimulus"":""img/2to3/6.png"",""time"":594},{""stimulus"":""img/2to3/7.png"",""time"":693},{""stimulus"":""img/2to3/8.png"",""time"":792},{""stimulus"":""img/2to3/9.png"",""time"":892},{""stimulus"":""img/2to3/10.png"",""time"":991},{""stimulus"":""img/2to3/11.png"",""time"":1089},{""stimulus"":""img/2to3/12.png"",""time"":1188}]","[]",""
"image-keyboard-response","62","61422","0.0-5.0-1.29","63d80145d2f0da3ee6a8d523","bdp_cybrbll","Sun Mar 26 2023 09:02:29 GMT-0500 (Central Daylight Time)","462553","3","1","","null","","","","observe","","img/3to2/1.png","null","196","185","0.5","0.5","3","1","","",""
"animation","63","62710","0.0-5.0-2.29","63d80145d2f0da3ee6a8d523","bdp_cybrbll","Sun Mar 26 2023 09:02:29 GMT-0500 (Central Daylight Time)","462553","3","1","","","","","","","","","","196","","","","3","1","[{""stimulus"":""img/3to1/1.png"",""time"":100},{""stimulus"":""img/3to1/2.png"",""time"":199},{""stimulus"":""img/3to1/3.png"",""time"":297},{""stimulus"":""img/3to1/4.png"",""time"":397},{""stimulus"":""img/3to1/5.png"",""time"":496},{""stimulus"":""img/3to1/6.png"",""time"":595},{""stimulus"":""img/3to1/7.png"",""time"":694},{""stimulus"":""img/3to1/8.png"",""time"":794},{""stimulus"":""img/3to1/9.png"",""time"":892},{""stimulus"":""img/3to1/10.png"",""time"":991},{""stimulus"":""img/3to1/11.png"",""time"":1090},{""stimulus"":""img/3to1/12.png"",""time"":1189}]","[]",""
"image-keyboard-response","64","62879","0.0-5.0-1.30","63d80145d2f0da3ee6a8d523","bdp_cybrbll","Sun Mar 26 2023 09:02:29 GMT-0500 (Central Daylight Time)","462553","3","1","","null","","","","observe","","img/1to3/1.png","null","195","168","0.5","0.5","1","3","","",""
"animation","65","64167","0.0-5.0-2.30","63d80145d2f0da3ee6a8d523","bdp_cybrbll","Sun Mar 26 2023 09:02:29 GMT-0500 (Central Daylight Time)","462553","3","1","","","","","","","","","","195","","","","1","3","[{""stimulus"":""img/1to3/1.png"",""time"":101},{""stimulus"":""img/1to3/2.png"",""time"":200},{""stimulus"":""img/1to3/3.png"",""time"":298},{""stimulus"":""img/1to3/4.png"",""time"":397},{""stimulus"":""img/1to3/5.png"",""time"":496},{""stimulus"":""img/1to3/6.png"",""time"":595},{""stimulus"":""img/1to3/7.png"",""time"":694},{""stimulus"":""img/1to3/8.png"",""time"":793},{""stimulus"":""img/1to3/9.png"",""time"":892},{""stimulus"":""img/1to3/10.png"",""time"":991},{""stimulus"":""img/1to3/11.png"",""time"":1090},{""stimulus"":""img/1to3/12.png"",""time"":1190}]","[]",""
"image-keyboard-response","66","64886","0.0-5.0-1.31","63d80145d2f0da3ee6a8d523","bdp_cybrbll","Sun Mar 26 2023 09:02:29 GMT-0500 (Central Daylight Time)","462553","3","1","","null","","","","observe","","img/3to2/1.png","null","194","718","0.5","0.5","3","2","","",""
"animation","67","66173","0.0-5.0-2.31","63d80145d2f0da3ee6a8d523","bdp_cybrbll","Sun Mar 26 2023 09:02:29 GMT-0500 (Central Daylight Time)","462553","3","1","","","","","","","","","","194","","","","3","2","[{""stimulus"":""img/3to2/1.png"",""time"":100},{""stimulus"":""img/3to2/2.png"",""time"":198},{""stimulus"":""img/3to2/3.png"",""time"":298},{""stimulus"":""img/3to2/4.png"",""time"":397},{""stimulus"":""img/3to2/5.png"",""time"":496},{""stimulus"":""img/3to2/6.png"",""time"":595},{""stimulus"":""img/3to2/7.png"",""time"":694},{""stimulus"":""img/3to2/8.png"",""time"":793},{""stimulus"":""img/3to2/9.png"",""time"":892},{""stimulus"":""img/3to2/10.png"",""time"":991},{""stimulus"":""img/3to2/11.png"",""time"":1090},{""stimulus"":""img/3to2/12.png"",""time"":1189}]","[]",""
"image-keyboard-response","68","66251","0.0-5.0-1.32","63d80145d2f0da3ee6a8d523","bdp_cybrbll","Sun Mar 26 2023 09:02:29 GMT-0500 (Central Daylight Time)","462553","3","1","","77","","","","choice","","img/2to1/1.png","1","193","1137","0.5","0.5","2","1","","",""
"animation","69","67539","0.0-5.0-2.32","63d80145d2f0da3ee6a8d523","bdp_cybrbll","Sun Mar 26 2023 09:02:29 GMT-0500 (Central Daylight Time)","462553","3","1","","","","","","","","","","193","","","","2","1","[{""stimulus"":""img/2to1/1.png"",""time"":100},{""stimulus"":""img/2to1/2.png"",""time"":199},{""stimulus"":""img/2to1/3.png"",""time"":298},{""stimulus"":""img/2to1/4.png"",""time"":397},{""stimulus"":""img/2to1/5.png"",""time"":496},{""stimulus"":""img/2to1/6.png"",""time"":595},{""stimulus"":""img/2to1/7.png"",""time"":694},{""stimulus"":""img/2to1/8.png"",""time"":793},{""stimulus"":""img/2to1/9.png"",""time"":892},{""stimulus"":""img/2to1/10.png"",""time"":990},{""stimulus"":""img/2to1/11.png"",""time"":1090},{""stimulus"":""img/2to1/12.png"",""time"":1189}]","[]",""
"image-keyboard-response","70","69371","0.0-5.0-1.33","63d80145d2f0da3ee6a8d523","bdp_cybrbll","Sun Mar 26 2023 09:02:29 GMT-0500 (Central Daylight Time)","462553","3","1","","null","","","","observe","","img/1to3/1.png","null","192","1832","0.5","0.5","1","3","","",""
"animation","71","70659","0.0-5.0-2.33","63d80145d2f0da3ee6a8d523","bdp_cybrbll","Sun Mar 26 2023 09:02:29 GMT-0500 (Central Daylight Time)","462553","3","1","","","","","","","","","","192","","","","1","3","[{""stimulus"":""img/1to3/1.png"",""time"":100},{""stimulus"":""img/1to3/2.png"",""time"":199},{""stimulus"":""img/1to3/3.png"",""time"":297},{""stimulus"":""img/1to3/4.png"",""time"":396},{""stimulus"":""img/1to3/5.png"",""time"":495},{""stimulus"":""img/1to3/6.png"",""time"":594},{""stimulus"":""img/1to3/7.png"",""time"":694},{""stimulus"":""img/1to3/8.png"",""time"":793},{""stimulus"":""img/1to3/9.png"",""time"":892},{""stimulus"":""img/1to3/10.png"",""time"":991},{""stimulus"":""img/1to3/11.png"",""time"":1090},{""stimulus"":""img/1to3/12.png"",""time"":1189}]","[]",""
"","","","","63d80145d2f0da3ee6a8d523","bdp_cybrbll","Sun Mar 26 2023 09:02:29 GMT-0500 (Central Daylight Time)","462553","3","1","","","blur","72","71170","blurevent","","","","","","","","","","","","1"
"image-keyboard-response","72","71410","0.0-5.0-1.34","63d80145d2f0da3ee6a8d523","bdp_cybrbll","Sun Mar 26 2023 09:02:29 GMT-0500 (Central Daylight Time)","462553","3","1","","null","blur","72","71170","observe","","img/3to2/1.png","null","191","750","0.5","0.5","3","2","","","1"
"animation","73","72698","0.0-5.0-2.34","63d80145d2f0da3ee6a8d523","bdp_cybrbll","Sun Mar 26 2023 09:02:29 GMT-0500 (Central Daylight Time)","462553","3","1","","","blur","72","71170","","","","","191","","","","3","2","[{""stimulus"":""img/3to2/1.png"",""time"":100},{""stimulus"":""img/3to2/2.png"",""time"":199},{""stimulus"":""img/3to2/3.png"",""time"":298},{""stimulus"":""img/3to2/4.png"",""time"":396},{""stimulus"":""img/3to2/5.png"",""time"":495},{""stimulus"":""img/3to2/6.png"",""time"":594},{""stimulus"":""img/3to2/7.png"",""time"":693},{""stimulus"":""img/3to2/8.png"",""time"":793},{""stimulus"":""img/3to2/9.png"",""time"":892},{""stimulus"":""img/3to2/10.png"",""time"":991},{""stimulus"":""img/3to2/11.png"",""time"":1090},{""stimulus"":""img/3to2/12.png"",""time"":1189}]","[]","1"
"","","","","63d80145d2f0da3ee6a8d523","bdp_cybrbll","Sun Mar 26 2023 09:02:29 GMT-0500 (Central Daylight Time)","462553","3","1","","","focus","74","75661","focusevent","","","","","","","","","","","",""
"image-keyboard-response","74","78673","0.0-5.0-0.35-0.35","63d80145d2f0da3ee6a8d523","bdp_cybrbll","Sun Mar 26 2023 09:02:29 GMT-0500 (Central Daylight Time)","462553","3","1","","5975","","","","blurwarn","","","49","","","","","","","","","1"
"image-keyboard-response","75","79373","0.0-5.0-1.35","63d80145d2f0da3ee6a8d523","bdp_cybrbll","Sun Mar 26 2023 09:02:29 GMT-0500 (Central Daylight Time)","462553","3","1","","449","","","","choice","","img/2to1/1.png","2","190","520","0.5","0.5","2","3","","",""
"animation","76","80660","0.0-5.0-2.35","63d80145d2f0da3ee6a8d523","bdp_cybrbll","Sun Mar 26 2023 09:02:29 GMT-0500 (Central Daylight Time)","462553","3","1","","","","","","","","","","190","","","","2","3","[{""stimulus"":""img/2to3/1.png"",""time"":101},{""stimulus"":""img/2to3/2.png"",""time"":199},{""stimulus"":""img/2to3/3.png"",""time"":298},{""stimulus"":""img/2to3/4.png"",""time"":397},{""stimulus"":""img/2to3/5.png"",""time"":496},{""stimulus"":""img/2to3/6.png"",""time"":595},{""stimulus"":""img/2to3/7.png"",""time"":694},{""stimulus"":""img/2to3/8.png"",""time"":793},{""stimulus"":""img/2to3/9.png"",""time"":892},{""stimulus"":""img/2to3/10.png"",""time"":991},{""stimulus"":""img/2to3/11.png"",""time"":1091},{""stimulus"":""img/2to3/12.png"",""time"":1190}]","[]",""
"image-keyboard-response","77","81301","0.0-5.0-1.36","63d80145d2f0da3ee6a8d523","bdp_cybrbll","Sun Mar 26 2023 09:02:29 GMT-0500 (Central Daylight Time)","462553","3","1","","null","","","","observe","","img/3to2/1.png","null","189","640","0.5","0.5","3","1","","",""
"animation","78","82589","0.0-5.0-2.36","63d80145d2f0da3ee6a8d523","bdp_cybrbll","Sun Mar 26 2023 09:02:29 GMT-0500 (Central Daylight Time)","462553","3","1","","","","","","","","","","189","","","","3","1","[{""stimulus"":""img/3to1/1.png"",""time"":101},{""stimulus"":""img/3to1/2.png"",""time"":199},{""stimulus"":""img/3to1/3.png"",""time"":298},{""stimulus"":""img/3to1/4.png"",""time"":397},{""stimulus"":""img/3to1/5.png"",""time"":496},{""stimulus"":""img/3to1/6.png"",""time"":595},{""stimulus"":""img/3to1/7.png"",""time"":694},{""stimulus"":""img/3to1/8.png"",""time"":793},{""stimulus"":""img/3to1/9.png"",""time"":892},{""stimulus"":""img/3to1/10.png"",""time"":991},{""stimulus"":""img/3to1/11.png"",""time"":1090},{""stimulus"":""img/3to1/12.png"",""time"":1189}]","[]",""
"image-keyboard-response","79","83160","0.0-5.0-1.37","63d80145d2f0da3ee6a8d523","bdp_cybrbll","Sun Mar 26 2023 09:02:29 GMT-0500 (Central Daylight Time)","462553","3","1","","null","","","","observe","","img/1to3/1.png","null","188","569","0.5","0.5","1","3","","",""
"animation","80","84448","0.0-5.0-2.37","63d80145d2f0da3ee6a8d523","bdp_cybrbll","Sun Mar 26 2023 09:02:29 GMT-0500 (Central Daylight Time)","462553","3","1","","","","","","","","","","188","","","","1","3","[{""stimulus"":""img/1to3/1.png"",""time"":100},{""stimulus"":""img/1to3/2.png"",""time"":199},{""stimulus"":""img/1to3/3.png"",""time"":297},{""stimulus"":""img/1to3/4.png"",""time"":396},{""stimulus"":""img/1to3/5.png"",""time"":495},{""stimulus"":""img/1to3/6.png"",""time"":594},{""stimulus"":""img/1to3/7.png"",""time"":694},{""stimulus"":""img/1to3/8.png"",""time"":794},{""stimulus"":""img/1to3/9.png"",""time"":892},{""stimulus"":""img/1to3/10.png"",""time"":991},{""stimulus"":""img/1to3/11.png"",""time"":1090},{""stimulus"":""img/1to3/12.png"",""time"":1189}]","[]",""
"image-keyboard-response","81","84816","0.0-5.0-1.38","63d80145d2f0da3ee6a8d523","bdp_cybrbll","Sun Mar 26 2023 09:02:29 GMT-0500 (Central Daylight Time)","462553","3","1","","null","","","","observe","","img/3to2/1.png","null","187","367","0.5","0.5","3","2","","",""
"animation","82","86104","0.0-5.0-2.38","63d80145d2f0da3ee6a8d523","bdp_cybrbll","Sun Mar 26 2023 09:02:29 GMT-0500 (Central Daylight Time)","462553","3","1","","","","","","","","","","187","","","","3","2","[{""stimulus"":""img/3to2/1.png"",""time"":101},{""stimulus"":""img/3to2/2.png"",""time"":199},{""stimulus"":""img/3to2/3.png"",""time"":298},{""stimulus"":""img/3to2/4.png"",""time"":397},{""stimulus"":""img/3to2/5.png"",""time"":496},{""stimulus"":""img/3to2/6.png"",""time"":595},{""stimulus"":""img/3to2/7.png"",""time"":694},{""stimulus"":""img/3to2/8.png"",""time"":793},{""stimulus"":""img/3to2/9.png"",""time"":892},{""stimulus"":""img/3to2/10.png"",""time"":991},{""stimulus"":""img/3to2/11.png"",""time"":1090},{""stimulus"":""img/3to2/12.png"",""time"":1189}]","[]",""
"image-keyboard-response","83","87987","0.0-5.0-1.39","63d80145d2f0da3ee6a8d523","bdp_cybrbll","Sun Mar 26 2023 09:02:29 GMT-0500 (Central Daylight Time)","462553","3","1","","1882","","","","choice","","img/2to1/1.png","2","186","332","0.5","0.5","2","3","","",""
"animation","84","89275","0.0-5.0-2.39","63d80145d2f0da3ee6a8d523","bdp_cybrbll","Sun Mar 26 2023 09:02:29 GMT-0500 (Central Daylight Time)","462553","3","1","","","","","","","","","","186","","","","2","3","[{""stimulus"":""img/2to3/1.png"",""time"":100},{""stimulus"":""img/2to3/2.png"",""time"":199},{""stimulus"":""img/2to3/3.png"",""time"":299},{""stimulus"":""img/2to3/4.png"",""time"":397},{""stimulus"":""img/2to3/5.png"",""time"":496},{""stimulus"":""img/2to3/6.png"",""time"":595},{""stimulus"":""img/2to3/7.png"",""time"":694},{""stimulus"":""img/2to3/8.png"",""time"":793},{""stimulus"":""img/2to3/9.png"",""time"":892},{""stimulus"":""img/2to3/10.png"",""time"":991},{""stimulus"":""img/2to3/11.png"",""time"":1090},{""stimulus"":""img/2to3/12.png"",""time"":1189}]","[]",""
"image-keyboard-response","85","89636","0.0-5.0-1.40","63d80145d2f0da3ee6a8d523","bdp_cybrbll","Sun Mar 26 2023 09:02:29 GMT-0500 (Central Daylight Time)","462553","3","1","","null","","","","observe","","img/3to2/1.png","null","185","359","0.5","0.5","3","2","","",""
"animation","86","90924","0.0-5.0-2.40","63d80145d2f0da3ee6a8d523","bdp_cybrbll","Sun Mar 26 2023 09:02:29 GMT-0500 (Central Daylight Time)","462553","3","1","","","","","","","","","","185","","","","3","2","[{""stimulus"":""img/3to2/1.png"",""time"":100},{""stimulus"":""img/3to2/2.png"",""time"":198},{""stimulus"":""img/3to2/3.png"",""time"":297},{""stimulus"":""img/3to2/4.png"",""time"":396},{""stimulus"":""img/3to2/5.png"",""time"":495},{""stimulus"":""img/3to2/6.png"",""time"":594},{""stimulus"":""img/3to2/7.png"",""time"":693},{""stimulus"":""img/3to2/8.png"",""time"":792},{""stimulus"":""img/3to2/9.png"",""time"":892},{""stimulus"":""img/3to2/10.png"",""time"":991},{""stimulus"":""img/3to2/11.png"",""time"":1090},{""stimulus"":""img/3to2/12.png"",""time"":1189}]","[]",""
"image-keyboard-response","87","90964","0.0-5.0-1.41","63d80145d2f0da3ee6a8d523","bdp_cybrbll","Sun Mar 26 2023 09:02:29 GMT-0500 (Central Daylight Time)","462553","3","1","","40","","","","choice","","img/2to1/1.png","2","184","454","0.5","0.5","2","3","","",""
"animation","88","92252","0.0-5.0-2.41","63d80145d2f0da3ee6a8d523","bdp_cybrbll","Sun Mar 26 2023 09:02:29 GMT-0500 (Central Daylight Time)","462553","3","1","","","","","","","","","","184","","","","2","3","[{""stimulus"":""img/2to3/1.png"",""time"":100},{""stimulus"":""img/2to3/2.png"",""time"":199},{""stimulus"":""img/2to3/3.png"",""time"":298},{""stimulus"":""img/2to3/4.png"",""time"":396},{""stimulus"":""img/2to3/5.png"",""time"":495},{""stimulus"":""img/2to3/6.png"",""time"":594},{""stimulus"":""img/2to3/7.png"",""time"":694},{""stimulus"":""img/2to3/8.png"",""time"":793},{""stimulus"":""img/2to3/9.png"",""time"":892},{""stimulus"":""img/2to3/10.png"",""time"":991},{""stimulus"":""img/2to3/11.png"",""time"":1090},{""stimulus"":""img/2to3/12.png"",""time"":1189}]","[]",""
"image-keyboard-response","89","92519","0.0-5.0-1.42","63d80145d2f0da3ee6a8d523","bdp_cybrbll","Sun Mar 26 2023 09:02:29 GMT-0500 (Central Daylight Time)","462553","3","1","","null","","","","observe","","img/3to2/1.png","null","183","266","0.5","0.5","3","2","","",""
"animation","90","93807","0.0-5.0-2.42","63d80145d2f0da3ee6a8d523","bdp_cybrbll","Sun Mar 26 2023 09:02:29 GMT-0500 (Central Daylight Time)","462553","3","1","","","","","","","","","","183","","","","3","2","[{""stimulus"":""img/3to2/1.png"",""time"":101},{""stimulus"":""img/3to2/2.png"",""time"":199},{""stimulus"":""img/3to2/3.png"",""time"":298},{""stimulus"":""img/3to2/4.png"",""time"":397},{""stimulus"":""img/3to2/5.png"",""time"":496},{""stimulus"":""img/3to2/6.png"",""time"":595},{""stimulus"":""img/3to2/7.png"",""time"":694},{""stimulus"":""img/3to2/8.png"",""time"":793},{""stimulus"":""img/3to2/9.png"",""time"":892},{""stimulus"":""img/3to2/10.png"",""time"":991},{""stimulus"":""img/3to2/11.png"",""time"":1090},{""stimulus"":""img/3to2/12.png"",""time"":1190}]","[]",""
"image-keyboard-response","91","93832","0.0-5.0-1.43","63d80145d2f0da3ee6a8d523","bdp_cybrbll","Sun Mar 26 2023 09:02:29 GMT-0500 (Central Daylight Time)","462553","3","1","","24","","","","choice","","img/2to1/1.png","2","182","732","0.5","0.5","2","3","","",""
"animation","92","95120","0.0-5.0-2.43","63d80145d2f0da3ee6a8d523","bdp_cybrbll","Sun Mar 26 2023 09:02:29 GMT-0500 (Central Daylight Time)","462553","3","1","","","","","","","","","","182","","","","2","3","[{""stimulus"":""img/2to3/1.png"",""time"":101},{""stimulus"":""img/2to3/2.png"",""time"":199},{""stimulus"":""img/2to3/3.png"",""time"":298},{""stimulus"":""img/2to3/4.png"",""time"":397},{""stimulus"":""img/2to3/5.png"",""time"":496},{""stimulus"":""img/2to3/6.png"",""time"":595},{""stimulus"":""img/2to3/7.png"",""time"":694},{""stimulus"":""img/2to3/8.png"",""time"":793},{""stimulus"":""img/2to3/9.png"",""time"":892},{""stimulus"":""img/2to3/10.png"",""time"":992},{""stimulus"":""img/2to3/11.png"",""time"":1091},{""stimulus"":""img/2to3/12.png"",""time"":1190}]","[]",""
"image-keyboard-response","93","95613","0.0-5.0-1.44","63d80145d2f0da3ee6a8d523","bdp_cybrbll","Sun Mar 26 2023 09:02:29 GMT-0500 (Central Daylight Time)","462553","3","1","","null","","","","observe","","img/3to2/1.png","null","181","492","0.5","0.5","3","1","","",""
"animation","94","96900","0.0-5.0-2.44","63d80145d2f0da3ee6a8d523","bdp_cybrbll","Sun Mar 26 2023 09:02:29 GMT-0500 (Central Daylight Time)","462553","3","1","","","","","","","","","","181","","","","3","1","[{""stimulus"":""img/3to1/1.png"",""time"":100},{""stimulus"":""img/3to1/2.png"",""time"":199},{""stimulus"":""img/3to1/3.png"",""time"":297},{""stimulus"":""img/3to1/4.png"",""time"":397},{""stimulus"":""img/3to1/5.png"",""time"":496},{""stimulus"":""img/3to1/6.png"",""time"":595},{""stimulus"":""img/3to1/7.png"",""time"":694},{""stimulus"":""img/3to1/8.png"",""time"":793},{""stimulus"":""img/3to1/9.png"",""time"":892},{""stimulus"":""img/3to1/10.png"",""time"":991},{""stimulus"":""img/3to1/11.png"",""time"":1090},{""stimulus"":""img/3to1/12.png"",""time"":1189}]","[]",""
"image-keyboard-response","95","97627","0.0-5.0-1.45","63d80145d2f0da3ee6a8d523","bdp_cybrbll","Sun Mar 26 2023 09:02:29 GMT-0500 (Central Daylight Time)","462553","3","1","","null","","","","observe","","img/1to3/1.png","null","180","714","0.5","0.5","1","2","","",""
"","","","","63d80145d2f0da3ee6a8d523","bdp_cybrbll","Sun Mar 26 2023 09:02:29 GMT-0500 (Central Daylight Time)","462553","3","1","","","blur","96","98100","blurevent","","","","","","","","","","","","2"
"animation","96","98915","0.0-5.0-2.45","63d80145d2f0da3ee6a8d523","bdp_cybrbll","Sun Mar 26 2023 09:02:29 GMT-0500 (Central Daylight Time)","462553","3","1","","","blur","96","98100","","","","","180","","","","1","2","[{""stimulus"":""img/1to2/1.png"",""time"":100},{""stimulus"":""img/1to2/2.png"",""time"":199},{""stimulus"":""img/1to2/3.png"",""time"":297},{""stimulus"":""img/1to2/4.png"",""time"":396},{""stimulus"":""img/1to2/5.png"",""time"":495},{""stimulus"":""img/1to2/6.png"",""time"":595},{""stimulus"":""img/1to2/7.png"",""time"":694},{""stimulus"":""img/1to2/8.png"",""time"":793},{""stimulus"":""img/1to2/9.png"",""time"":892},{""stimulus"":""img/1to2/10.png"",""time"":991},{""stimulus"":""img/1to2/11.png"",""time"":1090},{""stimulus"":""img/1to2/12.png"",""time"":1189}]","[]","2"
"","","","","63d80145d2f0da3ee6a8d523","bdp_cybrbll","Sun Mar 26 2023 09:02:29 GMT-0500 (Central Daylight Time)","462553","3","1","","","focus","97","100120","focusevent","","","","","","","","","","","",""
"image-keyboard-response","97","100557","0.0-5.0-0.46-0.46","63d80145d2f0da3ee6a8d523","bdp_cybrbll","Sun Mar 26 2023 09:02:29 GMT-0500 (Central Daylight Time)","462553","3","1","","1642","","","","blurwarn","","","49","","","","","","","","","2"
"","","","","63d80145d2f0da3ee6a8d523","bdp_cybrbll","Sun Mar 26 2023 09:02:29 GMT-0500 (Central Daylight Time)","462553","3","1","","","blur","98","102788","blurevent","","","","","","","","","","","","3"
"","","","","63d80145d2f0da3ee6a8d523","bdp_cybrbll","Sun Mar 26 2023 09:02:29 GMT-0500 (Central Daylight Time)","462553","3","1","","","focus","98","105761","focusevent","","","","","","","","","","","",""
"image-keyboard-response","98","106684","0.0-5.0-1.46","63d80145d2f0da3ee6a8d523","bdp_cybrbll","Sun Mar 26 2023 09:02:29 GMT-0500 (Central Daylight Time)","462553","3","1","","5876","blur","98","102788","choice","","img/2to1/1.png","2","179","216","0.5","0.5","2","3","","","3"
"animation","99","107972","0.0-5.0-2.46","63d80145d2f0da3ee6a8d523","bdp_cybrbll","Sun Mar 26 2023 09:02:29 GMT-0500 (Central Daylight Time)","462553","3","1","","","blur","98","102788","","","","","179","","","","2","3","[{""stimulus"":""img/2to3/1.png"",""time"":99},{""stimulus"":""img/2to3/2.png"",""time"":198},{""stimulus"":""img/2to3/3.png"",""time"":298},{""stimulus"":""img/2to3/4.png"",""time"":397},{""stimulus"":""img/2to3/5.png"",""time"":496},{""stimulus"":""img/2to3/6.png"",""time"":594},{""stimulus"":""img/2to3/7.png"",""time"":693},{""stimulus"":""img/2to3/8.png"",""time"":792},{""stimulus"":""img/2to3/9.png"",""time"":891},{""stimulus"":""img/2to3/10.png"",""time"":990},{""stimulus"":""img/2to3/11.png"",""time"":1089},{""stimulus"":""img/2to3/12.png"",""time"":1188}]","[]","3"
"image-keyboard-response","100","108893","0.0-5.0-0.47-0.47","63d80145d2f0da3ee6a8d523","bdp_cybrbll","Sun Mar 26 2023 09:02:29 GMT-0500 (Central Daylight Time)","462553","3","1","","920","","","","blurwarn","","","49","","","","","","","","","3"
"image-keyboard-response","101","110231","0.0-5.0-1.47","63d80145d2f0da3ee6a8d523","bdp_cybrbll","Sun Mar 26 2023 09:02:29 GMT-0500 (Central Daylight Time)","462553","3","1","","null","","","","observe","","img/3to2/1.png","null","178","1087","0.5","0.5","3","1","","",""
"animation","102","111519","0.0-5.0-2.47","63d80145d2f0da3ee6a8d523","bdp_cybrbll","Sun Mar 26 2023 09:02:29 GMT-0500 (Central Daylight Time)","462553","3","1","","","","","","","","","","178","","","","3","1","[{""stimulus"":""img/3to1/1.png"",""time"":101},{""stimulus"":""img/3to1/2.png"",""time"":200},{""stimulus"":""img/3to1/3.png"",""time"":298},{""stimulus"":""img/3to1/4.png"",""time"":397},{""stimulus"":""img/3to1/5.png"",""time"":496},{""stimulus"":""img/3to1/6.png"",""time"":595},{""stimulus"":""img/3to1/7.png"",""time"":694},{""stimulus"":""img/3to1/8.png"",""time"":793},{""stimulus"":""img/3to1/9.png"",""time"":892},{""stimulus"":""img/3to1/10.png"",""time"":991},{""stimulus"":""img/3to1/11.png"",""time"":1090},{""stimulus"":""img/3to1/12.png"",""time"":1190}]","[]",""
"image-keyboard-response","103","111840","0.0-5.0-1.48","63d80145d2f0da3ee6a8d523","bdp_cybrbll","Sun Mar 26 2023 09:02:29 GMT-0500 (Central Daylight Time)","462553","3","1","","null","","","","observe","","img/1to3/1.png","null","177","319","0.5","0.5","1","2","","",""
"animation","104","113128","0.0-5.0-2.48","63d80145d2f0da3ee6a8d523","bdp_cybrbll","Sun Mar 26 2023 09:02:29 GMT-0500 (Central Daylight Time)","462553","3","1","","","","","","","","","","177","","","","1","2","[{""stimulus"":""img/1to2/1.png"",""time"":100},{""stimulus"":""img/1to2/2.png"",""time"":199},{""stimulus"":""img/1to2/3.png"",""time"":297},{""stimulus"":""img/1to2/4.png"",""time"":396},{""stimulus"":""img/1to2/5.png"",""time"":495},{""stimulus"":""img/1to2/6.png"",""time"":595},{""stimulus"":""img/1to2/7.png"",""time"":694},{""stimulus"":""img/1to2/8.png"",""time"":793},{""stimulus"":""img/1to2/9.png"",""time"":892},{""stimulus"":""img/1to2/10.png"",""time"":991},{""stimulus"":""img/1to2/11.png"",""time"":1090},{""stimulus"":""img/1to2/12.png"",""time"":1189}]","[]",""
"image-keyboard-response","105","113862","0.0-5.0-1.49","63d80145d2f0da3ee6a8d523","bdp_cybrbll","Sun Mar 26 2023 09:02:29 GMT-0500 (Central Daylight Time)","462553","3","1","","734","","","","choice","","img/2to1/1.png","1","176","1130","0.5","0.5","2","1","","",""
"animation","106","115150","0.0-5.0-2.49","63d80145d2f0da3ee6a8d523","bdp_cybrbll","Sun Mar 26 2023 09:02:29 GMT-0500 (Central Daylight Time)","462553","3","1","","","","","","","","","","176","","","","2","1","[{""stimulus"":""img/2to1/1.png"",""time"":100},{""stimulus"":""img/2to1/2.png"",""time"":199},{""stimulus"":""img/2to1/3.png"",""time"":298},{""stimulus"":""img/2to1/4.png"",""time"":397},{""stimulus"":""img/2to1/5.png"",""time"":496},{""stimulus"":""img/2to1/6.png"",""time"":595},{""stimulus"":""img/2to1/7.png"",""time"":695},{""stimulus"":""img/2to1/8.png"",""time"":793},{""stimulus"":""img/2to1/9.png"",""time"":893},{""stimulus"":""img/2to1/10.png"",""time"":991},{""stimulus"":""img/2to1/11.png"",""time"":1090},{""stimulus"":""img/2to1/12.png"",""time"":1189}]","[]",""
"image-keyboard-response","107","115572","0.0-5.0-1.50","63d80145d2f0da3ee6a8d523","bdp_cybrbll","Sun Mar 26 2023 09:02:29 GMT-0500 (Central Daylight Time)","462553","3","1","","null","","","","observe","","img/1to3/1.png","null","175","421","0.5","0.5","1","2","","",""
"animation","108","116860","0.0-5.0-2.50","63d80145d2f0da3ee6a8d523","bdp_cybrbll","Sun Mar 26 2023 09:02:29 GMT-0500 (Central Daylight Time)","462553","3","1","","","","","","","","","","175","","","","1","2","[{""stimulus"":""img/1to2/1.png"",""time"":100},{""stimulus"":""img/1to2/2.png"",""time"":199},{""stimulus"":""img/1to2/3.png"",""time"":298},{""stimulus"":""img/1to2/4.png"",""time"":397},{""stimulus"":""img/1to2/5.png"",""time"":496},{""stimulus"":""img/1to2/6.png"",""time"":595},{""stimulus"":""img/1to2/7.png"",""time"":694},{""stimulus"":""img/1to2/8.png"",""time"":793},{""stimulus"":""img/1to2/9.png"",""time"":892},{""stimulus"":""img/1to2/10.png"",""time"":991},{""stimulus"":""img/1to2/11.png"",""time"":1090},{""stimulus"":""img/1to2/12.png"",""time"":1189}]","[]",""
"image-keyboard-response","109","117141","0.0-5.0-1.51","63d80145d2f0da3ee6a8d523","bdp_cybrbll","Sun Mar 26 2023 09:02:29 GMT-0500 (Central Daylight Time)","462553","3","1","","280","","","","choice","","img/2to1/1.png","2","174","842","0.5","0.5","2","3","","",""
"animation","110","118429","0.0-5.0-2.51","63d80145d2f0da3ee6a8d523","bdp_cybrbll","Sun Mar 26 2023 09:02:29 GMT-0500 (Central Daylight Time)","462553","3","1","","","","","","","","","","174","","","","2","3","[{""stimulus"":""img/2to3/1.png"",""time"":100},{""stimulus"":""img/2to3/2.png"",""time"":198},{""stimulus"":""img/2to3/3.png"",""time"":297},{""stimulus"":""img/2to3/4.png"",""time"":396},{""stimulus"":""img/2to3/5.png"",""time"":495},{""stimulus"":""img/2to3/6.png"",""time"":594},{""stimulus"":""img/2to3/7.png"",""time"":693},{""stimulus"":""img/2to3/8.png"",""time"":792},{""stimulus"":""img/2to3/9.png"",""time"":892},{""stimulus"":""img/2to3/10.png"",""time"":991},{""stimulus"":""img/2to3/11.png"",""time"":1090},{""stimulus"":""img/2to3/12.png"",""time"":1188}]","[]",""
"image-keyboard-response","111","118816","0.0-5.0-1.52","63d80145d2f0da3ee6a8d523","bdp_cybrbll","Sun Mar 26 2023 09:02:29 GMT-0500 (Central Daylight Time)","462553","3","1","","null","","","","observe","","img/3to2/1.png","null","173","386","0.5","0.5","3","2","","",""
"animation","112","120104","0.0-5.0-2.52","63d80145d2f0da3ee6a8d523","bdp_cybrbll","Sun Mar 26 2023 09:02:29 GMT-0500 (Central Daylight Time)","462553","3","1","","","","","","","","","","173","","","","3","2","[{""stimulus"":""img/3to2/1.png"",""time"":100},{""stimulus"":""img/3to2/2.png"",""time"":199},{""stimulus"":""img/3to2/3.png"",""time"":298},{""stimulus"":""img/3to2/4.png"",""time"":397},{""stimulus"":""img/3to2/5.png"",""time"":496},{""stimulus"":""img/3to2/6.png"",""time"":595},{""stimulus"":""img/3to2/7.png"",""time"":694},{""stimulus"":""img/3to2/8.png"",""time"":793},{""stimulus"":""img/3to2/9.png"",""time"":892},{""stimulus"":""img/3to2/10.png"",""time"":991},{""stimulus"":""img/3to2/11.png"",""time"":1090},{""stimulus"":""img/3to2/12.png"",""time"":1189}]","[]",""
"image-keyboard-response","113","120435","0.0-5.0-1.53","63d80145d2f0da3ee6a8d523","bdp_cybrbll","Sun Mar 26 2023 09:02:29 GMT-0500 (Central Daylight Time)","462553","3","1","","329","","","","choice","","img/2to1/1.png","1","172","474","0.5","0.5","2","1","","",""
"animation","114","121723","0.0-5.0-2.53","63d80145d2f0da3ee6a8d523","bdp_cybrbll","Sun Mar 26 2023 09:02:29 GMT-0500 (Central Daylight Time)","462553","3","1","","","","","","","","","","172","","","","2","1","[{""stimulus"":""img/2to1/1.png"",""time"":100},{""stimulus"":""img/2to1/2.png"",""time"":198},{""stimulus"":""img/2to1/3.png"",""time"":297},{""stimulus"":""img/2to1/4.png"",""time"":396},{""stimulus"":""img/2to1/5.png"",""time"":495},{""stimulus"":""img/2to1/6.png"",""time"":594},{""stimulus"":""img/2to1/7.png"",""time"":693},{""stimulus"":""img/2to1/8.png"",""time"":793},{""stimulus"":""img/2to1/9.png"",""time"":892},{""stimulus"":""img/2to1/10.png"",""time"":991},{""stimulus"":""img/2to1/11.png"",""time"":1090},{""stimulus"":""img/2to1/12.png"",""time"":1189}]","[]",""
"image-keyboard-response","115","122024","0.0-5.0-1.54","63d80145d2f0da3ee6a8d523","bdp_cybrbll","Sun Mar 26 2023 09:02:29 GMT-0500 (Central Daylight Time)","462553","3","1","","null","","","","observe","","img/1to3/1.png","null","171","300","0.5","0.5","1","3","","",""
"animation","116","123312","0.0-5.0-2.54","63d80145d2f0da3ee6a8d523","bdp_cybrbll","Sun Mar 26 2023 09:02:29 GMT-0500 (Central Daylight Time)","462553","3","1","","","","","","","","","","171","","","","1","3","[{""stimulus"":""img/1to3/1.png"",""time"":100},{""stimulus"":""img/1to3/2.png"",""time"":198},{""stimulus"":""img/1to3/3.png"",""time"":297},{""stimulus"":""img/1to3/4.png"",""time"":397},{""stimulus"":""img/1to3/5.png"",""time"":496},{""stimulus"":""img/1to3/6.png"",""time"":595},{""stimulus"":""img/1to3/7.png"",""time"":694},{""stimulus"":""img/1to3/8.png"",""time"":793},{""stimulus"":""img/1to3/9.png"",""time"":892},{""stimulus"":""img/1to3/10.png"",""time"":991},{""stimulus"":""img/1to3/11.png"",""time"":1090},{""stimulus"":""img/1to3/12.png"",""time"":1189}]","[]",""
"image-keyboard-response","117","124092","0.0-5.0-1.55","63d80145d2f0da3ee6a8d523","bdp_cybrbll","Sun Mar 26 2023 09:02:29 GMT-0500 (Central Daylight Time)","462553","3","1","","null","","","","observe","","img/3to2/1.png","null","170","778","0.5","0.5","3","1","","",""
"animation","118","125380","0.0-5.0-2.55","63d80145d2f0da3ee6a8d523","bdp_cybrbll","Sun Mar 26 2023 09:02:29 GMT-0500 (Central Daylight Time)","462553","3","1","","","","","","","","","","170","","","","3","1","[{""stimulus"":""img/3to1/1.png"",""time"":100},{""stimulus"":""img/3to1/2.png"",""time"":198},{""stimulus"":""img/3to1/3.png"",""time"":297},{""stimulus"":""img/3to1/4.png"",""time"":396},{""stimulus"":""img/3to1/5.png"",""time"":495},{""stimulus"":""img/3to1/6.png"",""time"":595},{""stimulus"":""img/3to1/7.png"",""time"":694},{""stimulus"":""img/3to1/8.png"",""time"":793},{""stimulus"":""img/3to1/9.png"",""time"":892},{""stimulus"":""img/3to1/10.png"",""time"":991},{""stimulus"":""img/3to1/11.png"",""time"":1090},{""stimulus"":""img/3to1/12.png"",""time"":1189}]","[]",""
"image-keyboard-response","119","125622","0.0-5.0-1.56","63d80145d2f0da3ee6a8d523","bdp_cybrbll","Sun Mar 26 2023 09:02:29 GMT-0500 (Central Daylight Time)","462553","3","1","","null","","","","observe","","img/1to3/1.png","null","169","241","0.5","0.5","1","3","","",""
"animation","120","126909","0.0-5.0-2.56","63d80145d2f0da3ee6a8d523","bdp_cybrbll","Sun Mar 26 2023 09:02:29 GMT-0500 (Central Daylight Time)","462553","3","1","","","","","","","","","","169","","","","1","3","[{""stimulus"":""img/1to3/1.png"",""time"":101},{""stimulus"":""img/1to3/2.png"",""time"":199},{""stimulus"":""img/1to3/3.png"",""time"":298},{""stimulus"":""img/1to3/4.png"",""time"":397},{""stimulus"":""img/1to3/5.png"",""time"":496},{""stimulus"":""img/1to3/6.png"",""time"":595},{""stimulus"":""img/1to3/7.png"",""time"":694},{""stimulus"":""img/1to3/8.png"",""time"":793},{""stimulus"":""img/1to3/9.png"",""time"":892},{""stimulus"":""img/1to3/10.png"",""time"":991},{""stimulus"":""img/1to3/11.png"",""time"":1090},{""stimulus"":""img/1to3/12.png"",""time"":1190}]","[]",""
"image-keyboard-response","121","128780","0.0-5.0-1.57","63d80145d2f0da3ee6a8d523","bdp_cybrbll","Sun Mar 26 2023 09:02:29 GMT-0500 (Central Daylight Time)","462553","3","1","","null","","","","observe","","img/3to2/1.png","null","168","1869","0.5","0.5","3","1","","",""
"animation","122","130066","0.0-5.0-2.57","63d80145d2f0da3ee6a8d523","bdp_cybrbll","Sun Mar 26 2023 09:02:29 GMT-0500 (Central Daylight Time)","462553","3","1","","","","","","","","","","168","","","","3","1","[{""stimulus"":""img/3to1/1.png"",""time"":100},{""stimulus"":""img/3to1/2.png"",""time"":199},{""stimulus"":""img/3to1/3.png"",""time"":298},{""stimulus"":""img/3to1/4.png"",""time"":397},{""stimulus"":""img/3to1/5.png"",""time"":496},{""stimulus"":""img/3to1/6.png"",""time"":594},{""stimulus"":""img/3to1/7.png"",""time"":693},{""stimulus"":""img/3to1/8.png"",""time"":792},{""stimulus"":""img/3to1/9.png"",""time"":891},{""stimulus"":""img/3to1/10.png"",""time"":990},{""stimulus"":""img/3to1/11.png"",""time"":1089},{""stimulus"":""img/3to1/12.png"",""time"":1189}]","[]",""
"image-keyboard-response","123","130560","0.0-5.0-1.58","63d80145d2f0da3ee6a8d523","bdp_cybrbll","Sun Mar 26 2023 09:02:29 GMT-0500 (Central Daylight Time)","462553","3","1","","null","","","","observe","","img/1to3/1.png","null","167","492","0.5","0.5","1","3","","",""
"animation","124","131848","0.0-5.0-2.58","63d80145d2f0da3ee6a8d523","bdp_cybrbll","Sun Mar 26 2023 09:02:29 GMT-0500 (Central Daylight Time)","462553","3","1","","","","","","","","","","167","","","","1","3","[{""stimulus"":""img/1to3/1.png"",""time"":100},{""stimulus"":""img/1to3/2.png"",""time"":198},{""stimulus"":""img/1to3/3.png"",""time"":297},{""stimulus"":""img/1to3/4.png"",""time"":396},{""stimulus"":""img/1to3/5.png"",""time"":496},{""stimulus"":""img/1to3/6.png"",""time"":595},{""stimulus"":""img/1to3/7.png"",""time"":694},{""stimulus"":""img/1to3/8.png"",""time"":793},{""stimulus"":""img/1to3/9.png"",""time"":892},{""stimulus"":""img/1to3/10.png"",""time"":991},{""stimulus"":""img/1to3/11.png"",""time"":1090},{""stimulus"":""img/1to3/12.png"",""time"":1189}]","[]",""
"image-keyboard-response","125","132110","0.0-5.0-1.59","63d80145d2f0da3ee6a8d523","bdp_cybrbll","Sun Mar 26 2023 09:02:29 GMT-0500 (Central Daylight Time)","462553","3","1","","null","","","","observe","","img/3to2/1.png","null","166","261","0.5","0.5","3","1","","",""
"animation","126","133398","0.0-5.0-2.59","63d80145d2f0da3ee6a8d523","bdp_cybrbll","Sun Mar 26 2023 09:02:29 GMT-0500 (Central Daylight Time)","462553","3","1","","","","","","","","","","166","","","","3","1","[{""stimulus"":""img/3to1/1.png"",""time"":100},{""stimulus"":""img/3to1/2.png"",""time"":199},{""stimulus"":""img/3to1/3.png"",""time"":297},{""stimulus"":""img/3to1/4.png"",""time"":397},{""stimulus"":""img/3to1/5.png"",""time"":495},{""stimulus"":""img/3to1/6.png"",""time"":595},{""stimulus"":""img/3to1/7.png"",""time"":694},{""stimulus"":""img/3to1/8.png"",""time"":793},{""stimulus"":""img/3to1/9.png"",""time"":896},{""stimulus"":""img/3to1/10.png"",""time"":991},{""stimulus"":""img/3to1/11.png"",""time"":1090},{""stimulus"":""img/3to1/12.png"",""time"":1189}]","[]",""
"image-keyboard-response","127","133896","0.0-5.0-1.60","63d80145d2f0da3ee6a8d523","bdp_cybrbll","Sun Mar 26 2023 09:02:29 GMT-0500 (Central Daylight Time)","462553","3","1","","null","","","","observe","","img/1to3/1.png","null","165","498","0.5","0.5","1","3","","",""
"animation","128","135185","0.0-5.0-2.60","63d80145d2f0da3ee6a8d523","bdp_cybrbll","Sun Mar 26 2023 09:02:29 GMT-0500 (Central Daylight Time)","462553","3","1","","","","","","","","","","165","","","","1","3","[{""stimulus"":""img/1to3/1.png"",""time"":100},{""stimulus"":""img/1to3/2.png"",""time"":199},{""stimulus"":""img/1to3/3.png"",""time"":297},{""stimulus"":""img/1to3/4.png"",""time"":396},{""stimulus"":""img/1to3/5.png"",""time"":495},{""stimulus"":""img/1to3/6.png"",""time"":594},{""stimulus"":""img/1to3/7.png"",""time"":693},{""stimulus"":""img/1to3/8.png"",""time"":792},{""stimulus"":""img/1to3/9.png"",""time"":891},{""stimulus"":""img/1to3/10.png"",""time"":991},{""stimulus"":""img/1to3/11.png"",""time"":1090},{""stimulus"":""img/1to3/12.png"",""time"":1189}]","[]",""
"image-keyboard-response","129","135574","0.0-5.0-1.61","63d80145d2f0da3ee6a8d523","bdp_cybrbll","Sun Mar 26 2023 09:02:29 GMT-0500 (Central Daylight Time)","462553","3","1","","null","","","","observe","","img/3to2/1.png","null","164","388","0.5","0.5","3","2","","",""
"animation","130","136862","0.0-5.0-2.61","63d80145d2f0da3ee6a8d523","bdp_cybrbll","Sun Mar 26 2023 09:02:29 GMT-0500 (Central Daylight Time)","462553","3","1","","","","","","","","","","164","","","","3","2","[{""stimulus"":""img/3to2/1.png"",""time"":100},{""stimulus"":""img/3to2/2.png"",""time"":199},{""stimulus"":""img/3to2/3.png"",""time"":297},{""stimulus"":""img/3to2/4.png"",""time"":396},{""stimulus"":""img/3to2/5.png"",""time"":496},{""stimulus"":""img/3to2/6.png"",""time"":595},{""stimulus"":""img/3to2/7.png"",""time"":694},{""stimulus"":""img/3to2/8.png"",""time"":793},{""stimulus"":""img/3to2/9.png"",""time"":892},{""stimulus"":""img/3to2/10.png"",""time"":991},{""stimulus"":""img/3to2/11.png"",""time"":1090},{""stimulus"":""img/3to2/12.png"",""time"":1189}]","[]",""
"image-keyboard-response","131","137525","0.0-5.0-1.62","63d80145d2f0da3ee6a8d523","bdp_cybrbll","Sun Mar 26 2023 09:02:29 GMT-0500 (Central Daylight Time)","462553","3","1","","662","","","","choice","","img/2to1/1.png","1","163","377","0.5","0.5","2","1","","",""
"animation","132","138813","0.0-5.0-2.62","63d80145d2f0da3ee6a8d523","bdp_cybrbll","Sun Mar 26 2023 09:02:29 GMT-0500 (Central Daylight Time)","462553","3","1","","","","","","","","","","163","","","","2","1","[{""stimulus"":""img/2to1/1.png"",""time"":100},{""stimulus"":""img/2to1/2.png"",""time"":199},{""stimulus"":""img/2to1/3.png"",""time"":298},{""stimulus"":""img/2to1/4.png"",""time"":397},{""stimulus"":""img/2to1/5.png"",""time"":496},{""stimulus"":""img/2to1/6.png"",""time"":595},{""stimulus"":""img/2to1/7.png"",""time"":694},{""stimulus"":""img/2to1/8.png"",""time"":794},{""stimulus"":""img/2to1/9.png"",""time"":892},{""stimulus"":""img/2to1/10.png"",""time"":991},{""stimulus"":""img/2to1/11.png"",""time"":1090},{""stimulus"":""img/2to1/12.png"",""time"":1189}]","[]",""
"image-keyboard-response","133","139011","0.0-5.0-1.63","63d80145d2f0da3ee6a8d523","bdp_cybrbll","Sun Mar 26 2023 09:02:29 GMT-0500 (Central Daylight Time)","462553","3","1","","null","","","","observe","","img/1to3/1.png","null","162","197","0.5","0.5","1","2","","",""
"animation","134","140298","0.0-5.0-2.63","63d80145d2f0da3ee6a8d523","bdp_cybrbll","Sun Mar 26 2023 09:02:29 GMT-0500 (Central Daylight Time)","462553","3","1","","","","","","","","","","162","","","","1","2","[{""stimulus"":""img/1to2/1.png"",""time"":100},{""stimulus"":""img/1to2/2.png"",""time"":199},{""stimulus"":""img/1to2/3.png"",""time"":298},{""stimulus"":""img/1to2/4.png"",""time"":397},{""stimulus"":""img/1to2/5.png"",""time"":496},{""stimulus"":""img/1to2/6.png"",""time"":595},{""stimulus"":""img/1to2/7.png"",""time"":694},{""stimulus"":""img/1to2/8.png"",""time"":793},{""stimulus"":""img/1to2/9.png"",""time"":892},{""stimulus"":""img/1to2/10.png"",""time"":991},{""stimulus"":""img/1to2/11.png"",""time"":1090},{""stimulus"":""img/1to2/12.png"",""time"":1189}]","[]",""
"image-keyboard-response","135","140360","0.0-5.0-1.64","63d80145d2f0da3ee6a8d523","bdp_cybrbll","Sun Mar 26 2023 09:02:29 GMT-0500 (Central Daylight Time)","462553","3","1","","61","","","","choice","","img/2to1/1.png","2","161","511","0.5","0.5","2","3","","",""
"animation","136","141647","0.0-5.0-2.64","63d80145d2f0da3ee6a8d523","bdp_cybrbll","Sun Mar 26 2023 09:02:29 GMT-0500 (Central Daylight Time)","462553","3","1","","","","","","","","","","161","","","","2","3","[{""stimulus"":""img/2to3/1.png"",""time"":100},{""stimulus"":""img/2to3/2.png"",""time"":199},{""stimulus"":""img/2to3/3.png"",""time"":298},{""stimulus"":""img/2to3/4.png"",""time"":397},{""stimulus"":""img/2to3/5.png"",""time"":496},{""stimulus"":""img/2to3/6.png"",""time"":595},{""stimulus"":""img/2to3/7.png"",""time"":695},{""stimulus"":""img/2to3/8.png"",""time"":794},{""stimulus"":""img/2to3/9.png"",""time"":892},{""stimulus"":""img/2to3/10.png"",""time"":991},{""stimulus"":""img/2to3/11.png"",""time"":1090},{""stimulus"":""img/2to3/12.png"",""time"":1189}]","[]",""
"image-keyboard-response","137","141998","0.0-5.0-1.65","63d80145d2f0da3ee6a8d523","bdp_cybrbll","Sun Mar 26 2023 09:02:29 GMT-0500 (Central Daylight Time)","462553","3","1","","null","","","","observe","","img/3to2/1.png","null","160","349","0.5","0.5","3","2","","",""
"animation","138","143286","0.0-5.0-2.65","63d80145d2f0da3ee6a8d523","bdp_cybrbll","Sun Mar 26 2023 09:02:29 GMT-0500 (Central Daylight Time)","462553","3","1","","","","","","","","","","160","","","","3","2","[{""stimulus"":""img/3to2/1.png"",""time"":100},{""stimulus"":""img/3to2/2.png"",""time"":199},{""stimulus"":""img/3to2/3.png"",""time"":297},{""stimulus"":""img/3to2/4.png"",""time"":396},{""stimulus"":""img/3to2/5.png"",""time"":495},{""stimulus"":""img/3to2/6.png"",""time"":595},{""stimulus"":""img/3to2/7.png"",""time"":694},{""stimulus"":""img/3to2/8.png"",""time"":793},{""stimulus"":""img/3to2/9.png"",""time"":892},{""stimulus"":""img/3to2/10.png"",""time"":991},{""stimulus"":""img/3to2/11.png"",""time"":1090},{""stimulus"":""img/3to2/12.png"",""time"":1189}]","[]",""
"image-keyboard-response","139","143320","0.0-5.0-1.66","63d80145d2f0da3ee6a8d523","bdp_cybrbll","Sun Mar 26 2023 09:02:29 GMT-0500 (Central Daylight Time)","462553","3","1","","34","","","","choice","","img/2to1/1.png","2","159","756","0.5","0.5","2","3","","",""
"animation","140","144608","0.0-5.0-2.66","63d80145d2f0da3ee6a8d523","bdp_cybrbll","Sun Mar 26 2023 09:02:29 GMT-0500 (Central Daylight Time)","462553","3","1","","","","","","","","","","159","","","","2","3","[{""stimulus"":""img/2to3/1.png"",""time"":107},{""stimulus"":""img/2to3/2.png"",""time"":199},{""stimulus"":""img/2to3/3.png"",""time"":298},{""stimulus"":""img/2to3/4.png"",""time"":398},{""stimulus"":""img/2to3/5.png"",""time"":496},{""stimulus"":""img/2to3/6.png"",""time"":595},{""stimulus"":""img/2to3/7.png"",""time"":694},{""stimulus"":""img/2to3/8.png"",""time"":793},{""stimulus"":""img/2to3/9.png"",""time"":892},{""stimulus"":""img/2to3/10.png"",""time"":991},{""stimulus"":""img/2to3/11.png"",""time"":1090},{""stimulus"":""img/2to3/12.png"",""time"":1189}]","[]",""
"image-keyboard-response","141","145238","0.0-5.0-1.67","63d80145d2f0da3ee6a8d523","bdp_cybrbll","Sun Mar 26 2023 09:02:29 GMT-0500 (Central Daylight Time)","462553","3","1","","null","","","","observe","","img/3to2/1.png","null","158","628","0.5","0.5","3","1","","",""
"animation","142","146526","0.0-5.0-2.67","63d80145d2f0da3ee6a8d523","bdp_cybrbll","Sun Mar 26 2023 09:02:29 GMT-0500 (Central Daylight Time)","462553","3","1","","","","","","","","","","158","","","","3","1","[{""stimulus"":""img/3to1/1.png"",""time"":100},{""stimulus"":""img/3to1/2.png"",""time"":214},{""stimulus"":""img/3to1/3.png"",""time"":297},{""stimulus"":""img/3to1/4.png"",""time"":396},{""stimulus"":""img/3to1/5.png"",""time"":495},{""stimulus"":""img/3to1/6.png"",""time"":594},{""stimulus"":""img/3to1/7.png"",""time"":694},{""stimulus"":""img/3to1/8.png"",""time"":793},{""stimulus"":""img/3to1/9.png"",""time"":892},{""stimulus"":""img/3to1/10.png"",""time"":991},{""stimulus"":""img/3to1/11.png"",""time"":1090},{""stimulus"":""img/3to1/12.png"",""time"":1189}]","[]",""
"image-keyboard-response","143","146941","0.0-5.0-1.68","63d80145d2f0da3ee6a8d523","bdp_cybrbll","Sun Mar 26 2023 09:02:29 GMT-0500 (Central Daylight Time)","462553","3","1","","null","","","","observe","","img/1to3/1.png","null","157","414","0.5","0.5","1","3","","",""
"animation","144","148229","0.0-5.0-2.68","63d80145d2f0da3ee6a8d523","bdp_cybrbll","Sun Mar 26 2023 09:02:29 GMT-0500 (Central Daylight Time)","462553","3","1","","","","","","","","","","157","","","","1","3","[{""stimulus"":""img/1to3/1.png"",""time"":101},{""stimulus"":""img/1to3/2.png"",""time"":199},{""stimulus"":""img/1to3/3.png"",""time"":298},{""stimulus"":""img/1to3/4.png"",""time"":397},{""stimulus"":""img/1to3/5.png"",""time"":496},{""stimulus"":""img/1to3/6.png"",""time"":595},{""stimulus"":""img/1to3/7.png"",""time"":694},{""stimulus"":""img/1to3/8.png"",""time"":793},{""stimulus"":""img/1to3/9.png"",""time"":892},{""stimulus"":""img/1to3/10.png"",""time"":991},{""stimulus"":""img/1to3/11.png"",""time"":1090},{""stimulus"":""img/1to3/12.png"",""time"":1190}]","[]",""
"image-keyboard-response","145","148597","0.0-5.0-1.69","63d80145d2f0da3ee6a8d523","bdp_cybrbll","Sun Mar 26 2023 09:02:29 GMT-0500 (Central Daylight Time)","462553","3","1","","null","","","","observe","","img/3to2/1.png","null","156","366","0.5","0.5","3","1","","",""
"animation","146","149885","0.0-5.0-2.69","63d80145d2f0da3ee6a8d523","bdp_cybrbll","Sun Mar 26 2023 09:02:29 GMT-0500 (Central Daylight Time)","462553","3","1","","","","","","","","","","156","","","","3","1","[{""stimulus"":""img/3to1/1.png"",""time"":100},{""stimulus"":""img/3to1/2.png"",""time"":199},{""stimulus"":""img/3to1/3.png"",""time"":298},{""stimulus"":""img/3to1/4.png"",""time"":396},{""stimulus"":""img/3to1/5.png"",""time"":495},{""stimulus"":""img/3to1/6.png"",""time"":594},{""stimulus"":""img/3to1/7.png"",""time"":694},{""stimulus"":""img/3to1/8.png"",""time"":793},{""stimulus"":""img/3to1/9.png"",""time"":892},{""stimulus"":""img/3to1/10.png"",""time"":991},{""stimulus"":""img/3to1/11.png"",""time"":1090},{""stimulus"":""img/3to1/12.png"",""time"":1189}]","[]",""
"image-keyboard-response","147","150952","0.0-5.0-1.70","63d80145d2f0da3ee6a8d523","bdp_cybrbll","Sun Mar 26 2023 09:02:29 GMT-0500 (Central Daylight Time)","462553","3","1","","null","","","","observe","","img/1to3/1.png","null","155","1066","0.5","0.5","1","2","","",""
"animation","148","152240","0.0-5.0-2.70","63d80145d2f0da3ee6a8d523","bdp_cybrbll","Sun Mar 26 2023 09:02:29 GMT-0500 (Central Daylight Time)","462553","3","1","","","","","","","","","","155","","","","1","2","[{""stimulus"":""img/1to2/1.png"",""time"":100},{""stimulus"":""img/1to2/2.png"",""time"":199},{""stimulus"":""img/1to2/3.png"",""time"":297},{""stimulus"":""img/1to2/4.png"",""time"":396},{""stimulus"":""img/1to2/5.png"",""time"":496},{""stimulus"":""img/1to2/6.png"",""time"":595},{""stimulus"":""img/1to2/7.png"",""time"":694},{""stimulus"":""img/1to2/8.png"",""time"":793},{""stimulus"":""img/1to2/9.png"",""time"":892},{""stimulus"":""img/1to2/10.png"",""time"":991},{""stimulus"":""img/1to2/11.png"",""time"":1090},{""stimulus"":""img/1to2/12.png"",""time"":1189}]","[]",""
"image-keyboard-response","149","152310","0.0-5.0-1.71","63d80145d2f0da3ee6a8d523","bdp_cybrbll","Sun Mar 26 2023 09:02:29 GMT-0500 (Central Daylight Time)","462553","3","1","","70","","","","choice","","img/2to1/1.png","1","154","724","0.5","0.5","2","1","","",""
"animation","150","153597","0.0-5.0-2.71","63d80145d2f0da3ee6a8d523","bdp_cybrbll","Sun Mar 26 2023 09:02:29 GMT-0500 (Central Daylight Time)","462553","3","1","","","","","","","","","","154","","","","2","1","[{""stimulus"":""img/2to1/1.png"",""time"":100},{""stimulus"":""img/2to1/2.png"",""time"":198},{""stimulus"":""img/2to1/3.png"",""time"":298},{""stimulus"":""img/2to1/4.png"",""time"":397},{""stimulus"":""img/2to1/5.png"",""time"":496},{""stimulus"":""img/2to1/6.png"",""time"":595},{""stimulus"":""img/2to1/7.png"",""time"":694},{""stimulus"":""img/2to1/8.png"",""time"":793},{""stimulus"":""img/2to1/9.png"",""time"":892},{""stimulus"":""img/2to1/10.png"",""time"":991},{""stimulus"":""img/2to1/11.png"",""time"":1090},{""stimulus"":""img/2to1/12.png"",""time"":1188}]","[]",""
"image-keyboard-response","151","153864","0.0-5.0-1.72","63d80145d2f0da3ee6a8d523","bdp_cybrbll","Sun Mar 26 2023 09:02:29 GMT-0500 (Central Daylight Time)","462553","3","1","","null","","","","observe","","img/1to3/1.png","null","153","265","0.5","0.5","1","2","","",""
"animation","152","155152","0.0-5.0-2.72","63d80145d2f0da3ee6a8d523","bdp_cybrbll","Sun Mar 26 2023 09:02:29 GMT-0500 (Central Daylight Time)","462553","3","1","","","","","","","","","","153","","","","1","2","[{""stimulus"":""img/1to2/1.png"",""time"":100},{""stimulus"":""img/1to2/2.png"",""time"":199},{""stimulus"":""img/1to2/3.png"",""time"":297},{""stimulus"":""img/1to2/4.png"",""time"":396},{""stimulus"":""img/1to2/5.png"",""time"":495},{""stimulus"":""img/1to2/6.png"",""time"":594},{""stimulus"":""img/1to2/7.png"",""time"":693},{""stimulus"":""img/1to2/8.png"",""time"":792},{""stimulus"":""img/1to2/9.png"",""time"":892},{""stimulus"":""img/1to2/10.png"",""time"":991},{""stimulus"":""img/1to2/11.png"",""time"":1090},{""stimulus"":""img/1to2/12.png"",""time"":1189}]","[]",""
"image-keyboard-response","153","155237","0.0-5.0-1.73","63d80145d2f0da3ee6a8d523","bdp_cybrbll","Sun Mar 26 2023 09:02:29 GMT-0500 (Central Daylight Time)","462553","3","1","","85","","","","choice","","img/2to1/1.png","2","152","495","0.5","0.5","2","3","","",""
"animation","154","156525","0.0-5.0-2.73","63d80145d2f0da3ee6a8d523","bdp_cybrbll","Sun Mar 26 2023 09:02:29 GMT-0500 (Central Daylight Time)","462553","3","1","","","","","","","","","","152","","","","2","3","[{""stimulus"":""img/2to3/1.png"",""time"":105},{""stimulus"":""img/2to3/2.png"",""time"":199},{""stimulus"":""img/2to3/3.png"",""time"":298},{""stimulus"":""img/2to3/4.png"",""time"":397},{""stimulus"":""img/2to3/5.png"",""time"":496},{""stimulus"":""img/2to3/6.png"",""time"":596},{""stimulus"":""img/2to3/7.png"",""time"":695},{""stimulus"":""img/2to3/8.png"",""time"":793},{""stimulus"":""img/2to3/9.png"",""time"":892},{""stimulus"":""img/2to3/10.png"",""time"":991},{""stimulus"":""img/2to3/11.png"",""time"":1090},{""stimulus"":""img/2to3/12.png"",""time"":1189}]","[]",""
"image-keyboard-response","155","156809","0.0-5.0-1.74","63d80145d2f0da3ee6a8d523","bdp_cybrbll","Sun Mar 26 2023 09:02:29 GMT-0500 (Central Daylight Time)","462553","3","1","","null","","","","observe","","img/3to2/1.png","null","151","283","0.5","0.5","3","2","","",""
"animation","156","158097","0.0-5.0-2.74","63d80145d2f0da3ee6a8d523","bdp_cybrbll","Sun Mar 26 2023 09:02:29 GMT-0500 (Central Daylight Time)","462553","3","1","","","","","","","","","","151","","","","3","2","[{""stimulus"":""img/3to2/1.png"",""time"":101},{""stimulus"":""img/3to2/2.png"",""time"":199},{""stimulus"":""img/3to2/3.png"",""time"":298},{""stimulus"":""img/3to2/4.png"",""time"":397},{""stimulus"":""img/3to2/5.png"",""time"":496},{""stimulus"":""img/3to2/6.png"",""time"":595},{""stimulus"":""img/3to2/7.png"",""time"":694},{""stimulus"":""img/3to2/8.png"",""time"":793},{""stimulus"":""img/3to2/9.png"",""time"":892},{""stimulus"":""img/3to2/10.png"",""time"":991},{""stimulus"":""img/3to2/11.png"",""time"":1090},{""stimulus"":""img/3to2/12.png"",""time"":1189}]","[]",""
"image-keyboard-response","157","158164","0.0-5.0-1.75","63d80145d2f0da3ee6a8d523","bdp_cybrbll","Sun Mar 26 2023 09:02:29 GMT-0500 (Central Daylight Time)","462553","3","1","","66","","","","choice","","img/2to1/1.png","1","150","1158","0.5","0.5","2","1","","",""
"animation","158","159452","0.0-5.0-2.75","63d80145d2f0da3ee6a8d523","bdp_cybrbll","Sun Mar 26 2023 09:02:29 GMT-0500 (Central Daylight Time)","462553","3","1","","","","","","","","","","150","","","","2","1","[{""stimulus"":""img/2to1/1.png"",""time"":100},{""stimulus"":""img/2to1/2.png"",""time"":199},{""stimulus"":""img/2to1/3.png"",""time"":298},{""stimulus"":""img/2to1/4.png"",""time"":397},{""stimulus"":""img/2to1/5.png"",""time"":496},{""stimulus"":""img/2to1/6.png"",""time"":595},{""stimulus"":""img/2to1/7.png"",""time"":694},{""stimulus"":""img/2to1/8.png"",""time"":793},{""stimulus"":""img/2to1/9.png"",""time"":891},{""stimulus"":""img/2to1/10.png"",""time"":991},{""stimulus"":""img/2to1/11.png"",""time"":1090},{""stimulus"":""img/2to1/12.png"",""time"":1189}]","[]",""
"image-keyboard-response","159","159902","0.0-5.0-1.76","63d80145d2f0da3ee6a8d523","bdp_cybrbll","Sun Mar 26 2023 09:02:29 GMT-0500 (Central Daylight Time)","462553","3","1","","null","","","","observe","","img/1to3/1.png","null","149","449","0.5","0.1","1","3","","",""
"animation","160","161190","0.0-5.0-2.76","63d80145d2f0da3ee6a8d523","bdp_cybrbll","Sun Mar 26 2023 09:02:29 GMT-0500 (Central Daylight Time)","462553","3","1","","","","","","","","","","149","","","","1","3","[{""stimulus"":""img/1to3/1.png"",""time"":100},{""stimulus"":""img/1to3/2.png"",""time"":199},{""stimulus"":""img/1to3/3.png"",""time"":298},{""stimulus"":""img/1to3/4.png"",""time"":397},{""stimulus"":""img/1to3/5.png"",""time"":496},{""stimulus"":""img/1to3/6.png"",""time"":595},{""stimulus"":""img/1to3/7.png"",""time"":694},{""stimulus"":""img/1to3/8.png"",""time"":793},{""stimulus"":""img/1to3/9.png"",""time"":892},{""stimulus"":""img/1to3/10.png"",""time"":991},{""stimulus"":""img/1to3/11.png"",""time"":1090},{""stimulus"":""img/1to3/12.png"",""time"":1189}]","[]",""
"image-keyboard-response","161","161586","0.0-5.0-1.77","63d80145d2f0da3ee6a8d523","bdp_cybrbll","Sun Mar 26 2023 09:02:29 GMT-0500 (Central Daylight Time)","462553","3","1","","null","","","","observe","","img/3to2/1.png","null","148","394","0.5","0.1","3","2","","",""
"animation","162","162874","0.0-5.0-2.77","63d80145d2f0da3ee6a8d523","bdp_cybrbll","Sun Mar 26 2023 09:02:29 GMT-0500 (Central Daylight Time)","462553","3","1","","","","","","","","","","148","","","","3","2","[{""stimulus"":""img/3to2/1.png"",""time"":100},{""stimulus"":""img/3to2/2.png"",""time"":198},{""stimulus"":""img/3to2/3.png"",""time"":297},{""stimulus"":""img/3to2/4.png"",""time"":396},{""stimulus"":""img/3to2/5.png"",""time"":495},{""stimulus"":""img/3to2/6.png"",""time"":594},{""stimulus"":""img/3to2/7.png"",""time"":693},{""stimulus"":""img/3to2/8.png"",""time"":792},{""stimulus"":""img/3to2/9.png"",""time"":892},{""stimulus"":""img/3to2/10.png"",""time"":991},{""stimulus"":""img/3to2/11.png"",""time"":1090},{""stimulus"":""img/3to2/12.png"",""time"":1189}]","[]",""
"image-keyboard-response","163","164738","0.0-5.0-1.78","63d80145d2f0da3ee6a8d523","bdp_cybrbll","Sun Mar 26 2023 09:02:29 GMT-0500 (Central Daylight Time)","462553","3","1","","1864","","","","choice","","img/2to1/1.png","2","147","526","0.5","0.1","2","3","","",""
"animation","164","166026","0.0-5.0-2.78","63d80145d2f0da3ee6a8d523","bdp_cybrbll","Sun Mar 26 2023 09:02:29 GMT-0500 (Central Daylight Time)","462553","3","1","","","","","","","","","","147","","","","2","3","[{""stimulus"":""img/2to3/1.png"",""time"":101},{""stimulus"":""img/2to3/2.png"",""time"":199},{""stimulus"":""img/2to3/3.png"",""time"":298},{""stimulus"":""img/2to3/4.png"",""time"":397},{""stimulus"":""img/2to3/5.png"",""time"":496},{""stimulus"":""img/2to3/6.png"",""time"":595},{""stimulus"":""img/2to3/7.png"",""time"":696},{""stimulus"":""img/2to3/8.png"",""time"":793},{""stimulus"":""img/2to3/9.png"",""time"":892},{""stimulus"":""img/2to3/10.png"",""time"":991},{""stimulus"":""img/2to3/11.png"",""time"":1091},{""stimulus"":""img/2to3/12.png"",""time"":1190}]","[]",""
"image-keyboard-response","165","166284","0.0-5.0-1.79","63d80145d2f0da3ee6a8d523","bdp_cybrbll","Sun Mar 26 2023 09:02:29 GMT-0500 (Central Daylight Time)","462553","3","1","","null","","","","observe","","img/3to2/1.png","null","146","257","0.5","0.1","3","1","","",""
"animation","166","167572","0.0-5.0-2.79","63d80145d2f0da3ee6a8d523","bdp_cybrbll","Sun Mar 26 2023 09:02:29 GMT-0500 (Central Daylight Time)","462553","3","1","","","","","","","","","","146","","","","3","1","[{""stimulus"":""img/3to1/1.png"",""time"":100},{""stimulus"":""img/3to1/2.png"",""time"":199},{""stimulus"":""img/3to1/3.png"",""time"":297},{""stimulus"":""img/3to1/4.png"",""time"":396},{""stimulus"":""img/3to1/5.png"",""time"":495},{""stimulus"":""img/3to1/6.png"",""time"":595},{""stimulus"":""img/3to1/7.png"",""time"":694},{""stimulus"":""img/3to1/8.png"",""time"":793},{""stimulus"":""img/3to1/9.png"",""time"":892},{""stimulus"":""img/3to1/10.png"",""time"":991},{""stimulus"":""img/3to1/11.png"",""time"":1090},{""stimulus"":""img/3to1/12.png"",""time"":1189}]","[]",""
"image-keyboard-response","167","167835","0.0-5.0-1.80","63d80145d2f0da3ee6a8d523","bdp_cybrbll","Sun Mar 26 2023 09:02:29 GMT-0500 (Central Daylight Time)","462553","3","1","","null","","","","observe","","img/1to3/1.png","null","145","262","0.5","0.1","1","3","","",""
"animation","168","169123","0.0-5.0-2.80","63d80145d2f0da3ee6a8d523","bdp_cybrbll","Sun Mar 26 2023 09:02:29 GMT-0500 (Central Daylight Time)","462553","3","1","","","","","","","","","","145","","","","1","3","[{""stimulus"":""img/1to3/1.png"",""time"":101},{""stimulus"":""img/1to3/2.png"",""time"":199},{""stimulus"":""img/1to3/3.png"",""time"":298},{""stimulus"":""img/1to3/4.png"",""time"":397},{""stimulus"":""img/1to3/5.png"",""time"":496},{""stimulus"":""img/1to3/6.png"",""time"":595},{""stimulus"":""img/1to3/7.png"",""time"":694},{""stimulus"":""img/1to3/8.png"",""time"":793},{""stimulus"":""img/1to3/9.png"",""time"":892},{""stimulus"":""img/1to3/10.png"",""time"":991},{""stimulus"":""img/1to3/11.png"",""time"":1090},{""stimulus"":""img/1to3/12.png"",""time"":1189}]","[]",""
"image-keyboard-response","169","169554","0.0-5.0-1.81","63d80145d2f0da3ee6a8d523","bdp_cybrbll","Sun Mar 26 2023 09:02:29 GMT-0500 (Central Daylight Time)","462553","3","1","","null","","","","observe","","img/3to2/1.png","null","144","429","0.5","0.1","3","1","","",""
"animation","170","170842","0.0-5.0-2.81","63d80145d2f0da3ee6a8d523","bdp_cybrbll","Sun Mar 26 2023 09:02:29 GMT-0500 (Central Daylight Time)","462553","3","1","","","","","","","","","","144","","","","3","1","[{""stimulus"":""img/3to1/1.png"",""time"":100},{""stimulus"":""img/3to1/2.png"",""time"":199},{""stimulus"":""img/3to1/3.png"",""time"":298},{""stimulus"":""img/3to1/4.png"",""time"":396},{""stimulus"":""img/3to1/5.png"",""time"":495},{""stimulus"":""img/3to1/6.png"",""time"":595},{""stimulus"":""img/3to1/7.png"",""time"":694},{""stimulus"":""img/3to1/8.png"",""time"":793},{""stimulus"":""img/3to1/9.png"",""time"":892},{""stimulus"":""img/3to1/10.png"",""time"":991},{""stimulus"":""img/3to1/11.png"",""time"":1090},{""stimulus"":""img/3to1/12.png"",""time"":1189}]","[]",""
"image-keyboard-response","171","171509","0.0-5.0-1.82","63d80145d2f0da3ee6a8d523","bdp_cybrbll","Sun Mar 26 2023 09:02:29 GMT-0500 (Central Daylight Time)","462553","3","1","","null","","","","observe","","img/1to3/1.png","null","143","666","0.5","0.1","1","2","","",""
"animation","172","172797","0.0-5.0-2.82","63d80145d2f0da3ee6a8d523","bdp_cybrbll","Sun Mar 26 2023 09:02:29 GMT-0500 (Central Daylight Time)","462553","3","1","","","","","","","","","","143","","","","1","2","[{""stimulus"":""img/1to2/1.png"",""time"":100},{""stimulus"":""img/1to2/2.png"",""time"":199},{""stimulus"":""img/1to2/3.png"",""time"":297},{""stimulus"":""img/1to2/4.png"",""time"":396},{""stimulus"":""img/1to2/5.png"",""time"":495},{""stimulus"":""img/1to2/6.png"",""time"":594},{""stimulus"":""img/1to2/7.png"",""time"":693},{""stimulus"":""img/1to2/8.png"",""time"":806},{""stimulus"":""img/1to2/9.png"",""time"":892},{""stimulus"":""img/1to2/10.png"",""time"":991},{""stimulus"":""img/1to2/11.png"",""time"":1090},{""stimulus"":""img/1to2/12.png"",""time"":1189}]","[]",""
"image-keyboard-response","173","174432","0.0-5.0-1.83","63d80145d2f0da3ee6a8d523","bdp_cybrbll","Sun Mar 26 2023 09:02:29 GMT-0500 (Central Daylight Time)","462553","3","1","","1635","","","","choice","","img/2to1/1.png","1","142","1324","0.5","0.1","2","1","","",""
"animation","174","175719","0.0-5.0-2.83","63d80145d2f0da3ee6a8d523","bdp_cybrbll","Sun Mar 26 2023 09:02:29 GMT-0500 (Central Daylight Time)","462553","3","1","","","","","","","","","","142","","","","2","1","[{""stimulus"":""img/2to1/1.png"",""time"":100},{""stimulus"":""img/2to1/2.png"",""time"":199},{""stimulus"":""img/2to1/3.png"",""time"":298},{""stimulus"":""img/2to1/4.png"",""time"":397},{""stimulus"":""img/2to1/5.png"",""time"":496},{""stimulus"":""img/2to1/6.png"",""time"":595},{""stimulus"":""img/2to1/7.png"",""time"":694},{""stimulus"":""img/2to1/8.png"",""time"":793},{""stimulus"":""img/2to1/9.png"",""time"":892},{""stimulus"":""img/2to1/10.png"",""time"":990},{""stimulus"":""img/2to1/11.png"",""time"":1089},{""stimulus"":""img/2to1/12.png"",""time"":1189}]","[]",""
"image-keyboard-response","175","176109","0.0-5.0-1.84","63d80145d2f0da3ee6a8d523","bdp_cybrbll","Sun Mar 26 2023 09:02:29 GMT-0500 (Central Daylight Time)","462553","3","1","","null","","","","observe","","img/1to3/1.png","null","141","388","0.5","0.1","1","3","","",""
"animation","176","177397","0.0-5.0-2.84","63d80145d2f0da3ee6a8d523","bdp_cybrbll","Sun Mar 26 2023 09:02:29 GMT-0500 (Central Daylight Time)","462553","3","1","","","","","","","","","","141","","","","1","3","[{""stimulus"":""img/1to3/1.png"",""time"":100},{""stimulus"":""img/1to3/2.png"",""time"":199},{""stimulus"":""img/1to3/3.png"",""time"":297},{""stimulus"":""img/1to3/4.png"",""time"":396},{""stimulus"":""img/1to3/5.png"",""time"":495},{""stimulus"":""img/1to3/6.png"",""time"":594},{""stimulus"":""img/1to3/7.png"",""time"":694},{""stimulus"":""img/1to3/8.png"",""time"":793},{""stimulus"":""img/1to3/9.png"",""time"":892},{""stimulus"":""img/1to3/10.png"",""time"":991},{""stimulus"":""img/1to3/11.png"",""time"":1090},{""stimulus"":""img/1to3/12.png"",""time"":1189}]","[]",""
"image-keyboard-response","177","177949","0.0-5.0-1.85","63d80145d2f0da3ee6a8d523","bdp_cybrbll","Sun Mar 26 2023 09:02:29 GMT-0500 (Central Daylight Time)","462553","3","1","","null","","","","observe","","img/3to2/1.png","null","140","552","0.5","0.1","3","2","","",""
"animation","178","179238","0.0-5.0-2.85","63d80145d2f0da3ee6a8d523","bdp_cybrbll","Sun Mar 26 2023 09:02:29 GMT-0500 (Central Daylight Time)","462553","3","1","","","","","","","","","","140","","","","3","2","[{""stimulus"":""img/3to2/1.png"",""time"":101},{""stimulus"":""img/3to2/2.png"",""time"":199},{""stimulus"":""img/3to2/3.png"",""time"":298},{""stimulus"":""img/3to2/4.png"",""time"":396},{""stimulus"":""img/3to2/5.png"",""time"":495},{""stimulus"":""img/3to2/6.png"",""time"":594},{""stimulus"":""img/3to2/7.png"",""time"":693},{""stimulus"":""img/3to2/8.png"",""time"":792},{""stimulus"":""img/3to2/9.png"",""time"":891},{""stimulus"":""img/3to2/10.png"",""time"":990},{""stimulus"":""img/3to2/11.png"",""time"":1090},{""stimulus"":""img/3to2/12.png"",""time"":1189}]","[]",""
"image-keyboard-response","179","179321","0.0-5.0-1.86","63d80145d2f0da3ee6a8d523","bdp_cybrbll","Sun Mar 26 2023 09:02:29 GMT-0500 (Central Daylight Time)","462553","3","1","","83","","","","choice","","img/2to1/1.png","2","139","627","0.5","0.1","2","3","","",""
"animation","180","180609","0.0-5.0-2.86","63d80145d2f0da3ee6a8d523","bdp_cybrbll","Sun Mar 26 2023 09:02:29 GMT-0500 (Central Daylight Time)","462553","3","1","","","","","","","","","","139","","","","2","3","[{""stimulus"":""img/2to3/1.png"",""time"":99},{""stimulus"":""img/2to3/2.png"",""time"":198},{""stimulus"":""img/2to3/3.png"",""time"":297},{""stimulus"":""img/2to3/4.png"",""time"":396},{""stimulus"":""img/2to3/5.png"",""time"":495},{""stimulus"":""img/2to3/6.png"",""time"":594},{""stimulus"":""img/2to3/7.png"",""time"":693},{""stimulus"":""img/2to3/8.png"",""time"":793},{""stimulus"":""img/2to3/9.png"",""time"":892},{""stimulus"":""img/2to3/10.png"",""time"":991},{""stimulus"":""img/2to3/11.png"",""time"":1089},{""stimulus"":""img/2to3/12.png"",""time"":1188}]","[]",""
"image-keyboard-response","181","180892","0.0-5.0-1.87","63d80145d2f0da3ee6a8d523","bdp_cybrbll","Sun Mar 26 2023 09:02:29 GMT-0500 (Central Daylight Time)","462553","3","1","","null","","","","observe","","img/3to2/1.png","null","138","282","0.5","0.1","3","2","","",""
"animation","182","182180","0.0-5.0-2.87","63d80145d2f0da3ee6a8d523","bdp_cybrbll","Sun Mar 26 2023 09:02:29 GMT-0500 (Central Daylight Time)","462553","3","1","","","","","","","","","","138","","","","3","2","[{""stimulus"":""img/3to2/1.png"",""time"":100},{""stimulus"":""img/3to2/2.png"",""time"":199},{""stimulus"":""img/3to2/3.png"",""time"":298},{""stimulus"":""img/3to2/4.png"",""time"":397},{""stimulus"":""img/3to2/5.png"",""time"":496},{""stimulus"":""img/3to2/6.png"",""time"":595},{""stimulus"":""img/3to2/7.png"",""time"":694},{""stimulus"":""img/3to2/8.png"",""time"":793},{""stimulus"":""img/3to2/9.png"",""time"":892},{""stimulus"":""img/3to2/10.png"",""time"":991},{""stimulus"":""img/3to2/11.png"",""time"":1090},{""stimulus"":""img/3to2/12.png"",""time"":1189}]","[]",""
"image-keyboard-response","183","183191","0.0-5.0-1.88","63d80145d2f0da3ee6a8d523","bdp_cybrbll","Sun Mar 26 2023 09:02:29 GMT-0500 (Central Daylight Time)","462553","3","1","","1010","","","","choice","","img/2to1/1.png","1","137","206","0.5","0.1","2","1","","",""
"animation","184","184479","0.0-5.0-2.88","63d80145d2f0da3ee6a8d523","bdp_cybrbll","Sun Mar 26 2023 09:02:29 GMT-0500 (Central Daylight Time)","462553","3","1","","","","","","","","","","137","","","","2","1","[{""stimulus"":""img/2to1/1.png"",""time"":101},{""stimulus"":""img/2to1/2.png"",""time"":200},{""stimulus"":""img/2to1/3.png"",""time"":298},{""stimulus"":""img/2to1/4.png"",""time"":397},{""stimulus"":""img/2to1/5.png"",""time"":496},{""stimulus"":""img/2to1/6.png"",""time"":595},{""stimulus"":""img/2to1/7.png"",""time"":694},{""stimulus"":""img/2to1/8.png"",""time"":793},{""stimulus"":""img/2to1/9.png"",""time"":892},{""stimulus"":""img/2to1/10.png"",""time"":991},{""stimulus"":""img/2to1/11.png"",""time"":1090},{""stimulus"":""img/2to1/12.png"",""time"":1190}]","[]",""
"image-keyboard-response","185","184696","0.0-5.0-1.89","63d80145d2f0da3ee6a8d523","bdp_cybrbll","Sun Mar 26 2023 09:02:29 GMT-0500 (Central Daylight Time)","462553","3","1","","null","","","","observe","","img/1to3/1.png","null","136","215","0.5","0.1","1","3","","",""
"animation","186","185984","0.0-5.0-2.89","63d80145d2f0da3ee6a8d523","bdp_cybrbll","Sun Mar 26 2023 09:02:29 GMT-0500 (Central Daylight Time)","462553","3","1","","","","","","","","","","136","","","","1","3","[{""stimulus"":""img/1to3/1.png"",""time"":102},{""stimulus"":""img/1to3/2.png"",""time"":199},{""stimulus"":""img/1to3/3.png"",""time"":297},{""stimulus"":""img/1to3/4.png"",""time"":396},{""stimulus"":""img/1to3/5.png"",""time"":495},{""stimulus"":""img/1to3/6.png"",""time"":594},{""stimulus"":""img/1to3/7.png"",""time"":693},{""stimulus"":""img/1to3/8.png"",""time"":792},{""stimulus"":""img/1to3/9.png"",""time"":891},{""stimulus"":""img/1to3/10.png"",""time"":991},{""stimulus"":""img/1to3/11.png"",""time"":1090},{""stimulus"":""img/1to3/12.png"",""time"":1189}]","[]",""
"image-keyboard-response","187","186435","0.0-5.0-1.90","63d80145d2f0da3ee6a8d523","bdp_cybrbll","Sun Mar 26 2023 09:02:29 GMT-0500 (Central Daylight Time)","462553","3","1","","null","","","","observe","","img/3to2/1.png","null","135","450","0.5","0.1","3","1","","",""
"animation","188","187723","0.0-5.0-2.90","63d80145d2f0da3ee6a8d523","bdp_cybrbll","Sun Mar 26 2023 09:02:29 GMT-0500 (Central Daylight Time)","462553","3","1","","","","","","","","","","135","","","","3","1","[{""stimulus"":""img/3to1/1.png"",""time"":101},{""stimulus"":""img/3to1/2.png"",""time"":199},{""stimulus"":""img/3to1/3.png"",""time"":298},{""stimulus"":""img/3to1/4.png"",""time"":397},{""stimulus"":""img/3to1/5.png"",""time"":496},{""stimulus"":""img/3to1/6.png"",""time"":595},{""stimulus"":""img/3to1/7.png"",""time"":694},{""stimulus"":""img/3to1/8.png"",""time"":793},{""stimulus"":""img/3to1/9.png"",""time"":892},{""stimulus"":""img/3to1/10.png"",""time"":991},{""stimulus"":""img/3to1/11.png"",""time"":1090},{""stimulus"":""img/3to1/12.png"",""time"":1189}]","[]",""
