"event","trial","time","trialtype","subject_id","task","startTime","totalTime","fairPartner","unfairPartner","trial_type","trial_index","time_elapsed","internal_node_id","view_history","rt","success","stimulus","key_press","throwsLeft","rtDur","pFair","pUnfair","holder","receiver","animation_sequence","responses"
"focus","0","0","focusevent","5fc70f3bd255c10f0b2346ba","bdp_cybrbll","Mon Mar 27 2023 18:56:35 GMT-0700 (Pacific Daylight Time)","466220","3","1","","","","","","","","","","","","","","","","",""
"","","","","5fc70f3bd255c10f0b2346ba","bdp_cybrbll","Mon Mar 27 2023 18:56:35 GMT-0700 (Pacific Daylight Time)","466220","3","1","pavlovia","0","2","0.0-0.0","","","","","","","","","","","","",""
"","","","","5fc70f3bd255c10f0b2346ba","bdp_cybrbll","Mon Mar 27 2023 18:56:35 GMT-0700 (Pacific Daylight Time)","466220","3","1","instructions","1","1781","0.0-1.0","[{""page_index"":0,""viewing_time"":1778}]","1778","","","","","","","","","","",""
"fullscreenexit","2","3922","fullscreenexit","5fc70f3bd255c10f0b2346ba","bdp_cybrbll","Mon Mar 27 2023 18:56:35 GMT-0700 (Pacific Daylight Time)","466220","3","1","","","","","","","","","","","","","","","","",""
"","","","","5fc70f3bd255c10f0b2346ba","bdp_cybrbll","Mon Mar 27 2023 18:56:35 GMT-0700 (Pacific Daylight Time)","466220","3","1","fullscreen","2","4694","0.0-2.0","","","true","","","","","","","","","",""
"","","","fullscreenfail","5fc70f3bd255c10f0b2346ba","bdp_cybrbll","Mon Mar 27 2023 18:56:35 GMT-0700 (Pacific Daylight Time)","466220","3","1","image-keyboard-response","3","5348","0.0-3.0-0.0","","650","","","32","","","","","","","",""
"","","","","5fc70f3bd255c10f0b2346ba","bdp_cybrbll","Mon Mar 27 2023 18:56:35 GMT-0700 (Pacific Daylight Time)","466220","3","1","instructions","4","39631","0.0-4.0","[{""page_index"":0,""viewing_time"":34027}]","34027","","","","","","","","","","",""
"","","","choice","5fc70f3bd255c10f0b2346ba","bdp_cybrbll","Mon Mar 27 2023 18:56:35 GMT-0700 (Pacific Daylight Time)","466220","3","1","image-keyboard-response","5","41469","0.0-5.0-1.0","","1836","","img/2to1/1.png","2","225","354","0.5","0.5","2","3","",""
"","","","","5fc70f3bd255c10f0b2346ba","bdp_cybrbll","Mon Mar 27 2023 18:56:35 GMT-0700 (Pacific Daylight Time)","466220","3","1","animation","6","42824","0.0-5.0-2.0","","","","","","225","","","","2","3","[{""stimulus"":""img/2to3/1.png"",""time"":105},{""stimulus"":""img/2to3/2.png"",""time"":209},{""stimulus"":""img/2to3/3.png"",""time"":313},{""stimulus"":""img/2to3/4.png"",""time"":417},{""stimulus"":""img/2to3/5.png"",""time"":521},{""stimulus"":""img/2to3/6.png"",""time"":625},{""stimulus"":""img/2to3/7.png"",""time"":729},{""stimulus"":""img/2to3/8.png"",""time"":832},{""stimulus"":""img/2to3/9.png"",""time"":937},{""stimulus"":""img/2to3/10.png"",""time"":1040},{""stimulus"":""img/2to3/11.png"",""time"":1145},{""stimulus"":""img/2to3/12.png"",""time"":1249}]","[]"
"","","","observe","5fc70f3bd255c10f0b2346ba","bdp_cybrbll","Mon Mar 27 2023 18:56:35 GMT-0700 (Pacific Daylight Time)","466220","3","1","image-keyboard-response","7","43140","0.0-5.0-1.1","","null","","img/3to2/1.png","null","224","309","0.5","0.5","3","2","",""
"","","","","5fc70f3bd255c10f0b2346ba","bdp_cybrbll","Mon Mar 27 2023 18:56:35 GMT-0700 (Pacific Daylight Time)","466220","3","1","animation","8","44476","0.0-5.0-2.1","","","","","","224","","","","3","2","[{""stimulus"":""img/3to2/1.png"",""time"":104},{""stimulus"":""img/3to2/2.png"",""time"":207},{""stimulus"":""img/3to2/3.png"",""time"":311},{""stimulus"":""img/3to2/4.png"",""time"":415},{""stimulus"":""img/3to2/5.png"",""time"":515},{""stimulus"":""img/3to2/6.png"",""time"":615},{""stimulus"":""img/3to2/7.png"",""time"":715},{""stimulus"":""img/3to2/8.png"",""time"":819},{""stimulus"":""img/3to2/9.png"",""time"":923},{""stimulus"":""img/3to2/10.png"",""time"":1027},{""stimulus"":""img/3to2/11.png"",""time"":1131},{""stimulus"":""img/3to2/12.png"",""time"":1231}]","[]"
"","","","choice","5fc70f3bd255c10f0b2346ba","bdp_cybrbll","Mon Mar 27 2023 18:56:35 GMT-0700 (Pacific Daylight Time)","466220","3","1","image-keyboard-response","9","44888","0.0-5.0-1.2","","411","","img/2to1/1.png","1","223","432","0.5","0.5","2","1","",""
"","","","","5fc70f3bd255c10f0b2346ba","bdp_cybrbll","Mon Mar 27 2023 18:56:35 GMT-0700 (Pacific Daylight Time)","466220","3","1","animation","10","46222","0.0-5.0-2.2","","","","","","223","","","","2","1","[{""stimulus"":""img/2to1/1.png"",""time"":104},{""stimulus"":""img/2to1/2.png"",""time"":208},{""stimulus"":""img/2to1/3.png"",""time"":312},{""stimulus"":""img/2to1/4.png"",""time"":416},{""stimulus"":""img/2to1/5.png"",""time"":517},{""stimulus"":""img/2to1/6.png"",""time"":617},{""stimulus"":""img/2to1/7.png"",""time"":717},{""stimulus"":""img/2to1/8.png"",""time"":816},{""stimulus"":""img/2to1/9.png"",""time"":920},{""stimulus"":""img/2to1/10.png"",""time"":1025},{""stimulus"":""img/2to1/11.png"",""time"":1128},{""stimulus"":""img/2to1/12.png"",""time"":1232}]","[]"
"","","","observe","5fc70f3bd255c10f0b2346ba","bdp_cybrbll","Mon Mar 27 2023 18:56:35 GMT-0700 (Pacific Daylight Time)","466220","3","1","image-keyboard-response","11","46776","0.0-5.0-1.3","","null","","img/1to3/1.png","null","222","547","0.5","0.5","1","2","",""
"","","","","5fc70f3bd255c10f0b2346ba","bdp_cybrbll","Mon Mar 27 2023 18:56:35 GMT-0700 (Pacific Daylight Time)","466220","3","1","animation","12","48120","0.0-5.0-2.3","","","","","","222","","","","1","2","[{""stimulus"":""img/1to2/1.png"",""time"":105},{""stimulus"":""img/1to2/2.png"",""time"":205},{""stimulus"":""img/1to2/3.png"",""time"":310},{""stimulus"":""img/1to2/4.png"",""time"":413},{""stimulus"":""img/1to2/5.png"",""time"":517},{""stimulus"":""img/1to2/6.png"",""time"":621},{""stimulus"":""img/1to2/7.png"",""time"":725},{""stimulus"":""img/1to2/8.png"",""time"":830},{""stimulus"":""img/1to2/9.png"",""time"":933},{""stimulus"":""img/1to2/10.png"",""time"":1033},{""stimulus"":""img/1to2/11.png"",""time"":1138},{""stimulus"":""img/1to2/12.png"",""time"":1240}]","[]"
"","","","choice","5fc70f3bd255c10f0b2346ba","bdp_cybrbll","Mon Mar 27 2023 18:56:35 GMT-0700 (Pacific Daylight Time)","466220","3","1","image-keyboard-response","13","48546","0.0-5.0-1.4","","424","","img/2to1/1.png","2","221","514","0.5","0.5","2","3","",""
"","","","","5fc70f3bd255c10f0b2346ba","bdp_cybrbll","Mon Mar 27 2023 18:56:35 GMT-0700 (Pacific Daylight Time)","466220","3","1","animation","14","49884","0.0-5.0-2.4","","","","","","221","","","","2","3","[{""stimulus"":""img/2to3/1.png"",""time"":105},{""stimulus"":""img/2to3/2.png"",""time"":209},{""stimulus"":""img/2to3/3.png"",""time"":312},{""stimulus"":""img/2to3/4.png"",""time"":415},{""stimulus"":""img/2to3/5.png"",""time"":520},{""stimulus"":""img/2to3/6.png"",""time"":624},{""stimulus"":""img/2to3/7.png"",""time"":723},{""stimulus"":""img/2to3/8.png"",""time"":827},{""stimulus"":""img/2to3/9.png"",""time"":927},{""stimulus"":""img/2to3/10.png"",""time"":1026},{""stimulus"":""img/2to3/11.png"",""time"":1130},{""stimulus"":""img/2to3/12.png"",""time"":1235}]","[]"
"","","","observe","5fc70f3bd255c10f0b2346ba","bdp_cybrbll","Mon Mar 27 2023 18:56:35 GMT-0700 (Pacific Daylight Time)","466220","3","1","image-keyboard-response","15","50738","0.0-5.0-1.5","","null","","img/3to2/1.png","null","220","847","0.5","0.5","3","2","",""
"","","","","5fc70f3bd255c10f0b2346ba","bdp_cybrbll","Mon Mar 27 2023 18:56:35 GMT-0700 (Pacific Daylight Time)","466220","3","1","animation","16","52075","0.0-5.0-2.5","","","","","","220","","","","3","2","[{""stimulus"":""img/3to2/1.png"",""time"":101},{""stimulus"":""img/3to2/2.png"",""time"":201},{""stimulus"":""img/3to2/3.png"",""time"":305},{""stimulus"":""img/3to2/4.png"",""time"":408},{""stimulus"":""img/3to2/5.png"",""time"":513},{""stimulus"":""img/3to2/6.png"",""time"":617},{""stimulus"":""img/3to2/7.png"",""time"":717},{""stimulus"":""img/3to2/8.png"",""time"":821},{""stimulus"":""img/3to2/9.png"",""time"":925},{""stimulus"":""img/3to2/10.png"",""time"":1028},{""stimulus"":""img/3to2/11.png"",""time"":1132},{""stimulus"":""img/3to2/12.png"",""time"":1236}]","[]"
"","","","choice","5fc70f3bd255c10f0b2346ba","bdp_cybrbll","Mon Mar 27 2023 18:56:35 GMT-0700 (Pacific Daylight Time)","466220","3","1","image-keyboard-response","17","52642","0.0-5.0-1.6","","564","","img/2to1/1.png","1","219","605","0.5","0.5","2","1","",""
"","","","","5fc70f3bd255c10f0b2346ba","bdp_cybrbll","Mon Mar 27 2023 18:56:35 GMT-0700 (Pacific Daylight Time)","466220","3","1","animation","18","53985","0.0-5.0-2.6","","","","","","219","","","","2","1","[{""stimulus"":""img/2to1/1.png"",""time"":104},{""stimulus"":""img/2to1/2.png"",""time"":208},{""stimulus"":""img/2to1/3.png"",""time"":313},{""stimulus"":""img/2to1/4.png"",""time"":416},{""stimulus"":""img/2to1/5.png"",""time"":521},{""stimulus"":""img/2to1/6.png"",""time"":625},{""stimulus"":""img/2to1/7.png"",""time"":729},{""stimulus"":""img/2to1/8.png"",""time"":831},{""stimulus"":""img/2to1/9.png"",""time"":934},{""stimulus"":""img/2to1/10.png"",""time"":1036},{""stimulus"":""img/2to1/11.png"",""time"":1140},{""stimulus"":""img/2to1/12.png"",""time"":1243}]","[]"
"","","","observe","5fc70f3bd255c10f0b2346ba","bdp_cybrbll","Mon Mar 27 2023 18:56:35 GMT-0700 (Pacific Daylight Time)","466220","3","1","image-keyboard-response","19","54522","0.0-5.0-1.7","","null","","img/1to3/1.png","null","218","530","0.5","0.5","1","3","",""
"","","","","5fc70f3bd255c10f0b2346ba","bdp_cybrbll","Mon Mar 27 2023 18:56:35 GMT-0700 (Pacific Daylight Time)","466220","3","1","animation","20","55864","0.0-5.0-2.7","","","","","","218","","","","1","3","[{""stimulus"":""img/1to3/1.png"",""time"":100},{""stimulus"":""img/1to3/2.png"",""time"":203},{""stimulus"":""img/1to3/3.png"",""time"":308},{""stimulus"":""img/1to3/4.png"",""time"":412},{""stimulus"":""img/1to3/5.png"",""time"":516},{""stimulus"":""img/1to3/6.png"",""time"":618},{""stimulus"":""img/1to3/7.png"",""time"":722},{""stimulus"":""img/1to3/8.png"",""time"":826},{""stimulus"":""img/1to3/9.png"",""time"":930},{""stimulus"":""img/1to3/10.png"",""time"":1033},{""stimulus"":""img/1to3/11.png"",""time"":1133},{""stimulus"":""img/1to3/12.png"",""time"":1237}]","[]"
"","","","observe","5fc70f3bd255c10f0b2346ba","bdp_cybrbll","Mon Mar 27 2023 18:56:35 GMT-0700 (Pacific Daylight Time)","466220","3","1","image-keyboard-response","21","56823","0.0-5.0-1.8","","null","","img/3to2/1.png","null","217","953","0.5","0.5","3","2","",""
"","","","","5fc70f3bd255c10f0b2346ba","bdp_cybrbll","Mon Mar 27 2023 18:56:35 GMT-0700 (Pacific Daylight Time)","466220","3","1","animation","22","58163","0.0-5.0-2.8","","","","","","217","","","","3","2","[{""stimulus"":""img/3to2/1.png"",""time"":105},{""stimulus"":""img/3to2/2.png"",""time"":209},{""stimulus"":""img/3to2/3.png"",""time"":313},{""stimulus"":""img/3to2/4.png"",""time"":414},{""stimulus"":""img/3to2/5.png"",""time"":518},{""stimulus"":""img/3to2/6.png"",""time"":622},{""stimulus"":""img/3to2/7.png"",""time"":725},{""stimulus"":""img/3to2/8.png"",""time"":829},{""stimulus"":""img/3to2/9.png"",""time"":933},{""stimulus"":""img/3to2/10.png"",""time"":1033},{""stimulus"":""img/3to2/11.png"",""time"":1137},{""stimulus"":""img/3to2/12.png"",""time"":1241}]","[]"
"","","","choice","5fc70f3bd255c10f0b2346ba","bdp_cybrbll","Mon Mar 27 2023 18:56:35 GMT-0700 (Pacific Daylight Time)","466220","3","1","image-keyboard-response","23","60026","0.0-5.0-1.9","","1861","","img/2to1/1.png","2","216","314","0.5","0.5","2","3","",""
"","","","","5fc70f3bd255c10f0b2346ba","bdp_cybrbll","Mon Mar 27 2023 18:56:35 GMT-0700 (Pacific Daylight Time)","466220","3","1","animation","24","61360","0.0-5.0-2.9","","","","","","216","","","","2","3","[{""stimulus"":""img/2to3/1.png"",""time"":105},{""stimulus"":""img/2to3/2.png"",""time"":207},{""stimulus"":""img/2to3/3.png"",""time"":309},{""stimulus"":""img/2to3/4.png"",""time"":412},{""stimulus"":""img/2to3/5.png"",""time"":516},{""stimulus"":""img/2to3/6.png"",""time"":620},{""stimulus"":""img/2to3/7.png"",""time"":724},{""stimulus"":""img/2to3/8.png"",""time"":825},{""stimulus"":""img/2to3/9.png"",""time"":929},{""stimulus"":""img/2to3/10.png"",""time"":1030},{""stimulus"":""img/2to3/11.png"",""time"":1130},{""stimulus"":""img/2to3/12.png"",""time"":1234}]","[]"
"","","","observe","5fc70f3bd255c10f0b2346ba","bdp_cybrbll","Mon Mar 27 2023 18:56:35 GMT-0700 (Pacific Daylight Time)","466220","3","1","image-keyboard-response","25","62969","0.0-5.0-1.10","","null","","img/3to2/1.png","null","215","1603","0.5","0.5","3","1","",""
"","","","","5fc70f3bd255c10f0b2346ba","bdp_cybrbll","Mon Mar 27 2023 18:56:35 GMT-0700 (Pacific Daylight Time)","466220","3","1","animation","26","64326","0.0-5.0-2.10","","","","","","215","","","","3","1","[{""stimulus"":""img/3to1/1.png"",""time"":104},{""stimulus"":""img/3to1/2.png"",""time"":208},{""stimulus"":""img/3to1/3.png"",""time"":317},{""stimulus"":""img/3to1/4.png"",""time"":421},{""stimulus"":""img/3to1/5.png"",""time"":525},{""stimulus"":""img/3to1/6.png"",""time"":629},{""stimulus"":""img/3to1/7.png"",""time"":733},{""stimulus"":""img/3to1/8.png"",""time"":836},{""stimulus"":""img/3to1/9.png"",""time"":940},{""stimulus"":""img/3to1/10.png"",""time"":1044},{""stimulus"":""img/3to1/11.png"",""time"":1148},{""stimulus"":""img/3to1/12.png"",""time"":1252}]","[]"
"","","","observe","5fc70f3bd255c10f0b2346ba","bdp_cybrbll","Mon Mar 27 2023 18:56:35 GMT-0700 (Pacific Daylight Time)","466220","3","1","image-keyboard-response","27","64509","0.0-5.0-1.11","","null","","img/1to3/1.png","null","214","177","0.5","0.5","1","2","",""
"","","","","5fc70f3bd255c10f0b2346ba","bdp_cybrbll","Mon Mar 27 2023 18:56:35 GMT-0700 (Pacific Daylight Time)","466220","3","1","animation","28","65839","0.0-5.0-2.11","","","","","","214","","","","1","2","[{""stimulus"":""img/1to2/1.png"",""time"":105},{""stimulus"":""img/1to2/2.png"",""time"":205},{""stimulus"":""img/1to2/3.png"",""time"":310},{""stimulus"":""img/1to2/4.png"",""time"":413},{""stimulus"":""img/1to2/5.png"",""time"":515},{""stimulus"":""img/1to2/6.png"",""time"":619},{""stimulus"":""img/1to2/7.png"",""time"":719},{""stimulus"":""img/1to2/8.png"",""time"":819},{""stimulus"":""img/1to2/9.png"",""time"":918},{""stimulus"":""img/1to2/10.png"",""time"":1017},{""stimulus"":""img/1to2/11.png"",""time"":1122},{""stimulus"":""img/1to2/12.png"",""time"":1224}]","[]"
"","","","choice","5fc70f3bd255c10f0b2346ba","bdp_cybrbll","Mon Mar 27 2023 18:56:35 GMT-0700 (Pacific Daylight Time)","466220","3","1","image-keyboard-response","29","66602","0.0-5.0-1.12","","758","","img/2to1/1.png","1","213","195","0.5","0.5","2","1","",""
"","","","","5fc70f3bd255c10f0b2346ba","bdp_cybrbll","Mon Mar 27 2023 18:56:35 GMT-0700 (Pacific Daylight Time)","466220","3","1","animation","30","67945","0.0-5.0-2.12","","","","","","213","","","","2","1","[{""stimulus"":""img/2to1/1.png"",""time"":102},{""stimulus"":""img/2to1/2.png"",""time"":204},{""stimulus"":""img/2to1/3.png"",""time"":308},{""stimulus"":""img/2to1/4.png"",""time"":413},{""stimulus"":""img/2to1/5.png"",""time"":517},{""stimulus"":""img/2to1/6.png"",""time"":621},{""stimulus"":""img/2to1/7.png"",""time"":724},{""stimulus"":""img/2to1/8.png"",""time"":828},{""stimulus"":""img/2to1/9.png"",""time"":932},{""stimulus"":""img/2to1/10.png"",""time"":1036},{""stimulus"":""img/2to1/11.png"",""time"":1136},{""stimulus"":""img/2to1/12.png"",""time"":1238}]","[]"
"","","","observe","5fc70f3bd255c10f0b2346ba","bdp_cybrbll","Mon Mar 27 2023 18:56:35 GMT-0700 (Pacific Daylight Time)","466220","3","1","image-keyboard-response","31","68298","0.0-5.0-1.13","","null","","img/1to3/1.png","null","212","350","0.5","0.5","1","3","",""
"","","","","5fc70f3bd255c10f0b2346ba","bdp_cybrbll","Mon Mar 27 2023 18:56:35 GMT-0700 (Pacific Daylight Time)","466220","3","1","animation","32","69633","0.0-5.0-2.13","","","","","","212","","","","1","3","[{""stimulus"":""img/1to3/1.png"",""time"":100},{""stimulus"":""img/1to3/2.png"",""time"":204},{""stimulus"":""img/1to3/3.png"",""time"":303},{""stimulus"":""img/1to3/4.png"",""time"":408},{""stimulus"":""img/1to3/5.png"",""time"":507},{""stimulus"":""img/1to3/6.png"",""time"":611},{""stimulus"":""img/1to3/7.png"",""time"":712},{""stimulus"":""img/1to3/8.png"",""time"":816},{""stimulus"":""img/1to3/9.png"",""time"":920},{""stimulus"":""img/1to3/10.png"",""time"":1022},{""stimulus"":""img/1to3/11.png"",""time"":1125},{""stimulus"":""img/1to3/12.png"",""time"":1230}]","[]"
"","","","observe","5fc70f3bd255c10f0b2346ba","bdp_cybrbll","Mon Mar 27 2023 18:56:35 GMT-0700 (Pacific Daylight Time)","466220","3","1","image-keyboard-response","33","69864","0.0-5.0-1.14","","null","","img/3to2/1.png","null","211","226","0.5","0.5","3","2","",""
"","","","","5fc70f3bd255c10f0b2346ba","bdp_cybrbll","Mon Mar 27 2023 18:56:35 GMT-0700 (Pacific Daylight Time)","466220","3","1","animation","34","71189","0.0-5.0-2.14","","","","","","211","","","","3","2","[{""stimulus"":""img/3to2/1.png"",""time"":104},{""stimulus"":""img/3to2/2.png"",""time"":202},{""stimulus"":""img/3to2/3.png"",""time"":304},{""stimulus"":""img/3to2/4.png"",""time"":405},{""stimulus"":""img/3to2/5.png"",""time"":505},{""stimulus"":""img/3to2/6.png"",""time"":606},{""stimulus"":""img/3to2/7.png"",""time"":706},{""stimulus"":""img/3to2/8.png"",""time"":807},{""stimulus"":""img/3to2/9.png"",""time"":911},{""stimulus"":""img/3to2/10.png"",""time"":1015},{""stimulus"":""img/3to2/11.png"",""time"":1119},{""stimulus"":""img/3to2/12.png"",""time"":1221}]","[]"
"","","","choice","5fc70f3bd255c10f0b2346ba","bdp_cybrbll","Mon Mar 27 2023 18:56:35 GMT-0700 (Pacific Daylight Time)","466220","3","1","image-keyboard-response","35","71906","0.0-5.0-1.15","","714","","img/2to1/1.png","2","210","300","0.5","0.5","2","3","",""
"","","","","5fc70f3bd255c10f0b2346ba","bdp_cybrbll","Mon Mar 27 2023 18:56:35 GMT-0700 (Pacific Daylight Time)","466220","3","1","animation","36","73242","0.0-5.0-2.15","","","","","","210","","","","2","3","[{""stimulus"":""img/2to3/1.png"",""time"":103},{""stimulus"":""img/2to3/2.png"",""time"":208},{""stimulus"":""img/2to3/3.png"",""time"":309},{""stimulus"":""img/2to3/4.png"",""time"":411},{""stimulus"":""img/2to3/5.png"",""time"":511},{""stimulus"":""img/2to3/6.png"",""time"":612},{""stimulus"":""img/2to3/7.png"",""time"":716},{""stimulus"":""img/2to3/8.png"",""time"":817},{""stimulus"":""img/2to3/9.png"",""time"":921},{""stimulus"":""img/2to3/10.png"",""time"":1025},{""stimulus"":""img/2to3/11.png"",""time"":1129},{""stimulus"":""img/2to3/12.png"",""time"":1233}]","[]"
"","","","observe","5fc70f3bd255c10f0b2346ba","bdp_cybrbll","Mon Mar 27 2023 18:56:35 GMT-0700 (Pacific Daylight Time)","466220","3","1","image-keyboard-response","37","73656","0.0-5.0-1.16","","null","","img/3to2/1.png","null","209","408","0.5","0.5","3","1","",""
"","","","","5fc70f3bd255c10f0b2346ba","bdp_cybrbll","Mon Mar 27 2023 18:56:35 GMT-0700 (Pacific Daylight Time)","466220","3","1","animation","38","75006","0.0-5.0-2.16","","","","","","209","","","","3","1","[{""stimulus"":""img/3to1/1.png"",""time"":104},{""stimulus"":""img/3to1/2.png"",""time"":208},{""stimulus"":""img/3to1/3.png"",""time"":313},{""stimulus"":""img/3to1/4.png"",""time"":416},{""stimulus"":""img/3to1/5.png"",""time"":520},{""stimulus"":""img/3to1/6.png"",""time"":624},{""stimulus"":""img/3to1/7.png"",""time"":728},{""stimulus"":""img/3to1/8.png"",""time"":828},{""stimulus"":""img/3to1/9.png"",""time"":933},{""stimulus"":""img/3to1/10.png"",""time"":1037},{""stimulus"":""img/3to1/11.png"",""time"":1141},{""stimulus"":""img/3to1/12.png"",""time"":1245}]","[]"
"","","","observe","5fc70f3bd255c10f0b2346ba","bdp_cybrbll","Mon Mar 27 2023 18:56:35 GMT-0700 (Pacific Daylight Time)","466220","3","1","image-keyboard-response","39","75766","0.0-5.0-1.17","","null","","img/1to3/1.png","null","208","753","0.5","0.5","1","3","",""
"","","","","5fc70f3bd255c10f0b2346ba","bdp_cybrbll","Mon Mar 27 2023 18:56:35 GMT-0700 (Pacific Daylight Time)","466220","3","1","animation","40","77086","0.0-5.0-2.17","","","","","","208","","","","1","3","[{""stimulus"":""img/1to3/1.png"",""time"":106},{""stimulus"":""img/1to3/2.png"",""time"":207},{""stimulus"":""img/1to3/3.png"",""time"":307},{""stimulus"":""img/1to3/4.png"",""time"":406},{""stimulus"":""img/1to3/5.png"",""time"":509},{""stimulus"":""img/1to3/6.png"",""time"":611},{""stimulus"":""img/1to3/7.png"",""time"":712},{""stimulus"":""img/1to3/8.png"",""time"":811},{""stimulus"":""img/1to3/9.png"",""time"":911},{""stimulus"":""img/1to3/10.png"",""time"":1011},{""stimulus"":""img/1to3/11.png"",""time"":1112},{""stimulus"":""img/1to3/12.png"",""time"":1216}]","[]"
"","","","observe","5fc70f3bd255c10f0b2346ba","bdp_cybrbll","Mon Mar 27 2023 18:56:35 GMT-0700 (Pacific Daylight Time)","466220","3","1","image-keyboard-response","41","77437","0.0-5.0-1.18","","null","","img/3to2/1.png","null","207","347","0.5","0.5","3","2","",""
"","","","","5fc70f3bd255c10f0b2346ba","bdp_cybrbll","Mon Mar 27 2023 18:56:35 GMT-0700 (Pacific Daylight Time)","466220","3","1","animation","42","78777","0.0-5.0-2.18","","","","","","207","","","","3","2","[{""stimulus"":""img/3to2/1.png"",""time"":105},{""stimulus"":""img/3to2/2.png"",""time"":209},{""stimulus"":""img/3to2/3.png"",""time"":314},{""stimulus"":""img/3to2/4.png"",""time"":417},{""stimulus"":""img/3to2/5.png"",""time"":519},{""stimulus"":""img/3to2/6.png"",""time"":623},{""stimulus"":""img/3to2/7.png"",""time"":727},{""stimulus"":""img/3to2/8.png"",""time"":831},{""stimulus"":""img/3to2/9.png"",""time"":931},{""stimulus"":""img/3to2/10.png"",""time"":1035},{""stimulus"":""img/3to2/11.png"",""time"":1136},{""stimulus"":""img/3to2/12.png"",""time"":1235}]","[]"
"","","","choice","5fc70f3bd255c10f0b2346ba","bdp_cybrbll","Mon Mar 27 2023 18:56:35 GMT-0700 (Pacific Daylight Time)","466220","3","1","image-keyboard-response","43","79013","0.0-5.0-1.19","","236","","img/2to1/1.png","1","206","689","0.5","0.5","2","1","",""
"","","","","5fc70f3bd255c10f0b2346ba","bdp_cybrbll","Mon Mar 27 2023 18:56:35 GMT-0700 (Pacific Daylight Time)","466220","3","1","animation","44","80348","0.0-5.0-2.19","","","","","","206","","","","2","1","[{""stimulus"":""img/2to1/1.png"",""time"":105},{""stimulus"":""img/2to1/2.png"",""time"":209},{""stimulus"":""img/2to1/3.png"",""time"":309},{""stimulus"":""img/2to1/4.png"",""time"":412},{""stimulus"":""img/2to1/5.png"",""time"":514},{""stimulus"":""img/2to1/6.png"",""time"":618},{""stimulus"":""img/2to1/7.png"",""time"":718},{""stimulus"":""img/2to1/8.png"",""time"":822},{""stimulus"":""img/2to1/9.png"",""time"":927},{""stimulus"":""img/2to1/10.png"",""time"":1027},{""stimulus"":""img/2to1/11.png"",""time"":1131},{""stimulus"":""img/2to1/12.png"",""time"":1231}]","[]"
"","","","observe","5fc70f3bd255c10f0b2346ba","bdp_cybrbll","Mon Mar 27 2023 18:56:35 GMT-0700 (Pacific Daylight Time)","466220","3","1","image-keyboard-response","45","80660","0.0-5.0-1.20","","null","","img/1to3/1.png","null","205","307","0.5","0.5","1","3","",""
"","","","","5fc70f3bd255c10f0b2346ba","bdp_cybrbll","Mon Mar 27 2023 18:56:35 GMT-0700 (Pacific Daylight Time)","466220","3","1","animation","46","81984","0.0-5.0-2.20","","","","","","205","","","","1","3","[{""stimulus"":""img/1to3/1.png"",""time"":105},{""stimulus"":""img/1to3/2.png"",""time"":208},{""stimulus"":""img/1to3/3.png"",""time"":310},{""stimulus"":""img/1to3/4.png"",""time"":413},{""stimulus"":""img/1to3/5.png"",""time"":516},{""stimulus"":""img/1to3/6.png"",""time"":618},{""stimulus"":""img/1to3/7.png"",""time"":718},{""stimulus"":""img/1to3/8.png"",""time"":820},{""stimulus"":""img/1to3/9.png"",""time"":922},{""stimulus"":""img/1to3/10.png"",""time"":1021},{""stimulus"":""img/1to3/11.png"",""time"":1121},{""stimulus"":""img/1to3/12.png"",""time"":1220}]","[]"
"","","","observe","5fc70f3bd255c10f0b2346ba","bdp_cybrbll","Mon Mar 27 2023 18:56:35 GMT-0700 (Pacific Daylight Time)","466220","3","1","image-keyboard-response","47","82205","0.0-5.0-1.21","","null","","img/3to2/1.png","null","204","220","0.5","0.5","3","1","",""
"","","","","5fc70f3bd255c10f0b2346ba","bdp_cybrbll","Mon Mar 27 2023 18:56:35 GMT-0700 (Pacific Daylight Time)","466220","3","1","animation","48","83539","0.0-5.0-2.21","","","","","","204","","","","3","1","[{""stimulus"":""img/3to1/1.png"",""time"":101},{""stimulus"":""img/3to1/2.png"",""time"":200},{""stimulus"":""img/3to1/3.png"",""time"":303},{""stimulus"":""img/3to1/4.png"",""time"":407},{""stimulus"":""img/3to1/5.png"",""time"":510},{""stimulus"":""img/3to1/6.png"",""time"":615},{""stimulus"":""img/3to1/7.png"",""time"":716},{""stimulus"":""img/3to1/8.png"",""time"":817},{""stimulus"":""img/3to1/9.png"",""time"":919},{""stimulus"":""img/3to1/10.png"",""time"":1021},{""stimulus"":""img/3to1/11.png"",""time"":1125},{""stimulus"":""img/3to1/12.png"",""time"":1229}]","[]"
"","","","observe","5fc70f3bd255c10f0b2346ba","bdp_cybrbll","Mon Mar 27 2023 18:56:35 GMT-0700 (Pacific Daylight Time)","466220","3","1","image-keyboard-response","49","83812","0.0-5.0-1.22","","null","","img/1to3/1.png","null","203","266","0.5","0.5","1","2","",""
"","","","","5fc70f3bd255c10f0b2346ba","bdp_cybrbll","Mon Mar 27 2023 18:56:35 GMT-0700 (Pacific Daylight Time)","466220","3","1","animation","50","85152","0.0-5.0-2.22","","","","","","203","","","","1","2","[{""stimulus"":""img/1to2/1.png"",""time"":105},{""stimulus"":""img/1to2/2.png"",""time"":209},{""stimulus"":""img/1to2/3.png"",""time"":310},{""stimulus"":""img/1to2/4.png"",""time"":411},{""stimulus"":""img/1to2/5.png"",""time"":513},{""stimulus"":""img/1to2/6.png"",""time"":617},{""stimulus"":""img/1to2/7.png"",""time"":721},{""stimulus"":""img/1to2/8.png"",""time"":825},{""stimulus"":""img/1to2/9.png"",""time"":927},{""stimulus"":""img/1to2/10.png"",""time"":1031},{""stimulus"":""img/1to2/11.png"",""time"":1136},{""stimulus"":""img/1to2/12.png"",""time"":1236}]","[]"
"","","","choice","5fc70f3bd255c10f0b2346ba","bdp_cybrbll","Mon Mar 27 2023 18:56:35 GMT-0700 (Pacific Daylight Time)","466220","3","1","image-keyboard-response","51","86806","0.0-5.0-1.23","","1653","","img/2to1/1.png","2","202","310","0.5","0.5","2","3","",""
"","","","","5fc70f3bd255c10f0b2346ba","bdp_cybrbll","Mon Mar 27 2023 18:56:35 GMT-0700 (Pacific Daylight Time)","466220","3","1","animation","52","88143","0.0-5.0-2.23","","","","","","202","","","","2","3","[{""stimulus"":""img/2to3/1.png"",""time"":104},{""stimulus"":""img/2to3/2.png"",""time"":205},{""stimulus"":""img/2to3/3.png"",""time"":308},{""stimulus"":""img/2to3/4.png"",""time"":412},{""stimulus"":""img/2to3/5.png"",""time"":517},{""stimulus"":""img/2to3/6.png"",""time"":616},{""stimulus"":""img/2to3/7.png"",""time"":719},{""stimulus"":""img/2to3/8.png"",""time"":824},{""stimulus"":""img/2to3/9.png"",""time"":925},{""stimulus"":""img/2to3/10.png"",""time"":1029},{""stimulus"":""img/2to3/11.png"",""time"":1129},{""stimulus"":""img/2to3/12.png"",""time"":1231}]","[]"
"","","","observe","5fc70f3bd255c10f0b2346ba","bdp_cybrbll","Mon Mar 27 2023 18:56:35 GMT-0700 (Pacific Daylight Time)","466220","3","1","image-keyboard-response","53","88481","0.0-5.0-1.24","","null","","img/3to2/1.png","null","201","337","0.5","0.5","3","1","",""
"","","","","5fc70f3bd255c10f0b2346ba","bdp_cybrbll","Mon Mar 27 2023 18:56:35 GMT-0700 (Pacific Daylight Time)","466220","3","1","animation","54","89826","0.0-5.0-2.24","","","","","","201","","","","3","1","[{""stimulus"":""img/3to1/1.png"",""time"":106},{""stimulus"":""img/3to1/2.png"",""time"":208},{""stimulus"":""img/3to1/3.png"",""time"":313},{""stimulus"":""img/3to1/4.png"",""time"":416},{""stimulus"":""img/3to1/5.png"",""time"":521},{""stimulus"":""img/3to1/6.png"",""time"":621},{""stimulus"":""img/3to1/7.png"",""time"":724},{""stimulus"":""img/3to1/8.png"",""time"":829},{""stimulus"":""img/3to1/9.png"",""time"":933},{""stimulus"":""img/3to1/10.png"",""time"":1037},{""stimulus"":""img/3to1/11.png"",""time"":1137},{""stimulus"":""img/3to1/12.png"",""time"":1241}]","[]"
"","","","observe","5fc70f3bd255c10f0b2346ba","bdp_cybrbll","Mon Mar 27 2023 18:56:35 GMT-0700 (Pacific Daylight Time)","466220","3","1","image-keyboard-response","55","90216","0.0-5.0-1.25","","null","","img/1to3/1.png","null","200","384","0.5","0.5","1","3","",""
"","","","","5fc70f3bd255c10f0b2346ba","bdp_cybrbll","Mon Mar 27 2023 18:56:35 GMT-0700 (Pacific Daylight Time)","466220","3","1","animation","56","91544","0.0-5.0-2.25","","","","","","200","","","","1","3","[{""stimulus"":""img/1to3/1.png"",""time"":105},{""stimulus"":""img/1to3/2.png"",""time"":204},{""stimulus"":""img/1to3/3.png"",""time"":307},{""stimulus"":""img/1to3/4.png"",""time"":411},{""stimulus"":""img/1to3/5.png"",""time"":514},{""stimulus"":""img/1to3/6.png"",""time"":616},{""stimulus"":""img/1to3/7.png"",""time"":718},{""stimulus"":""img/1to3/8.png"",""time"":819},{""stimulus"":""img/1to3/9.png"",""time"":920},{""stimulus"":""img/1to3/10.png"",""time"":1020},{""stimulus"":""img/1to3/11.png"",""time"":1122},{""stimulus"":""img/1to3/12.png"",""time"":1225}]","[]"
"","","","observe","5fc70f3bd255c10f0b2346ba","bdp_cybrbll","Mon Mar 27 2023 18:56:35 GMT-0700 (Pacific Daylight Time)","466220","3","1","image-keyboard-response","57","92168","0.0-5.0-1.26","","null","","img/3to2/1.png","null","199","619","0.5","0.5","3","2","",""
"","","","","5fc70f3bd255c10f0b2346ba","bdp_cybrbll","Mon Mar 27 2023 18:56:35 GMT-0700 (Pacific Daylight Time)","466220","3","1","animation","58","93505","0.0-5.0-2.26","","","","","","199","","","","3","2","[{""stimulus"":""img/3to2/1.png"",""time"":104},{""stimulus"":""img/3to2/2.png"",""time"":203},{""stimulus"":""img/3to2/3.png"",""time"":308},{""stimulus"":""img/3to2/4.png"",""time"":412},{""stimulus"":""img/3to2/5.png"",""time"":516},{""stimulus"":""img/3to2/6.png"",""time"":615},{""stimulus"":""img/3to2/7.png"",""time"":717},{""stimulus"":""img/3to2/8.png"",""time"":821},{""stimulus"":""img/3to2/9.png"",""time"":925},{""stimulus"":""img/3to2/10.png"",""time"":1029},{""stimulus"":""img/3to2/11.png"",""time"":1133},{""stimulus"":""img/3to2/12.png"",""time"":1237}]","[]"
"","","","choice","5fc70f3bd255c10f0b2346ba","bdp_cybrbll","Mon Mar 27 2023 18:56:35 GMT-0700 (Pacific Daylight Time)","466220","3","1","image-keyboard-response","59","93972","0.0-5.0-1.27","","465","","img/2to1/1.png","1","198","877","0.5","0.5","2","1","",""
"","","","","5fc70f3bd255c10f0b2346ba","bdp_cybrbll","Mon Mar 27 2023 18:56:35 GMT-0700 (Pacific Daylight Time)","466220","3","1","animation","60","95310","0.0-5.0-2.27","","","","","","198","","","","2","1","[{""stimulus"":""img/2to1/1.png"",""time"":105},{""stimulus"":""img/2to1/2.png"",""time"":209},{""stimulus"":""img/2to1/3.png"",""time"":313},{""stimulus"":""img/2to1/4.png"",""time"":417},{""stimulus"":""img/2to1/5.png"",""time"":521},{""stimulus"":""img/2to1/6.png"",""time"":625},{""stimulus"":""img/2to1/7.png"",""time"":729},{""stimulus"":""img/2to1/8.png"",""time"":831},{""stimulus"":""img/2to1/9.png"",""time"":931},{""stimulus"":""img/2to1/10.png"",""time"":1030},{""stimulus"":""img/2to1/11.png"",""time"":1134},{""stimulus"":""img/2to1/12.png"",""time"":1234}]","[]"
"","","","observe","5fc70f3bd255c10f0b2346ba","bdp_cybrbll","Mon Mar 27 2023 18:56:35 GMT-0700 (Pacific Daylight Time)","466220","3","1","image-keyboard-response","61","96389","0.0-5.0-1.28","","null","","img/1to3/1.png","null","197","1076","0.5","0.5","1","3","",""
"","","","","5fc70f3bd255c10f0b2346ba","bdp_cybrbll","Mon Mar 27 2023 18:56:35 GMT-0700 (Pacific Daylight Time)","466220","3","1","animation","62","97727","0.0-5.0-2.28","","","","","","197","","","","1","3","[{""stimulus"":""img/1to3/1.png"",""time"":105},{""stimulus"":""img/1to3/2.png"",""time"":209},{""stimulus"":""img/1to3/3.png"",""time"":313},{""stimulus"":""img/1to3/4.png"",""time"":416},{""stimulus"":""img/1to3/5.png"",""time"":520},{""stimulus"":""img/1to3/6.png"",""time"":620},{""stimulus"":""img/1to3/7.png"",""time"":724},{""stimulus"":""img/1to3/8.png"",""time"":825},{""stimulus"":""img/1to3/9.png"",""time"":928},{""stimulus"":""img/1to3/10.png"",""time"":1027},{""stimulus"":""img/1to3/11.png"",""time"":1132},{""stimulus"":""img/1to3/12.png"",""time"":1233}]","[]"
"","","","observe","5fc70f3bd255c10f0b2346ba","bdp_cybrbll","Mon Mar 27 2023 18:56:35 GMT-0700 (Pacific Daylight Time)","466220","3","1","image-keyboard-response","63","99188","0.0-5.0-1.29","","null","","img/3to2/1.png","null","196","1458","0.5","0.5","3","1","",""
"","","","","5fc70f3bd255c10f0b2346ba","bdp_cybrbll","Mon Mar 27 2023 18:56:35 GMT-0700 (Pacific Daylight Time)","466220","3","1","animation","64","100534","0.0-5.0-2.29","","","","","","196","","","","3","1","[{""stimulus"":""img/3to1/1.png"",""time"":107},{""stimulus"":""img/3to1/2.png"",""time"":211},{""stimulus"":""img/3to1/3.png"",""time"":315},{""stimulus"":""img/3to1/4.png"",""time"":417},{""stimulus"":""img/3to1/5.png"",""time"":521},{""stimulus"":""img/3to1/6.png"",""time"":625},{""stimulus"":""img/3to1/7.png"",""time"":729},{""stimulus"":""img/3to1/8.png"",""time"":829},{""stimulus"":""img/3to1/9.png"",""time"":934},{""stimulus"":""img/3to1/10.png"",""time"":1038},{""stimulus"":""img/3to1/11.png"",""time"":1141},{""stimulus"":""img/3to1/12.png"",""time"":1246}]","[]"
"","","","observe","5fc70f3bd255c10f0b2346ba","bdp_cybrbll","Mon Mar 27 2023 18:56:35 GMT-0700 (Pacific Daylight Time)","466220","3","1","image-keyboard-response","65","101207","0.0-5.0-1.30","","null","","img/1to3/1.png","null","195","666","0.5","0.5","1","3","",""
"","","","","5fc70f3bd255c10f0b2346ba","bdp_cybrbll","Mon Mar 27 2023 18:56:35 GMT-0700 (Pacific Daylight Time)","466220","3","1","animation","66","102542","0.0-5.0-2.30","","","","","","195","","","","1","3","[{""stimulus"":""img/1to3/1.png"",""time"":100},{""stimulus"":""img/1to3/2.png"",""time"":202},{""stimulus"":""img/1to3/3.png"",""time"":305},{""stimulus"":""img/1to3/4.png"",""time"":410},{""stimulus"":""img/1to3/5.png"",""time"":514},{""stimulus"":""img/1to3/6.png"",""time"":614},{""stimulus"":""img/1to3/7.png"",""time"":714},{""stimulus"":""img/1to3/8.png"",""time"":818},{""stimulus"":""img/1to3/9.png"",""time"":922},{""stimulus"":""img/1to3/10.png"",""time"":1022},{""stimulus"":""img/1to3/11.png"",""time"":1126},{""stimulus"":""img/1to3/12.png"",""time"":1229}]","[]"
"","","","observe","5fc70f3bd255c10f0b2346ba","bdp_cybrbll","Mon Mar 27 2023 18:56:35 GMT-0700 (Pacific Daylight Time)","466220","3","1","image-keyboard-response","67","103589","0.0-5.0-1.31","","null","","img/3to2/1.png","null","194","1042","0.5","0.5","3","1","",""
"","","","","5fc70f3bd255c10f0b2346ba","bdp_cybrbll","Mon Mar 27 2023 18:56:35 GMT-0700 (Pacific Daylight Time)","466220","3","1","animation","68","104927","0.0-5.0-2.31","","","","","","194","","","","3","1","[{""stimulus"":""img/3to1/1.png"",""time"":105},{""stimulus"":""img/3to1/2.png"",""time"":208},{""stimulus"":""img/3to1/3.png"",""time"":311},{""stimulus"":""img/3to1/4.png"",""time"":414},{""stimulus"":""img/3to1/5.png"",""time"":516},{""stimulus"":""img/3to1/6.png"",""time"":615},{""stimulus"":""img/3to1/7.png"",""time"":718},{""stimulus"":""img/3to1/8.png"",""time"":823},{""stimulus"":""img/3to1/9.png"",""time"":927},{""stimulus"":""img/3to1/10.png"",""time"":1030},{""stimulus"":""img/3to1/11.png"",""time"":1132},{""stimulus"":""img/3to1/12.png"",""time"":1232}]","[]"
"","","","observe","5fc70f3bd255c10f0b2346ba","bdp_cybrbll","Mon Mar 27 2023 18:56:35 GMT-0700 (Pacific Daylight Time)","466220","3","1","image-keyboard-response","69","106201","0.0-5.0-1.32","","null","","img/1to3/1.png","null","193","1269","0.5","0.5","1","2","",""
"","","","","5fc70f3bd255c10f0b2346ba","bdp_cybrbll","Mon Mar 27 2023 18:56:35 GMT-0700 (Pacific Daylight Time)","466220","3","1","animation","70","107551","0.0-5.0-2.32","","","","","","193","","","","1","2","[{""stimulus"":""img/1to2/1.png"",""time"":104},{""stimulus"":""img/1to2/2.png"",""time"":208},{""stimulus"":""img/1to2/3.png"",""time"":310},{""stimulus"":""img/1to2/4.png"",""time"":414},{""stimulus"":""img/1to2/5.png"",""time"":518},{""stimulus"":""img/1to2/6.png"",""time"":622},{""stimulus"":""img/1to2/7.png"",""time"":726},{""stimulus"":""img/1to2/8.png"",""time"":831},{""stimulus"":""img/1to2/9.png"",""time"":935},{""stimulus"":""img/1to2/10.png"",""time"":1039},{""stimulus"":""img/1to2/11.png"",""time"":1142},{""stimulus"":""img/1to2/12.png"",""time"":1247}]","[]"
"","","","choice","5fc70f3bd255c10f0b2346ba","bdp_cybrbll","Mon Mar 27 2023 18:56:35 GMT-0700 (Pacific Daylight Time)","466220","3","1","image-keyboard-response","71","108281","0.0-5.0-1.33","","729","","img/2to1/1.png","1","192","807","0.5","0.5","2","1","",""
"","","","","5fc70f3bd255c10f0b2346ba","bdp_cybrbll","Mon Mar 27 2023 18:56:35 GMT-0700 (Pacific Daylight Time)","466220","3","1","animation","72","109605","0.0-5.0-2.33","","","","","","192","","","","2","1","[{""stimulus"":""img/2to1/1.png"",""time"":106},{""stimulus"":""img/2to1/2.png"",""time"":208},{""stimulus"":""img/2to1/3.png"",""time"":310},{""stimulus"":""img/2to1/4.png"",""time"":413},{""stimulus"":""img/2to1/5.png"",""time"":514},{""stimulus"":""img/2to1/6.png"",""time"":616},{""stimulus"":""img/2to1/7.png"",""time"":718},{""stimulus"":""img/2to1/8.png"",""time"":817},{""stimulus"":""img/2to1/9.png"",""time"":917},{""stimulus"":""img/2to1/10.png"",""time"":1017},{""stimulus"":""img/2to1/11.png"",""time"":1120},{""stimulus"":""img/2to1/12.png"",""time"":1220}]","[]"
"","","","observe","5fc70f3bd255c10f0b2346ba","bdp_cybrbll","Mon Mar 27 2023 18:56:35 GMT-0700 (Pacific Daylight Time)","466220","3","1","image-keyboard-response","73","110442","0.0-5.0-1.34","","null","","img/1to3/1.png","null","191","835","0.5","0.5","1","3","",""
"","","","","5fc70f3bd255c10f0b2346ba","bdp_cybrbll","Mon Mar 27 2023 18:56:35 GMT-0700 (Pacific Daylight Time)","466220","3","1","animation","74","111782","0.0-5.0-2.34","","","","","","191","","","","1","3","[{""stimulus"":""img/1to3/1.png"",""time"":101},{""stimulus"":""img/1to3/2.png"",""time"":205},{""stimulus"":""img/1to3/3.png"",""time"":306},{""stimulus"":""img/1to3/4.png"",""time"":410},{""stimulus"":""img/1to3/5.png"",""time"":514},{""stimulus"":""img/1to3/6.png"",""time"":618},{""stimulus"":""img/1to3/7.png"",""time"":722},{""stimulus"":""img/1to3/8.png"",""time"":827},{""stimulus"":""img/1to3/9.png"",""time"":927},{""stimulus"":""img/1to3/10.png"",""time"":1030},{""stimulus"":""img/1to3/11.png"",""time"":1135},{""stimulus"":""img/1to3/12.png"",""time"":1235}]","[]"
"","","","observe","5fc70f3bd255c10f0b2346ba","bdp_cybrbll","Mon Mar 27 2023 18:56:35 GMT-0700 (Pacific Daylight Time)","466220","3","1","image-keyboard-response","75","112311","0.0-5.0-1.35","","null","","img/3to2/1.png","null","190","527","0.5","0.5","3","2","",""
"","","","","5fc70f3bd255c10f0b2346ba","bdp_cybrbll","Mon Mar 27 2023 18:56:35 GMT-0700 (Pacific Daylight Time)","466220","3","1","animation","76","113639","0.0-5.0-2.35","","","","","","190","","","","3","2","[{""stimulus"":""img/3to2/1.png"",""time"":101},{""stimulus"":""img/3to2/2.png"",""time"":199},{""stimulus"":""img/3to2/3.png"",""time"":304},{""stimulus"":""img/3to2/4.png"",""time"":408},{""stimulus"":""img/3to2/5.png"",""time"":511},{""stimulus"":""img/3to2/6.png"",""time"":616},{""stimulus"":""img/3to2/7.png"",""time"":717},{""stimulus"":""img/3to2/8.png"",""time"":819},{""stimulus"":""img/3to2/9.png"",""time"":922},{""stimulus"":""img/3to2/10.png"",""time"":1026},{""stimulus"":""img/3to2/11.png"",""time"":1128},{""stimulus"":""img/3to2/12.png"",""time"":1229}]","[]"
"","","","choice","5fc70f3bd255c10f0b2346ba","bdp_cybrbll","Mon Mar 27 2023 18:56:35 GMT-0700 (Pacific Daylight Time)","466220","3","1","image-keyboard-response","77","114364","0.0-5.0-1.36","","724","","img/2to1/1.png","2","189","261","0.5","0.5","2","3","",""
"","","","","5fc70f3bd255c10f0b2346ba","bdp_cybrbll","Mon Mar 27 2023 18:56:35 GMT-0700 (Pacific Daylight Time)","466220","3","1","animation","78","115708","0.0-5.0-2.36","","","","","","189","","","","2","3","[{""stimulus"":""img/2to3/1.png"",""time"":103},{""stimulus"":""img/2to3/2.png"",""time"":208},{""stimulus"":""img/2to3/3.png"",""time"":307},{""stimulus"":""img/2to3/4.png"",""time"":412},{""stimulus"":""img/2to3/5.png"",""time"":516},{""stimulus"":""img/2to3/6.png"",""time"":619},{""stimulus"":""img/2to3/7.png"",""time"":722},{""stimulus"":""img/2to3/8.png"",""time"":820},{""stimulus"":""img/2to3/9.png"",""time"":929},{""stimulus"":""img/2to3/10.png"",""time"":1033},{""stimulus"":""img/2to3/11.png"",""time"":1135},{""stimulus"":""img/2to3/12.png"",""time"":1239}]","[]"
"","","","observe","5fc70f3bd255c10f0b2346ba","bdp_cybrbll","Mon Mar 27 2023 18:56:35 GMT-0700 (Pacific Daylight Time)","466220","3","1","image-keyboard-response","79","116187","0.0-5.0-1.37","","null","","img/3to2/1.png","null","188","473","0.5","0.5","3","1","",""
"","","","","5fc70f3bd255c10f0b2346ba","bdp_cybrbll","Mon Mar 27 2023 18:56:35 GMT-0700 (Pacific Daylight Time)","466220","3","1","animation","80","117535","0.0-5.0-2.37","","","","","","188","","","","3","1","[{""stimulus"":""img/3to1/1.png"",""time"":111},{""stimulus"":""img/3to1/2.png"",""time"":214},{""stimulus"":""img/3to1/3.png"",""time"":317},{""stimulus"":""img/3to1/4.png"",""time"":422},{""stimulus"":""img/3to1/5.png"",""time"":526},{""stimulus"":""img/3to1/6.png"",""time"":630},{""stimulus"":""img/3to1/7.png"",""time"":734},{""stimulus"":""img/3to1/8.png"",""time"":835},{""stimulus"":""img/3to1/9.png"",""time"":934},{""stimulus"":""img/3to1/10.png"",""time"":1039},{""stimulus"":""img/3to1/11.png"",""time"":1142},{""stimulus"":""img/3to1/12.png"",""time"":1247}]","[]"
"","","","observe","5fc70f3bd255c10f0b2346ba","bdp_cybrbll","Mon Mar 27 2023 18:56:35 GMT-0700 (Pacific Daylight Time)","466220","3","1","image-keyboard-response","81","117954","0.0-5.0-1.38","","null","","img/1to3/1.png","null","187","413","0.5","0.5","1","2","",""
"","","","","5fc70f3bd255c10f0b2346ba","bdp_cybrbll","Mon Mar 27 2023 18:56:35 GMT-0700 (Pacific Daylight Time)","466220","3","1","animation","82","119294","0.0-5.0-2.38","","","","","","187","","","","1","2","[{""stimulus"":""img/1to2/1.png"",""time"":102},{""stimulus"":""img/1to2/2.png"",""time"":203},{""stimulus"":""img/1to2/3.png"",""time"":307},{""stimulus"":""img/1to2/4.png"",""time"":411},{""stimulus"":""img/1to2/5.png"",""time"":515},{""stimulus"":""img/1to2/6.png"",""time"":618},{""stimulus"":""img/1to2/7.png"",""time"":719},{""stimulus"":""img/1to2/8.png"",""time"":823},{""stimulus"":""img/1to2/9.png"",""time"":922},{""stimulus"":""img/1to2/10.png"",""time"":1025},{""stimulus"":""img/1to2/11.png"",""time"":1128},{""stimulus"":""img/1to2/12.png"",""time"":1232}]","[]"
"","","","choice","5fc70f3bd255c10f0b2346ba","bdp_cybrbll","Mon Mar 27 2023 18:56:35 GMT-0700 (Pacific Daylight Time)","466220","3","1","image-keyboard-response","83","119727","0.0-5.0-1.39","","432","","img/2to1/1.png","1","186","354","0.5","0.5","2","1","",""
"","","","","5fc70f3bd255c10f0b2346ba","bdp_cybrbll","Mon Mar 27 2023 18:56:35 GMT-0700 (Pacific Daylight Time)","466220","3","1","animation","84","121064","0.0-5.0-2.39","","","","","","186","","","","2","1","[{""stimulus"":""img/2to1/1.png"",""time"":104},{""stimulus"":""img/2to1/2.png"",""time"":205},{""stimulus"":""img/2to1/3.png"",""time"":309},{""stimulus"":""img/2to1/4.png"",""time"":413},{""stimulus"":""img/2to1/5.png"",""time"":517},{""stimulus"":""img/2to1/6.png"",""time"":621},{""stimulus"":""img/2to1/7.png"",""time"":725},{""stimulus"":""img/2to1/8.png"",""time"":827},{""stimulus"":""img/2to1/9.png"",""time"":929},{""stimulus"":""img/2to1/10.png"",""time"":1032},{""stimulus"":""img/2to1/11.png"",""time"":1136},{""stimulus"":""img/2to1/12.png"",""time"":1236}]","[]"
"","","","observe","5fc70f3bd255c10f0b2346ba","bdp_cybrbll","Mon Mar 27 2023 18:56:35 GMT-0700 (Pacific Daylight Time)","466220","3","1","image-keyboard-response","85","121834","0.0-5.0-1.40","","null","","img/1to3/1.png","null","185","765","0.5","0.5","1","2","",""
"","","","","5fc70f3bd255c10f0b2346ba","bdp_cybrbll","Mon Mar 27 2023 18:56:35 GMT-0700 (Pacific Daylight Time)","466220","3","1","animation","86","123172","0.0-5.0-2.40","","","","","","185","","","","1","2","[{""stimulus"":""img/1to2/1.png"",""time"":105},{""stimulus"":""img/1to2/2.png"",""time"":204},{""stimulus"":""img/1to2/3.png"",""time"":307},{""stimulus"":""img/1to2/4.png"",""time"":409},{""stimulus"":""img/1to2/5.png"",""time"":513},{""stimulus"":""img/1to2/6.png"",""time"":617},{""stimulus"":""img/1to2/7.png"",""time"":717},{""stimulus"":""img/1to2/8.png"",""time"":820},{""stimulus"":""img/1to2/9.png"",""time"":921},{""stimulus"":""img/1to2/10.png"",""time"":1025},{""stimulus"":""img/1to2/11.png"",""time"":1129},{""stimulus"":""img/1to2/12.png"",""time"":1233}]","[]"
"","","","choice","5fc70f3bd255c10f0b2346ba","bdp_cybrbll","Mon Mar 27 2023 18:56:35 GMT-0700 (Pacific Daylight Time)","466220","3","1","image-keyboard-response","87","123593","0.0-5.0-1.41","","420","","img/2to1/1.png","2","184","569","0.5","0.5","2","3","",""
"","","","","5fc70f3bd255c10f0b2346ba","bdp_cybrbll","Mon Mar 27 2023 18:56:35 GMT-0700 (Pacific Daylight Time)","466220","3","1","animation","88","124939","0.0-5.0-2.41","","","","","","184","","","","2","3","[{""stimulus"":""img/2to3/1.png"",""time"":105},{""stimulus"":""img/2to3/2.png"",""time"":208},{""stimulus"":""img/2to3/3.png"",""time"":312},{""stimulus"":""img/2to3/4.png"",""time"":414},{""stimulus"":""img/2to3/5.png"",""time"":518},{""stimulus"":""img/2to3/6.png"",""time"":622},{""stimulus"":""img/2to3/7.png"",""time"":726},{""stimulus"":""img/2to3/8.png"",""time"":827},{""stimulus"":""img/2to3/9.png"",""time"":931},{""stimulus"":""img/2to3/10.png"",""time"":1036},{""stimulus"":""img/2to3/11.png"",""time"":1139},{""stimulus"":""img/2to3/12.png"",""time"":1242}]","[]"
"","","","observe","5fc70f3bd255c10f0b2346ba","bdp_cybrbll","Mon Mar 27 2023 18:56:35 GMT-0700 (Pacific Daylight Time)","466220","3","1","image-keyboard-response","89","125296","0.0-5.0-1.42","","null","","img/3to2/1.png","null","183","348","0.5","0.5","3","2","",""
"","","","","5fc70f3bd255c10f0b2346ba","bdp_cybrbll","Mon Mar 27 2023 18:56:35 GMT-0700 (Pacific Daylight Time)","466220","3","1","animation","90","126644","0.0-5.0-2.42","","","","","","183","","","","3","2","[{""stimulus"":""img/3to2/1.png"",""time"":104},{""stimulus"":""img/3to2/2.png"",""time"":208},{""stimulus"":""img/3to2/3.png"",""time"":312},{""stimulus"":""img/3to2/4.png"",""time"":416},{""stimulus"":""img/3to2/5.png"",""time"":520},{""stimulus"":""img/3to2/6.png"",""time"":624},{""stimulus"":""img/3to2/7.png"",""time"":729},{""stimulus"":""img/3to2/8.png"",""time"":832},{""stimulus"":""img/3to2/9.png"",""time"":937},{""stimulus"":""img/3to2/10.png"",""time"":1041},{""stimulus"":""img/3to2/11.png"",""time"":1140},{""stimulus"":""img/3to2/12.png"",""time"":1245}]","[]"
"","","","choice","5fc70f3bd255c10f0b2346ba","bdp_cybrbll","Mon Mar 27 2023 18:56:35 GMT-0700 (Pacific Daylight Time)","466220","3","1","image-keyboard-response","91","126983","0.0-5.0-1.43","","338","","img/2to1/1.png","1","182","388","0.5","0.5","2","1","",""
"","","","","5fc70f3bd255c10f0b2346ba","bdp_cybrbll","Mon Mar 27 2023 18:56:35 GMT-0700 (Pacific Daylight Time)","466220","3","1","animation","92","128317","0.0-5.0-2.43","","","","","","182","","","","2","1","[{""stimulus"":""img/2to1/1.png"",""time"":104},{""stimulus"":""img/2to1/2.png"",""time"":208},{""stimulus"":""img/2to1/3.png"",""time"":312},{""stimulus"":""img/2to1/4.png"",""time"":417},{""stimulus"":""img/2to1/5.png"",""time"":517},{""stimulus"":""img/2to1/6.png"",""time"":621},{""stimulus"":""img/2to1/7.png"",""time"":722},{""stimulus"":""img/2to1/8.png"",""time"":826},{""stimulus"":""img/2to1/9.png"",""time"":927},{""stimulus"":""img/2to1/10.png"",""time"":1028},{""stimulus"":""img/2to1/11.png"",""time"":1128},{""stimulus"":""img/2to1/12.png"",""time"":1232}]","[]"
"","","","observe","5fc70f3bd255c10f0b2346ba","bdp_cybrbll","Mon Mar 27 2023 18:56:35 GMT-0700 (Pacific Daylight Time)","466220","3","1","image-keyboard-response","93","128733","0.0-5.0-1.44","","null","","img/1to3/1.png","null","181","409","0.5","0.5","1","2","",""
"","","","","5fc70f3bd255c10f0b2346ba","bdp_cybrbll","Mon Mar 27 2023 18:56:35 GMT-0700 (Pacific Daylight Time)","466220","3","1","animation","94","130081","0.0-5.0-2.44","","","","","","181","","","","1","2","[{""stimulus"":""img/1to2/1.png"",""time"":105},{""stimulus"":""img/1to2/2.png"",""time"":208},{""stimulus"":""img/1to2/3.png"",""time"":312},{""stimulus"":""img/1to2/4.png"",""time"":417},{""stimulus"":""img/1to2/5.png"",""time"":521},{""stimulus"":""img/1to2/6.png"",""time"":625},{""stimulus"":""img/1to2/7.png"",""time"":729},{""stimulus"":""img/1to2/8.png"",""time"":828},{""stimulus"":""img/1to2/9.png"",""time"":933},{""stimulus"":""img/1to2/10.png"",""time"":1037},{""stimulus"":""img/1to2/11.png"",""time"":1140},{""stimulus"":""img/1to2/12.png"",""time"":1244}]","[]"
"","","","choice","5fc70f3bd255c10f0b2346ba","bdp_cybrbll","Mon Mar 27 2023 18:56:35 GMT-0700 (Pacific Daylight Time)","466220","3","1","image-keyboard-response","95","130273","0.0-5.0-1.45","","191","","img/2to1/1.png","2","180","262","0.5","0.5","2","3","",""
"","","","","5fc70f3bd255c10f0b2346ba","bdp_cybrbll","Mon Mar 27 2023 18:56:35 GMT-0700 (Pacific Daylight Time)","466220","3","1","animation","96","131622","0.0-5.0-2.45","","","","","","180","","","","2","3","[{""stimulus"":""img/2to3/1.png"",""time"":105},{""stimulus"":""img/2to3/2.png"",""time"":209},{""stimulus"":""img/2to3/3.png"",""time"":312},{""stimulus"":""img/2to3/4.png"",""time"":416},{""stimulus"":""img/2to3/5.png"",""time"":520},{""stimulus"":""img/2to3/6.png"",""time"":625},{""stimulus"":""img/2to3/7.png"",""time"":729},{""stimulus"":""img/2to3/8.png"",""time"":832},{""stimulus"":""img/2to3/9.png"",""time"":937},{""stimulus"":""img/2to3/10.png"",""time"":1037},{""stimulus"":""img/2to3/11.png"",""time"":1141},{""stimulus"":""img/2to3/12.png"",""time"":1245}]","[]"
"","","","observe","5fc70f3bd255c10f0b2346ba","bdp_cybrbll","Mon Mar 27 2023 18:56:35 GMT-0700 (Pacific Daylight Time)","466220","3","1","image-keyboard-response","97","131879","0.0-5.0-1.46","","null","","img/3to2/1.png","null","179","254","0.5","0.5","3","1","",""
"","","","","5fc70f3bd255c10f0b2346ba","bdp_cybrbll","Mon Mar 27 2023 18:56:35 GMT-0700 (Pacific Daylight Time)","466220","3","1","animation","98","133225","0.0-5.0-2.46","","","","","","179","","","","3","1","[{""stimulus"":""img/3to1/1.png"",""time"":105},{""stimulus"":""img/3to1/2.png"",""time"":209},{""stimulus"":""img/3to1/3.png"",""time"":310},{""stimulus"":""img/3to1/4.png"",""time"":417},{""stimulus"":""img/3to1/5.png"",""time"":521},{""stimulus"":""img/3to1/6.png"",""time"":622},{""stimulus"":""img/3to1/7.png"",""time"":726},{""stimulus"":""img/3to1/8.png"",""time"":830},{""stimulus"":""img/3to1/9.png"",""time"":934},{""stimulus"":""img/3to1/10.png"",""time"":1038},{""stimulus"":""img/3to1/11.png"",""time"":1142},{""stimulus"":""img/3to1/12.png"",""time"":1242}]","[]"
"","","","observe","5fc70f3bd255c10f0b2346ba","bdp_cybrbll","Mon Mar 27 2023 18:56:35 GMT-0700 (Pacific Daylight Time)","466220","3","1","image-keyboard-response","99","133359","0.0-5.0-1.47","","null","","img/1to3/1.png","null","178","131","0.5","0.5","1","3","",""
"","","","","5fc70f3bd255c10f0b2346ba","bdp_cybrbll","Mon Mar 27 2023 18:56:35 GMT-0700 (Pacific Daylight Time)","466220","3","1","animation","100","134702","0.0-5.0-2.47","","","","","","178","","","","1","3","[{""stimulus"":""img/1to3/1.png"",""time"":105},{""stimulus"":""img/1to3/2.png"",""time"":206},{""stimulus"":""img/1to3/3.png"",""time"":310},{""stimulus"":""img/1to3/4.png"",""time"":412},{""stimulus"":""img/1to3/5.png"",""time"":516},{""stimulus"":""img/1to3/6.png"",""time"":618},{""stimulus"":""img/1to3/7.png"",""time"":722},{""stimulus"":""img/1to3/8.png"",""time"":826},{""stimulus"":""img/1to3/9.png"",""time"":929},{""stimulus"":""img/1to3/10.png"",""time"":1033},{""stimulus"":""img/1to3/11.png"",""time"":1137},{""stimulus"":""img/1to3/12.png"",""time"":1237}]","[]"
"","","","observe","5fc70f3bd255c10f0b2346ba","bdp_cybrbll","Mon Mar 27 2023 18:56:35 GMT-0700 (Pacific Daylight Time)","466220","3","1","image-keyboard-response","101","134902","0.0-5.0-1.48","","null","","img/3to2/1.png","null","177","197","0.5","0.5","3","1","",""
"","","","","5fc70f3bd255c10f0b2346ba","bdp_cybrbll","Mon Mar 27 2023 18:56:35 GMT-0700 (Pacific Daylight Time)","466220","3","1","animation","102","136246","0.0-5.0-2.48","","","","","","177","","","","3","1","[{""stimulus"":""img/3to1/1.png"",""time"":105},{""stimulus"":""img/3to1/2.png"",""time"":208},{""stimulus"":""img/3to1/3.png"",""time"":312},{""stimulus"":""img/3to1/4.png"",""time"":413},{""stimulus"":""img/3to1/5.png"",""time"":517},{""stimulus"":""img/3to1/6.png"",""time"":621},{""stimulus"":""img/3to1/7.png"",""time"":725},{""stimulus"":""img/3to1/8.png"",""time"":826},{""stimulus"":""img/3to1/9.png"",""time"":930},{""stimulus"":""img/3to1/10.png"",""time"":1034},{""stimulus"":""img/3to1/11.png"",""time"":1138},{""stimulus"":""img/3to1/12.png"",""time"":1241}]","[]"
"","","","observe","5fc70f3bd255c10f0b2346ba","bdp_cybrbll","Mon Mar 27 2023 18:56:35 GMT-0700 (Pacific Daylight Time)","466220","3","1","image-keyboard-response","103","136849","0.0-5.0-1.49","","null","","img/1to3/1.png","null","176","599","0.5","0.5","1","2","",""
"","","","","5fc70f3bd255c10f0b2346ba","bdp_cybrbll","Mon Mar 27 2023 18:56:35 GMT-0700 (Pacific Daylight Time)","466220","3","1","animation","104","138183","0.0-5.0-2.49","","","","","","176","","","","1","2","[{""stimulus"":""img/1to2/1.png"",""time"":102},{""stimulus"":""img/1to2/2.png"",""time"":201},{""stimulus"":""img/1to2/3.png"",""time"":300},{""stimulus"":""img/1to2/4.png"",""time"":402},{""stimulus"":""img/1to2/5.png"",""time"":502},{""stimulus"":""img/1to2/6.png"",""time"":606},{""stimulus"":""img/1to2/7.png"",""time"":710},{""stimulus"":""img/1to2/8.png"",""time"":814},{""stimulus"":""img/1to2/9.png"",""time"":918},{""stimulus"":""img/1to2/10.png"",""time"":1023},{""stimulus"":""img/1to2/11.png"",""time"":1126},{""stimulus"":""img/1to2/12.png"",""time"":1230}]","[]"
"","","","choice","5fc70f3bd255c10f0b2346ba","bdp_cybrbll","Mon Mar 27 2023 18:56:35 GMT-0700 (Pacific Daylight Time)","466220","3","1","image-keyboard-response","105","138979","0.0-5.0-1.50","","794","","img/2to1/1.png","1","175","424","0.5","0.5","2","1","",""
"","","","","5fc70f3bd255c10f0b2346ba","bdp_cybrbll","Mon Mar 27 2023 18:56:35 GMT-0700 (Pacific Daylight Time)","466220","3","1","animation","106","140331","0.0-5.0-2.50","","","","","","175","","","","2","1","[{""stimulus"":""img/2to1/1.png"",""time"":104},{""stimulus"":""img/2to1/2.png"",""time"":208},{""stimulus"":""img/2to1/3.png"",""time"":320},{""stimulus"":""img/2to1/4.png"",""time"":424},{""stimulus"":""img/2to1/5.png"",""time"":526},{""stimulus"":""img/2to1/6.png"",""time"":626},{""stimulus"":""img/2to1/7.png"",""time"":730},{""stimulus"":""img/2to1/8.png"",""time"":830},{""stimulus"":""img/2to1/9.png"",""time"":934},{""stimulus"":""img/2to1/10.png"",""time"":1039},{""stimulus"":""img/2to1/11.png"",""time"":1143},{""stimulus"":""img/2to1/12.png"",""time"":1246}]","[]"
"","","","observe","5fc70f3bd255c10f0b2346ba","bdp_cybrbll","Mon Mar 27 2023 18:56:35 GMT-0700 (Pacific Daylight Time)","466220","3","1","image-keyboard-response","107","140829","0.0-5.0-1.51","","null","","img/1to3/1.png","null","174","492","0.5","0.5","1","2","",""
"","","","","5fc70f3bd255c10f0b2346ba","bdp_cybrbll","Mon Mar 27 2023 18:56:35 GMT-0700 (Pacific Daylight Time)","466220","3","1","animation","108","142174","0.0-5.0-2.51","","","","","","174","","","","1","2","[{""stimulus"":""img/1to2/1.png"",""time"":105},{""stimulus"":""img/1to2/2.png"",""time"":207},{""stimulus"":""img/1to2/3.png"",""time"":310},{""stimulus"":""img/1to2/4.png"",""time"":414},{""stimulus"":""img/1to2/5.png"",""time"":518},{""stimulus"":""img/1to2/6.png"",""time"":623},{""stimulus"":""img/1to2/7.png"",""time"":727},{""stimulus"":""img/1to2/8.png"",""time"":830},{""stimulus"":""img/1to2/9.png"",""time"":934},{""stimulus"":""img/1to2/10.png"",""time"":1036},{""stimulus"":""img/1to2/11.png"",""time"":1140},{""stimulus"":""img/1to2/12.png"",""time"":1243}]","[]"
"","","","choice","5fc70f3bd255c10f0b2346ba","bdp_cybrbll","Mon Mar 27 2023 18:56:35 GMT-0700 (Pacific Daylight Time)","466220","3","1","image-keyboard-response","109","142392","0.0-5.0-1.52","","217","","img/2to1/1.png","2","173","715","0.5","0.5","2","3","",""
"","","","","5fc70f3bd255c10f0b2346ba","bdp_cybrbll","Mon Mar 27 2023 18:56:35 GMT-0700 (Pacific Daylight Time)","466220","3","1","animation","110","143729","0.0-5.0-2.52","","","","","","173","","","","2","3","[{""stimulus"":""img/2to3/1.png"",""time"":105},{""stimulus"":""img/2to3/2.png"",""time"":209},{""stimulus"":""img/2to3/3.png"",""time"":313},{""stimulus"":""img/2to3/4.png"",""time"":414},{""stimulus"":""img/2to3/5.png"",""time"":515},{""stimulus"":""img/2to3/6.png"",""time"":620},{""stimulus"":""img/2to3/7.png"",""time"":724},{""stimulus"":""img/2to3/8.png"",""time"":828},{""stimulus"":""img/2to3/9.png"",""time"":931},{""stimulus"":""img/2to3/10.png"",""time"":1031},{""stimulus"":""img/2to3/11.png"",""time"":1134},{""stimulus"":""img/2to3/12.png"",""time"":1234}]","[]"
"","","","observe","5fc70f3bd255c10f0b2346ba","bdp_cybrbll","Mon Mar 27 2023 18:56:35 GMT-0700 (Pacific Daylight Time)","466220","3","1","image-keyboard-response","111","144466","0.0-5.0-1.53","","null","","img/3to2/1.png","null","172","731","0.5","0.5","3","1","",""
"","","","","5fc70f3bd255c10f0b2346ba","bdp_cybrbll","Mon Mar 27 2023 18:56:35 GMT-0700 (Pacific Daylight Time)","466220","3","1","animation","112","145795","0.0-5.0-2.53","","","","","","172","","","","3","1","[{""stimulus"":""img/3to1/1.png"",""time"":101},{""stimulus"":""img/3to1/2.png"",""time"":205},{""stimulus"":""img/3to1/3.png"",""time"":308},{""stimulus"":""img/3to1/4.png"",""time"":411},{""stimulus"":""img/3to1/5.png"",""time"":511},{""stimulus"":""img/3to1/6.png"",""time"":613},{""stimulus"":""img/3to1/7.png"",""time"":715},{""stimulus"":""img/3to1/8.png"",""time"":815},{""stimulus"":""img/3to1/9.png"",""time"":913},{""stimulus"":""img/3to1/10.png"",""time"":1018},{""stimulus"":""img/3to1/11.png"",""time"":1122},{""stimulus"":""img/3to1/12.png"",""time"":1226}]","[]"
"","","","observe","5fc70f3bd255c10f0b2346ba","bdp_cybrbll","Mon Mar 27 2023 18:56:35 GMT-0700 (Pacific Daylight Time)","466220","3","1","image-keyboard-response","113","146139","0.0-5.0-1.54","","null","","img/1to3/1.png","null","171","337","0.5","0.5","1","2","",""
"","","","","5fc70f3bd255c10f0b2346ba","bdp_cybrbll","Mon Mar 27 2023 18:56:35 GMT-0700 (Pacific Daylight Time)","466220","3","1","animation","114","147465","0.0-5.0-2.54","","","","","","171","","","","1","2","[{""stimulus"":""img/1to2/1.png"",""time"":105},{""stimulus"":""img/1to2/2.png"",""time"":208},{""stimulus"":""img/1to2/3.png"",""time"":312},{""stimulus"":""img/1to2/4.png"",""time"":414},{""stimulus"":""img/1to2/5.png"",""time"":517},{""stimulus"":""img/1to2/6.png"",""time"":619},{""stimulus"":""img/1to2/7.png"",""time"":721},{""stimulus"":""img/1to2/8.png"",""time"":822},{""stimulus"":""img/1to2/9.png"",""time"":924},{""stimulus"":""img/1to2/10.png"",""time"":1025},{""stimulus"":""img/1to2/11.png"",""time"":1125},{""stimulus"":""img/1to2/12.png"",""time"":1226}]","[]"
"","","","choice","5fc70f3bd255c10f0b2346ba","bdp_cybrbll","Mon Mar 27 2023 18:56:35 GMT-0700 (Pacific Daylight Time)","466220","3","1","image-keyboard-response","115","147963","0.0-5.0-1.55","","497","","img/2to1/1.png","1","170","197","0.5","0.5","2","1","",""
"","","","","5fc70f3bd255c10f0b2346ba","bdp_cybrbll","Mon Mar 27 2023 18:56:35 GMT-0700 (Pacific Daylight Time)","466220","3","1","animation","116","149311","0.0-5.0-2.55","","","","","","170","","","","2","1","[{""stimulus"":""img/2to1/1.png"",""time"":106},{""stimulus"":""img/2to1/2.png"",""time"":206},{""stimulus"":""img/2to1/3.png"",""time"":311},{""stimulus"":""img/2to1/4.png"",""time"":415},{""stimulus"":""img/2to1/5.png"",""time"":518},{""stimulus"":""img/2to1/6.png"",""time"":623},{""stimulus"":""img/2to1/7.png"",""time"":726},{""stimulus"":""img/2to1/8.png"",""time"":831},{""stimulus"":""img/2to1/9.png"",""time"":935},{""stimulus"":""img/2to1/10.png"",""time"":1036},{""stimulus"":""img/2to1/11.png"",""time"":1140},{""stimulus"":""img/2to1/12.png"",""time"":1244}]","[]"
"","","","observe","5fc70f3bd255c10f0b2346ba","bdp_cybrbll","Mon Mar 27 2023 18:56:35 GMT-0700 (Pacific Daylight Time)","466220","3","1","image-keyboard-response","117","149659","0.0-5.0-1.56","","null","","img/1to3/1.png","null","169","341","0.5","0.5","1","3","",""
"","","","","5fc70f3bd255c10f0b2346ba","bdp_cybrbll","Mon Mar 27 2023 18:56:35 GMT-0700 (Pacific Daylight Time)","466220","3","1","animation","118","150996","0.0-5.0-2.56","","","","","","169","","","","1","3","[{""stimulus"":""img/1to3/1.png"",""time"":104},{""stimulus"":""img/1to3/2.png"",""time"":209},{""stimulus"":""img/1to3/3.png"",""time"":313},{""stimulus"":""img/1to3/4.png"",""time"":413},{""stimulus"":""img/1to3/5.png"",""time"":513},{""stimulus"":""img/1to3/6.png"",""time"":616},{""stimulus"":""img/1to3/7.png"",""time"":721},{""stimulus"":""img/1to3/8.png"",""time"":824},{""stimulus"":""img/1to3/9.png"",""time"":927},{""stimulus"":""img/1to3/10.png"",""time"":1031},{""stimulus"":""img/1to3/11.png"",""time"":1133},{""stimulus"":""img/1to3/12.png"",""time"":1234}]","[]"
"","","","observe","5fc70f3bd255c10f0b2346ba","bdp_cybrbll","Mon Mar 27 2023 18:56:35 GMT-0700 (Pacific Daylight Time)","466220","3","1","image-keyboard-response","119","151295","0.0-5.0-1.57","","null","","img/3to2/1.png","null","168","283","0.5","0.5","3","2","",""
"","","","","5fc70f3bd255c10f0b2346ba","bdp_cybrbll","Mon Mar 27 2023 18:56:35 GMT-0700 (Pacific Daylight Time)","466220","3","1","animation","120","152635","0.0-5.0-2.57","","","","","","168","","","","3","2","[{""stimulus"":""img/3to2/1.png"",""time"":105},{""stimulus"":""img/3to2/2.png"",""time"":209},{""stimulus"":""img/3to2/3.png"",""time"":313},{""stimulus"":""img/3to2/4.png"",""time"":417},{""stimulus"":""img/3to2/5.png"",""time"":516},{""stimulus"":""img/3to2/6.png"",""time"":620},{""stimulus"":""img/3to2/7.png"",""time"":720},{""stimulus"":""img/3to2/8.png"",""time"":824},{""stimulus"":""img/3to2/9.png"",""time"":928},{""stimulus"":""img/3to2/10.png"",""time"":1028},{""stimulus"":""img/3to2/11.png"",""time"":1132},{""stimulus"":""img/3to2/12.png"",""time"":1236}]","[]"
"","","","choice","5fc70f3bd255c10f0b2346ba","bdp_cybrbll","Mon Mar 27 2023 18:56:35 GMT-0700 (Pacific Daylight Time)","466220","3","1","image-keyboard-response","121","152977","0.0-5.0-1.58","","342","","img/2to1/1.png","2","167","686","0.5","0.5","2","3","",""
"","","","","5fc70f3bd255c10f0b2346ba","bdp_cybrbll","Mon Mar 27 2023 18:56:35 GMT-0700 (Pacific Daylight Time)","466220","3","1","animation","122","154309","0.0-5.0-2.58","","","","","","167","","","","2","3","[{""stimulus"":""img/2to3/1.png"",""time"":105},{""stimulus"":""img/2to3/2.png"",""time"":209},{""stimulus"":""img/2to3/3.png"",""time"":317},{""stimulus"":""img/2to3/4.png"",""time"":421},{""stimulus"":""img/2to3/5.png"",""time"":526},{""stimulus"":""img/2to3/6.png"",""time"":629},{""stimulus"":""img/2to3/7.png"",""time"":728},{""stimulus"":""img/2to3/8.png"",""time"":830},{""stimulus"":""img/2to3/9.png"",""time"":933},{""stimulus"":""img/2to3/10.png"",""time"":1032},{""stimulus"":""img/2to3/11.png"",""time"":1133},{""stimulus"":""img/2to3/12.png"",""time"":1233}]","[]"
"","","","observe","5fc70f3bd255c10f0b2346ba","bdp_cybrbll","Mon Mar 27 2023 18:56:35 GMT-0700 (Pacific Daylight Time)","466220","3","1","image-keyboard-response","123","154718","0.0-5.0-1.59","","null","","img/3to2/1.png","null","166","402","0.5","0.5","3","1","",""
"","","","","5fc70f3bd255c10f0b2346ba","bdp_cybrbll","Mon Mar 27 2023 18:56:35 GMT-0700 (Pacific Daylight Time)","466220","3","1","animation","124","156043","0.0-5.0-2.59","","","","","","166","","","","3","1","[{""stimulus"":""img/3to1/1.png"",""time"":104},{""stimulus"":""img/3to1/2.png"",""time"":203},{""stimulus"":""img/3to1/3.png"",""time"":308},{""stimulus"":""img/3to1/4.png"",""time"":407},{""stimulus"":""img/3to1/5.png"",""time"":508},{""stimulus"":""img/3to1/6.png"",""time"":612},{""stimulus"":""img/3to1/7.png"",""time"":712},{""stimulus"":""img/3to1/8.png"",""time"":812},{""stimulus"":""img/3to1/9.png"",""time"":913},{""stimulus"":""img/3to1/10.png"",""time"":1016},{""stimulus"":""img/3to1/11.png"",""time"":1118},{""stimulus"":""img/3to1/12.png"",""time"":1222}]","[]"
"","","","observe","5fc70f3bd255c10f0b2346ba","bdp_cybrbll","Mon Mar 27 2023 18:56:35 GMT-0700 (Pacific Daylight Time)","466220","3","1","image-keyboard-response","125","156930","0.0-5.0-1.60","","null","","img/1to3/1.png","null","165","880","0.5","0.5","1","2","",""
"","","","","5fc70f3bd255c10f0b2346ba","bdp_cybrbll","Mon Mar 27 2023 18:56:35 GMT-0700 (Pacific Daylight Time)","466220","3","1","animation","126","158273","0.0-5.0-2.60","","","","","","165","","","","1","2","[{""stimulus"":""img/1to2/1.png"",""time"":105},{""stimulus"":""img/1to2/2.png"",""time"":208},{""stimulus"":""img/1to2/3.png"",""time"":312},{""stimulus"":""img/1to2/4.png"",""time"":416},{""stimulus"":""img/1to2/5.png"",""time"":520},{""stimulus"":""img/1to2/6.png"",""time"":622},{""stimulus"":""img/1to2/7.png"",""time"":725},{""stimulus"":""img/1to2/8.png"",""time"":830},{""stimulus"":""img/1to2/9.png"",""time"":933},{""stimulus"":""img/1to2/10.png"",""time"":1034},{""stimulus"":""img/1to2/11.png"",""time"":1139},{""stimulus"":""img/1to2/12.png"",""time"":1242}]","[]"
"","","","choice","5fc70f3bd255c10f0b2346ba","bdp_cybrbll","Mon Mar 27 2023 18:56:35 GMT-0700 (Pacific Daylight Time)","466220","3","1","image-keyboard-response","127","158395","0.0-5.0-1.61","","120","","img/2to1/1.png","1","164","614","0.5","0.5","2","1","",""
"","","","","5fc70f3bd255c10f0b2346ba","bdp_cybrbll","Mon Mar 27 2023 18:56:35 GMT-0700 (Pacific Daylight Time)","466220","3","1","animation","128","159726","0.0-5.0-2.61","","","","","","164","","","","2","1","[{""stimulus"":""img/2to1/1.png"",""time"":105},{""stimulus"":""img/2to1/2.png"",""time"":203},{""stimulus"":""img/2to1/3.png"",""time"":308},{""stimulus"":""img/2to1/4.png"",""time"":410},{""stimulus"":""img/2to1/5.png"",""time"":510},{""stimulus"":""img/2to1/6.png"",""time"":611},{""stimulus"":""img/2to1/7.png"",""time"":715},{""stimulus"":""img/2to1/8.png"",""time"":815},{""stimulus"":""img/2to1/9.png"",""time"":916},{""stimulus"":""img/2to1/10.png"",""time"":1018},{""stimulus"":""img/2to1/11.png"",""time"":1121},{""stimulus"":""img/2to1/12.png"",""time"":1225}]","[]"
"","","","observe","5fc70f3bd255c10f0b2346ba","bdp_cybrbll","Mon Mar 27 2023 18:56:35 GMT-0700 (Pacific Daylight Time)","466220","3","1","image-keyboard-response","129","159989","0.0-5.0-1.62","","null","","img/1to3/1.png","null","163","258","0.5","0.5","1","2","",""
"","","","","5fc70f3bd255c10f0b2346ba","bdp_cybrbll","Mon Mar 27 2023 18:56:35 GMT-0700 (Pacific Daylight Time)","466220","3","1","animation","130","161338","0.0-5.0-2.62","","","","","","163","","","","1","2","[{""stimulus"":""img/1to2/1.png"",""time"":104},{""stimulus"":""img/1to2/2.png"",""time"":209},{""stimulus"":""img/1to2/3.png"",""time"":308},{""stimulus"":""img/1to2/4.png"",""time"":412},{""stimulus"":""img/1to2/5.png"",""time"":517},{""stimulus"":""img/1to2/6.png"",""time"":621},{""stimulus"":""img/1to2/7.png"",""time"":725},{""stimulus"":""img/1to2/8.png"",""time"":828},{""stimulus"":""img/1to2/9.png"",""time"":933},{""stimulus"":""img/1to2/10.png"",""time"":1037},{""stimulus"":""img/1to2/11.png"",""time"":1140},{""stimulus"":""img/1to2/12.png"",""time"":1244}]","[]"
"","","","choice","5fc70f3bd255c10f0b2346ba","bdp_cybrbll","Mon Mar 27 2023 18:56:35 GMT-0700 (Pacific Daylight Time)","466220","3","1","image-keyboard-response","131","161588","0.0-5.0-1.63","","248","","img/2to1/1.png","2","162","343","0.5","0.5","2","3","",""
"","","","","5fc70f3bd255c10f0b2346ba","bdp_cybrbll","Mon Mar 27 2023 18:56:35 GMT-0700 (Pacific Daylight Time)","466220","3","1","animation","132","162919","0.0-5.0-2.63","","","","","","162","","","","2","3","[{""stimulus"":""img/2to3/1.png"",""time"":104},{""stimulus"":""img/2to3/2.png"",""time"":205},{""stimulus"":""img/2to3/3.png"",""time"":305},{""stimulus"":""img/2to3/4.png"",""time"":409},{""stimulus"":""img/2to3/5.png"",""time"":509},{""stimulus"":""img/2to3/6.png"",""time"":612},{""stimulus"":""img/2to3/7.png"",""time"":716},{""stimulus"":""img/2to3/8.png"",""time"":818},{""stimulus"":""img/2to3/9.png"",""time"":921},{""stimulus"":""img/2to3/10.png"",""time"":1024},{""stimulus"":""img/2to3/11.png"",""time"":1126},{""stimulus"":""img/2to3/12.png"",""time"":1228}]","[]"
"","","","observe","5fc70f3bd255c10f0b2346ba","bdp_cybrbll","Mon Mar 27 2023 18:56:35 GMT-0700 (Pacific Daylight Time)","466220","3","1","image-keyboard-response","133","163366","0.0-5.0-1.64","","null","","img/3to2/1.png","null","161","440","0.5","0.5","3","2","",""
"","","","","5fc70f3bd255c10f0b2346ba","bdp_cybrbll","Mon Mar 27 2023 18:56:35 GMT-0700 (Pacific Daylight Time)","466220","3","1","animation","134","164709","0.0-5.0-2.64","","","","","","161","","","","3","2","[{""stimulus"":""img/3to2/1.png"",""time"":105},{""stimulus"":""img/3to2/2.png"",""time"":208},{""stimulus"":""img/3to2/3.png"",""time"":312},{""stimulus"":""img/3to2/4.png"",""time"":416},{""stimulus"":""img/3to2/5.png"",""time"":520},{""stimulus"":""img/3to2/6.png"",""time"":619},{""stimulus"":""img/3to2/7.png"",""time"":723},{""stimulus"":""img/3to2/8.png"",""time"":828},{""stimulus"":""img/3to2/9.png"",""time"":930},{""stimulus"":""img/3to2/10.png"",""time"":1035},{""stimulus"":""img/3to2/11.png"",""time"":1136},{""stimulus"":""img/3to2/12.png"",""time"":1240}]","[]"
"","","","choice","5fc70f3bd255c10f0b2346ba","bdp_cybrbll","Mon Mar 27 2023 18:56:35 GMT-0700 (Pacific Daylight Time)","466220","3","1","image-keyboard-response","135","164919","0.0-5.0-1.65","","209","","img/2to1/1.png","1","160","734","0.5","0.5","2","1","",""
"","","","","5fc70f3bd255c10f0b2346ba","bdp_cybrbll","Mon Mar 27 2023 18:56:35 GMT-0700 (Pacific Daylight Time)","466220","3","1","animation","136","166255","0.0-5.0-2.65","","","","","","160","","","","2","1","[{""stimulus"":""img/2to1/1.png"",""time"":104},{""stimulus"":""img/2to1/2.png"",""time"":208},{""stimulus"":""img/2to1/3.png"",""time"":307},{""stimulus"":""img/2to1/4.png"",""time"":411},{""stimulus"":""img/2to1/5.png"",""time"":516},{""stimulus"":""img/2to1/6.png"",""time"":620},{""stimulus"":""img/2to1/7.png"",""time"":724},{""stimulus"":""img/2to1/8.png"",""time"":828},{""stimulus"":""img/2to1/9.png"",""time"":927},{""stimulus"":""img/2to1/10.png"",""time"":1030},{""stimulus"":""img/2to1/11.png"",""time"":1133},{""stimulus"":""img/2to1/12.png"",""time"":1235}]","[]"
"","","","observe","5fc70f3bd255c10f0b2346ba","bdp_cybrbll","Mon Mar 27 2023 18:56:35 GMT-0700 (Pacific Daylight Time)","466220","3","1","image-keyboard-response","137","166933","0.0-5.0-1.66","","null","","img/1to3/1.png","null","159","674","0.5","0.5","1","3","",""
"","","","","5fc70f3bd255c10f0b2346ba","bdp_cybrbll","Mon Mar 27 2023 18:56:35 GMT-0700 (Pacific Daylight Time)","466220","3","1","animation","138","168281","0.0-5.0-2.66","","","","","","159","","","","1","3","[{""stimulus"":""img/1to3/1.png"",""time"":104},{""stimulus"":""img/1to3/2.png"",""time"":205},{""stimulus"":""img/1to3/3.png"",""time"":310},{""stimulus"":""img/1to3/4.png"",""time"":414},{""stimulus"":""img/1to3/5.png"",""time"":518},{""stimulus"":""img/1to3/6.png"",""time"":621},{""stimulus"":""img/1to3/7.png"",""time"":725},{""stimulus"":""img/1to3/8.png"",""time"":829},{""stimulus"":""img/1to3/9.png"",""time"":933},{""stimulus"":""img/1to3/10.png"",""time"":1037},{""stimulus"":""img/1to3/11.png"",""time"":1141},{""stimulus"":""img/1to3/12.png"",""time"":1244}]","[]"
"","","","observe","5fc70f3bd255c10f0b2346ba","bdp_cybrbll","Mon Mar 27 2023 18:56:35 GMT-0700 (Pacific Daylight Time)","466220","3","1","image-keyboard-response","139","169388","0.0-5.0-1.67","","null","","img/3to2/1.png","null","158","1101","0.5","0.5","3","2","",""
"","","","","5fc70f3bd255c10f0b2346ba","bdp_cybrbll","Mon Mar 27 2023 18:56:35 GMT-0700 (Pacific Daylight Time)","466220","3","1","animation","140","170716","0.0-5.0-2.67","","","","","","158","","","","3","2","[{""stimulus"":""img/3to2/1.png"",""time"":105},{""stimulus"":""img/3to2/2.png"",""time"":206},{""stimulus"":""img/3to2/3.png"",""time"":307},{""stimulus"":""img/3to2/4.png"",""time"":409},{""stimulus"":""img/3to2/5.png"",""time"":512},{""stimulus"":""img/3to2/6.png"",""time"":616},{""stimulus"":""img/3to2/7.png"",""time"":717},{""stimulus"":""img/3to2/8.png"",""time"":822},{""stimulus"":""img/3to2/9.png"",""time"":924},{""stimulus"":""img/3to2/10.png"",""time"":1027},{""stimulus"":""img/3to2/11.png"",""time"":1127},{""stimulus"":""img/3to2/12.png"",""time"":1228}]","[]"
"","","","choice","5fc70f3bd255c10f0b2346ba","bdp_cybrbll","Mon Mar 27 2023 18:56:35 GMT-0700 (Pacific Daylight Time)","466220","3","1","image-keyboard-response","141","170858","0.0-5.0-1.68","","141","","img/2to1/1.png","2","157","819","0.5","0.5","2","3","",""
"","","","","5fc70f3bd255c10f0b2346ba","bdp_cybrbll","Mon Mar 27 2023 18:56:35 GMT-0700 (Pacific Daylight Time)","466220","3","1","animation","142","172204","0.0-5.0-2.68","","","","","","157","","","","2","3","[{""stimulus"":""img/2to3/1.png"",""time"":102},{""stimulus"":""img/2to3/2.png"",""time"":206},{""stimulus"":""img/2to3/3.png"",""time"":310},{""stimulus"":""img/2to3/4.png"",""time"":414},{""stimulus"":""img/2to3/5.png"",""time"":518},{""stimulus"":""img/2to3/6.png"",""time"":623},{""stimulus"":""img/2to3/7.png"",""time"":726},{""stimulus"":""img/2to3/8.png"",""time"":831},{""stimulus"":""img/2to3/9.png"",""time"":931},{""stimulus"":""img/2to3/10.png"",""time"":1035},{""stimulus"":""img/2to3/11.png"",""time"":1139},{""stimulus"":""img/2to3/12.png"",""time"":1242}]","[]"
"","","","observe","5fc70f3bd255c10f0b2346ba","bdp_cybrbll","Mon Mar 27 2023 18:56:35 GMT-0700 (Pacific Daylight Time)","466220","3","1","image-keyboard-response","143","173398","0.0-5.0-1.69","","null","","img/3to2/1.png","null","156","1188","0.5","0.5","3","1","",""
"","","","","5fc70f3bd255c10f0b2346ba","bdp_cybrbll","Mon Mar 27 2023 18:56:35 GMT-0700 (Pacific Daylight Time)","466220","3","1","animation","144","174731","0.0-5.0-2.69","","","","","","156","","","","3","1","[{""stimulus"":""img/3to1/1.png"",""time"":106},{""stimulus"":""img/3to1/2.png"",""time"":209},{""stimulus"":""img/3to1/3.png"",""time"":309},{""stimulus"":""img/3to1/4.png"",""time"":413},{""stimulus"":""img/3to1/5.png"",""time"":517},{""stimulus"":""img/3to1/6.png"",""time"":618},{""stimulus"":""img/3to1/7.png"",""time"":722},{""stimulus"":""img/3to1/8.png"",""time"":822},{""stimulus"":""img/3to1/9.png"",""time"":925},{""stimulus"":""img/3to1/10.png"",""time"":1030},{""stimulus"":""img/3to1/11.png"",""time"":1130},{""stimulus"":""img/3to1/12.png"",""time"":1234}]","[]"
"","","","observe","5fc70f3bd255c10f0b2346ba","bdp_cybrbll","Mon Mar 27 2023 18:56:35 GMT-0700 (Pacific Daylight Time)","466220","3","1","image-keyboard-response","145","174980","0.0-5.0-1.70","","null","","img/1to3/1.png","null","155","245","0.5","0.5","1","3","",""
"","","","","5fc70f3bd255c10f0b2346ba","bdp_cybrbll","Mon Mar 27 2023 18:56:35 GMT-0700 (Pacific Daylight Time)","466220","3","1","animation","146","176328","0.0-5.0-2.70","","","","","","155","","","","1","3","[{""stimulus"":""img/1to3/1.png"",""time"":105},{""stimulus"":""img/1to3/2.png"",""time"":209},{""stimulus"":""img/1to3/3.png"",""time"":314},{""stimulus"":""img/1to3/4.png"",""time"":417},{""stimulus"":""img/1to3/5.png"",""time"":519},{""stimulus"":""img/1to3/6.png"",""time"":623},{""stimulus"":""img/1to3/7.png"",""time"":727},{""stimulus"":""img/1to3/8.png"",""time"":831},{""stimulus"":""img/1to3/9.png"",""time"":933},{""stimulus"":""img/1to3/10.png"",""time"":1036},{""stimulus"":""img/1to3/11.png"",""time"":1140},{""stimulus"":""img/1to3/12.png"",""time"":1245}]","[]"
"","","","observe","5fc70f3bd255c10f0b2346ba","bdp_cybrbll","Mon Mar 27 2023 18:56:35 GMT-0700 (Pacific Daylight Time)","466220","3","1","image-keyboard-response","147","176862","0.0-5.0-1.71","","null","","img/3to2/1.png","null","154","529","0.5","0.5","3","1","",""
"","","","","5fc70f3bd255c10f0b2346ba","bdp_cybrbll","Mon Mar 27 2023 18:56:35 GMT-0700 (Pacific Daylight Time)","466220","3","1","animation","148","178181","0.0-5.0-2.71","","","","","","154","","","","3","1","[{""stimulus"":""img/3to1/1.png"",""time"":104},{""stimulus"":""img/3to1/2.png"",""time"":208},{""stimulus"":""img/3to1/3.png"",""time"":310},{""stimulus"":""img/3to1/4.png"",""time"":410},{""stimulus"":""img/3to1/5.png"",""time"":510},{""stimulus"":""img/3to1/6.png"",""time"":610},{""stimulus"":""img/3to1/7.png"",""time"":709},{""stimulus"":""img/3to1/8.png"",""time"":809},{""stimulus"":""img/3to1/9.png"",""time"":912},{""stimulus"":""img/3to1/10.png"",""time"":1012},{""stimulus"":""img/3to1/11.png"",""time"":1112},{""stimulus"":""img/3to1/12.png"",""time"":1214}]","[]"
"","","","observe","5fc70f3bd255c10f0b2346ba","bdp_cybrbll","Mon Mar 27 2023 18:56:35 GMT-0700 (Pacific Daylight Time)","466220","3","1","image-keyboard-response","149","178805","0.0-5.0-1.72","","null","","img/1to3/1.png","null","153","618","0.5","0.5","1","3","",""
"","","","","5fc70f3bd255c10f0b2346ba","bdp_cybrbll","Mon Mar 27 2023 18:56:35 GMT-0700 (Pacific Daylight Time)","466220","3","1","animation","150","180147","0.0-5.0-2.72","","","","","","153","","","","1","3","[{""stimulus"":""img/1to3/1.png"",""time"":105},{""stimulus"":""img/1to3/2.png"",""time"":207},{""stimulus"":""img/1to3/3.png"",""time"":311},{""stimulus"":""img/1to3/4.png"",""time"":415},{""stimulus"":""img/1to3/5.png"",""time"":515},{""stimulus"":""img/1to3/6.png"",""time"":618},{""stimulus"":""img/1to3/7.png"",""time"":722},{""stimulus"":""img/1to3/8.png"",""time"":826},{""stimulus"":""img/1to3/9.png"",""time"":926},{""stimulus"":""img/1to3/10.png"",""time"":1031},{""stimulus"":""img/1to3/11.png"",""time"":1135},{""stimulus"":""img/1to3/12.png"",""time"":1239}]","[]"
"","","","observe","5fc70f3bd255c10f0b2346ba","bdp_cybrbll","Mon Mar 27 2023 18:56:35 GMT-0700 (Pacific Daylight Time)","466220","3","1","image-keyboard-response","151","180568","0.0-5.0-1.73","","null","","img/3to2/1.png","null","152","415","0.5","0.5","3","1","",""
"","","","","5fc70f3bd255c10f0b2346ba","bdp_cybrbll","Mon Mar 27 2023 18:56:35 GMT-0700 (Pacific Daylight Time)","466220","3","1","animation","152","181918","0.0-5.0-2.73","","","","","","152","","","","3","1","[{""stimulus"":""img/3to1/1.png"",""time"":104},{""stimulus"":""img/3to1/2.png"",""time"":204},{""stimulus"":""img/3to1/3.png"",""time"":304},{""stimulus"":""img/3to1/4.png"",""time"":408},{""stimulus"":""img/3to1/5.png"",""time"":512},{""stimulus"":""img/3to1/6.png"",""time"":616},{""stimulus"":""img/3to1/7.png"",""time"":729},{""stimulus"":""img/3to1/8.png"",""time"":833},{""stimulus"":""img/3to1/9.png"",""time"":937},{""stimulus"":""img/3to1/10.png"",""time"":1041},{""stimulus"":""img/3to1/11.png"",""time"":1145},{""stimulus"":""img/3to1/12.png"",""time"":1245}]","[]"
"","","","observe","5fc70f3bd255c10f0b2346ba","bdp_cybrbll","Mon Mar 27 2023 18:56:35 GMT-0700 (Pacific Daylight Time)","466220","3","1","image-keyboard-response","153","182422","0.0-5.0-1.74","","null","","img/1to3/1.png","null","151","500","0.5","0.5","1","2","",""
"","","","","5fc70f3bd255c10f0b2346ba","bdp_cybrbll","Mon Mar 27 2023 18:56:35 GMT-0700 (Pacific Daylight Time)","466220","3","1","animation","154","183773","0.0-5.0-2.74","","","","","","151","","","","1","2","[{""stimulus"":""img/1to2/1.png"",""time"":104},{""stimulus"":""img/1to2/2.png"",""time"":209},{""stimulus"":""img/1to2/3.png"",""time"":313},{""stimulus"":""img/1to2/4.png"",""time"":417},{""stimulus"":""img/1to2/5.png"",""time"":521},{""stimulus"":""img/1to2/6.png"",""time"":624},{""stimulus"":""img/1to2/7.png"",""time"":729},{""stimulus"":""img/1to2/8.png"",""time"":833},{""stimulus"":""img/1to2/9.png"",""time"":936},{""stimulus"":""img/1to2/10.png"",""time"":1039},{""stimulus"":""img/1to2/11.png"",""time"":1144},{""stimulus"":""img/1to2/12.png"",""time"":1248}]","[]"
"","","","choice","5fc70f3bd255c10f0b2346ba","bdp_cybrbll","Mon Mar 27 2023 18:56:35 GMT-0700 (Pacific Daylight Time)","466220","3","1","image-keyboard-response","155","184174","0.0-5.0-1.75","","401","","img/2to1/1.png","1","150","811","0.5","0.5","2","1","",""
"","","","","5fc70f3bd255c10f0b2346ba","bdp_cybrbll","Mon Mar 27 2023 18:56:35 GMT-0700 (Pacific Daylight Time)","466220","3","1","animation","156","185525","0.0-5.0-2.75","","","","","","150","","","","2","1","[{""stimulus"":""img/2to1/1.png"",""time"":104},{""stimulus"":""img/2to1/2.png"",""time"":208},{""stimulus"":""img/2to1/3.png"",""time"":312},{""stimulus"":""img/2to1/4.png"",""time"":416},{""stimulus"":""img/2to1/5.png"",""time"":520},{""stimulus"":""img/2to1/6.png"",""time"":624},{""stimulus"":""img/2to1/7.png"",""time"":729},{""stimulus"":""img/2to1/8.png"",""time"":832},{""stimulus"":""img/2to1/9.png"",""time"":937},{""stimulus"":""img/2to1/10.png"",""time"":1039},{""stimulus"":""img/2to1/11.png"",""time"":1143},{""stimulus"":""img/2to1/12.png"",""time"":1247}]","[]"
"","","","observe","5fc70f3bd255c10f0b2346ba","bdp_cybrbll","Mon Mar 27 2023 18:56:35 GMT-0700 (Pacific Daylight Time)","466220","3","1","image-keyboard-response","157","186053","0.0-5.0-1.76","","null","","img/1to3/1.png","null","149","526","0.5","0.1","1","3","",""
"","","","","5fc70f3bd255c10f0b2346ba","bdp_cybrbll","Mon Mar 27 2023 18:56:35 GMT-0700 (Pacific Daylight Time)","466220","3","1","animation","158","187389","0.0-5.0-2.76","","","","","","149","","","","1","3","[{""stimulus"":""img/1to3/1.png"",""time"":100},{""stimulus"":""img/1to3/2.png"",""time"":203},{""stimulus"":""img/1to3/3.png"",""time"":302},{""stimulus"":""img/1to3/4.png"",""time"":406},{""stimulus"":""img/1to3/5.png"",""time"":511},{""stimulus"":""img/1to3/6.png"",""time"":615},{""stimulus"":""img/1to3/7.png"",""time"":719},{""stimulus"":""img/1to3/8.png"",""time"":823},{""stimulus"":""img/1to3/9.png"",""time"":926},{""stimulus"":""img/1to3/10.png"",""time"":1031},{""stimulus"":""img/1to3/11.png"",""time"":1131},{""stimulus"":""img/1to3/12.png"",""time"":1235}]","[]"
"","","","observe","5fc70f3bd255c10f0b2346ba","bdp_cybrbll","Mon Mar 27 2023 18:56:35 GMT-0700 (Pacific Daylight Time)","466220","3","1","image-keyboard-response","159","187722","0.0-5.0-1.77","","null","","img/3to2/1.png","null","148","329","0.5","0.1","3","2","",""
"","","","","5fc70f3bd255c10f0b2346ba","bdp_cybrbll","Mon Mar 27 2023 18:56:35 GMT-0700 (Pacific Daylight Time)","466220","3","1","animation","160","189054","0.0-5.0-2.77","","","","","","148","","","","3","2","[{""stimulus"":""img/3to2/1.png"",""time"":101},{""stimulus"":""img/3to2/2.png"",""time"":201},{""stimulus"":""img/3to2/3.png"",""time"":301},{""stimulus"":""img/3to2/4.png"",""time"":404},{""stimulus"":""img/3to2/5.png"",""time"":507},{""stimulus"":""img/3to2/6.png"",""time"":612},{""stimulus"":""img/3to2/7.png"",""time"":715},{""stimulus"":""img/3to2/8.png"",""time"":819},{""stimulus"":""img/3to2/9.png"",""time"":921},{""stimulus"":""img/3to2/10.png"",""time"":1024},{""stimulus"":""img/3to2/11.png"",""time"":1129},{""stimulus"":""img/3to2/12.png"",""time"":1232}]","[]"
"","","","choice","5fc70f3bd255c10f0b2346ba","bdp_cybrbll","Mon Mar 27 2023 18:56:35 GMT-0700 (Pacific Daylight Time)","466220","3","1","image-keyboard-response","161","189447","0.0-5.0-1.78","","392","","img/2to1/1.png","2","147","751","0.5","0.1","2","3","",""
"","","","","5fc70f3bd255c10f0b2346ba","bdp_cybrbll","Mon Mar 27 2023 18:56:35 GMT-0700 (Pacific Daylight Time)","466220","3","1","animation","162","190787","0.0-5.0-2.78","","","","","","147","","","","2","3","[{""stimulus"":""img/2to3/1.png"",""time"":103},{""stimulus"":""img/2to3/2.png"",""time"":207},{""stimulus"":""img/2to3/3.png"",""time"":306},{""stimulus"":""img/2to3/4.png"",""time"":409},{""stimulus"":""img/2to3/5.png"",""time"":513},{""stimulus"":""img/2to3/6.png"",""time"":616},{""stimulus"":""img/2to3/7.png"",""time"":720},{""stimulus"":""img/2to3/8.png"",""time"":825},{""stimulus"":""img/2to3/9.png"",""time"":925},{""stimulus"":""img/2to3/10.png"",""time"":1029},{""stimulus"":""img/2to3/11.png"",""time"":1133},{""stimulus"":""img/2to3/12.png"",""time"":1237}]","[]"
"","","","observe","5fc70f3bd255c10f0b2346ba","bdp_cybrbll","Mon Mar 27 2023 18:56:35 GMT-0700 (Pacific Daylight Time)","466220","3","1","image-keyboard-response","163","191185","0.0-5.0-1.79","","null","","img/3to2/1.png","null","146","395","0.5","0.1","3","1","",""
"","","","","5fc70f3bd255c10f0b2346ba","bdp_cybrbll","Mon Mar 27 2023 18:56:35 GMT-0700 (Pacific Daylight Time)","466220","3","1","animation","164","192525","0.0-5.0-2.79","","","","","","146","","","","3","1","[{""stimulus"":""img/3to1/1.png"",""time"":100},{""stimulus"":""img/3to1/2.png"",""time"":200},{""stimulus"":""img/3to1/3.png"",""time"":303},{""stimulus"":""img/3to1/4.png"",""time"":404},{""stimulus"":""img/3to1/5.png"",""time"":508},{""stimulus"":""img/3to1/6.png"",""time"":612},{""stimulus"":""img/3to1/7.png"",""time"":716},{""stimulus"":""img/3to1/8.png"",""time"":820},{""stimulus"":""img/3to1/9.png"",""time"":925},{""stimulus"":""img/3to1/10.png"",""time"":1029},{""stimulus"":""img/3to1/11.png"",""time"":1133},{""stimulus"":""img/3to1/12.png"",""time"":1237}]","[]"
"","","","observe","5fc70f3bd255c10f0b2346ba","bdp_cybrbll","Mon Mar 27 2023 18:56:35 GMT-0700 (Pacific Daylight Time)","466220","3","1","image-keyboard-response","165","192813","0.0-5.0-1.80","","null","","img/1to3/1.png","null","145","281","0.5","0.1","1","3","",""
"","","","","5fc70f3bd255c10f0b2346ba","bdp_cybrbll","Mon Mar 27 2023 18:56:35 GMT-0700 (Pacific Daylight Time)","466220","3","1","animation","166","194161","0.0-5.0-2.80","","","","","","145","","","","1","3","[{""stimulus"":""img/1to3/1.png"",""time"":105},{""stimulus"":""img/1to3/2.png"",""time"":209},{""stimulus"":""img/1to3/3.png"",""time"":313},{""stimulus"":""img/1to3/4.png"",""time"":417},{""stimulus"":""img/1to3/5.png"",""time"":521},{""stimulus"":""img/1to3/6.png"",""time"":625},{""stimulus"":""img/1to3/7.png"",""time"":729},{""stimulus"":""img/1to3/8.png"",""time"":833},{""stimulus"":""img/1to3/9.png"",""time"":932},{""stimulus"":""img/1to3/10.png"",""time"":1037},{""stimulus"":""img/1to3/11.png"",""time"":1141},{""stimulus"":""img/1to3/12.png"",""time"":1244}]","[]"
"","","","observe","5fc70f3bd255c10f0b2346ba","bdp_cybrbll","Mon Mar 27 2023 18:56:35 GMT-0700 (Pacific Daylight Time)","466220","3","1","image-keyboard-response","167","194558","0.0-5.0-1.81","","null","","img/3to2/1.png","null","144","391","0.5","0.1","3","2","",""
"","","","","5fc70f3bd255c10f0b2346ba","bdp_cybrbll","Mon Mar 27 2023 18:56:35 GMT-0700 (Pacific Daylight Time)","466220","3","1","animation","168","195885","0.0-5.0-2.81","","","","","","144","","","","3","2","[{""stimulus"":""img/3to2/1.png"",""time"":100},{""stimulus"":""img/3to2/2.png"",""time"":199},{""stimulus"":""img/3to2/3.png"",""time"":303},{""stimulus"":""img/3to2/4.png"",""time"":403},{""stimulus"":""img/3to2/5.png"",""time"":507},{""stimulus"":""img/3to2/6.png"",""time"":607},{""stimulus"":""img/3to2/7.png"",""time"":710},{""stimulus"":""img/3to2/8.png"",""time"":815},{""stimulus"":""img/3to2/9.png"",""time"":919},{""stimulus"":""img/3to2/10.png"",""time"":1019},{""stimulus"":""img/3to2/11.png"",""time"":1122},{""stimulus"":""img/3to2/12.png"",""time"":1222}]","[]"
"","","","choice","5fc70f3bd255c10f0b2346ba","bdp_cybrbll","Mon Mar 27 2023 18:56:35 GMT-0700 (Pacific Daylight Time)","466220","3","1","image-keyboard-response","169","196131","0.0-5.0-1.82","","245","","img/2to1/1.png","1","143","406","0.5","0.1","2","1","",""
"","","","","5fc70f3bd255c10f0b2346ba","bdp_cybrbll","Mon Mar 27 2023 18:56:35 GMT-0700 (Pacific Daylight Time)","466220","3","1","animation","170","197458","0.0-5.0-2.82","","","","","","143","","","","2","1","[{""stimulus"":""img/2to1/1.png"",""time"":104},{""stimulus"":""img/2to1/2.png"",""time"":206},{""stimulus"":""img/2to1/3.png"",""time"":307},{""stimulus"":""img/2to1/4.png"",""time"":408},{""stimulus"":""img/2to1/5.png"",""time"":508},{""stimulus"":""img/2to1/6.png"",""time"":607},{""stimulus"":""img/2to1/7.png"",""time"":712},{""stimulus"":""img/2to1/8.png"",""time"":811},{""stimulus"":""img/2to1/9.png"",""time"":916},{""stimulus"":""img/2to1/10.png"",""time"":1019},{""stimulus"":""img/2to1/11.png"",""time"":1123},{""stimulus"":""img/2to1/12.png"",""time"":1223}]","[]"
"","","","observe","5fc70f3bd255c10f0b2346ba","bdp_cybrbll","Mon Mar 27 2023 18:56:35 GMT-0700 (Pacific Daylight Time)","466220","3","1","image-keyboard-response","171","198188","0.0-5.0-1.83","","null","","img/1to3/1.png","null","142","727","0.5","0.1","1","3","",""
"","","","","5fc70f3bd255c10f0b2346ba","bdp_cybrbll","Mon Mar 27 2023 18:56:35 GMT-0700 (Pacific Daylight Time)","466220","3","1","animation","172","199535","0.0-5.0-2.83","","","","","","142","","","","1","3","[{""stimulus"":""img/1to3/1.png"",""time"":108},{""stimulus"":""img/1to3/2.png"",""time"":212},{""stimulus"":""img/1to3/3.png"",""time"":313},{""stimulus"":""img/1to3/4.png"",""time"":414},{""stimulus"":""img/1to3/5.png"",""time"":518},{""stimulus"":""img/1to3/6.png"",""time"":620},{""stimulus"":""img/1to3/7.png"",""time"":724},{""stimulus"":""img/1to3/8.png"",""time"":828},{""stimulus"":""img/1to3/9.png"",""time"":932},{""stimulus"":""img/1to3/10.png"",""time"":1036},{""stimulus"":""img/1to3/11.png"",""time"":1140},{""stimulus"":""img/1to3/12.png"",""time"":1245}]","[]"
"","","","observe","5fc70f3bd255c10f0b2346ba","bdp_cybrbll","Mon Mar 27 2023 18:56:35 GMT-0700 (Pacific Daylight Time)","466220","3","1","image-keyboard-response","173","199884","0.0-5.0-1.84","","null","","img/3to2/1.png","null","141","345","0.5","0.1","3","1","",""
"","","","","5fc70f3bd255c10f0b2346ba","bdp_cybrbll","Mon Mar 27 2023 18:56:35 GMT-0700 (Pacific Daylight Time)","466220","3","1","animation","174","201206","0.0-5.0-2.84","","","","","","141","","","","3","1","[{""stimulus"":""img/3to1/1.png"",""time"":100},{""stimulus"":""img/3to1/2.png"",""time"":200},{""stimulus"":""img/3to1/3.png"",""time"":304},{""stimulus"":""img/3to1/4.png"",""time"":406},{""stimulus"":""img/3to1/5.png"",""time"":509},{""stimulus"":""img/3to1/6.png"",""time"":612},{""stimulus"":""img/3to1/7.png"",""time"":715},{""stimulus"":""img/3to1/8.png"",""time"":818},{""stimulus"":""img/3to1/9.png"",""time"":919},{""stimulus"":""img/3to1/10.png"",""time"":1020},{""stimulus"":""img/3to1/11.png"",""time"":1119},{""stimulus"":""img/3to1/12.png"",""time"":1221}]","[]"
"","","","observe","5fc70f3bd255c10f0b2346ba","bdp_cybrbll","Mon Mar 27 2023 18:56:35 GMT-0700 (Pacific Daylight Time)","466220","3","1","image-keyboard-response","175","201470","0.0-5.0-1.85","","null","","img/1to3/1.png","null","140","258","0.5","0.1","1","3","",""
"","","","","5fc70f3bd255c10f0b2346ba","bdp_cybrbll","Mon Mar 27 2023 18:56:35 GMT-0700 (Pacific Daylight Time)","466220","3","1","animation","176","202806","0.0-5.0-2.85","","","","","","140","","","","1","3","[{""stimulus"":""img/1to3/1.png"",""time"":105},{""stimulus"":""img/1to3/2.png"",""time"":209},{""stimulus"":""img/1to3/3.png"",""time"":313},{""stimulus"":""img/1to3/4.png"",""time"":414},{""stimulus"":""img/1to3/5.png"",""time"":519},{""stimulus"":""img/1to3/6.png"",""time"":619},{""stimulus"":""img/1to3/7.png"",""time"":724},{""stimulus"":""img/1to3/8.png"",""time"":826},{""stimulus"":""img/1to3/9.png"",""time"":930},{""stimulus"":""img/1to3/10.png"",""time"":1035},{""stimulus"":""img/1to3/11.png"",""time"":1136},{""stimulus"":""img/1to3/12.png"",""time"":1236}]","[]"
"","","","observe","5fc70f3bd255c10f0b2346ba","bdp_cybrbll","Mon Mar 27 2023 18:56:35 GMT-0700 (Pacific Daylight Time)","466220","3","1","image-keyboard-response","177","203514","0.0-5.0-1.86","","null","","img/3to2/1.png","null","139","703","0.5","0.1","3","1","",""
"","","","","5fc70f3bd255c10f0b2346ba","bdp_cybrbll","Mon Mar 27 2023 18:56:35 GMT-0700 (Pacific Daylight Time)","466220","3","1","animation","178","204834","0.0-5.0-2.86","","","","","","139","","","","3","1","[{""stimulus"":""img/3to1/1.png"",""time"":100},{""stimulus"":""img/3to1/2.png"",""time"":201},{""stimulus"":""img/3to1/3.png"",""time"":304},{""stimulus"":""img/3to1/4.png"",""time"":406},{""stimulus"":""img/3to1/5.png"",""time"":508},{""stimulus"":""img/3to1/6.png"",""time"":608},{""stimulus"":""img/3to1/7.png"",""time"":708},{""stimulus"":""img/3to1/8.png"",""time"":808},{""stimulus"":""img/3to1/9.png"",""time"":907},{""stimulus"":""img/3to1/10.png"",""time"":1011},{""stimulus"":""img/3to1/11.png"",""time"":1111},{""stimulus"":""img/3to1/12.png"",""time"":1215}]","[]"
"","","","observe","5fc70f3bd255c10f0b2346ba","bdp_cybrbll","Mon Mar 27 2023 18:56:35 GMT-0700 (Pacific Daylight Time)","466220","3","1","image-keyboard-response","179","205417","0.0-5.0-1.87","","null","","img/1to3/1.png","null","138","577","0.5","0.1","1","3","",""
"","","","","5fc70f3bd255c10f0b2346ba","bdp_cybrbll","Mon Mar 27 2023 18:56:35 GMT-0700 (Pacific Daylight Time)","466220","3","1","animation","180","206765","0.0-5.0-2.87","","","","","","138","","","","1","3","[{""stimulus"":""img/1to3/1.png"",""time"":105},{""stimulus"":""img/1to3/2.png"",""time"":209},{""stimulus"":""img/1to3/3.png"",""time"":313},{""stimulus"":""img/1to3/4.png"",""time"":417},{""stimulus"":""img/1to3/5.png"",""time"":522},{""stimulus"":""img/1to3/6.png"",""time"":625},{""stimulus"":""img/1to3/7.png"",""time"":729},{""stimulus"":""img/1to3/8.png"",""time"":833},{""stimulus"":""img/1to3/9.png"",""time"":937},{""stimulus"":""img/1to3/10.png"",""time"":1039},{""stimulus"":""img/1to3/11.png"",""time"":1143},{""stimulus"":""img/1to3/12.png"",""time"":1244}]","[]"
"","","","observe","5fc70f3bd255c10f0b2346ba","bdp_cybrbll","Mon Mar 27 2023 18:56:35 GMT-0700 (Pacific Daylight Time)","466220","3","1","image-keyboard-response","181","207556","0.0-5.0-1.88","","null","","img/3to2/1.png","null","137","788","0.5","0.1","3","1","",""
"","","","","5fc70f3bd255c10f0b2346ba","bdp_cybrbll","Mon Mar 27 2023 18:56:35 GMT-0700 (Pacific Daylight Time)","466220","3","1","animation","182","208885","0.0-5.0-2.88","","","","","","137","","","","3","1","[{""stimulus"":""img/3to1/1.png"",""time"":99},{""stimulus"":""img/3to1/2.png"",""time"":199},{""stimulus"":""img/3to1/3.png"",""time"":299},{""stimulus"":""img/3to1/4.png"",""time"":398},{""stimulus"":""img/3to1/5.png"",""time"":498},{""stimulus"":""img/3to1/6.png"",""time"":603},{""stimulus"":""img/3to1/7.png"",""time"":707},{""stimulus"":""img/3to1/8.png"",""time"":811},{""stimulus"":""img/3to1/9.png"",""time"":915},{""stimulus"":""img/3to1/10.png"",""time"":1016},{""stimulus"":""img/3to1/11.png"",""time"":1119},{""stimulus"":""img/3to1/12.png"",""time"":1224}]","[]"
"","","","observe","5fc70f3bd255c10f0b2346ba","bdp_cybrbll","Mon Mar 27 2023 18:56:35 GMT-0700 (Pacific Daylight Time)","466220","3","1","image-keyboard-response","183","210095","0.0-5.0-1.89","","null","","img/1to3/1.png","null","136","1204","0.5","0.1","1","3","",""
"","","","","5fc70f3bd255c10f0b2346ba","bdp_cybrbll","Mon Mar 27 2023 18:56:35 GMT-0700 (Pacific Daylight Time)","466220","3","1","animation","184","211443","0.0-5.0-2.89","","","","","","136","","","","1","3","[{""stimulus"":""img/1to3/1.png"",""time"":106},{""stimulus"":""img/1to3/2.png"",""time"":207},{""stimulus"":""img/1to3/3.png"",""time"":309},{""stimulus"":""img/1to3/4.png"",""time"":414},{""stimulus"":""img/1to3/5.png"",""time"":517},{""stimulus"":""img/1to3/6.png"",""time"":619},{""stimulus"":""img/1to3/7.png"",""time"":723},{""stimulus"":""img/1to3/8.png"",""time"":827},{""stimulus"":""img/1to3/9.png"",""time"":931},{""stimulus"":""img/1to3/10.png"",""time"":1036},{""stimulus"":""img/1to3/11.png"",""time"":1140},{""stimulus"":""img/1to3/12.png"",""time"":1244}]","[]"
"","","","observe","5fc70f3bd255c10f0b2346ba","bdp_cybrbll","Mon Mar 27 2023 18:56:35 GMT-0700 (Pacific Daylight Time)","466220","3","1","image-keyboard-response","185","211710","0.0-5.0-1.90","","null","","img/3to2/1.png","null","135","265","0.5","0.1","3","1","",""
"","","","","5fc70f3bd255c10f0b2346ba","bdp_cybrbll","Mon Mar 27 2023 18:56:35 GMT-0700 (Pacific Daylight Time)","466220","3","1","animation","186","213045","0.0-5.0-2.90","","","","","","135","","","","3","1","[{""stimulus"":""img/3to1/1.png"",""time"":100},{""stimulus"":""img/3to1/2.png"",""time"":202},{""stimulus"":""img/3to1/3.png"",""time"":306},{""stimulus"":""img/3to1/4.png"",""time"":407},{""stimulus"":""img/3to1/5.png"",""time"":508},{""stimulus"":""img/3to1/6.png"",""time"":612},{""stimulus"":""img/3to1/7.png"",""time"":716},{""stimulus"":""img/3to1/8.png"",""time"":820},{""stimulus"":""img/3to1/9.png"",""time"":924},{""stimulus"":""img/3to1/10.png"",""time"":1026},{""stimulus"":""img/3to1/11.png"",""time"":1127},{""stimulus"":""img/3to1/12.png"",""time"":1231}]","[]"
"","","","observe","5fc70f3bd255c10f0b2346ba","bdp_cybrbll","Mon Mar 27 2023 18:56:35 GMT-0700 (Pacific Daylight Time)","466220","3","1","image-keyboard-response","187","213463","0.0-5.0-1.91","","null","","img/1to3/1.png","null","134","416","0.5","0.1","1","3","",""
"","","","","5fc70f3bd255c10f0b2346ba","bdp_cybrbll","Mon Mar 27 2023 18:56:35 GMT-0700 (Pacific Daylight Time)","466220","3","1","animation","188","214817","0.0-5.0-2.91","","","","","","134","","","","1","3","[{""stimulus"":""img/1to3/1.png"",""time"":103},{""stimulus"":""img/1to3/2.png"",""time"":208},{""stimulus"":""img/1to3/3.png"",""time"":312},{""stimulus"":""img/1to3/4.png"",""time"":416},{""stimulus"":""img/1to3/5.png"",""time"":520},{""stimulus"":""img/1to3/6.png"",""time"":624},{""stimulus"":""img/1to3/7.png"",""time"":728},{""stimulus"":""img/1to3/8.png"",""time"":833},{""stimulus"":""img/1to3/9.png"",""time"":937},{""stimulus"":""img/1to3/10.png"",""time"":1042},{""stimulus"":""img/1to3/11.png"",""time"":1145},{""stimulus"":""img/1to3/12.png"",""time"":1250}]","[]"
"","","","observe","5fc70f3bd255c10f0b2346ba","bdp_cybrbll","Mon Mar 27 2023 18:56:35 GMT-0700 (Pacific Daylight Time)","466220","3","1","image-keyboard-response","189","215683","0.0-5.0-1.92","","null","","img/3to2/1.png","null","133","859","0.5","0.1","3","2","",""
"","","","","5fc70f3bd255c10f0b2346ba","bdp_cybrbll","Mon Mar 27 2023 18:56:35 GMT-0700 (Pacific Daylight Time)","466220","3","1","animation","190","217024","0.0-5.0-2.92","","","","","","133","","","","3","2","[{""stimulus"":""img/3to2/1.png"",""time"":102},{""stimulus"":""img/3to2/2.png"",""time"":206},{""stimulus"":""img/3to2/3.png"",""time"":306},{""stimulus"":""img/3to2/4.png"",""time"":409},{""stimulus"":""img/3to2/5.png"",""time"":511},{""stimulus"":""img/3to2/6.png"",""time"":614},{""stimulus"":""img/3to2/7.png"",""time"":718},{""stimulus"":""img/3to2/8.png"",""time"":822},{""stimulus"":""img/3to2/9.png"",""time"":925},{""stimulus"":""img/3to2/10.png"",""time"":1030},{""stimulus"":""img/3to2/11.png"",""time"":1134},{""stimulus"":""img/3to2/12.png"",""time"":1238}]","[]"
