"event","trial","time","trialtype","subject_id","task","startTime","totalTime","fairPartner","unfairPartner","trial_type","trial_index","time_elapsed","internal_node_id","view_history","rt","success","stimulus","key_press","throwsLeft","rtDur","pFair","pUnfair","holder","receiver","animation_sequence","responses"
"focus","0","0","focusevent","582009dd87f6b90001f13e40","bdp_cybrbll","Mon Mar 27 2023 08:52:02 GMT-0500 (Central Daylight Time)","449388","1","3","","","","","","","","","","","","","","","","",""
"","","","","582009dd87f6b90001f13e40","bdp_cybrbll","Mon Mar 27 2023 08:52:02 GMT-0500 (Central Daylight Time)","449388","1","3","pavlovia","0","3","0.0-0.0","","","","","","","","","","","","",""
"","","","","582009dd87f6b90001f13e40","bdp_cybrbll","Mon Mar 27 2023 08:52:02 GMT-0500 (Central Daylight Time)","449388","1","3","instructions","1","3024","0.0-1.0","[{""page_index"":0,""viewing_time"":3020}]","3020","","","","","","","","","","",""
"fullscreenexit","2","5327","fullscreenexit","582009dd87f6b90001f13e40","bdp_cybrbll","Mon Mar 27 2023 08:52:02 GMT-0500 (Central Daylight Time)","449388","1","3","","","","","","","","","","","","","","","","",""
"","","","","582009dd87f6b90001f13e40","bdp_cybrbll","Mon Mar 27 2023 08:52:02 GMT-0500 (Central Daylight Time)","449388","1","3","fullscreen","2","6127","0.0-2.0","","","true","","","","","","","","","",""
"","","","fullscreenfail","582009dd87f6b90001f13e40","bdp_cybrbll","Mon Mar 27 2023 08:52:02 GMT-0500 (Central Daylight Time)","449388","1","3","image-keyboard-response","3","6947","0.0-3.0-0.0","","811","","","32","","","","","","","",""
"","","","","582009dd87f6b90001f13e40","bdp_cybrbll","Mon Mar 27 2023 08:52:02 GMT-0500 (Central Daylight Time)","449388","1","3","instructions","4","25398","0.0-4.0","[{""page_index"":0,""viewing_time"":18191}]","18191","","","","","","","","","","",""
"","","","choice","582009dd87f6b90001f13e40","bdp_cybrbll","Mon Mar 27 2023 08:52:02 GMT-0500 (Central Daylight Time)","449388","1","3","image-keyboard-response","5","26040","0.0-5.0-1.0","","636","","img/2to1/1.png","1","225","389","0.5","0.5","2","1","",""
"","","","","582009dd87f6b90001f13e40","bdp_cybrbll","Mon Mar 27 2023 08:52:02 GMT-0500 (Central Daylight Time)","449388","1","3","animation","6","27446","0.0-5.0-2.0","","","","","","225","","","","2","1","[{""stimulus"":""img/2to1/1.png"",""time"":109},{""stimulus"":""img/2to1/2.png"",""time"":216},{""stimulus"":""img/2to1/3.png"",""time"":323},{""stimulus"":""img/2to1/4.png"",""time"":431},{""stimulus"":""img/2to1/5.png"",""time"":539},{""stimulus"":""img/2to1/6.png"",""time"":646},{""stimulus"":""img/2to1/7.png"",""time"":754},{""stimulus"":""img/2to1/8.png"",""time"":862},{""stimulus"":""img/2to1/9.png"",""time"":970},{""stimulus"":""img/2to1/10.png"",""time"":1079},{""stimulus"":""img/2to1/11.png"",""time"":1189},{""stimulus"":""img/2to1/12.png"",""time"":1296}]","[]"
"","","","observe","582009dd87f6b90001f13e40","bdp_cybrbll","Mon Mar 27 2023 08:52:02 GMT-0500 (Central Daylight Time)","449388","1","3","image-keyboard-response","7","28078","0.0-5.0-1.1","","null","","img/1to3/1.png","null","224","628","0.5","0.5","1","3","",""
"","","","","582009dd87f6b90001f13e40","bdp_cybrbll","Mon Mar 27 2023 08:52:02 GMT-0500 (Central Daylight Time)","449388","1","3","animation","8","29483","0.0-5.0-2.1","","","","","","224","","","","1","3","[{""stimulus"":""img/1to3/1.png"",""time"":110},{""stimulus"":""img/1to3/2.png"",""time"":217},{""stimulus"":""img/1to3/3.png"",""time"":324},{""stimulus"":""img/1to3/4.png"",""time"":432},{""stimulus"":""img/1to3/5.png"",""time"":540},{""stimulus"":""img/1to3/6.png"",""time"":649},{""stimulus"":""img/1to3/7.png"",""time"":756},{""stimulus"":""img/1to3/8.png"",""time"":863},{""stimulus"":""img/1to3/9.png"",""time"":972},{""stimulus"":""img/1to3/10.png"",""time"":1081},{""stimulus"":""img/1to3/11.png"",""time"":1188},{""stimulus"":""img/1to3/12.png"",""time"":1297}]","[]"
"","","","observe","582009dd87f6b90001f13e40","bdp_cybrbll","Mon Mar 27 2023 08:52:02 GMT-0500 (Central Daylight Time)","449388","1","3","image-keyboard-response","9","30098","0.0-5.0-1.2","","null","","img/3to2/1.png","null","223","598","0.5","0.5","3","1","",""
"","","","","582009dd87f6b90001f13e40","bdp_cybrbll","Mon Mar 27 2023 08:52:02 GMT-0500 (Central Daylight Time)","449388","1","3","animation","10","31506","0.0-5.0-2.2","","","","","","223","","","","3","1","[{""stimulus"":""img/3to1/1.png"",""time"":110},{""stimulus"":""img/3to1/2.png"",""time"":218},{""stimulus"":""img/3to1/3.png"",""time"":331},{""stimulus"":""img/3to1/4.png"",""time"":435},{""stimulus"":""img/3to1/5.png"",""time"":543},{""stimulus"":""img/3to1/6.png"",""time"":651},{""stimulus"":""img/3to1/7.png"",""time"":759},{""stimulus"":""img/3to1/8.png"",""time"":868},{""stimulus"":""img/3to1/9.png"",""time"":975},{""stimulus"":""img/3to1/10.png"",""time"":1083},{""stimulus"":""img/3to1/11.png"",""time"":1192},{""stimulus"":""img/3to1/12.png"",""time"":1300}]","[]"
"","","","observe","582009dd87f6b90001f13e40","bdp_cybrbll","Mon Mar 27 2023 08:52:02 GMT-0500 (Central Daylight Time)","449388","1","3","image-keyboard-response","11","31691","0.0-5.0-1.3","","null","","img/1to3/1.png","null","222","180","0.5","0.5","1","2","",""
"","","","","582009dd87f6b90001f13e40","bdp_cybrbll","Mon Mar 27 2023 08:52:02 GMT-0500 (Central Daylight Time)","449388","1","3","animation","12","33098","0.0-5.0-2.3","","","","","","222","","","","1","2","[{""stimulus"":""img/1to2/1.png"",""time"":108},{""stimulus"":""img/1to2/2.png"",""time"":215},{""stimulus"":""img/1to2/3.png"",""time"":323},{""stimulus"":""img/1to2/4.png"",""time"":431},{""stimulus"":""img/1to2/5.png"",""time"":539},{""stimulus"":""img/1to2/6.png"",""time"":648},{""stimulus"":""img/1to2/7.png"",""time"":756},{""stimulus"":""img/1to2/8.png"",""time"":866},{""stimulus"":""img/1to2/9.png"",""time"":973},{""stimulus"":""img/1to2/10.png"",""time"":1081},{""stimulus"":""img/1to2/11.png"",""time"":1192},{""stimulus"":""img/1to2/12.png"",""time"":1298}]","[]"
"","","","choice","582009dd87f6b90001f13e40","bdp_cybrbll","Mon Mar 27 2023 08:52:02 GMT-0500 (Central Daylight Time)","449388","1","3","image-keyboard-response","13","33343","0.0-5.0-1.4","","243","","img/2to1/1.png","2","221","247","0.5","0.5","2","3","",""
"","","","","582009dd87f6b90001f13e40","bdp_cybrbll","Mon Mar 27 2023 08:52:02 GMT-0500 (Central Daylight Time)","449388","1","3","animation","14","34752","0.0-5.0-2.4","","","","","","221","","","","2","3","[{""stimulus"":""img/2to3/1.png"",""time"":111},{""stimulus"":""img/2to3/2.png"",""time"":218},{""stimulus"":""img/2to3/3.png"",""time"":325},{""stimulus"":""img/2to3/4.png"",""time"":433},{""stimulus"":""img/2to3/5.png"",""time"":543},{""stimulus"":""img/2to3/6.png"",""time"":649},{""stimulus"":""img/2to3/7.png"",""time"":757},{""stimulus"":""img/2to3/8.png"",""time"":866},{""stimulus"":""img/2to3/9.png"",""time"":974},{""stimulus"":""img/2to3/10.png"",""time"":1082},{""stimulus"":""img/2to3/11.png"",""time"":1191},{""stimulus"":""img/2to3/12.png"",""time"":1300}]","[]"
"","","","observe","582009dd87f6b90001f13e40","bdp_cybrbll","Mon Mar 27 2023 08:52:02 GMT-0500 (Central Daylight Time)","449388","1","3","image-keyboard-response","15","35939","0.0-5.0-1.5","","null","","img/3to2/1.png","null","220","1177","0.5","0.5","3","2","",""
"","","","","582009dd87f6b90001f13e40","bdp_cybrbll","Mon Mar 27 2023 08:52:02 GMT-0500 (Central Daylight Time)","449388","1","3","animation","16","37344","0.0-5.0-2.5","","","","","","220","","","","3","2","[{""stimulus"":""img/3to2/1.png"",""time"":107},{""stimulus"":""img/3to2/2.png"",""time"":214},{""stimulus"":""img/3to2/3.png"",""time"":323},{""stimulus"":""img/3to2/4.png"",""time"":431},{""stimulus"":""img/3to2/5.png"",""time"":538},{""stimulus"":""img/3to2/6.png"",""time"":647},{""stimulus"":""img/3to2/7.png"",""time"":754},{""stimulus"":""img/3to2/8.png"",""time"":863},{""stimulus"":""img/3to2/9.png"",""time"":971},{""stimulus"":""img/3to2/10.png"",""time"":1079},{""stimulus"":""img/3to2/11.png"",""time"":1189},{""stimulus"":""img/3to2/12.png"",""time"":1296}]","[]"
"","","","choice","582009dd87f6b90001f13e40","bdp_cybrbll","Mon Mar 27 2023 08:52:02 GMT-0500 (Central Daylight Time)","449388","1","3","image-keyboard-response","17","37626","0.0-5.0-1.6","","279","","img/2to1/1.png","1","219","341","0.5","0.5","2","1","",""
"","","","","582009dd87f6b90001f13e40","bdp_cybrbll","Mon Mar 27 2023 08:52:02 GMT-0500 (Central Daylight Time)","449388","1","3","animation","18","39026","0.0-5.0-2.6","","","","","","219","","","","2","1","[{""stimulus"":""img/2to1/1.png"",""time"":107},{""stimulus"":""img/2to1/2.png"",""time"":213},{""stimulus"":""img/2to1/3.png"",""time"":322},{""stimulus"":""img/2to1/4.png"",""time"":429},{""stimulus"":""img/2to1/5.png"",""time"":537},{""stimulus"":""img/2to1/6.png"",""time"":644},{""stimulus"":""img/2to1/7.png"",""time"":753},{""stimulus"":""img/2to1/8.png"",""time"":861},{""stimulus"":""img/2to1/9.png"",""time"":969},{""stimulus"":""img/2to1/10.png"",""time"":1077},{""stimulus"":""img/2to1/11.png"",""time"":1185},{""stimulus"":""img/2to1/12.png"",""time"":1292}]","[]"
"","","","observe","582009dd87f6b90001f13e40","bdp_cybrbll","Mon Mar 27 2023 08:52:02 GMT-0500 (Central Daylight Time)","449388","1","3","image-keyboard-response","19","39273","0.0-5.0-1.7","","null","","img/1to3/1.png","null","218","238","0.5","0.5","1","3","",""
"","","","","582009dd87f6b90001f13e40","bdp_cybrbll","Mon Mar 27 2023 08:52:02 GMT-0500 (Central Daylight Time)","449388","1","3","animation","20","40676","0.0-5.0-2.7","","","","","","218","","","","1","3","[{""stimulus"":""img/1to3/1.png"",""time"":110},{""stimulus"":""img/1to3/2.png"",""time"":218},{""stimulus"":""img/1to3/3.png"",""time"":326},{""stimulus"":""img/1to3/4.png"",""time"":433},{""stimulus"":""img/1to3/5.png"",""time"":540},{""stimulus"":""img/1to3/6.png"",""time"":650},{""stimulus"":""img/1to3/7.png"",""time"":756},{""stimulus"":""img/1to3/8.png"",""time"":864},{""stimulus"":""img/1to3/9.png"",""time"":972},{""stimulus"":""img/1to3/10.png"",""time"":1080},{""stimulus"":""img/1to3/11.png"",""time"":1188},{""stimulus"":""img/1to3/12.png"",""time"":1296}]","[]"
"","","","observe","582009dd87f6b90001f13e40","bdp_cybrbll","Mon Mar 27 2023 08:52:02 GMT-0500 (Central Daylight Time)","449388","1","3","image-keyboard-response","21","41107","0.0-5.0-1.8","","null","","img/3to2/1.png","null","217","416","0.5","0.5","3","2","",""
"","","","","582009dd87f6b90001f13e40","bdp_cybrbll","Mon Mar 27 2023 08:52:02 GMT-0500 (Central Daylight Time)","449388","1","3","animation","22","42513","0.0-5.0-2.8","","","","","","217","","","","3","2","[{""stimulus"":""img/3to2/1.png"",""time"":110},{""stimulus"":""img/3to2/2.png"",""time"":218},{""stimulus"":""img/3to2/3.png"",""time"":325},{""stimulus"":""img/3to2/4.png"",""time"":434},{""stimulus"":""img/3to2/5.png"",""time"":542},{""stimulus"":""img/3to2/6.png"",""time"":651},{""stimulus"":""img/3to2/7.png"",""time"":758},{""stimulus"":""img/3to2/8.png"",""time"":865},{""stimulus"":""img/3to2/9.png"",""time"":973},{""stimulus"":""img/3to2/10.png"",""time"":1081},{""stimulus"":""img/3to2/11.png"",""time"":1189},{""stimulus"":""img/3to2/12.png"",""time"":1298}]","[]"
"","","","choice","582009dd87f6b90001f13e40","bdp_cybrbll","Mon Mar 27 2023 08:52:02 GMT-0500 (Central Daylight Time)","449388","1","3","image-keyboard-response","23","42584","0.0-5.0-1.9","","70","","img/2to1/1.png","1","216","287","0.5","0.5","2","1","",""
"","","","","582009dd87f6b90001f13e40","bdp_cybrbll","Mon Mar 27 2023 08:52:02 GMT-0500 (Central Daylight Time)","449388","1","3","animation","24","43992","0.0-5.0-2.9","","","","","","216","","","","2","1","[{""stimulus"":""img/2to1/1.png"",""time"":113},{""stimulus"":""img/2to1/2.png"",""time"":221},{""stimulus"":""img/2to1/3.png"",""time"":330},{""stimulus"":""img/2to1/4.png"",""time"":437},{""stimulus"":""img/2to1/5.png"",""time"":544},{""stimulus"":""img/2to1/6.png"",""time"":652},{""stimulus"":""img/2to1/7.png"",""time"":759},{""stimulus"":""img/2to1/8.png"",""time"":870},{""stimulus"":""img/2to1/9.png"",""time"":976},{""stimulus"":""img/2to1/10.png"",""time"":1085},{""stimulus"":""img/2to1/11.png"",""time"":1192},{""stimulus"":""img/2to1/12.png"",""time"":1299}]","[]"
"","","","observe","582009dd87f6b90001f13e40","bdp_cybrbll","Mon Mar 27 2023 08:52:02 GMT-0500 (Central Daylight Time)","449388","1","3","image-keyboard-response","25","45213","0.0-5.0-1.10","","null","","img/1to3/1.png","null","215","1203","0.5","0.5","1","3","",""
"","","","","582009dd87f6b90001f13e40","bdp_cybrbll","Mon Mar 27 2023 08:52:02 GMT-0500 (Central Daylight Time)","449388","1","3","animation","26","46616","0.0-5.0-2.10","","","","","","215","","","","1","3","[{""stimulus"":""img/1to3/1.png"",""time"":106},{""stimulus"":""img/1to3/2.png"",""time"":216},{""stimulus"":""img/1to3/3.png"",""time"":323},{""stimulus"":""img/1to3/4.png"",""time"":431},{""stimulus"":""img/1to3/5.png"",""time"":539},{""stimulus"":""img/1to3/6.png"",""time"":645},{""stimulus"":""img/1to3/7.png"",""time"":754},{""stimulus"":""img/1to3/8.png"",""time"":863},{""stimulus"":""img/1to3/9.png"",""time"":971},{""stimulus"":""img/1to3/10.png"",""time"":1079},{""stimulus"":""img/1to3/11.png"",""time"":1187},{""stimulus"":""img/1to3/12.png"",""time"":1294}]","[]"
"","","","observe","582009dd87f6b90001f13e40","bdp_cybrbll","Mon Mar 27 2023 08:52:02 GMT-0500 (Central Daylight Time)","449388","1","3","image-keyboard-response","27","47217","0.0-5.0-1.11","","null","","img/3to2/1.png","null","214","589","0.5","0.5","3","2","",""
"","","","","582009dd87f6b90001f13e40","bdp_cybrbll","Mon Mar 27 2023 08:52:02 GMT-0500 (Central Daylight Time)","449388","1","3","animation","28","48624","0.0-5.0-2.11","","","","","","214","","","","3","2","[{""stimulus"":""img/3to2/1.png"",""time"":110},{""stimulus"":""img/3to2/2.png"",""time"":218},{""stimulus"":""img/3to2/3.png"",""time"":326},{""stimulus"":""img/3to2/4.png"",""time"":433},{""stimulus"":""img/3to2/5.png"",""time"":543},{""stimulus"":""img/3to2/6.png"",""time"":651},{""stimulus"":""img/3to2/7.png"",""time"":760},{""stimulus"":""img/3to2/8.png"",""time"":867},{""stimulus"":""img/3to2/9.png"",""time"":974},{""stimulus"":""img/3to2/10.png"",""time"":1082},{""stimulus"":""img/3to2/11.png"",""time"":1190},{""stimulus"":""img/3to2/12.png"",""time"":1298}]","[]"
"","","","choice","582009dd87f6b90001f13e40","bdp_cybrbll","Mon Mar 27 2023 08:52:02 GMT-0500 (Central Daylight Time)","449388","1","3","image-keyboard-response","29","48918","0.0-5.0-1.12","","292","","img/2to1/1.png","1","213","401","0.5","0.5","2","1","",""
"","","","","582009dd87f6b90001f13e40","bdp_cybrbll","Mon Mar 27 2023 08:52:02 GMT-0500 (Central Daylight Time)","449388","1","3","animation","30","50320","0.0-5.0-2.12","","","","","","213","","","","2","1","[{""stimulus"":""img/2to1/1.png"",""time"":109},{""stimulus"":""img/2to1/2.png"",""time"":215},{""stimulus"":""img/2to1/3.png"",""time"":322},{""stimulus"":""img/2to1/4.png"",""time"":431},{""stimulus"":""img/2to1/5.png"",""time"":539},{""stimulus"":""img/2to1/6.png"",""time"":647},{""stimulus"":""img/2to1/7.png"",""time"":755},{""stimulus"":""img/2to1/8.png"",""time"":863},{""stimulus"":""img/2to1/9.png"",""time"":971},{""stimulus"":""img/2to1/10.png"",""time"":1079},{""stimulus"":""img/2to1/11.png"",""time"":1187},{""stimulus"":""img/2to1/12.png"",""time"":1294}]","[]"
"","","","observe","582009dd87f6b90001f13e40","bdp_cybrbll","Mon Mar 27 2023 08:52:02 GMT-0500 (Central Daylight Time)","449388","1","3","image-keyboard-response","31","50737","0.0-5.0-1.13","","null","","img/1to3/1.png","null","212","413","0.5","0.5","1","3","",""
"","","","","582009dd87f6b90001f13e40","bdp_cybrbll","Mon Mar 27 2023 08:52:02 GMT-0500 (Central Daylight Time)","449388","1","3","animation","32","52140","0.0-5.0-2.13","","","","","","212","","","","1","3","[{""stimulus"":""img/1to3/1.png"",""time"":108},{""stimulus"":""img/1to3/2.png"",""time"":216},{""stimulus"":""img/1to3/3.png"",""time"":324},{""stimulus"":""img/1to3/4.png"",""time"":432},{""stimulus"":""img/1to3/5.png"",""time"":539},{""stimulus"":""img/1to3/6.png"",""time"":648},{""stimulus"":""img/1to3/7.png"",""time"":756},{""stimulus"":""img/1to3/8.png"",""time"":865},{""stimulus"":""img/1to3/9.png"",""time"":973},{""stimulus"":""img/1to3/10.png"",""time"":1080},{""stimulus"":""img/1to3/11.png"",""time"":1188},{""stimulus"":""img/1to3/12.png"",""time"":1296}]","[]"
"","","","observe","582009dd87f6b90001f13e40","bdp_cybrbll","Mon Mar 27 2023 08:52:02 GMT-0500 (Central Daylight Time)","449388","1","3","image-keyboard-response","33","52881","0.0-5.0-1.14","","null","","img/3to2/1.png","null","211","735","0.5","0.5","3","2","",""
"","","","","582009dd87f6b90001f13e40","bdp_cybrbll","Mon Mar 27 2023 08:52:02 GMT-0500 (Central Daylight Time)","449388","1","3","animation","34","54284","0.0-5.0-2.14","","","","","","211","","","","3","2","[{""stimulus"":""img/3to2/1.png"",""time"":107},{""stimulus"":""img/3to2/2.png"",""time"":215},{""stimulus"":""img/3to2/3.png"",""time"":324},{""stimulus"":""img/3to2/4.png"",""time"":431},{""stimulus"":""img/3to2/5.png"",""time"":539},{""stimulus"":""img/3to2/6.png"",""time"":647},{""stimulus"":""img/3to2/7.png"",""time"":755},{""stimulus"":""img/3to2/8.png"",""time"":864},{""stimulus"":""img/3to2/9.png"",""time"":972},{""stimulus"":""img/3to2/10.png"",""time"":1079},{""stimulus"":""img/3to2/11.png"",""time"":1187},{""stimulus"":""img/3to2/12.png"",""time"":1295}]","[]"
"","","","choice","582009dd87f6b90001f13e40","bdp_cybrbll","Mon Mar 27 2023 08:52:02 GMT-0500 (Central Daylight Time)","449388","1","3","image-keyboard-response","35","54402","0.0-5.0-1.15","","116","","img/2to1/1.png","2","210","1466","0.5","0.5","2","3","",""
"","","","","582009dd87f6b90001f13e40","bdp_cybrbll","Mon Mar 27 2023 08:52:02 GMT-0500 (Central Daylight Time)","449388","1","3","animation","36","55813","0.0-5.0-2.15","","","","","","210","","","","2","3","[{""stimulus"":""img/2to3/1.png"",""time"":113},{""stimulus"":""img/2to3/2.png"",""time"":221},{""stimulus"":""img/2to3/3.png"",""time"":329},{""stimulus"":""img/2to3/4.png"",""time"":437},{""stimulus"":""img/2to3/5.png"",""time"":547},{""stimulus"":""img/2to3/6.png"",""time"":654},{""stimulus"":""img/2to3/7.png"",""time"":762},{""stimulus"":""img/2to3/8.png"",""time"":869},{""stimulus"":""img/2to3/9.png"",""time"":978},{""stimulus"":""img/2to3/10.png"",""time"":1085},{""stimulus"":""img/2to3/11.png"",""time"":1194},{""stimulus"":""img/2to3/12.png"",""time"":1302}]","[]"
"","","","observe","582009dd87f6b90001f13e40","bdp_cybrbll","Mon Mar 27 2023 08:52:02 GMT-0500 (Central Daylight Time)","449388","1","3","image-keyboard-response","37","56585","0.0-5.0-1.16","","null","","img/3to2/1.png","null","209","761","0.5","0.5","3","2","",""
"","","","","582009dd87f6b90001f13e40","bdp_cybrbll","Mon Mar 27 2023 08:52:02 GMT-0500 (Central Daylight Time)","449388","1","3","animation","38","57988","0.0-5.0-2.16","","","","","","209","","","","3","2","[{""stimulus"":""img/3to2/1.png"",""time"":110},{""stimulus"":""img/3to2/2.png"",""time"":217},{""stimulus"":""img/3to2/3.png"",""time"":324},{""stimulus"":""img/3to2/4.png"",""time"":432},{""stimulus"":""img/3to2/5.png"",""time"":539},{""stimulus"":""img/3to2/6.png"",""time"":648},{""stimulus"":""img/3to2/7.png"",""time"":756},{""stimulus"":""img/3to2/8.png"",""time"":864},{""stimulus"":""img/3to2/9.png"",""time"":971},{""stimulus"":""img/3to2/10.png"",""time"":1079},{""stimulus"":""img/3to2/11.png"",""time"":1189},{""stimulus"":""img/3to2/12.png"",""time"":1297}]","[]"
"","","","choice","582009dd87f6b90001f13e40","bdp_cybrbll","Mon Mar 27 2023 08:52:02 GMT-0500 (Central Daylight Time)","449388","1","3","image-keyboard-response","39","58463","0.0-5.0-1.17","","473","","img/2to1/1.png","2","208","549","0.5","0.5","2","3","",""
"","","","","582009dd87f6b90001f13e40","bdp_cybrbll","Mon Mar 27 2023 08:52:02 GMT-0500 (Central Daylight Time)","449388","1","3","animation","40","59873","0.0-5.0-2.17","","","","","","208","","","","2","3","[{""stimulus"":""img/2to3/1.png"",""time"":112},{""stimulus"":""img/2to3/2.png"",""time"":221},{""stimulus"":""img/2to3/3.png"",""time"":329},{""stimulus"":""img/2to3/4.png"",""time"":437},{""stimulus"":""img/2to3/5.png"",""time"":544},{""stimulus"":""img/2to3/6.png"",""time"":652},{""stimulus"":""img/2to3/7.png"",""time"":762},{""stimulus"":""img/2to3/8.png"",""time"":871},{""stimulus"":""img/2to3/9.png"",""time"":979},{""stimulus"":""img/2to3/10.png"",""time"":1086},{""stimulus"":""img/2to3/11.png"",""time"":1195},{""stimulus"":""img/2to3/12.png"",""time"":1303}]","[]"
"","","","observe","582009dd87f6b90001f13e40","bdp_cybrbll","Mon Mar 27 2023 08:52:02 GMT-0500 (Central Daylight Time)","449388","1","3","image-keyboard-response","41","60413","0.0-5.0-1.18","","null","","img/3to2/1.png","null","207","527","0.5","0.5","3","1","",""
"","","","","582009dd87f6b90001f13e40","bdp_cybrbll","Mon Mar 27 2023 08:52:02 GMT-0500 (Central Daylight Time)","449388","1","3","animation","42","61816","0.0-5.0-2.18","","","","","","207","","","","3","1","[{""stimulus"":""img/3to1/1.png"",""time"":108},{""stimulus"":""img/3to1/2.png"",""time"":217},{""stimulus"":""img/3to1/3.png"",""time"":325},{""stimulus"":""img/3to1/4.png"",""time"":433},{""stimulus"":""img/3to1/5.png"",""time"":540},{""stimulus"":""img/3to1/6.png"",""time"":648},{""stimulus"":""img/3to1/7.png"",""time"":756},{""stimulus"":""img/3to1/8.png"",""time"":865},{""stimulus"":""img/3to1/9.png"",""time"":972},{""stimulus"":""img/3to1/10.png"",""time"":1078},{""stimulus"":""img/3to1/11.png"",""time"":1187},{""stimulus"":""img/3to1/12.png"",""time"":1295}]","[]"
"","","","observe","582009dd87f6b90001f13e40","bdp_cybrbll","Mon Mar 27 2023 08:52:02 GMT-0500 (Central Daylight Time)","449388","1","3","image-keyboard-response","43","62526","0.0-5.0-1.19","","null","","img/1to3/1.png","null","206","707","0.5","0.5","1","3","",""
"","","","","582009dd87f6b90001f13e40","bdp_cybrbll","Mon Mar 27 2023 08:52:02 GMT-0500 (Central Daylight Time)","449388","1","3","animation","44","63930","0.0-5.0-2.19","","","","","","206","","","","1","3","[{""stimulus"":""img/1to3/1.png"",""time"":107},{""stimulus"":""img/1to3/2.png"",""time"":216},{""stimulus"":""img/1to3/3.png"",""time"":324},{""stimulus"":""img/1to3/4.png"",""time"":432},{""stimulus"":""img/1to3/5.png"",""time"":541},{""stimulus"":""img/1to3/6.png"",""time"":649},{""stimulus"":""img/1to3/7.png"",""time"":757},{""stimulus"":""img/1to3/8.png"",""time"":864},{""stimulus"":""img/1to3/9.png"",""time"":973},{""stimulus"":""img/1to3/10.png"",""time"":1079},{""stimulus"":""img/1to3/11.png"",""time"":1189},{""stimulus"":""img/1to3/12.png"",""time"":1297}]","[]"
"","","","observe","582009dd87f6b90001f13e40","bdp_cybrbll","Mon Mar 27 2023 08:52:02 GMT-0500 (Central Daylight Time)","449388","1","3","image-keyboard-response","45","64146","0.0-5.0-1.20","","null","","img/3to2/1.png","null","205","211","0.5","0.5","3","1","",""
"","","","","582009dd87f6b90001f13e40","bdp_cybrbll","Mon Mar 27 2023 08:52:02 GMT-0500 (Central Daylight Time)","449388","1","3","animation","46","65552","0.0-5.0-2.20","","","","","","205","","","","3","1","[{""stimulus"":""img/3to1/1.png"",""time"":109},{""stimulus"":""img/3to1/2.png"",""time"":216},{""stimulus"":""img/3to1/3.png"",""time"":325},{""stimulus"":""img/3to1/4.png"",""time"":433},{""stimulus"":""img/3to1/5.png"",""time"":541},{""stimulus"":""img/3to1/6.png"",""time"":650},{""stimulus"":""img/3to1/7.png"",""time"":758},{""stimulus"":""img/3to1/8.png"",""time"":867},{""stimulus"":""img/3to1/9.png"",""time"":974},{""stimulus"":""img/3to1/10.png"",""time"":1083},{""stimulus"":""img/3to1/11.png"",""time"":1189},{""stimulus"":""img/3to1/12.png"",""time"":1297}]","[]"
"","","","observe","582009dd87f6b90001f13e40","bdp_cybrbll","Mon Mar 27 2023 08:52:02 GMT-0500 (Central Daylight Time)","449388","1","3","image-keyboard-response","47","65937","0.0-5.0-1.21","","null","","img/1to3/1.png","null","204","379","0.5","0.5","1","2","",""
"","","","","582009dd87f6b90001f13e40","bdp_cybrbll","Mon Mar 27 2023 08:52:02 GMT-0500 (Central Daylight Time)","449388","1","3","animation","48","67344","0.0-5.0-2.21","","","","","","204","","","","1","2","[{""stimulus"":""img/1to2/1.png"",""time"":108},{""stimulus"":""img/1to2/2.png"",""time"":216},{""stimulus"":""img/1to2/3.png"",""time"":324},{""stimulus"":""img/1to2/4.png"",""time"":431},{""stimulus"":""img/1to2/5.png"",""time"":540},{""stimulus"":""img/1to2/6.png"",""time"":650},{""stimulus"":""img/1to2/7.png"",""time"":757},{""stimulus"":""img/1to2/8.png"",""time"":867},{""stimulus"":""img/1to2/9.png"",""time"":976},{""stimulus"":""img/1to2/10.png"",""time"":1083},{""stimulus"":""img/1to2/11.png"",""time"":1190},{""stimulus"":""img/1to2/12.png"",""time"":1300}]","[]"
"","","","choice","582009dd87f6b90001f13e40","bdp_cybrbll","Mon Mar 27 2023 08:52:02 GMT-0500 (Central Daylight Time)","449388","1","3","image-keyboard-response","49","67566","0.0-5.0-1.22","","219","","img/2to1/1.png","2","203","440","0.5","0.5","2","3","",""
"","","","","582009dd87f6b90001f13e40","bdp_cybrbll","Mon Mar 27 2023 08:52:02 GMT-0500 (Central Daylight Time)","449388","1","3","animation","50","68963","0.0-5.0-2.22","","","","","","203","","","","2","3","[{""stimulus"":""img/2to3/1.png"",""time"":103},{""stimulus"":""img/2to3/2.png"",""time"":210},{""stimulus"":""img/2to3/3.png"",""time"":319},{""stimulus"":""img/2to3/4.png"",""time"":426},{""stimulus"":""img/2to3/5.png"",""time"":534},{""stimulus"":""img/2to3/6.png"",""time"":642},{""stimulus"":""img/2to3/7.png"",""time"":748},{""stimulus"":""img/2to3/8.png"",""time"":856},{""stimulus"":""img/2to3/9.png"",""time"":964},{""stimulus"":""img/2to3/10.png"",""time"":1073},{""stimulus"":""img/2to3/11.png"",""time"":1180},{""stimulus"":""img/2to3/12.png"",""time"":1289}]","[]"
"","","","observe","582009dd87f6b90001f13e40","bdp_cybrbll","Mon Mar 27 2023 08:52:02 GMT-0500 (Central Daylight Time)","449388","1","3","image-keyboard-response","51","69316","0.0-5.0-1.23","","null","","img/3to2/1.png","null","202","347","0.5","0.5","3","1","",""
"","","","","582009dd87f6b90001f13e40","bdp_cybrbll","Mon Mar 27 2023 08:52:02 GMT-0500 (Central Daylight Time)","449388","1","3","animation","52","70721","0.0-5.0-2.23","","","","","","202","","","","3","1","[{""stimulus"":""img/3to1/1.png"",""time"":108},{""stimulus"":""img/3to1/2.png"",""time"":214},{""stimulus"":""img/3to1/3.png"",""time"":326},{""stimulus"":""img/3to1/4.png"",""time"":431},{""stimulus"":""img/3to1/5.png"",""time"":540},{""stimulus"":""img/3to1/6.png"",""time"":648},{""stimulus"":""img/3to1/7.png"",""time"":756},{""stimulus"":""img/3to1/8.png"",""time"":864},{""stimulus"":""img/3to1/9.png"",""time"":972},{""stimulus"":""img/3to1/10.png"",""time"":1080},{""stimulus"":""img/3to1/11.png"",""time"":1187},{""stimulus"":""img/3to1/12.png"",""time"":1294}]","[]"
"","","","observe","582009dd87f6b90001f13e40","bdp_cybrbll","Mon Mar 27 2023 08:52:02 GMT-0500 (Central Daylight Time)","449388","1","3","image-keyboard-response","53","70936","0.0-5.0-1.24","","null","","img/1to3/1.png","null","201","212","0.5","0.5","1","2","",""
"","","","","582009dd87f6b90001f13e40","bdp_cybrbll","Mon Mar 27 2023 08:52:02 GMT-0500 (Central Daylight Time)","449388","1","3","animation","54","72340","0.0-5.0-2.24","","","","","","201","","","","1","2","[{""stimulus"":""img/1to2/1.png"",""time"":108},{""stimulus"":""img/1to2/2.png"",""time"":215},{""stimulus"":""img/1to2/3.png"",""time"":323},{""stimulus"":""img/1to2/4.png"",""time"":431},{""stimulus"":""img/1to2/5.png"",""time"":540},{""stimulus"":""img/1to2/6.png"",""time"":648},{""stimulus"":""img/1to2/7.png"",""time"":755},{""stimulus"":""img/1to2/8.png"",""time"":864},{""stimulus"":""img/1to2/9.png"",""time"":972},{""stimulus"":""img/1to2/10.png"",""time"":1080},{""stimulus"":""img/1to2/11.png"",""time"":1188},{""stimulus"":""img/1to2/12.png"",""time"":1296}]","[]"
"","","","choice","582009dd87f6b90001f13e40","bdp_cybrbll","Mon Mar 27 2023 08:52:02 GMT-0500 (Central Daylight Time)","449388","1","3","image-keyboard-response","55","72432","0.0-5.0-1.25","","89","","img/2to1/1.png","2","200","872","0.5","0.5","2","3","",""
"","","","","582009dd87f6b90001f13e40","bdp_cybrbll","Mon Mar 27 2023 08:52:02 GMT-0500 (Central Daylight Time)","449388","1","3","animation","56","73835","0.0-5.0-2.25","","","","","","200","","","","2","3","[{""stimulus"":""img/2to3/1.png"",""time"":109},{""stimulus"":""img/2to3/2.png"",""time"":218},{""stimulus"":""img/2to3/3.png"",""time"":325},{""stimulus"":""img/2to3/4.png"",""time"":433},{""stimulus"":""img/2to3/5.png"",""time"":542},{""stimulus"":""img/2to3/6.png"",""time"":648},{""stimulus"":""img/2to3/7.png"",""time"":757},{""stimulus"":""img/2to3/8.png"",""time"":866},{""stimulus"":""img/2to3/9.png"",""time"":971},{""stimulus"":""img/2to3/10.png"",""time"":1079},{""stimulus"":""img/2to3/11.png"",""time"":1188},{""stimulus"":""img/2to3/12.png"",""time"":1295}]","[]"
"","","","observe","582009dd87f6b90001f13e40","bdp_cybrbll","Mon Mar 27 2023 08:52:02 GMT-0500 (Central Daylight Time)","449388","1","3","image-keyboard-response","57","75409","0.0-5.0-1.26","","null","","img/3to2/1.png","null","199","1567","0.5","0.5","3","2","",""
"","","","","582009dd87f6b90001f13e40","bdp_cybrbll","Mon Mar 27 2023 08:52:02 GMT-0500 (Central Daylight Time)","449388","1","3","animation","58","76814","0.0-5.0-2.26","","","","","","199","","","","3","2","[{""stimulus"":""img/3to2/1.png"",""time"":109},{""stimulus"":""img/3to2/2.png"",""time"":216},{""stimulus"":""img/3to2/3.png"",""time"":324},{""stimulus"":""img/3to2/4.png"",""time"":431},{""stimulus"":""img/3to2/5.png"",""time"":541},{""stimulus"":""img/3to2/6.png"",""time"":648},{""stimulus"":""img/3to2/7.png"",""time"":755},{""stimulus"":""img/3to2/8.png"",""time"":864},{""stimulus"":""img/3to2/9.png"",""time"":972},{""stimulus"":""img/3to2/10.png"",""time"":1079},{""stimulus"":""img/3to2/11.png"",""time"":1187},{""stimulus"":""img/3to2/12.png"",""time"":1296}]","[]"
"","","","choice","582009dd87f6b90001f13e40","bdp_cybrbll","Mon Mar 27 2023 08:52:02 GMT-0500 (Central Daylight Time)","449388","1","3","image-keyboard-response","59","77132","0.0-5.0-1.27","","315","","img/2to1/1.png","1","198","363","0.5","0.5","2","1","",""
"","","","","582009dd87f6b90001f13e40","bdp_cybrbll","Mon Mar 27 2023 08:52:02 GMT-0500 (Central Daylight Time)","449388","1","3","animation","60","78541","0.0-5.0-2.27","","","","","","198","","","","2","1","[{""stimulus"":""img/2to1/1.png"",""time"":114},{""stimulus"":""img/2to1/2.png"",""time"":222},{""stimulus"":""img/2to1/3.png"",""time"":330},{""stimulus"":""img/2to1/4.png"",""time"":438},{""stimulus"":""img/2to1/5.png"",""time"":545},{""stimulus"":""img/2to1/6.png"",""time"":653},{""stimulus"":""img/2to1/7.png"",""time"":762},{""stimulus"":""img/2to1/8.png"",""time"":869},{""stimulus"":""img/2to1/9.png"",""time"":977},{""stimulus"":""img/2to1/10.png"",""time"":1085},{""stimulus"":""img/2to1/11.png"",""time"":1193},{""stimulus"":""img/2to1/12.png"",""time"":1301}]","[]"
"","","","observe","582009dd87f6b90001f13e40","bdp_cybrbll","Mon Mar 27 2023 08:52:02 GMT-0500 (Central Daylight Time)","449388","1","3","image-keyboard-response","61","78835","0.0-5.0-1.28","","null","","img/1to3/1.png","null","197","276","0.5","0.5","1","3","",""
"","","","","582009dd87f6b90001f13e40","bdp_cybrbll","Mon Mar 27 2023 08:52:02 GMT-0500 (Central Daylight Time)","449388","1","3","animation","62","80238","0.0-5.0-2.28","","","","","","197","","","","1","3","[{""stimulus"":""img/1to3/1.png"",""time"":107},{""stimulus"":""img/1to3/2.png"",""time"":216},{""stimulus"":""img/1to3/3.png"",""time"":324},{""stimulus"":""img/1to3/4.png"",""time"":431},{""stimulus"":""img/1to3/5.png"",""time"":539},{""stimulus"":""img/1to3/6.png"",""time"":647},{""stimulus"":""img/1to3/7.png"",""time"":756},{""stimulus"":""img/1to3/8.png"",""time"":862},{""stimulus"":""img/1to3/9.png"",""time"":971},{""stimulus"":""img/1to3/10.png"",""time"":1079},{""stimulus"":""img/1to3/11.png"",""time"":1188},{""stimulus"":""img/1to3/12.png"",""time"":1295}]","[]"
"","","","observe","582009dd87f6b90001f13e40","bdp_cybrbll","Mon Mar 27 2023 08:52:02 GMT-0500 (Central Daylight Time)","449388","1","3","image-keyboard-response","63","81411","0.0-5.0-1.29","","null","","img/3to2/1.png","null","196","1161","0.5","0.5","3","2","",""
"","","","","582009dd87f6b90001f13e40","bdp_cybrbll","Mon Mar 27 2023 08:52:02 GMT-0500 (Central Daylight Time)","449388","1","3","animation","64","82817","0.0-5.0-2.29","","","","","","196","","","","3","2","[{""stimulus"":""img/3to2/1.png"",""time"":109},{""stimulus"":""img/3to2/2.png"",""time"":216},{""stimulus"":""img/3to2/3.png"",""time"":324},{""stimulus"":""img/3to2/4.png"",""time"":432},{""stimulus"":""img/3to2/5.png"",""time"":539},{""stimulus"":""img/3to2/6.png"",""time"":649},{""stimulus"":""img/3to2/7.png"",""time"":757},{""stimulus"":""img/3to2/8.png"",""time"":864},{""stimulus"":""img/3to2/9.png"",""time"":973},{""stimulus"":""img/3to2/10.png"",""time"":1080},{""stimulus"":""img/3to2/11.png"",""time"":1189},{""stimulus"":""img/3to2/12.png"",""time"":1296}]","[]"
"","","","choice","582009dd87f6b90001f13e40","bdp_cybrbll","Mon Mar 27 2023 08:52:02 GMT-0500 (Central Daylight Time)","449388","1","3","image-keyboard-response","65","83210","0.0-5.0-1.30","","391","","img/2to1/1.png","1","195","776","0.5","0.5","2","1","",""
"","","","","582009dd87f6b90001f13e40","bdp_cybrbll","Mon Mar 27 2023 08:52:02 GMT-0500 (Central Daylight Time)","449388","1","3","animation","66","84608","0.0-5.0-2.30","","","","","","195","","","","2","1","[{""stimulus"":""img/2to1/1.png"",""time"":100},{""stimulus"":""img/2to1/2.png"",""time"":209},{""stimulus"":""img/2to1/3.png"",""time"":317},{""stimulus"":""img/2to1/4.png"",""time"":425},{""stimulus"":""img/2to1/5.png"",""time"":533},{""stimulus"":""img/2to1/6.png"",""time"":642},{""stimulus"":""img/2to1/7.png"",""time"":749},{""stimulus"":""img/2to1/8.png"",""time"":857},{""stimulus"":""img/2to1/9.png"",""time"":965},{""stimulus"":""img/2to1/10.png"",""time"":1073},{""stimulus"":""img/2to1/11.png"",""time"":1182},{""stimulus"":""img/2to1/12.png"",""time"":1292}]","[]"
"","","","observe","582009dd87f6b90001f13e40","bdp_cybrbll","Mon Mar 27 2023 08:52:02 GMT-0500 (Central Daylight Time)","449388","1","3","image-keyboard-response","67","85288","0.0-5.0-1.31","","null","","img/1to3/1.png","null","194","672","0.5","0.5","1","3","",""
"","","","","582009dd87f6b90001f13e40","bdp_cybrbll","Mon Mar 27 2023 08:52:02 GMT-0500 (Central Daylight Time)","449388","1","3","animation","68","86690","0.0-5.0-2.31","","","","","","194","","","","1","3","[{""stimulus"":""img/1to3/1.png"",""time"":108},{""stimulus"":""img/1to3/2.png"",""time"":217},{""stimulus"":""img/1to3/3.png"",""time"":325},{""stimulus"":""img/1to3/4.png"",""time"":432},{""stimulus"":""img/1to3/5.png"",""time"":540},{""stimulus"":""img/1to3/6.png"",""time"":648},{""stimulus"":""img/1to3/7.png"",""time"":756},{""stimulus"":""img/1to3/8.png"",""time"":864},{""stimulus"":""img/1to3/9.png"",""time"":970},{""stimulus"":""img/1to3/10.png"",""time"":1079},{""stimulus"":""img/1to3/11.png"",""time"":1187},{""stimulus"":""img/1to3/12.png"",""time"":1295}]","[]"
"","","","observe","582009dd87f6b90001f13e40","bdp_cybrbll","Mon Mar 27 2023 08:52:02 GMT-0500 (Central Daylight Time)","449388","1","3","image-keyboard-response","69","87199","0.0-5.0-1.32","","null","","img/3to2/1.png","null","193","506","0.5","0.5","3","2","",""
"","","","","582009dd87f6b90001f13e40","bdp_cybrbll","Mon Mar 27 2023 08:52:02 GMT-0500 (Central Daylight Time)","449388","1","3","animation","70","88604","0.0-5.0-2.32","","","","","","193","","","","3","2","[{""stimulus"":""img/3to2/1.png"",""time"":108},{""stimulus"":""img/3to2/2.png"",""time"":216},{""stimulus"":""img/3to2/3.png"",""time"":323},{""stimulus"":""img/3to2/4.png"",""time"":432},{""stimulus"":""img/3to2/5.png"",""time"":540},{""stimulus"":""img/3to2/6.png"",""time"":649},{""stimulus"":""img/3to2/7.png"",""time"":758},{""stimulus"":""img/3to2/8.png"",""time"":866},{""stimulus"":""img/3to2/9.png"",""time"":974},{""stimulus"":""img/3to2/10.png"",""time"":1082},{""stimulus"":""img/3to2/11.png"",""time"":1190},{""stimulus"":""img/3to2/12.png"",""time"":1296}]","[]"
"","","","choice","582009dd87f6b90001f13e40","bdp_cybrbll","Mon Mar 27 2023 08:52:02 GMT-0500 (Central Daylight Time)","449388","1","3","image-keyboard-response","71","88831","0.0-5.0-1.33","","226","","img/2to1/1.png","1","192","409","0.5","0.5","2","1","",""
"","","","","582009dd87f6b90001f13e40","bdp_cybrbll","Mon Mar 27 2023 08:52:02 GMT-0500 (Central Daylight Time)","449388","1","3","animation","72","90240","0.0-5.0-2.33","","","","","","192","","","","2","1","[{""stimulus"":""img/2to1/1.png"",""time"":115},{""stimulus"":""img/2to1/2.png"",""time"":224},{""stimulus"":""img/2to1/3.png"",""time"":331},{""stimulus"":""img/2to1/4.png"",""time"":439},{""stimulus"":""img/2to1/5.png"",""time"":547},{""stimulus"":""img/2to1/6.png"",""time"":656},{""stimulus"":""img/2to1/7.png"",""time"":763},{""stimulus"":""img/2to1/8.png"",""time"":869},{""stimulus"":""img/2to1/9.png"",""time"":978},{""stimulus"":""img/2to1/10.png"",""time"":1085},{""stimulus"":""img/2to1/11.png"",""time"":1194},{""stimulus"":""img/2to1/12.png"",""time"":1302}]","[]"
"","","","observe","582009dd87f6b90001f13e40","bdp_cybrbll","Mon Mar 27 2023 08:52:02 GMT-0500 (Central Daylight Time)","449388","1","3","image-keyboard-response","73","90518","0.0-5.0-1.34","","null","","img/1to3/1.png","null","191","261","0.5","0.5","1","2","",""
"","","","","582009dd87f6b90001f13e40","bdp_cybrbll","Mon Mar 27 2023 08:52:02 GMT-0500 (Central Daylight Time)","449388","1","3","animation","74","91925","0.0-5.0-2.34","","","","","","191","","","","1","2","[{""stimulus"":""img/1to2/1.png"",""time"":109},{""stimulus"":""img/1to2/2.png"",""time"":216},{""stimulus"":""img/1to2/3.png"",""time"":324},{""stimulus"":""img/1to2/4.png"",""time"":432},{""stimulus"":""img/1to2/5.png"",""time"":543},{""stimulus"":""img/1to2/6.png"",""time"":650},{""stimulus"":""img/1to2/7.png"",""time"":758},{""stimulus"":""img/1to2/8.png"",""time"":867},{""stimulus"":""img/1to2/9.png"",""time"":974},{""stimulus"":""img/1to2/10.png"",""time"":1083},{""stimulus"":""img/1to2/11.png"",""time"":1191},{""stimulus"":""img/1to2/12.png"",""time"":1299}]","[]"
"","","","choice","582009dd87f6b90001f13e40","bdp_cybrbll","Mon Mar 27 2023 08:52:02 GMT-0500 (Central Daylight Time)","449388","1","3","image-keyboard-response","75","92051","0.0-5.0-1.35","","124","","img/2to1/1.png","2","190","189","0.5","0.5","2","3","",""
"","","","","582009dd87f6b90001f13e40","bdp_cybrbll","Mon Mar 27 2023 08:52:02 GMT-0500 (Central Daylight Time)","449388","1","3","animation","76","93455","0.0-5.0-2.35","","","","","","190","","","","2","3","[{""stimulus"":""img/2to3/1.png"",""time"":106},{""stimulus"":""img/2to3/2.png"",""time"":214},{""stimulus"":""img/2to3/3.png"",""time"":322},{""stimulus"":""img/2to3/4.png"",""time"":430},{""stimulus"":""img/2to3/5.png"",""time"":537},{""stimulus"":""img/2to3/6.png"",""time"":647},{""stimulus"":""img/2to3/7.png"",""time"":755},{""stimulus"":""img/2to3/8.png"",""time"":863},{""stimulus"":""img/2to3/9.png"",""time"":970},{""stimulus"":""img/2to3/10.png"",""time"":1078},{""stimulus"":""img/2to3/11.png"",""time"":1185},{""stimulus"":""img/2to3/12.png"",""time"":1294}]","[]"
"","","","observe","582009dd87f6b90001f13e40","bdp_cybrbll","Mon Mar 27 2023 08:52:02 GMT-0500 (Central Daylight Time)","449388","1","3","image-keyboard-response","77","93794","0.0-5.0-1.36","","null","","img/3to2/1.png","null","189","329","0.5","0.5","3","1","",""
"","","","","582009dd87f6b90001f13e40","bdp_cybrbll","Mon Mar 27 2023 08:52:02 GMT-0500 (Central Daylight Time)","449388","1","3","animation","78","95201","0.0-5.0-2.36","","","","","","189","","","","3","1","[{""stimulus"":""img/3to1/1.png"",""time"":109},{""stimulus"":""img/3to1/2.png"",""time"":217},{""stimulus"":""img/3to1/3.png"",""time"":326},{""stimulus"":""img/3to1/4.png"",""time"":435},{""stimulus"":""img/3to1/5.png"",""time"":542},{""stimulus"":""img/3to1/6.png"",""time"":651},{""stimulus"":""img/3to1/7.png"",""time"":759},{""stimulus"":""img/3to1/8.png"",""time"":867},{""stimulus"":""img/3to1/9.png"",""time"":975},{""stimulus"":""img/3to1/10.png"",""time"":1082},{""stimulus"":""img/3to1/11.png"",""time"":1190},{""stimulus"":""img/3to1/12.png"",""time"":1300}]","[]"
"","","","observe","582009dd87f6b90001f13e40","bdp_cybrbll","Mon Mar 27 2023 08:52:02 GMT-0500 (Central Daylight Time)","449388","1","3","image-keyboard-response","79","95725","0.0-5.0-1.37","","null","","img/1to3/1.png","null","188","522","0.5","0.5","1","3","",""
"","","","","582009dd87f6b90001f13e40","bdp_cybrbll","Mon Mar 27 2023 08:52:02 GMT-0500 (Central Daylight Time)","449388","1","3","animation","80","97129","0.0-5.0-2.37","","","","","","188","","","","1","3","[{""stimulus"":""img/1to3/1.png"",""time"":109},{""stimulus"":""img/1to3/2.png"",""time"":216},{""stimulus"":""img/1to3/3.png"",""time"":324},{""stimulus"":""img/1to3/4.png"",""time"":432},{""stimulus"":""img/1to3/5.png"",""time"":540},{""stimulus"":""img/1to3/6.png"",""time"":647},{""stimulus"":""img/1to3/7.png"",""time"":756},{""stimulus"":""img/1to3/8.png"",""time"":864},{""stimulus"":""img/1to3/9.png"",""time"":973},{""stimulus"":""img/1to3/10.png"",""time"":1080},{""stimulus"":""img/1to3/11.png"",""time"":1189},{""stimulus"":""img/1to3/12.png"",""time"":1295}]","[]"
"","","","observe","582009dd87f6b90001f13e40","bdp_cybrbll","Mon Mar 27 2023 08:52:02 GMT-0500 (Central Daylight Time)","449388","1","3","image-keyboard-response","81","97840","0.0-5.0-1.38","","null","","img/3to2/1.png","null","187","695","0.5","0.5","3","2","",""
"","","","","582009dd87f6b90001f13e40","bdp_cybrbll","Mon Mar 27 2023 08:52:02 GMT-0500 (Central Daylight Time)","449388","1","3","animation","82","99243","0.0-5.0-2.38","","","","","","187","","","","3","2","[{""stimulus"":""img/3to2/1.png"",""time"":107},{""stimulus"":""img/3to2/2.png"",""time"":215},{""stimulus"":""img/3to2/3.png"",""time"":323},{""stimulus"":""img/3to2/4.png"",""time"":432},{""stimulus"":""img/3to2/5.png"",""time"":539},{""stimulus"":""img/3to2/6.png"",""time"":647},{""stimulus"":""img/3to2/7.png"",""time"":756},{""stimulus"":""img/3to2/8.png"",""time"":864},{""stimulus"":""img/3to2/9.png"",""time"":973},{""stimulus"":""img/3to2/10.png"",""time"":1081},{""stimulus"":""img/3to2/11.png"",""time"":1188},{""stimulus"":""img/3to2/12.png"",""time"":1296}]","[]"
"","","","choice","582009dd87f6b90001f13e40","bdp_cybrbll","Mon Mar 27 2023 08:52:02 GMT-0500 (Central Daylight Time)","449388","1","3","image-keyboard-response","83","99416","0.0-5.0-1.39","","170","","img/2to1/1.png","1","186","357","0.5","0.5","2","1","",""
"","","","","582009dd87f6b90001f13e40","bdp_cybrbll","Mon Mar 27 2023 08:52:02 GMT-0500 (Central Daylight Time)","449388","1","3","animation","84","100817","0.0-5.0-2.39","","","","","","186","","","","2","1","[{""stimulus"":""img/2to1/1.png"",""time"":108},{""stimulus"":""img/2to1/2.png"",""time"":215},{""stimulus"":""img/2to1/3.png"",""time"":322},{""stimulus"":""img/2to1/4.png"",""time"":431},{""stimulus"":""img/2to1/5.png"",""time"":538},{""stimulus"":""img/2to1/6.png"",""time"":645},{""stimulus"":""img/2to1/7.png"",""time"":753},{""stimulus"":""img/2to1/8.png"",""time"":863},{""stimulus"":""img/2to1/9.png"",""time"":970},{""stimulus"":""img/2to1/10.png"",""time"":1078},{""stimulus"":""img/2to1/11.png"",""time"":1185},{""stimulus"":""img/2to1/12.png"",""time"":1294}]","[]"
"","","","observe","582009dd87f6b90001f13e40","bdp_cybrbll","Mon Mar 27 2023 08:52:02 GMT-0500 (Central Daylight Time)","449388","1","3","image-keyboard-response","85","101621","0.0-5.0-1.40","","null","","img/1to3/1.png","null","185","788","0.5","0.5","1","3","",""
"","","","","582009dd87f6b90001f13e40","bdp_cybrbll","Mon Mar 27 2023 08:52:02 GMT-0500 (Central Daylight Time)","449388","1","3","animation","86","103025","0.0-5.0-2.40","","","","","","185","","","","1","3","[{""stimulus"":""img/1to3/1.png"",""time"":108},{""stimulus"":""img/1to3/2.png"",""time"":215},{""stimulus"":""img/1to3/3.png"",""time"":324},{""stimulus"":""img/1to3/4.png"",""time"":431},{""stimulus"":""img/1to3/5.png"",""time"":539},{""stimulus"":""img/1to3/6.png"",""time"":647},{""stimulus"":""img/1to3/7.png"",""time"":754},{""stimulus"":""img/1to3/8.png"",""time"":863},{""stimulus"":""img/1to3/9.png"",""time"":970},{""stimulus"":""img/1to3/10.png"",""time"":1079},{""stimulus"":""img/1to3/11.png"",""time"":1187},{""stimulus"":""img/1to3/12.png"",""time"":1296}]","[]"
"","","","observe","582009dd87f6b90001f13e40","bdp_cybrbll","Mon Mar 27 2023 08:52:02 GMT-0500 (Central Daylight Time)","449388","1","3","image-keyboard-response","87","103349","0.0-5.0-1.41","","null","","img/3to2/1.png","null","184","310","0.5","0.5","3","1","",""
"","","","","582009dd87f6b90001f13e40","bdp_cybrbll","Mon Mar 27 2023 08:52:02 GMT-0500 (Central Daylight Time)","449388","1","3","animation","88","104752","0.0-5.0-2.41","","","","","","184","","","","3","1","[{""stimulus"":""img/3to1/1.png"",""time"":108},{""stimulus"":""img/3to1/2.png"",""time"":217},{""stimulus"":""img/3to1/3.png"",""time"":324},{""stimulus"":""img/3to1/4.png"",""time"":432},{""stimulus"":""img/3to1/5.png"",""time"":541},{""stimulus"":""img/3to1/6.png"",""time"":646},{""stimulus"":""img/3to1/7.png"",""time"":754},{""stimulus"":""img/3to1/8.png"",""time"":863},{""stimulus"":""img/3to1/9.png"",""time"":971},{""stimulus"":""img/3to1/10.png"",""time"":1077},{""stimulus"":""img/3to1/11.png"",""time"":1186},{""stimulus"":""img/3to1/12.png"",""time"":1293}]","[]"
"","","","observe","582009dd87f6b90001f13e40","bdp_cybrbll","Mon Mar 27 2023 08:52:02 GMT-0500 (Central Daylight Time)","449388","1","3","image-keyboard-response","89","104984","0.0-5.0-1.42","","null","","img/1to3/1.png","null","183","215","0.5","0.5","1","3","",""
"","","","","582009dd87f6b90001f13e40","bdp_cybrbll","Mon Mar 27 2023 08:52:02 GMT-0500 (Central Daylight Time)","449388","1","3","animation","90","106388","0.0-5.0-2.42","","","","","","183","","","","1","3","[{""stimulus"":""img/1to3/1.png"",""time"":108},{""stimulus"":""img/1to3/2.png"",""time"":217},{""stimulus"":""img/1to3/3.png"",""time"":324},{""stimulus"":""img/1to3/4.png"",""time"":433},{""stimulus"":""img/1to3/5.png"",""time"":540},{""stimulus"":""img/1to3/6.png"",""time"":649},{""stimulus"":""img/1to3/7.png"",""time"":756},{""stimulus"":""img/1to3/8.png"",""time"":863},{""stimulus"":""img/1to3/9.png"",""time"":972},{""stimulus"":""img/1to3/10.png"",""time"":1080},{""stimulus"":""img/1to3/11.png"",""time"":1188},{""stimulus"":""img/1to3/12.png"",""time"":1296}]","[]"
"","","","observe","582009dd87f6b90001f13e40","bdp_cybrbll","Mon Mar 27 2023 08:52:02 GMT-0500 (Central Daylight Time)","449388","1","3","image-keyboard-response","91","107654","0.0-5.0-1.43","","null","","img/3to2/1.png","null","182","1257","0.5","0.5","3","1","",""
"","","","","582009dd87f6b90001f13e40","bdp_cybrbll","Mon Mar 27 2023 08:52:02 GMT-0500 (Central Daylight Time)","449388","1","3","animation","92","109055","0.0-5.0-2.43","","","","","","182","","","","3","1","[{""stimulus"":""img/3to1/1.png"",""time"":107},{""stimulus"":""img/3to1/2.png"",""time"":215},{""stimulus"":""img/3to1/3.png"",""time"":323},{""stimulus"":""img/3to1/4.png"",""time"":430},{""stimulus"":""img/3to1/5.png"",""time"":537},{""stimulus"":""img/3to1/6.png"",""time"":645},{""stimulus"":""img/3to1/7.png"",""time"":753},{""stimulus"":""img/3to1/8.png"",""time"":861},{""stimulus"":""img/3to1/9.png"",""time"":969},{""stimulus"":""img/3to1/10.png"",""time"":1078},{""stimulus"":""img/3to1/11.png"",""time"":1185},{""stimulus"":""img/3to1/12.png"",""time"":1292}]","[]"
"","","","observe","582009dd87f6b90001f13e40","bdp_cybrbll","Mon Mar 27 2023 08:52:02 GMT-0500 (Central Daylight Time)","449388","1","3","image-keyboard-response","93","110213","0.0-5.0-1.44","","null","","img/1to3/1.png","null","181","1150","0.5","0.5","1","3","",""
"","","","","582009dd87f6b90001f13e40","bdp_cybrbll","Mon Mar 27 2023 08:52:02 GMT-0500 (Central Daylight Time)","449388","1","3","animation","94","111616","0.0-5.0-2.44","","","","","","181","","","","1","3","[{""stimulus"":""img/1to3/1.png"",""time"":110},{""stimulus"":""img/1to3/2.png"",""time"":218},{""stimulus"":""img/1to3/3.png"",""time"":325},{""stimulus"":""img/1to3/4.png"",""time"":433},{""stimulus"":""img/1to3/5.png"",""time"":541},{""stimulus"":""img/1to3/6.png"",""time"":650},{""stimulus"":""img/1to3/7.png"",""time"":758},{""stimulus"":""img/1to3/8.png"",""time"":866},{""stimulus"":""img/1to3/9.png"",""time"":975},{""stimulus"":""img/1to3/10.png"",""time"":1082},{""stimulus"":""img/1to3/11.png"",""time"":1190},{""stimulus"":""img/1to3/12.png"",""time"":1297}]","[]"
"","","","observe","582009dd87f6b90001f13e40","bdp_cybrbll","Mon Mar 27 2023 08:52:02 GMT-0500 (Central Daylight Time)","449388","1","3","image-keyboard-response","95","111910","0.0-5.0-1.45","","null","","img/3to2/1.png","null","180","282","0.5","0.5","3","2","",""
"","","","","582009dd87f6b90001f13e40","bdp_cybrbll","Mon Mar 27 2023 08:52:02 GMT-0500 (Central Daylight Time)","449388","1","3","animation","96","113315","0.0-5.0-2.45","","","","","","180","","","","3","2","[{""stimulus"":""img/3to2/1.png"",""time"":108},{""stimulus"":""img/3to2/2.png"",""time"":216},{""stimulus"":""img/3to2/3.png"",""time"":323},{""stimulus"":""img/3to2/4.png"",""time"":432},{""stimulus"":""img/3to2/5.png"",""time"":541},{""stimulus"":""img/3to2/6.png"",""time"":649},{""stimulus"":""img/3to2/7.png"",""time"":755},{""stimulus"":""img/3to2/8.png"",""time"":865},{""stimulus"":""img/3to2/9.png"",""time"":973},{""stimulus"":""img/3to2/10.png"",""time"":1080},{""stimulus"":""img/3to2/11.png"",""time"":1188},{""stimulus"":""img/3to2/12.png"",""time"":1295}]","[]"
"","","","choice","582009dd87f6b90001f13e40","bdp_cybrbll","Mon Mar 27 2023 08:52:02 GMT-0500 (Central Daylight Time)","449388","1","3","image-keyboard-response","97","113530","0.0-5.0-1.46","","213","","img/2to1/1.png","1","179","510","0.5","0.5","2","1","",""
"","","","","582009dd87f6b90001f13e40","bdp_cybrbll","Mon Mar 27 2023 08:52:02 GMT-0500 (Central Daylight Time)","449388","1","3","animation","98","114934","0.0-5.0-2.46","","","","","","179","","","","2","1","[{""stimulus"":""img/2to1/1.png"",""time"":109},{""stimulus"":""img/2to1/2.png"",""time"":217},{""stimulus"":""img/2to1/3.png"",""time"":326},{""stimulus"":""img/2to1/4.png"",""time"":434},{""stimulus"":""img/2to1/5.png"",""time"":542},{""stimulus"":""img/2to1/6.png"",""time"":649},{""stimulus"":""img/2to1/7.png"",""time"":757},{""stimulus"":""img/2to1/8.png"",""time"":865},{""stimulus"":""img/2to1/9.png"",""time"":972},{""stimulus"":""img/2to1/10.png"",""time"":1082},{""stimulus"":""img/2to1/11.png"",""time"":1190},{""stimulus"":""img/2to1/12.png"",""time"":1297}]","[]"
"","","","observe","582009dd87f6b90001f13e40","bdp_cybrbll","Mon Mar 27 2023 08:52:02 GMT-0500 (Central Daylight Time)","449388","1","3","image-keyboard-response","99","115581","0.0-5.0-1.47","","null","","img/1to3/1.png","null","178","636","0.5","0.5","1","2","",""
"","","","","582009dd87f6b90001f13e40","bdp_cybrbll","Mon Mar 27 2023 08:52:02 GMT-0500 (Central Daylight Time)","449388","1","3","animation","100","116987","0.0-5.0-2.47","","","","","","178","","","","1","2","[{""stimulus"":""img/1to2/1.png"",""time"":110},{""stimulus"":""img/1to2/2.png"",""time"":218},{""stimulus"":""img/1to2/3.png"",""time"":326},{""stimulus"":""img/1to2/4.png"",""time"":435},{""stimulus"":""img/1to2/5.png"",""time"":542},{""stimulus"":""img/1to2/6.png"",""time"":650},{""stimulus"":""img/1to2/7.png"",""time"":759},{""stimulus"":""img/1to2/8.png"",""time"":867},{""stimulus"":""img/1to2/9.png"",""time"":975},{""stimulus"":""img/1to2/10.png"",""time"":1083},{""stimulus"":""img/1to2/11.png"",""time"":1193},{""stimulus"":""img/1to2/12.png"",""time"":1299}]","[]"
"","","","choice","582009dd87f6b90001f13e40","bdp_cybrbll","Mon Mar 27 2023 08:52:02 GMT-0500 (Central Daylight Time)","449388","1","3","image-keyboard-response","101","117132","0.0-5.0-1.48","","142","","img/2to1/1.png","2","177","245","0.5","0.5","2","3","",""
"","","","","582009dd87f6b90001f13e40","bdp_cybrbll","Mon Mar 27 2023 08:52:02 GMT-0500 (Central Daylight Time)","449388","1","3","animation","102","118533","0.0-5.0-2.48","","","","","","177","","","","2","3","[{""stimulus"":""img/2to3/1.png"",""time"":104},{""stimulus"":""img/2to3/2.png"",""time"":212},{""stimulus"":""img/2to3/3.png"",""time"":321},{""stimulus"":""img/2to3/4.png"",""time"":428},{""stimulus"":""img/2to3/5.png"",""time"":536},{""stimulus"":""img/2to3/6.png"",""time"":644},{""stimulus"":""img/2to3/7.png"",""time"":752},{""stimulus"":""img/2to3/8.png"",""time"":859},{""stimulus"":""img/2to3/9.png"",""time"":968},{""stimulus"":""img/2to3/10.png"",""time"":1077},{""stimulus"":""img/2to3/11.png"",""time"":1184},{""stimulus"":""img/2to3/12.png"",""time"":1293}]","[]"
"","","","observe","582009dd87f6b90001f13e40","bdp_cybrbll","Mon Mar 27 2023 08:52:02 GMT-0500 (Central Daylight Time)","449388","1","3","image-keyboard-response","103","118732","0.0-5.0-1.49","","null","","img/3to2/1.png","null","176","191","0.5","0.5","3","2","",""
"","","","","582009dd87f6b90001f13e40","bdp_cybrbll","Mon Mar 27 2023 08:52:02 GMT-0500 (Central Daylight Time)","449388","1","3","animation","104","120139","0.0-5.0-2.49","","","","","","176","","","","3","2","[{""stimulus"":""img/3to2/1.png"",""time"":109},{""stimulus"":""img/3to2/2.png"",""time"":218},{""stimulus"":""img/3to2/3.png"",""time"":325},{""stimulus"":""img/3to2/4.png"",""time"":433},{""stimulus"":""img/3to2/5.png"",""time"":541},{""stimulus"":""img/3to2/6.png"",""time"":648},{""stimulus"":""img/3to2/7.png"",""time"":757},{""stimulus"":""img/3to2/8.png"",""time"":864},{""stimulus"":""img/3to2/9.png"",""time"":974},{""stimulus"":""img/3to2/10.png"",""time"":1081},{""stimulus"":""img/3to2/11.png"",""time"":1190},{""stimulus"":""img/3to2/12.png"",""time"":1298}]","[]"
"","","","choice","582009dd87f6b90001f13e40","bdp_cybrbll","Mon Mar 27 2023 08:52:02 GMT-0500 (Central Daylight Time)","449388","1","3","image-keyboard-response","105","120287","0.0-5.0-1.50","","146","","img/2to1/1.png","1","175","440","0.5","0.5","2","1","",""
"","","","","582009dd87f6b90001f13e40","bdp_cybrbll","Mon Mar 27 2023 08:52:02 GMT-0500 (Central Daylight Time)","449388","1","3","animation","106","121699","0.0-5.0-2.50","","","","","","175","","","","2","1","[{""stimulus"":""img/2to1/1.png"",""time"":115},{""stimulus"":""img/2to1/2.png"",""time"":223},{""stimulus"":""img/2to1/3.png"",""time"":332},{""stimulus"":""img/2to1/4.png"",""time"":439},{""stimulus"":""img/2to1/5.png"",""time"":548},{""stimulus"":""img/2to1/6.png"",""time"":656},{""stimulus"":""img/2to1/7.png"",""time"":764},{""stimulus"":""img/2to1/8.png"",""time"":871},{""stimulus"":""img/2to1/9.png"",""time"":981},{""stimulus"":""img/2to1/10.png"",""time"":1088},{""stimulus"":""img/2to1/11.png"",""time"":1196},{""stimulus"":""img/2to1/12.png"",""time"":1304}]","[]"
"","","","observe","582009dd87f6b90001f13e40","bdp_cybrbll","Mon Mar 27 2023 08:52:02 GMT-0500 (Central Daylight Time)","449388","1","3","image-keyboard-response","107","122193","0.0-5.0-1.51","","null","","img/1to3/1.png","null","174","480","0.5","0.5","1","2","",""
"","","","","582009dd87f6b90001f13e40","bdp_cybrbll","Mon Mar 27 2023 08:52:02 GMT-0500 (Central Daylight Time)","449388","1","3","animation","108","123595","0.0-5.0-2.51","","","","","","174","","","","1","2","[{""stimulus"":""img/1to2/1.png"",""time"":107},{""stimulus"":""img/1to2/2.png"",""time"":215},{""stimulus"":""img/1to2/3.png"",""time"":323},{""stimulus"":""img/1to2/4.png"",""time"":430},{""stimulus"":""img/1to2/5.png"",""time"":538},{""stimulus"":""img/1to2/6.png"",""time"":645},{""stimulus"":""img/1to2/7.png"",""time"":754},{""stimulus"":""img/1to2/8.png"",""time"":862},{""stimulus"":""img/1to2/9.png"",""time"":969},{""stimulus"":""img/1to2/10.png"",""time"":1077},{""stimulus"":""img/1to2/11.png"",""time"":1184},{""stimulus"":""img/1to2/12.png"",""time"":1294}]","[]"
"","","","choice","582009dd87f6b90001f13e40","bdp_cybrbll","Mon Mar 27 2023 08:52:02 GMT-0500 (Central Daylight Time)","449388","1","3","image-keyboard-response","109","123756","0.0-5.0-1.52","","159","","img/2to1/1.png","2","173","196","0.5","0.5","2","3","",""
"","","","","582009dd87f6b90001f13e40","bdp_cybrbll","Mon Mar 27 2023 08:52:02 GMT-0500 (Central Daylight Time)","449388","1","3","animation","110","125152","0.0-5.0-2.52","","","","","","173","","","","2","3","[{""stimulus"":""img/2to3/1.png"",""time"":101},{""stimulus"":""img/2to3/2.png"",""time"":208},{""stimulus"":""img/2to3/3.png"",""time"":315},{""stimulus"":""img/2to3/4.png"",""time"":423},{""stimulus"":""img/2to3/5.png"",""time"":532},{""stimulus"":""img/2to3/6.png"",""time"":639},{""stimulus"":""img/2to3/7.png"",""time"":748},{""stimulus"":""img/2to3/8.png"",""time"":856},{""stimulus"":""img/2to3/9.png"",""time"":963},{""stimulus"":""img/2to3/10.png"",""time"":1073},{""stimulus"":""img/2to3/11.png"",""time"":1180},{""stimulus"":""img/2to3/12.png"",""time"":1287}]","[]"
"","","","observe","582009dd87f6b90001f13e40","bdp_cybrbll","Mon Mar 27 2023 08:52:02 GMT-0500 (Central Daylight Time)","449388","1","3","image-keyboard-response","111","125832","0.0-5.0-1.53","","null","","img/3to2/1.png","null","172","666","0.5","0.5","3","2","",""
"","","","","582009dd87f6b90001f13e40","bdp_cybrbll","Mon Mar 27 2023 08:52:02 GMT-0500 (Central Daylight Time)","449388","1","3","animation","112","127235","0.0-5.0-2.53","","","","","","172","","","","3","2","[{""stimulus"":""img/3to2/1.png"",""time"":109},{""stimulus"":""img/3to2/2.png"",""time"":216},{""stimulus"":""img/3to2/3.png"",""time"":323},{""stimulus"":""img/3to2/4.png"",""time"":431},{""stimulus"":""img/3to2/5.png"",""time"":538},{""stimulus"":""img/3to2/6.png"",""time"":647},{""stimulus"":""img/3to2/7.png"",""time"":755},{""stimulus"":""img/3to2/8.png"",""time"":863},{""stimulus"":""img/3to2/9.png"",""time"":971},{""stimulus"":""img/3to2/10.png"",""time"":1079},{""stimulus"":""img/3to2/11.png"",""time"":1187},{""stimulus"":""img/3to2/12.png"",""time"":1295}]","[]"
"","","","choice","582009dd87f6b90001f13e40","bdp_cybrbll","Mon Mar 27 2023 08:52:02 GMT-0500 (Central Daylight Time)","449388","1","3","image-keyboard-response","113","127366","0.0-5.0-1.54","","128","","img/2to1/1.png","1","171","689","0.5","0.5","2","1","",""
"","","","","582009dd87f6b90001f13e40","bdp_cybrbll","Mon Mar 27 2023 08:52:02 GMT-0500 (Central Daylight Time)","449388","1","3","animation","114","128761","0.0-5.0-2.54","","","","","","171","","","","2","1","[{""stimulus"":""img/2to1/1.png"",""time"":100},{""stimulus"":""img/2to1/2.png"",""time"":209},{""stimulus"":""img/2to1/3.png"",""time"":316},{""stimulus"":""img/2to1/4.png"",""time"":423},{""stimulus"":""img/2to1/5.png"",""time"":532},{""stimulus"":""img/2to1/6.png"",""time"":638},{""stimulus"":""img/2to1/7.png"",""time"":747},{""stimulus"":""img/2to1/8.png"",""time"":855},{""stimulus"":""img/2to1/9.png"",""time"":963},{""stimulus"":""img/2to1/10.png"",""time"":1071},{""stimulus"":""img/2to1/11.png"",""time"":1180},{""stimulus"":""img/2to1/12.png"",""time"":1288}]","[]"
"","","","observe","582009dd87f6b90001f13e40","bdp_cybrbll","Mon Mar 27 2023 08:52:02 GMT-0500 (Central Daylight Time)","449388","1","3","image-keyboard-response","115","129686","0.0-5.0-1.55","","null","","img/1to3/1.png","null","170","911","0.5","0.5","1","2","",""
"","","","","582009dd87f6b90001f13e40","bdp_cybrbll","Mon Mar 27 2023 08:52:02 GMT-0500 (Central Daylight Time)","449388","1","3","animation","116","131089","0.0-5.0-2.55","","","","","","170","","","","1","2","[{""stimulus"":""img/1to2/1.png"",""time"":108},{""stimulus"":""img/1to2/2.png"",""time"":217},{""stimulus"":""img/1to2/3.png"",""time"":323},{""stimulus"":""img/1to2/4.png"",""time"":431},{""stimulus"":""img/1to2/5.png"",""time"":538},{""stimulus"":""img/1to2/6.png"",""time"":647},{""stimulus"":""img/1to2/7.png"",""time"":754},{""stimulus"":""img/1to2/8.png"",""time"":863},{""stimulus"":""img/1to2/9.png"",""time"":970},{""stimulus"":""img/1to2/10.png"",""time"":1079},{""stimulus"":""img/1to2/11.png"",""time"":1186},{""stimulus"":""img/1to2/12.png"",""time"":1294}]","[]"
"","","","choice","582009dd87f6b90001f13e40","bdp_cybrbll","Mon Mar 27 2023 08:52:02 GMT-0500 (Central Daylight Time)","449388","1","3","image-keyboard-response","117","131288","0.0-5.0-1.56","","195","","img/2to1/1.png","2","169","450","0.5","0.5","2","3","",""
"","","","","582009dd87f6b90001f13e40","bdp_cybrbll","Mon Mar 27 2023 08:52:02 GMT-0500 (Central Daylight Time)","449388","1","3","animation","118","132695","0.0-5.0-2.56","","","","","","169","","","","2","3","[{""stimulus"":""img/2to3/1.png"",""time"":110},{""stimulus"":""img/2to3/2.png"",""time"":219},{""stimulus"":""img/2to3/3.png"",""time"":327},{""stimulus"":""img/2to3/4.png"",""time"":435},{""stimulus"":""img/2to3/5.png"",""time"":542},{""stimulus"":""img/2to3/6.png"",""time"":650},{""stimulus"":""img/2to3/7.png"",""time"":758},{""stimulus"":""img/2to3/8.png"",""time"":865},{""stimulus"":""img/2to3/9.png"",""time"":974},{""stimulus"":""img/2to3/10.png"",""time"":1081},{""stimulus"":""img/2to3/11.png"",""time"":1192},{""stimulus"":""img/2to3/12.png"",""time"":1299}]","[]"
"","","","observe","582009dd87f6b90001f13e40","bdp_cybrbll","Mon Mar 27 2023 08:52:02 GMT-0500 (Central Daylight Time)","449388","1","3","image-keyboard-response","119","133034","0.0-5.0-1.57","","null","","img/3to2/1.png","null","168","325","0.5","0.5","3","2","",""
"","","","","582009dd87f6b90001f13e40","bdp_cybrbll","Mon Mar 27 2023 08:52:02 GMT-0500 (Central Daylight Time)","449388","1","3","animation","120","134438","0.0-5.0-2.57","","","","","","168","","","","3","2","[{""stimulus"":""img/3to2/1.png"",""time"":109},{""stimulus"":""img/3to2/2.png"",""time"":217},{""stimulus"":""img/3to2/3.png"",""time"":326},{""stimulus"":""img/3to2/4.png"",""time"":433},{""stimulus"":""img/3to2/5.png"",""time"":542},{""stimulus"":""img/3to2/6.png"",""time"":648},{""stimulus"":""img/3to2/7.png"",""time"":757},{""stimulus"":""img/3to2/8.png"",""time"":863},{""stimulus"":""img/3to2/9.png"",""time"":972},{""stimulus"":""img/3to2/10.png"",""time"":1079},{""stimulus"":""img/3to2/11.png"",""time"":1188},{""stimulus"":""img/3to2/12.png"",""time"":1296}]","[]"
"","","","choice","582009dd87f6b90001f13e40","bdp_cybrbll","Mon Mar 27 2023 08:52:02 GMT-0500 (Central Daylight Time)","449388","1","3","image-keyboard-response","121","134573","0.0-5.0-1.58","","133","","img/2to1/1.png","1","167","526","0.5","0.5","2","1","",""
"","","","","582009dd87f6b90001f13e40","bdp_cybrbll","Mon Mar 27 2023 08:52:02 GMT-0500 (Central Daylight Time)","449388","1","3","animation","122","135985","0.0-5.0-2.58","","","","","","167","","","","2","1","[{""stimulus"":""img/2to1/1.png"",""time"":114},{""stimulus"":""img/2to1/2.png"",""time"":222},{""stimulus"":""img/2to1/3.png"",""time"":331},{""stimulus"":""img/2to1/4.png"",""time"":439},{""stimulus"":""img/2to1/5.png"",""time"":547},{""stimulus"":""img/2to1/6.png"",""time"":655},{""stimulus"":""img/2to1/7.png"",""time"":764},{""stimulus"":""img/2to1/8.png"",""time"":873},{""stimulus"":""img/2to1/9.png"",""time"":981},{""stimulus"":""img/2to1/10.png"",""time"":1089},{""stimulus"":""img/2to1/11.png"",""time"":1197},{""stimulus"":""img/2to1/12.png"",""time"":1305}]","[]"
"","","","observe","582009dd87f6b90001f13e40","bdp_cybrbll","Mon Mar 27 2023 08:52:02 GMT-0500 (Central Daylight Time)","449388","1","3","image-keyboard-response","123","136340","0.0-5.0-1.59","","null","","img/1to3/1.png","null","166","353","0.5","0.5","1","3","",""
"","","","","582009dd87f6b90001f13e40","bdp_cybrbll","Mon Mar 27 2023 08:52:02 GMT-0500 (Central Daylight Time)","449388","1","3","animation","124","137743","0.0-5.0-2.59","","","","","","166","","","","1","3","[{""stimulus"":""img/1to3/1.png"",""time"":109},{""stimulus"":""img/1to3/2.png"",""time"":217},{""stimulus"":""img/1to3/3.png"",""time"":323},{""stimulus"":""img/1to3/4.png"",""time"":431},{""stimulus"":""img/1to3/5.png"",""time"":540},{""stimulus"":""img/1to3/6.png"",""time"":648},{""stimulus"":""img/1to3/7.png"",""time"":756},{""stimulus"":""img/1to3/8.png"",""time"":865},{""stimulus"":""img/1to3/9.png"",""time"":972},{""stimulus"":""img/1to3/10.png"",""time"":1080},{""stimulus"":""img/1to3/11.png"",""time"":1187},{""stimulus"":""img/1to3/12.png"",""time"":1296}]","[]"
"","","","observe","582009dd87f6b90001f13e40","bdp_cybrbll","Mon Mar 27 2023 08:52:02 GMT-0500 (Central Daylight Time)","449388","1","3","image-keyboard-response","125","138345","0.0-5.0-1.60","","null","","img/3to2/1.png","null","165","589","0.5","0.5","3","2","",""
"","","","","582009dd87f6b90001f13e40","bdp_cybrbll","Mon Mar 27 2023 08:52:02 GMT-0500 (Central Daylight Time)","449388","1","3","animation","126","139748","0.0-5.0-2.60","","","","","","165","","","","3","2","[{""stimulus"":""img/3to2/1.png"",""time"":112},{""stimulus"":""img/3to2/2.png"",""time"":216},{""stimulus"":""img/3to2/3.png"",""time"":325},{""stimulus"":""img/3to2/4.png"",""time"":433},{""stimulus"":""img/3to2/5.png"",""time"":540},{""stimulus"":""img/3to2/6.png"",""time"":647},{""stimulus"":""img/3to2/7.png"",""time"":756},{""stimulus"":""img/3to2/8.png"",""time"":863},{""stimulus"":""img/3to2/9.png"",""time"":971},{""stimulus"":""img/3to2/10.png"",""time"":1079},{""stimulus"":""img/3to2/11.png"",""time"":1186},{""stimulus"":""img/3to2/12.png"",""time"":1294}]","[]"
"","","","choice","582009dd87f6b90001f13e40","bdp_cybrbll","Mon Mar 27 2023 08:52:02 GMT-0500 (Central Daylight Time)","449388","1","3","image-keyboard-response","127","139987","0.0-5.0-1.61","","235","","img/2to1/1.png","1","164","585","0.5","0.5","2","1","",""
"","","","","582009dd87f6b90001f13e40","bdp_cybrbll","Mon Mar 27 2023 08:52:02 GMT-0500 (Central Daylight Time)","449388","1","3","animation","128","141384","0.0-5.0-2.61","","","","","","164","","","","2","1","[{""stimulus"":""img/2to1/1.png"",""time"":102},{""stimulus"":""img/2to1/2.png"",""time"":211},{""stimulus"":""img/2to1/3.png"",""time"":318},{""stimulus"":""img/2to1/4.png"",""time"":425},{""stimulus"":""img/2to1/5.png"",""time"":533},{""stimulus"":""img/2to1/6.png"",""time"":643},{""stimulus"":""img/2to1/7.png"",""time"":749},{""stimulus"":""img/2to1/8.png"",""time"":859},{""stimulus"":""img/2to1/9.png"",""time"":966},{""stimulus"":""img/2to1/10.png"",""time"":1074},{""stimulus"":""img/2to1/11.png"",""time"":1182},{""stimulus"":""img/2to1/12.png"",""time"":1291}]","[]"
"","","","observe","582009dd87f6b90001f13e40","bdp_cybrbll","Mon Mar 27 2023 08:52:02 GMT-0500 (Central Daylight Time)","449388","1","3","image-keyboard-response","129","141678","0.0-5.0-1.62","","null","","img/1to3/1.png","null","163","283","0.5","0.5","1","2","",""
"","","","","582009dd87f6b90001f13e40","bdp_cybrbll","Mon Mar 27 2023 08:52:02 GMT-0500 (Central Daylight Time)","449388","1","3","animation","130","143081","0.0-5.0-2.62","","","","","","163","","","","1","2","[{""stimulus"":""img/1to2/1.png"",""time"":108},{""stimulus"":""img/1to2/2.png"",""time"":217},{""stimulus"":""img/1to2/3.png"",""time"":324},{""stimulus"":""img/1to2/4.png"",""time"":433},{""stimulus"":""img/1to2/5.png"",""time"":540},{""stimulus"":""img/1to2/6.png"",""time"":649},{""stimulus"":""img/1to2/7.png"",""time"":757},{""stimulus"":""img/1to2/8.png"",""time"":865},{""stimulus"":""img/1to2/9.png"",""time"":973},{""stimulus"":""img/1to2/10.png"",""time"":1081},{""stimulus"":""img/1to2/11.png"",""time"":1188},{""stimulus"":""img/1to2/12.png"",""time"":1295}]","[]"
"","","","choice","582009dd87f6b90001f13e40","bdp_cybrbll","Mon Mar 27 2023 08:52:02 GMT-0500 (Central Daylight Time)","449388","1","3","image-keyboard-response","131","144019","0.0-5.0-1.63","","937","","img/2to1/1.png","2","162","555","0.5","0.5","2","3","",""
"","","","","582009dd87f6b90001f13e40","bdp_cybrbll","Mon Mar 27 2023 08:52:02 GMT-0500 (Central Daylight Time)","449388","1","3","animation","132","145427","0.0-5.0-2.63","","","","","","162","","","","2","3","[{""stimulus"":""img/2to3/1.png"",""time"":109},{""stimulus"":""img/2to3/2.png"",""time"":219},{""stimulus"":""img/2to3/3.png"",""time"":327},{""stimulus"":""img/2to3/4.png"",""time"":435},{""stimulus"":""img/2to3/5.png"",""time"":542},{""stimulus"":""img/2to3/6.png"",""time"":650},{""stimulus"":""img/2to3/7.png"",""time"":758},{""stimulus"":""img/2to3/8.png"",""time"":867},{""stimulus"":""img/2to3/9.png"",""time"":975},{""stimulus"":""img/2to3/10.png"",""time"":1084},{""stimulus"":""img/2to3/11.png"",""time"":1190},{""stimulus"":""img/2to3/12.png"",""time"":1299}]","[]"
"","","","observe","582009dd87f6b90001f13e40","bdp_cybrbll","Mon Mar 27 2023 08:52:02 GMT-0500 (Central Daylight Time)","449388","1","3","image-keyboard-response","133","146276","0.0-5.0-1.64","","null","","img/3to2/1.png","null","161","835","0.5","0.5","3","1","",""
"","","","","582009dd87f6b90001f13e40","bdp_cybrbll","Mon Mar 27 2023 08:52:02 GMT-0500 (Central Daylight Time)","449388","1","3","animation","134","147679","0.0-5.0-2.64","","","","","","161","","","","3","1","[{""stimulus"":""img/3to1/1.png"",""time"":108},{""stimulus"":""img/3to1/2.png"",""time"":217},{""stimulus"":""img/3to1/3.png"",""time"":324},{""stimulus"":""img/3to1/4.png"",""time"":434},{""stimulus"":""img/3to1/5.png"",""time"":542},{""stimulus"":""img/3to1/6.png"",""time"":650},{""stimulus"":""img/3to1/7.png"",""time"":758},{""stimulus"":""img/3to1/8.png"",""time"":866},{""stimulus"":""img/3to1/9.png"",""time"":974},{""stimulus"":""img/3to1/10.png"",""time"":1080},{""stimulus"":""img/3to1/11.png"",""time"":1189},{""stimulus"":""img/3to1/12.png"",""time"":1298}]","[]"
"","","","observe","582009dd87f6b90001f13e40","bdp_cybrbll","Mon Mar 27 2023 08:52:02 GMT-0500 (Central Daylight Time)","449388","1","3","image-keyboard-response","135","149192","0.0-5.0-1.65","","null","","img/1to3/1.png","null","160","1509","0.5","0.5","1","2","",""
"","","","","582009dd87f6b90001f13e40","bdp_cybrbll","Mon Mar 27 2023 08:52:02 GMT-0500 (Central Daylight Time)","449388","1","3","animation","136","150600","0.0-5.0-2.65","","","","","","160","","","","1","2","[{""stimulus"":""img/1to2/1.png"",""time"":109},{""stimulus"":""img/1to2/2.png"",""time"":218},{""stimulus"":""img/1to2/3.png"",""time"":326},{""stimulus"":""img/1to2/4.png"",""time"":433},{""stimulus"":""img/1to2/5.png"",""time"":542},{""stimulus"":""img/1to2/6.png"",""time"":651},{""stimulus"":""img/1to2/7.png"",""time"":758},{""stimulus"":""img/1to2/8.png"",""time"":867},{""stimulus"":""img/1to2/9.png"",""time"":975},{""stimulus"":""img/1to2/10.png"",""time"":1083},{""stimulus"":""img/1to2/11.png"",""time"":1191},{""stimulus"":""img/1to2/12.png"",""time"":1300}]","[]"
"","","","choice","582009dd87f6b90001f13e40","bdp_cybrbll","Mon Mar 27 2023 08:52:02 GMT-0500 (Central Daylight Time)","449388","1","3","image-keyboard-response","137","150843","0.0-5.0-1.66","","241","","img/2to1/1.png","2","159","415","0.5","0.5","2","3","",""
"","","","","582009dd87f6b90001f13e40","bdp_cybrbll","Mon Mar 27 2023 08:52:02 GMT-0500 (Central Daylight Time)","449388","1","3","animation","138","152249","0.0-5.0-2.66","","","","","","159","","","","2","3","[{""stimulus"":""img/2to3/1.png"",""time"":112},{""stimulus"":""img/2to3/2.png"",""time"":220},{""stimulus"":""img/2to3/3.png"",""time"":326},{""stimulus"":""img/2to3/4.png"",""time"":435},{""stimulus"":""img/2to3/5.png"",""time"":543},{""stimulus"":""img/2to3/6.png"",""time"":651},{""stimulus"":""img/2to3/7.png"",""time"":758},{""stimulus"":""img/2to3/8.png"",""time"":868},{""stimulus"":""img/2to3/9.png"",""time"":975},{""stimulus"":""img/2to3/10.png"",""time"":1082},{""stimulus"":""img/2to3/11.png"",""time"":1190},{""stimulus"":""img/2to3/12.png"",""time"":1300}]","[]"
"","","","observe","582009dd87f6b90001f13e40","bdp_cybrbll","Mon Mar 27 2023 08:52:02 GMT-0500 (Central Daylight Time)","449388","1","3","image-keyboard-response","139","152850","0.0-5.0-1.67","","null","","img/3to2/1.png","null","158","599","0.5","0.5","3","2","",""
"","","","","582009dd87f6b90001f13e40","bdp_cybrbll","Mon Mar 27 2023 08:52:02 GMT-0500 (Central Daylight Time)","449388","1","3","animation","140","154256","0.0-5.0-2.67","","","","","","158","","","","3","2","[{""stimulus"":""img/3to2/1.png"",""time"":109},{""stimulus"":""img/3to2/2.png"",""time"":218},{""stimulus"":""img/3to2/3.png"",""time"":326},{""stimulus"":""img/3to2/4.png"",""time"":434},{""stimulus"":""img/3to2/5.png"",""time"":542},{""stimulus"":""img/3to2/6.png"",""time"":650},{""stimulus"":""img/3to2/7.png"",""time"":758},{""stimulus"":""img/3to2/8.png"",""time"":867},{""stimulus"":""img/3to2/9.png"",""time"":975},{""stimulus"":""img/3to2/10.png"",""time"":1082},{""stimulus"":""img/3to2/11.png"",""time"":1191},{""stimulus"":""img/3to2/12.png"",""time"":1299}]","[]"
"","","","choice","582009dd87f6b90001f13e40","bdp_cybrbll","Mon Mar 27 2023 08:52:02 GMT-0500 (Central Daylight Time)","449388","1","3","image-keyboard-response","141","154285","0.0-5.0-1.68","","26","","img/2to1/1.png","1","157","415","0.5","0.5","2","1","",""
"","","","","582009dd87f6b90001f13e40","bdp_cybrbll","Mon Mar 27 2023 08:52:02 GMT-0500 (Central Daylight Time)","449388","1","3","animation","142","155691","0.0-5.0-2.68","","","","","","157","","","","2","1","[{""stimulus"":""img/2to1/1.png"",""time"":109},{""stimulus"":""img/2to1/2.png"",""time"":217},{""stimulus"":""img/2to1/3.png"",""time"":325},{""stimulus"":""img/2to1/4.png"",""time"":433},{""stimulus"":""img/2to1/5.png"",""time"":541},{""stimulus"":""img/2to1/6.png"",""time"":650},{""stimulus"":""img/2to1/7.png"",""time"":759},{""stimulus"":""img/2to1/8.png"",""time"":867},{""stimulus"":""img/2to1/9.png"",""time"":974},{""stimulus"":""img/2to1/10.png"",""time"":1082},{""stimulus"":""img/2to1/11.png"",""time"":1191},{""stimulus"":""img/2to1/12.png"",""time"":1299}]","[]"
"","","","observe","582009dd87f6b90001f13e40","bdp_cybrbll","Mon Mar 27 2023 08:52:02 GMT-0500 (Central Daylight Time)","449388","1","3","image-keyboard-response","143","155846","0.0-5.0-1.69","","null","","img/1to3/1.png","null","156","144","0.5","0.5","1","2","",""
"","","","","582009dd87f6b90001f13e40","bdp_cybrbll","Mon Mar 27 2023 08:52:02 GMT-0500 (Central Daylight Time)","449388","1","3","animation","144","157247","0.0-5.0-2.69","","","","","","156","","","","1","2","[{""stimulus"":""img/1to2/1.png"",""time"":107},{""stimulus"":""img/1to2/2.png"",""time"":216},{""stimulus"":""img/1to2/3.png"",""time"":322},{""stimulus"":""img/1to2/4.png"",""time"":431},{""stimulus"":""img/1to2/5.png"",""time"":538},{""stimulus"":""img/1to2/6.png"",""time"":647},{""stimulus"":""img/1to2/7.png"",""time"":754},{""stimulus"":""img/1to2/8.png"",""time"":863},{""stimulus"":""img/1to2/9.png"",""time"":969},{""stimulus"":""img/1to2/10.png"",""time"":1078},{""stimulus"":""img/1to2/11.png"",""time"":1186},{""stimulus"":""img/1to2/12.png"",""time"":1293}]","[]"
"","","","choice","582009dd87f6b90001f13e40","bdp_cybrbll","Mon Mar 27 2023 08:52:02 GMT-0500 (Central Daylight Time)","449388","1","3","image-keyboard-response","145","157439","0.0-5.0-1.70","","190","","img/2to1/1.png","2","155","303","0.5","0.5","2","3","",""
"","","","","582009dd87f6b90001f13e40","bdp_cybrbll","Mon Mar 27 2023 08:52:02 GMT-0500 (Central Daylight Time)","449388","1","3","animation","146","158832","0.0-5.0-2.70","","","","","","155","","","","2","3","[{""stimulus"":""img/2to3/1.png"",""time"":101},{""stimulus"":""img/2to3/2.png"",""time"":208},{""stimulus"":""img/2to3/3.png"",""time"":316},{""stimulus"":""img/2to3/4.png"",""time"":425},{""stimulus"":""img/2to3/5.png"",""time"":532},{""stimulus"":""img/2to3/6.png"",""time"":639},{""stimulus"":""img/2to3/7.png"",""time"":747},{""stimulus"":""img/2to3/8.png"",""time"":854},{""stimulus"":""img/2to3/9.png"",""time"":962},{""stimulus"":""img/2to3/10.png"",""time"":1071},{""stimulus"":""img/2to3/11.png"",""time"":1180},{""stimulus"":""img/2to3/12.png"",""time"":1287}]","[]"
"","","","observe","582009dd87f6b90001f13e40","bdp_cybrbll","Mon Mar 27 2023 08:52:02 GMT-0500 (Central Daylight Time)","449388","1","3","image-keyboard-response","147","159759","0.0-5.0-1.71","","null","","img/3to2/1.png","null","154","919","0.5","0.5","3","1","",""
"","","","","582009dd87f6b90001f13e40","bdp_cybrbll","Mon Mar 27 2023 08:52:02 GMT-0500 (Central Daylight Time)","449388","1","3","animation","148","161162","0.0-5.0-2.71","","","","","","154","","","","3","1","[{""stimulus"":""img/3to1/1.png"",""time"":109},{""stimulus"":""img/3to1/2.png"",""time"":216},{""stimulus"":""img/3to1/3.png"",""time"":324},{""stimulus"":""img/3to1/4.png"",""time"":434},{""stimulus"":""img/3to1/5.png"",""time"":540},{""stimulus"":""img/3to1/6.png"",""time"":647},{""stimulus"":""img/3to1/7.png"",""time"":755},{""stimulus"":""img/3to1/8.png"",""time"":864},{""stimulus"":""img/3to1/9.png"",""time"":971},{""stimulus"":""img/3to1/10.png"",""time"":1078},{""stimulus"":""img/3to1/11.png"",""time"":1188},{""stimulus"":""img/3to1/12.png"",""time"":1295}]","[]"
"","","","observe","582009dd87f6b90001f13e40","bdp_cybrbll","Mon Mar 27 2023 08:52:02 GMT-0500 (Central Daylight Time)","449388","1","3","image-keyboard-response","149","161577","0.0-5.0-1.72","","null","","img/1to3/1.png","null","153","413","0.5","0.5","1","3","",""
"","","","","582009dd87f6b90001f13e40","bdp_cybrbll","Mon Mar 27 2023 08:52:02 GMT-0500 (Central Daylight Time)","449388","1","3","animation","150","162981","0.0-5.0-2.72","","","","","","153","","","","1","3","[{""stimulus"":""img/1to3/1.png"",""time"":111},{""stimulus"":""img/1to3/2.png"",""time"":217},{""stimulus"":""img/1to3/3.png"",""time"":325},{""stimulus"":""img/1to3/4.png"",""time"":433},{""stimulus"":""img/1to3/5.png"",""time"":540},{""stimulus"":""img/1to3/6.png"",""time"":649},{""stimulus"":""img/1to3/7.png"",""time"":757},{""stimulus"":""img/1to3/8.png"",""time"":866},{""stimulus"":""img/1to3/9.png"",""time"":973},{""stimulus"":""img/1to3/10.png"",""time"":1081},{""stimulus"":""img/1to3/11.png"",""time"":1190},{""stimulus"":""img/1to3/12.png"",""time"":1296}]","[]"
"","","","observe","582009dd87f6b90001f13e40","bdp_cybrbll","Mon Mar 27 2023 08:52:02 GMT-0500 (Central Daylight Time)","449388","1","3","image-keyboard-response","151","163861","0.0-5.0-1.73","","null","","img/3to2/1.png","null","152","878","0.5","0.5","3","2","",""
"","","","","582009dd87f6b90001f13e40","bdp_cybrbll","Mon Mar 27 2023 08:52:02 GMT-0500 (Central Daylight Time)","449388","1","3","animation","152","165264","0.0-5.0-2.73","","","","","","152","","","","3","2","[{""stimulus"":""img/3to2/1.png"",""time"":109},{""stimulus"":""img/3to2/2.png"",""time"":217},{""stimulus"":""img/3to2/3.png"",""time"":326},{""stimulus"":""img/3to2/4.png"",""time"":433},{""stimulus"":""img/3to2/5.png"",""time"":540},{""stimulus"":""img/3to2/6.png"",""time"":649},{""stimulus"":""img/3to2/7.png"",""time"":757},{""stimulus"":""img/3to2/8.png"",""time"":865},{""stimulus"":""img/3to2/9.png"",""time"":971},{""stimulus"":""img/3to2/10.png"",""time"":1080},{""stimulus"":""img/3to2/11.png"",""time"":1189},{""stimulus"":""img/3to2/12.png"",""time"":1296}]","[]"
"","","","choice","582009dd87f6b90001f13e40","bdp_cybrbll","Mon Mar 27 2023 08:52:02 GMT-0500 (Central Daylight Time)","449388","1","3","image-keyboard-response","153","165825","0.0-5.0-1.74","","559","","img/2to1/1.png","1","151","391","0.5","0.5","2","1","",""
"","","","","582009dd87f6b90001f13e40","bdp_cybrbll","Mon Mar 27 2023 08:52:02 GMT-0500 (Central Daylight Time)","449388","1","3","animation","154","167226","0.0-5.0-2.74","","","","","","151","","","","2","1","[{""stimulus"":""img/2to1/1.png"",""time"":104},{""stimulus"":""img/2to1/2.png"",""time"":210},{""stimulus"":""img/2to1/3.png"",""time"":319},{""stimulus"":""img/2to1/4.png"",""time"":428},{""stimulus"":""img/2to1/5.png"",""time"":536},{""stimulus"":""img/2to1/6.png"",""time"":643},{""stimulus"":""img/2to1/7.png"",""time"":752},{""stimulus"":""img/2to1/8.png"",""time"":860},{""stimulus"":""img/2to1/9.png"",""time"":968},{""stimulus"":""img/2to1/10.png"",""time"":1076},{""stimulus"":""img/2to1/11.png"",""time"":1184},{""stimulus"":""img/2to1/12.png"",""time"":1292}]","[]"
"","","","observe","582009dd87f6b90001f13e40","bdp_cybrbll","Mon Mar 27 2023 08:52:02 GMT-0500 (Central Daylight Time)","449388","1","3","image-keyboard-response","155","167826","0.0-5.0-1.75","","null","","img/1to3/1.png","null","150","597","0.5","0.5","1","3","",""
"","","","","582009dd87f6b90001f13e40","bdp_cybrbll","Mon Mar 27 2023 08:52:02 GMT-0500 (Central Daylight Time)","449388","1","3","animation","156","169228","0.0-5.0-2.75","","","","","","150","","","","1","3","[{""stimulus"":""img/1to3/1.png"",""time"":107},{""stimulus"":""img/1to3/2.png"",""time"":216},{""stimulus"":""img/1to3/3.png"",""time"":324},{""stimulus"":""img/1to3/4.png"",""time"":432},{""stimulus"":""img/1to3/5.png"",""time"":540},{""stimulus"":""img/1to3/6.png"",""time"":647},{""stimulus"":""img/1to3/7.png"",""time"":757},{""stimulus"":""img/1to3/8.png"",""time"":863},{""stimulus"":""img/1to3/9.png"",""time"":971},{""stimulus"":""img/1to3/10.png"",""time"":1080},{""stimulus"":""img/1to3/11.png"",""time"":1187},{""stimulus"":""img/1to3/12.png"",""time"":1295}]","[]"
"","","","observe","582009dd87f6b90001f13e40","bdp_cybrbll","Mon Mar 27 2023 08:52:02 GMT-0500 (Central Daylight Time)","449388","1","3","image-keyboard-response","157","169862","0.0-5.0-1.76","","null","","img/3to2/1.png","null","149","627","0.5","0.1","3","1","",""
"","","","","582009dd87f6b90001f13e40","bdp_cybrbll","Mon Mar 27 2023 08:52:02 GMT-0500 (Central Daylight Time)","449388","1","3","animation","158","171267","0.0-5.0-2.76","","","","","","149","","","","3","1","[{""stimulus"":""img/3to1/1.png"",""time"":109},{""stimulus"":""img/3to1/2.png"",""time"":218},{""stimulus"":""img/3to1/3.png"",""time"":326},{""stimulus"":""img/3to1/4.png"",""time"":433},{""stimulus"":""img/3to1/5.png"",""time"":541},{""stimulus"":""img/3to1/6.png"",""time"":648},{""stimulus"":""img/3to1/7.png"",""time"":757},{""stimulus"":""img/3to1/8.png"",""time"":865},{""stimulus"":""img/3to1/9.png"",""time"":972},{""stimulus"":""img/3to1/10.png"",""time"":1081},{""stimulus"":""img/3to1/11.png"",""time"":1189},{""stimulus"":""img/3to1/12.png"",""time"":1297}]","[]"
"","","","observe","582009dd87f6b90001f13e40","bdp_cybrbll","Mon Mar 27 2023 08:52:02 GMT-0500 (Central Daylight Time)","449388","1","3","image-keyboard-response","159","172406","0.0-5.0-1.77","","null","","img/1to3/1.png","null","148","1137","0.5","0.1","1","2","",""
"","","","","582009dd87f6b90001f13e40","bdp_cybrbll","Mon Mar 27 2023 08:52:02 GMT-0500 (Central Daylight Time)","449388","1","3","animation","160","173810","0.0-5.0-2.77","","","","","","148","","","","1","2","[{""stimulus"":""img/1to2/1.png"",""time"":109},{""stimulus"":""img/1to2/2.png"",""time"":217},{""stimulus"":""img/1to2/3.png"",""time"":327},{""stimulus"":""img/1to2/4.png"",""time"":433},{""stimulus"":""img/1to2/5.png"",""time"":542},{""stimulus"":""img/1to2/6.png"",""time"":651},{""stimulus"":""img/1to2/7.png"",""time"":757},{""stimulus"":""img/1to2/8.png"",""time"":866},{""stimulus"":""img/1to2/9.png"",""time"":973},{""stimulus"":""img/1to2/10.png"",""time"":1080},{""stimulus"":""img/1to2/11.png"",""time"":1188},{""stimulus"":""img/1to2/12.png"",""time"":1296}]","[]"
"","","","choice","582009dd87f6b90001f13e40","bdp_cybrbll","Mon Mar 27 2023 08:52:02 GMT-0500 (Central Daylight Time)","449388","1","3","image-keyboard-response","161","176366","0.0-5.0-1.78","","2554","","img/2to1/1.png","2","147","384","0.5","0.1","2","3","",""
"","","","","582009dd87f6b90001f13e40","bdp_cybrbll","Mon Mar 27 2023 08:52:02 GMT-0500 (Central Daylight Time)","449388","1","3","animation","162","177776","0.0-5.0-2.78","","","","","","147","","","","2","3","[{""stimulus"":""img/2to3/1.png"",""time"":113},{""stimulus"":""img/2to3/2.png"",""time"":220},{""stimulus"":""img/2to3/3.png"",""time"":328},{""stimulus"":""img/2to3/4.png"",""time"":436},{""stimulus"":""img/2to3/5.png"",""time"":545},{""stimulus"":""img/2to3/6.png"",""time"":652},{""stimulus"":""img/2to3/7.png"",""time"":762},{""stimulus"":""img/2to3/8.png"",""time"":870},{""stimulus"":""img/2to3/9.png"",""time"":978},{""stimulus"":""img/2to3/10.png"",""time"":1086},{""stimulus"":""img/2to3/11.png"",""time"":1194},{""stimulus"":""img/2to3/12.png"",""time"":1302}]","[]"
"","","","observe","582009dd87f6b90001f13e40","bdp_cybrbll","Mon Mar 27 2023 08:52:02 GMT-0500 (Central Daylight Time)","449388","1","3","image-keyboard-response","163","178408","0.0-5.0-1.79","","null","","img/3to2/1.png","null","146","628","0.5","0.1","3","1","",""
"","","","","582009dd87f6b90001f13e40","bdp_cybrbll","Mon Mar 27 2023 08:52:02 GMT-0500 (Central Daylight Time)","449388","1","3","animation","164","179810","0.0-5.0-2.79","","","","","","146","","","","3","1","[{""stimulus"":""img/3to1/1.png"",""time"":109},{""stimulus"":""img/3to1/2.png"",""time"":216},{""stimulus"":""img/3to1/3.png"",""time"":324},{""stimulus"":""img/3to1/4.png"",""time"":432},{""stimulus"":""img/3to1/5.png"",""time"":541},{""stimulus"":""img/3to1/6.png"",""time"":646},{""stimulus"":""img/3to1/7.png"",""time"":755},{""stimulus"":""img/3to1/8.png"",""time"":863},{""stimulus"":""img/3to1/9.png"",""time"":971},{""stimulus"":""img/3to1/10.png"",""time"":1079},{""stimulus"":""img/3to1/11.png"",""time"":1188},{""stimulus"":""img/3to1/12.png"",""time"":1292}]","[]"
"","","","observe","582009dd87f6b90001f13e40","bdp_cybrbll","Mon Mar 27 2023 08:52:02 GMT-0500 (Central Daylight Time)","449388","1","3","image-keyboard-response","165","179963","0.0-5.0-1.80","","null","","img/1to3/1.png","null","145","144","0.5","0.1","1","3","",""
"","","","","582009dd87f6b90001f13e40","bdp_cybrbll","Mon Mar 27 2023 08:52:02 GMT-0500 (Central Daylight Time)","449388","1","3","animation","166","181369","0.0-5.0-2.80","","","","","","145","","","","1","3","[{""stimulus"":""img/1to3/1.png"",""time"":108},{""stimulus"":""img/1to3/2.png"",""time"":218},{""stimulus"":""img/1to3/3.png"",""time"":327},{""stimulus"":""img/1to3/4.png"",""time"":434},{""stimulus"":""img/1to3/5.png"",""time"":541},{""stimulus"":""img/1to3/6.png"",""time"":651},{""stimulus"":""img/1to3/7.png"",""time"":758},{""stimulus"":""img/1to3/8.png"",""time"":864},{""stimulus"":""img/1to3/9.png"",""time"":972},{""stimulus"":""img/1to3/10.png"",""time"":1080},{""stimulus"":""img/1to3/11.png"",""time"":1189},{""stimulus"":""img/1to3/12.png"",""time"":1297}]","[]"
"","","","observe","582009dd87f6b90001f13e40","bdp_cybrbll","Mon Mar 27 2023 08:52:02 GMT-0500 (Central Daylight Time)","449388","1","3","image-keyboard-response","167","181849","0.0-5.0-1.81","","null","","img/3to2/1.png","null","144","474","0.5","0.1","3","1","",""
"","","","","582009dd87f6b90001f13e40","bdp_cybrbll","Mon Mar 27 2023 08:52:02 GMT-0500 (Central Daylight Time)","449388","1","3","animation","168","183255","0.0-5.0-2.81","","","","","","144","","","","3","1","[{""stimulus"":""img/3to1/1.png"",""time"":109},{""stimulus"":""img/3to1/2.png"",""time"":217},{""stimulus"":""img/3to1/3.png"",""time"":325},{""stimulus"":""img/3to1/4.png"",""time"":432},{""stimulus"":""img/3to1/5.png"",""time"":541},{""stimulus"":""img/3to1/6.png"",""time"":650},{""stimulus"":""img/3to1/7.png"",""time"":758},{""stimulus"":""img/3to1/8.png"",""time"":866},{""stimulus"":""img/3to1/9.png"",""time"":975},{""stimulus"":""img/3to1/10.png"",""time"":1084},{""stimulus"":""img/3to1/11.png"",""time"":1189},{""stimulus"":""img/3to1/12.png"",""time"":1299}]","[]"
"","","","observe","582009dd87f6b90001f13e40","bdp_cybrbll","Mon Mar 27 2023 08:52:02 GMT-0500 (Central Daylight Time)","449388","1","3","image-keyboard-response","169","183578","0.0-5.0-1.82","","null","","img/1to3/1.png","null","143","321","0.5","0.1","1","2","",""
"","","","","582009dd87f6b90001f13e40","bdp_cybrbll","Mon Mar 27 2023 08:52:02 GMT-0500 (Central Daylight Time)","449388","1","3","animation","170","184985","0.0-5.0-2.82","","","","","","143","","","","1","2","[{""stimulus"":""img/1to2/1.png"",""time"":109},{""stimulus"":""img/1to2/2.png"",""time"":214},{""stimulus"":""img/1to2/3.png"",""time"":324},{""stimulus"":""img/1to2/4.png"",""time"":433},{""stimulus"":""img/1to2/5.png"",""time"":540},{""stimulus"":""img/1to2/6.png"",""time"":648},{""stimulus"":""img/1to2/7.png"",""time"":757},{""stimulus"":""img/1to2/8.png"",""time"":866},{""stimulus"":""img/1to2/9.png"",""time"":975},{""stimulus"":""img/1to2/10.png"",""time"":1084},{""stimulus"":""img/1to2/11.png"",""time"":1190},{""stimulus"":""img/1to2/12.png"",""time"":1298}]","[]"
"","","","choice","582009dd87f6b90001f13e40","bdp_cybrbll","Mon Mar 27 2023 08:52:02 GMT-0500 (Central Daylight Time)","449388","1","3","image-keyboard-response","171","186319","0.0-5.0-1.83","","1332","","img/2to1/1.png","2","142","283","0.5","0.1","2","3","",""
"","","","","582009dd87f6b90001f13e40","bdp_cybrbll","Mon Mar 27 2023 08:52:02 GMT-0500 (Central Daylight Time)","449388","1","3","animation","172","187720","0.0-5.0-2.83","","","","","","142","","","","2","3","[{""stimulus"":""img/2to3/1.png"",""time"":104},{""stimulus"":""img/2to3/2.png"",""time"":213},{""stimulus"":""img/2to3/3.png"",""time"":322},{""stimulus"":""img/2to3/4.png"",""time"":429},{""stimulus"":""img/2to3/5.png"",""time"":536},{""stimulus"":""img/2to3/6.png"",""time"":644},{""stimulus"":""img/2to3/7.png"",""time"":753},{""stimulus"":""img/2to3/8.png"",""time"":861},{""stimulus"":""img/2to3/9.png"",""time"":970},{""stimulus"":""img/2to3/10.png"",""time"":1077},{""stimulus"":""img/2to3/11.png"",""time"":1187},{""stimulus"":""img/2to3/12.png"",""time"":1294}]","[]"
"","","","observe","582009dd87f6b90001f13e40","bdp_cybrbll","Mon Mar 27 2023 08:52:02 GMT-0500 (Central Daylight Time)","449388","1","3","image-keyboard-response","173","188043","0.0-5.0-1.84","","null","","img/3to2/1.png","null","141","319","0.5","0.1","3","1","",""
"","","","","582009dd87f6b90001f13e40","bdp_cybrbll","Mon Mar 27 2023 08:52:02 GMT-0500 (Central Daylight Time)","449388","1","3","animation","174","189446","0.0-5.0-2.84","","","","","","141","","","","3","1","[{""stimulus"":""img/3to1/1.png"",""time"":108},{""stimulus"":""img/3to1/2.png"",""time"":216},{""stimulus"":""img/3to1/3.png"",""time"":325},{""stimulus"":""img/3to1/4.png"",""time"":432},{""stimulus"":""img/3to1/5.png"",""time"":541},{""stimulus"":""img/3to1/6.png"",""time"":648},{""stimulus"":""img/3to1/7.png"",""time"":755},{""stimulus"":""img/3to1/8.png"",""time"":862},{""stimulus"":""img/3to1/9.png"",""time"":971},{""stimulus"":""img/3to1/10.png"",""time"":1079},{""stimulus"":""img/3to1/11.png"",""time"":1187},{""stimulus"":""img/3to1/12.png"",""time"":1294}]","[]"
"","","","observe","582009dd87f6b90001f13e40","bdp_cybrbll","Mon Mar 27 2023 08:52:02 GMT-0500 (Central Daylight Time)","449388","1","3","image-keyboard-response","175","189723","0.0-5.0-1.85","","null","","img/1to3/1.png","null","140","265","0.5","0.1","1","2","",""
"","","","","582009dd87f6b90001f13e40","bdp_cybrbll","Mon Mar 27 2023 08:52:02 GMT-0500 (Central Daylight Time)","449388","1","3","animation","176","191128","0.0-5.0-2.85","","","","","","140","","","","1","2","[{""stimulus"":""img/1to2/1.png"",""time"":110},{""stimulus"":""img/1to2/2.png"",""time"":216},{""stimulus"":""img/1to2/3.png"",""time"":324},{""stimulus"":""img/1to2/4.png"",""time"":433},{""stimulus"":""img/1to2/5.png"",""time"":540},{""stimulus"":""img/1to2/6.png"",""time"":649},{""stimulus"":""img/1to2/7.png"",""time"":758},{""stimulus"":""img/1to2/8.png"",""time"":867},{""stimulus"":""img/1to2/9.png"",""time"":974},{""stimulus"":""img/1to2/10.png"",""time"":1082},{""stimulus"":""img/1to2/11.png"",""time"":1191},{""stimulus"":""img/1to2/12.png"",""time"":1298}]","[]"
"","","","choice","582009dd87f6b90001f13e40","bdp_cybrbll","Mon Mar 27 2023 08:52:02 GMT-0500 (Central Daylight Time)","449388","1","3","image-keyboard-response","177","191923","0.0-5.0-1.86","","795","","img/2to1/1.png","2","139","1175","0.5","0.1","2","3","",""
"","","","","582009dd87f6b90001f13e40","bdp_cybrbll","Mon Mar 27 2023 08:52:02 GMT-0500 (Central Daylight Time)","449388","1","3","animation","178","193334","0.0-5.0-2.86","","","","","","139","","","","2","3","[{""stimulus"":""img/2to3/1.png"",""time"":113},{""stimulus"":""img/2to3/2.png"",""time"":222},{""stimulus"":""img/2to3/3.png"",""time"":330},{""stimulus"":""img/2to3/4.png"",""time"":437},{""stimulus"":""img/2to3/5.png"",""time"":544},{""stimulus"":""img/2to3/6.png"",""time"":654},{""stimulus"":""img/2to3/7.png"",""time"":761},{""stimulus"":""img/2to3/8.png"",""time"":870},{""stimulus"":""img/2to3/9.png"",""time"":977},{""stimulus"":""img/2to3/10.png"",""time"":1086},{""stimulus"":""img/2to3/11.png"",""time"":1195},{""stimulus"":""img/2to3/12.png"",""time"":1302}]","[]"
"","","","observe","582009dd87f6b90001f13e40","bdp_cybrbll","Mon Mar 27 2023 08:52:02 GMT-0500 (Central Daylight Time)","449388","1","3","image-keyboard-response","179","193657","0.0-5.0-1.87","","null","","img/3to2/1.png","null","138","309","0.5","0.1","3","1","",""
"","","","","582009dd87f6b90001f13e40","bdp_cybrbll","Mon Mar 27 2023 08:52:02 GMT-0500 (Central Daylight Time)","449388","1","3","animation","180","195062","0.0-5.0-2.87","","","","","","138","","","","3","1","[{""stimulus"":""img/3to1/1.png"",""time"":108},{""stimulus"":""img/3to1/2.png"",""time"":215},{""stimulus"":""img/3to1/3.png"",""time"":325},{""stimulus"":""img/3to1/4.png"",""time"":432},{""stimulus"":""img/3to1/5.png"",""time"":540},{""stimulus"":""img/3to1/6.png"",""time"":647},{""stimulus"":""img/3to1/7.png"",""time"":754},{""stimulus"":""img/3to1/8.png"",""time"":862},{""stimulus"":""img/3to1/9.png"",""time"":971},{""stimulus"":""img/3to1/10.png"",""time"":1080},{""stimulus"":""img/3to1/11.png"",""time"":1188},{""stimulus"":""img/3to1/12.png"",""time"":1295}]","[]"
"","","","observe","582009dd87f6b90001f13e40","bdp_cybrbll","Mon Mar 27 2023 08:52:02 GMT-0500 (Central Daylight Time)","449388","1","3","image-keyboard-response","181","195355","0.0-5.0-1.88","","null","","img/1to3/1.png","null","137","290","0.5","0.1","1","3","",""
"","","","","582009dd87f6b90001f13e40","bdp_cybrbll","Mon Mar 27 2023 08:52:02 GMT-0500 (Central Daylight Time)","449388","1","3","animation","182","196761","0.0-5.0-2.88","","","","","","137","","","","1","3","[{""stimulus"":""img/1to3/1.png"",""time"":110},{""stimulus"":""img/1to3/2.png"",""time"":216},{""stimulus"":""img/1to3/3.png"",""time"":325},{""stimulus"":""img/1to3/4.png"",""time"":433},{""stimulus"":""img/1to3/5.png"",""time"":542},{""stimulus"":""img/1to3/6.png"",""time"":649},{""stimulus"":""img/1to3/7.png"",""time"":757},{""stimulus"":""img/1to3/8.png"",""time"":867},{""stimulus"":""img/1to3/9.png"",""time"":974},{""stimulus"":""img/1to3/10.png"",""time"":1081},{""stimulus"":""img/1to3/11.png"",""time"":1190},{""stimulus"":""img/1to3/12.png"",""time"":1298}]","[]"
"","","","observe","582009dd87f6b90001f13e40","bdp_cybrbll","Mon Mar 27 2023 08:52:02 GMT-0500 (Central Daylight Time)","449388","1","3","image-keyboard-response","183","197283","0.0-5.0-1.89","","null","","img/3to2/1.png","null","136","509","0.5","0.1","3","1","",""
"","","","","582009dd87f6b90001f13e40","bdp_cybrbll","Mon Mar 27 2023 08:52:02 GMT-0500 (Central Daylight Time)","449388","1","3","animation","184","198689","0.0-5.0-2.89","","","","","","136","","","","3","1","[{""stimulus"":""img/3to1/1.png"",""time"":109},{""stimulus"":""img/3to1/2.png"",""time"":217},{""stimulus"":""img/3to1/3.png"",""time"":324},{""stimulus"":""img/3to1/4.png"",""time"":433},{""stimulus"":""img/3to1/5.png"",""time"":541},{""stimulus"":""img/3to1/6.png"",""time"":649},{""stimulus"":""img/3to1/7.png"",""time"":756},{""stimulus"":""img/3to1/8.png"",""time"":866},{""stimulus"":""img/3to1/9.png"",""time"":972},{""stimulus"":""img/3to1/10.png"",""time"":1082},{""stimulus"":""img/3to1/11.png"",""time"":1190},{""stimulus"":""img/3to1/12.png"",""time"":1298}]","[]"
"","","","observe","582009dd87f6b90001f13e40","bdp_cybrbll","Mon Mar 27 2023 08:52:02 GMT-0500 (Central Daylight Time)","449388","1","3","image-keyboard-response","185","200261","0.0-5.0-1.90","","null","","img/1to3/1.png","null","135","1564","0.5","0.1","1","2","",""
"","","","","582009dd87f6b90001f13e40","bdp_cybrbll","Mon Mar 27 2023 08:52:02 GMT-0500 (Central Daylight Time)","449388","1","3","animation","186","201664","0.0-5.0-2.90","","","","","","135","","","","1","2","[{""stimulus"":""img/1to2/1.png"",""time"":107},{""stimulus"":""img/1to2/2.png"",""time"":217},{""stimulus"":""img/1to2/3.png"",""time"":325},{""stimulus"":""img/1to2/4.png"",""time"":433},{""stimulus"":""img/1to2/5.png"",""time"":540},{""stimulus"":""img/1to2/6.png"",""time"":647},{""stimulus"":""img/1to2/7.png"",""time"":755},{""stimulus"":""img/1to2/8.png"",""time"":864},{""stimulus"":""img/1to2/9.png"",""time"":973},{""stimulus"":""img/1to2/10.png"",""time"":1080},{""stimulus"":""img/1to2/11.png"",""time"":1190},{""stimulus"":""img/1to2/12.png"",""time"":1296}]","[]"
"","","","choice","582009dd87f6b90001f13e40","bdp_cybrbll","Mon Mar 27 2023 08:52:02 GMT-0500 (Central Daylight Time)","449388","1","3","image-keyboard-response","187","201836","0.0-5.0-1.91","","170","","img/2to1/1.png","2","134","289","0.5","0.1","2","3","",""
"","","","","582009dd87f6b90001f13e40","bdp_cybrbll","Mon Mar 27 2023 08:52:02 GMT-0500 (Central Daylight Time)","449388","1","3","animation","188","203241","0.0-5.0-2.91","","","","","","134","","","","2","3","[{""stimulus"":""img/2to3/1.png"",""time"":108},{""stimulus"":""img/2to3/2.png"",""time"":216},{""stimulus"":""img/2to3/3.png"",""time"":324},{""stimulus"":""img/2to3/4.png"",""time"":431},{""stimulus"":""img/2to3/5.png"",""time"":541},{""stimulus"":""img/2to3/6.png"",""time"":648},{""stimulus"":""img/2to3/7.png"",""time"":757},{""stimulus"":""img/2to3/8.png"",""time"":866},{""stimulus"":""img/2to3/9.png"",""time"":975},{""stimulus"":""img/2to3/10.png"",""time"":1082},{""stimulus"":""img/2to3/11.png"",""time"":1192},{""stimulus"":""img/2to3/12.png"",""time"":1297}]","[]"
"","","","observe","582009dd87f6b90001f13e40","bdp_cybrbll","Mon Mar 27 2023 08:52:02 GMT-0500 (Central Daylight Time)","449388","1","3","image-keyboard-response","189","203502","0.0-5.0-1.92","","null","","img/3to2/1.png","null","133","254","0.5","0.1","3","1","",""
"","","","","582009dd87f6b90001f13e40","bdp_cybrbll","Mon Mar 27 2023 08:52:02 GMT-0500 (Central Daylight Time)","449388","1","3","animation","190","204904","0.0-5.0-2.92","","","","","","133","","","","3","1","[{""stimulus"":""img/3to1/1.png"",""time"":109},{""stimulus"":""img/3to1/2.png"",""time"":214},{""stimulus"":""img/3to1/3.png"",""time"":323},{""stimulus"":""img/3to1/4.png"",""time"":432},{""stimulus"":""img/3to1/5.png"",""time"":539},{""stimulus"":""img/3to1/6.png"",""time"":646},{""stimulus"":""img/3to1/7.png"",""time"":754},{""stimulus"":""img/3to1/8.png"",""time"":861},{""stimulus"":""img/3to1/9.png"",""time"":969},{""stimulus"":""img/3to1/10.png"",""time"":1078},{""stimulus"":""img/3to1/11.png"",""time"":1187},{""stimulus"":""img/3to1/12.png"",""time"":1295}]","[]"
