"event","trial","time","trialtype","subject_id","task","startTime","totalTime","fairPartner","unfairPartner","trial_type","trial_index","time_elapsed","internal_node_id","view_history","rt","success","stimulus","key_press","throwsLeft","rtDur","pFair","pUnfair","holder","receiver","animation_sequence","responses"
"focus","0","0","focusevent","63d13bce0971871b9ff88f56","bdp_cybrbll","Sun Mar 26 2023 10:29:17 GMT-0400 (Eastern Daylight Time)","421126","3","1","","","","","","","","","","","","","","","","",""
"","","","","63d13bce0971871b9ff88f56","bdp_cybrbll","Sun Mar 26 2023 10:29:17 GMT-0400 (Eastern Daylight Time)","421126","3","1","pavlovia","0","2","0.0-0.0","","","","","","","","","","","","",""
"","","","","63d13bce0971871b9ff88f56","bdp_cybrbll","Sun Mar 26 2023 10:29:17 GMT-0400 (Eastern Daylight Time)","421126","3","1","instructions","1","1454","0.0-1.0","[{""page_index"":0,""viewing_time"":1452}]","1452","","","","","","","","","","",""
"fullscreenexit","2","3309","fullscreenexit","63d13bce0971871b9ff88f56","bdp_cybrbll","Sun Mar 26 2023 10:29:17 GMT-0400 (Eastern Daylight Time)","421126","3","1","","","","","","","","","","","","","","","","",""
"","","","","63d13bce0971871b9ff88f56","bdp_cybrbll","Sun Mar 26 2023 10:29:17 GMT-0400 (Eastern Daylight Time)","421126","3","1","fullscreen","2","4107","0.0-2.0","","","true","","","","","","","","","",""
"","","","fullscreenfail","63d13bce0971871b9ff88f56","bdp_cybrbll","Sun Mar 26 2023 10:29:17 GMT-0400 (Eastern Daylight Time)","421126","3","1","image-keyboard-response","3","4967","0.0-3.0-0.0","","854","","","32","","","","","","","",""
"","","","","63d13bce0971871b9ff88f56","bdp_cybrbll","Sun Mar 26 2023 10:29:17 GMT-0400 (Eastern Daylight Time)","421126","3","1","instructions","4","17777","0.0-4.0","[{""page_index"":0,""viewing_time"":12549}]","12549","","","","","","","","","","",""
"","","","choice","63d13bce0971871b9ff88f56","bdp_cybrbll","Sun Mar 26 2023 10:29:17 GMT-0400 (Eastern Daylight Time)","421126","3","1","image-keyboard-response","5","19861","0.0-5.0-1.0","","2082","","img/2to1/1.png","2","225","392","0.5","0.5","2","3","",""
"","","","","63d13bce0971871b9ff88f56","bdp_cybrbll","Sun Mar 26 2023 10:29:17 GMT-0400 (Eastern Daylight Time)","421126","3","1","animation","6","21192","0.0-5.0-2.0","","","","","","225","","","","2","3","[{""stimulus"":""img/2to3/1.png"",""time"":112},{""stimulus"":""img/2to3/2.png"",""time"":217},{""stimulus"":""img/2to3/3.png"",""time"":328},{""stimulus"":""img/2to3/4.png"",""time"":428},{""stimulus"":""img/2to3/5.png"",""time"":528},{""stimulus"":""img/2to3/6.png"",""time"":629},{""stimulus"":""img/2to3/7.png"",""time"":729},{""stimulus"":""img/2to3/8.png"",""time"":830},{""stimulus"":""img/2to3/9.png"",""time"":929},{""stimulus"":""img/2to3/10.png"",""time"":1030},{""stimulus"":""img/2to3/11.png"",""time"":1130},{""stimulus"":""img/2to3/12.png"",""time"":1230}]","[]"
"","","","observe","63d13bce0971871b9ff88f56","bdp_cybrbll","Sun Mar 26 2023 10:29:17 GMT-0400 (Eastern Daylight Time)","421126","3","1","image-keyboard-response","7","22195","0.0-5.0-1.1","","null","","img/3to2/1.png","null","224","987","0.5","0.5","3","1","",""
"","","","","63d13bce0971871b9ff88f56","bdp_cybrbll","Sun Mar 26 2023 10:29:17 GMT-0400 (Eastern Daylight Time)","421126","3","1","animation","8","23495","0.0-5.0-2.1","","","","","","224","","","","3","1","[{""stimulus"":""img/3to1/1.png"",""time"":101},{""stimulus"":""img/3to1/2.png"",""time"":201},{""stimulus"":""img/3to1/3.png"",""time"":300},{""stimulus"":""img/3to1/4.png"",""time"":400},{""stimulus"":""img/3to1/5.png"",""time"":501},{""stimulus"":""img/3to1/6.png"",""time"":601},{""stimulus"":""img/3to1/7.png"",""time"":701},{""stimulus"":""img/3to1/8.png"",""time"":800},{""stimulus"":""img/3to1/9.png"",""time"":901},{""stimulus"":""img/3to1/10.png"",""time"":1001},{""stimulus"":""img/3to1/11.png"",""time"":1101},{""stimulus"":""img/3to1/12.png"",""time"":1201}]","[]"
"","","","observe","63d13bce0971871b9ff88f56","bdp_cybrbll","Sun Mar 26 2023 10:29:17 GMT-0400 (Eastern Daylight Time)","421126","3","1","image-keyboard-response","9","24219","0.0-5.0-1.2","","null","","img/1to3/1.png","null","223","707","0.5","0.5","1","2","",""
"","","","","63d13bce0971871b9ff88f56","bdp_cybrbll","Sun Mar 26 2023 10:29:17 GMT-0400 (Eastern Daylight Time)","421126","3","1","animation","10","25524","0.0-5.0-2.2","","","","","","223","","","","1","2","[{""stimulus"":""img/1to2/1.png"",""time"":101},{""stimulus"":""img/1to2/2.png"",""time"":200},{""stimulus"":""img/1to2/3.png"",""time"":301},{""stimulus"":""img/1to2/4.png"",""time"":401},{""stimulus"":""img/1to2/5.png"",""time"":500},{""stimulus"":""img/1to2/6.png"",""time"":601},{""stimulus"":""img/1to2/7.png"",""time"":701},{""stimulus"":""img/1to2/8.png"",""time"":802},{""stimulus"":""img/1to2/9.png"",""time"":902},{""stimulus"":""img/1to2/10.png"",""time"":1003},{""stimulus"":""img/1to2/11.png"",""time"":1102},{""stimulus"":""img/1to2/12.png"",""time"":1203}]","[]"
"","","","choice","63d13bce0971871b9ff88f56","bdp_cybrbll","Sun Mar 26 2023 10:29:17 GMT-0400 (Eastern Daylight Time)","421126","3","1","image-keyboard-response","11","25991","0.0-5.0-1.3","","467","","img/2to1/1.png","2","222","599","0.5","0.5","2","3","",""
"","","","","63d13bce0971871b9ff88f56","bdp_cybrbll","Sun Mar 26 2023 10:29:17 GMT-0400 (Eastern Daylight Time)","421126","3","1","animation","12","27303","0.0-5.0-2.3","","","","","","222","","","","2","3","[{""stimulus"":""img/2to3/1.png"",""time"":110},{""stimulus"":""img/2to3/2.png"",""time"":210},{""stimulus"":""img/2to3/3.png"",""time"":310},{""stimulus"":""img/2to3/4.png"",""time"":411},{""stimulus"":""img/2to3/5.png"",""time"":510},{""stimulus"":""img/2to3/6.png"",""time"":610},{""stimulus"":""img/2to3/7.png"",""time"":710},{""stimulus"":""img/2to3/8.png"",""time"":811},{""stimulus"":""img/2to3/9.png"",""time"":911},{""stimulus"":""img/2to3/10.png"",""time"":1010},{""stimulus"":""img/2to3/11.png"",""time"":1111},{""stimulus"":""img/2to3/12.png"",""time"":1211}]","[]"
"","","","observe","63d13bce0971871b9ff88f56","bdp_cybrbll","Sun Mar 26 2023 10:29:17 GMT-0400 (Eastern Daylight Time)","421126","3","1","image-keyboard-response","13","27757","0.0-5.0-1.4","","null","","img/3to2/1.png","null","221","445","0.5","0.5","3","2","",""
"","","","","63d13bce0971871b9ff88f56","bdp_cybrbll","Sun Mar 26 2023 10:29:17 GMT-0400 (Eastern Daylight Time)","421126","3","1","animation","14","29060","0.0-5.0-2.4","","","","","","221","","","","3","2","[{""stimulus"":""img/3to2/1.png"",""time"":100},{""stimulus"":""img/3to2/2.png"",""time"":201},{""stimulus"":""img/3to2/3.png"",""time"":301},{""stimulus"":""img/3to2/4.png"",""time"":402},{""stimulus"":""img/3to2/5.png"",""time"":501},{""stimulus"":""img/3to2/6.png"",""time"":601},{""stimulus"":""img/3to2/7.png"",""time"":702},{""stimulus"":""img/3to2/8.png"",""time"":803},{""stimulus"":""img/3to2/9.png"",""time"":903},{""stimulus"":""img/3to2/10.png"",""time"":1003},{""stimulus"":""img/3to2/11.png"",""time"":1103},{""stimulus"":""img/3to2/12.png"",""time"":1204}]","[]"
"","","","choice","63d13bce0971871b9ff88f56","bdp_cybrbll","Sun Mar 26 2023 10:29:17 GMT-0400 (Eastern Daylight Time)","421126","3","1","image-keyboard-response","15","29783","0.0-5.0-1.5","","721","","img/2to1/1.png","1","220","420","0.5","0.5","2","1","",""
"","","","","63d13bce0971871b9ff88f56","bdp_cybrbll","Sun Mar 26 2023 10:29:17 GMT-0400 (Eastern Daylight Time)","421126","3","1","animation","16","31099","0.0-5.0-2.5","","","","","","220","","","","2","1","[{""stimulus"":""img/2to1/1.png"",""time"":110},{""stimulus"":""img/2to1/2.png"",""time"":211},{""stimulus"":""img/2to1/3.png"",""time"":311},{""stimulus"":""img/2to1/4.png"",""time"":411},{""stimulus"":""img/2to1/5.png"",""time"":512},{""stimulus"":""img/2to1/6.png"",""time"":612},{""stimulus"":""img/2to1/7.png"",""time"":713},{""stimulus"":""img/2to1/8.png"",""time"":813},{""stimulus"":""img/2to1/9.png"",""time"":914},{""stimulus"":""img/2to1/10.png"",""time"":1014},{""stimulus"":""img/2to1/11.png"",""time"":1114},{""stimulus"":""img/2to1/12.png"",""time"":1215}]","[]"
"","","","observe","63d13bce0971871b9ff88f56","bdp_cybrbll","Sun Mar 26 2023 10:29:17 GMT-0400 (Eastern Daylight Time)","421126","3","1","image-keyboard-response","17","31353","0.0-5.0-1.6","","null","","img/1to3/1.png","null","219","251","0.5","0.5","1","3","",""
"","","","","63d13bce0971871b9ff88f56","bdp_cybrbll","Sun Mar 26 2023 10:29:17 GMT-0400 (Eastern Daylight Time)","421126","3","1","animation","18","32656","0.0-5.0-2.6","","","","","","219","","","","1","3","[{""stimulus"":""img/1to3/1.png"",""time"":101},{""stimulus"":""img/1to3/2.png"",""time"":201},{""stimulus"":""img/1to3/3.png"",""time"":301},{""stimulus"":""img/1to3/4.png"",""time"":401},{""stimulus"":""img/1to3/5.png"",""time"":501},{""stimulus"":""img/1to3/6.png"",""time"":602},{""stimulus"":""img/1to3/7.png"",""time"":702},{""stimulus"":""img/1to3/8.png"",""time"":801},{""stimulus"":""img/1to3/9.png"",""time"":902},{""stimulus"":""img/1to3/10.png"",""time"":1003},{""stimulus"":""img/1to3/11.png"",""time"":1103},{""stimulus"":""img/1to3/12.png"",""time"":1203}]","[]"
"","","","observe","63d13bce0971871b9ff88f56","bdp_cybrbll","Sun Mar 26 2023 10:29:17 GMT-0400 (Eastern Daylight Time)","421126","3","1","image-keyboard-response","19","33357","0.0-5.0-1.7","","null","","img/3to2/1.png","null","218","687","0.5","0.5","3","2","",""
"","","","","63d13bce0971871b9ff88f56","bdp_cybrbll","Sun Mar 26 2023 10:29:17 GMT-0400 (Eastern Daylight Time)","421126","3","1","animation","20","34657","0.0-5.0-2.7","","","","","","218","","","","3","2","[{""stimulus"":""img/3to2/1.png"",""time"":100},{""stimulus"":""img/3to2/2.png"",""time"":200},{""stimulus"":""img/3to2/3.png"",""time"":300},{""stimulus"":""img/3to2/4.png"",""time"":400},{""stimulus"":""img/3to2/5.png"",""time"":500},{""stimulus"":""img/3to2/6.png"",""time"":599},{""stimulus"":""img/3to2/7.png"",""time"":699},{""stimulus"":""img/3to2/8.png"",""time"":800},{""stimulus"":""img/3to2/9.png"",""time"":899},{""stimulus"":""img/3to2/10.png"",""time"":1000},{""stimulus"":""img/3to2/11.png"",""time"":1100},{""stimulus"":""img/3to2/12.png"",""time"":1200}]","[]"
"","","","choice","63d13bce0971871b9ff88f56","bdp_cybrbll","Sun Mar 26 2023 10:29:17 GMT-0400 (Eastern Daylight Time)","421126","3","1","image-keyboard-response","21","35103","0.0-5.0-1.8","","445","","img/2to1/1.png","1","217","457","0.5","0.5","2","1","",""
"","","","","63d13bce0971871b9ff88f56","bdp_cybrbll","Sun Mar 26 2023 10:29:17 GMT-0400 (Eastern Daylight Time)","421126","3","1","animation","22","36405","0.0-5.0-2.8","","","","","","217","","","","2","1","[{""stimulus"":""img/2to1/1.png"",""time"":102},{""stimulus"":""img/2to1/2.png"",""time"":201},{""stimulus"":""img/2to1/3.png"",""time"":301},{""stimulus"":""img/2to1/4.png"",""time"":402},{""stimulus"":""img/2to1/5.png"",""time"":501},{""stimulus"":""img/2to1/6.png"",""time"":601},{""stimulus"":""img/2to1/7.png"",""time"":701},{""stimulus"":""img/2to1/8.png"",""time"":802},{""stimulus"":""img/2to1/9.png"",""time"":902},{""stimulus"":""img/2to1/10.png"",""time"":1003},{""stimulus"":""img/2to1/11.png"",""time"":1102},{""stimulus"":""img/2to1/12.png"",""time"":1202}]","[]"
"","","","observe","63d13bce0971871b9ff88f56","bdp_cybrbll","Sun Mar 26 2023 10:29:17 GMT-0400 (Eastern Daylight Time)","421126","3","1","image-keyboard-response","23","36906","0.0-5.0-1.9","","null","","img/1to3/1.png","null","216","490","0.5","0.5","1","2","",""
"","","","","63d13bce0971871b9ff88f56","bdp_cybrbll","Sun Mar 26 2023 10:29:17 GMT-0400 (Eastern Daylight Time)","421126","3","1","animation","24","38207","0.0-5.0-2.9","","","","","","216","","","","1","2","[{""stimulus"":""img/1to2/1.png"",""time"":101},{""stimulus"":""img/1to2/2.png"",""time"":200},{""stimulus"":""img/1to2/3.png"",""time"":300},{""stimulus"":""img/1to2/4.png"",""time"":401},{""stimulus"":""img/1to2/5.png"",""time"":500},{""stimulus"":""img/1to2/6.png"",""time"":601},{""stimulus"":""img/1to2/7.png"",""time"":701},{""stimulus"":""img/1to2/8.png"",""time"":801},{""stimulus"":""img/1to2/9.png"",""time"":901},{""stimulus"":""img/1to2/10.png"",""time"":1001},{""stimulus"":""img/1to2/11.png"",""time"":1100},{""stimulus"":""img/1to2/12.png"",""time"":1201}]","[]"
"","","","choice","63d13bce0971871b9ff88f56","bdp_cybrbll","Sun Mar 26 2023 10:29:17 GMT-0400 (Eastern Daylight Time)","421126","3","1","image-keyboard-response","25","38423","0.0-5.0-1.10","","213","","img/2to1/1.png","2","215","440","0.5","0.5","2","3","",""
"","","","","63d13bce0971871b9ff88f56","bdp_cybrbll","Sun Mar 26 2023 10:29:17 GMT-0400 (Eastern Daylight Time)","421126","3","1","animation","26","39725","0.0-5.0-2.10","","","","","","215","","","","2","3","[{""stimulus"":""img/2to3/1.png"",""time"":100},{""stimulus"":""img/2to3/2.png"",""time"":200},{""stimulus"":""img/2to3/3.png"",""time"":300},{""stimulus"":""img/2to3/4.png"",""time"":400},{""stimulus"":""img/2to3/5.png"",""time"":500},{""stimulus"":""img/2to3/6.png"",""time"":600},{""stimulus"":""img/2to3/7.png"",""time"":701},{""stimulus"":""img/2to3/8.png"",""time"":802},{""stimulus"":""img/2to3/9.png"",""time"":902},{""stimulus"":""img/2to3/10.png"",""time"":1002},{""stimulus"":""img/2to3/11.png"",""time"":1103},{""stimulus"":""img/2to3/12.png"",""time"":1202}]","[]"
"","","","observe","63d13bce0971871b9ff88f56","bdp_cybrbll","Sun Mar 26 2023 10:29:17 GMT-0400 (Eastern Daylight Time)","421126","3","1","image-keyboard-response","27","40465","0.0-5.0-1.11","","null","","img/3to2/1.png","null","214","736","0.5","0.5","3","1","",""
"","","","","63d13bce0971871b9ff88f56","bdp_cybrbll","Sun Mar 26 2023 10:29:17 GMT-0400 (Eastern Daylight Time)","421126","3","1","animation","28","41767","0.0-5.0-2.11","","","","","","214","","","","3","1","[{""stimulus"":""img/3to1/1.png"",""time"":100},{""stimulus"":""img/3to1/2.png"",""time"":201},{""stimulus"":""img/3to1/3.png"",""time"":301},{""stimulus"":""img/3to1/4.png"",""time"":401},{""stimulus"":""img/3to1/5.png"",""time"":501},{""stimulus"":""img/3to1/6.png"",""time"":601},{""stimulus"":""img/3to1/7.png"",""time"":700},{""stimulus"":""img/3to1/8.png"",""time"":801},{""stimulus"":""img/3to1/9.png"",""time"":902},{""stimulus"":""img/3to1/10.png"",""time"":1001},{""stimulus"":""img/3to1/11.png"",""time"":1102},{""stimulus"":""img/3to1/12.png"",""time"":1202}]","[]"
"","","","observe","63d13bce0971871b9ff88f56","bdp_cybrbll","Sun Mar 26 2023 10:29:17 GMT-0400 (Eastern Daylight Time)","421126","3","1","image-keyboard-response","29","42569","0.0-5.0-1.12","","null","","img/1to3/1.png","null","213","787","0.5","0.5","1","2","",""
"","","","","63d13bce0971871b9ff88f56","bdp_cybrbll","Sun Mar 26 2023 10:29:17 GMT-0400 (Eastern Daylight Time)","421126","3","1","animation","30","43872","0.0-5.0-2.12","","","","","","213","","","","1","2","[{""stimulus"":""img/1to2/1.png"",""time"":101},{""stimulus"":""img/1to2/2.png"",""time"":201},{""stimulus"":""img/1to2/3.png"",""time"":301},{""stimulus"":""img/1to2/4.png"",""time"":401},{""stimulus"":""img/1to2/5.png"",""time"":501},{""stimulus"":""img/1to2/6.png"",""time"":601},{""stimulus"":""img/1to2/7.png"",""time"":701},{""stimulus"":""img/1to2/8.png"",""time"":801},{""stimulus"":""img/1to2/9.png"",""time"":902},{""stimulus"":""img/1to2/10.png"",""time"":1002},{""stimulus"":""img/1to2/11.png"",""time"":1102},{""stimulus"":""img/1to2/12.png"",""time"":1203}]","[]"
"","","","choice","63d13bce0971871b9ff88f56","bdp_cybrbll","Sun Mar 26 2023 10:29:17 GMT-0400 (Eastern Daylight Time)","421126","3","1","image-keyboard-response","31","44103","0.0-5.0-1.13","","229","","img/2to1/1.png","2","212","1293","0.5","0.5","2","3","",""
"","","","","63d13bce0971871b9ff88f56","bdp_cybrbll","Sun Mar 26 2023 10:29:17 GMT-0400 (Eastern Daylight Time)","421126","3","1","animation","32","45406","0.0-5.0-2.13","","","","","","212","","","","2","3","[{""stimulus"":""img/2to3/1.png"",""time"":101},{""stimulus"":""img/2to3/2.png"",""time"":201},{""stimulus"":""img/2to3/3.png"",""time"":302},{""stimulus"":""img/2to3/4.png"",""time"":402},{""stimulus"":""img/2to3/5.png"",""time"":502},{""stimulus"":""img/2to3/6.png"",""time"":602},{""stimulus"":""img/2to3/7.png"",""time"":703},{""stimulus"":""img/2to3/8.png"",""time"":802},{""stimulus"":""img/2to3/9.png"",""time"":903},{""stimulus"":""img/2to3/10.png"",""time"":1002},{""stimulus"":""img/2to3/11.png"",""time"":1102},{""stimulus"":""img/2to3/12.png"",""time"":1202}]","[]"
"","","","observe","63d13bce0971871b9ff88f56","bdp_cybrbll","Sun Mar 26 2023 10:29:17 GMT-0400 (Eastern Daylight Time)","421126","3","1","image-keyboard-response","33","46558","0.0-5.0-1.14","","null","","img/3to2/1.png","null","211","1132","0.5","0.5","3","1","",""
"","","","","63d13bce0971871b9ff88f56","bdp_cybrbll","Sun Mar 26 2023 10:29:17 GMT-0400 (Eastern Daylight Time)","421126","3","1","animation","34","47859","0.0-5.0-2.14","","","","","","211","","","","3","1","[{""stimulus"":""img/3to1/1.png"",""time"":101},{""stimulus"":""img/3to1/2.png"",""time"":201},{""stimulus"":""img/3to1/3.png"",""time"":301},{""stimulus"":""img/3to1/4.png"",""time"":400},{""stimulus"":""img/3to1/5.png"",""time"":501},{""stimulus"":""img/3to1/6.png"",""time"":601},{""stimulus"":""img/3to1/7.png"",""time"":700},{""stimulus"":""img/3to1/8.png"",""time"":801},{""stimulus"":""img/3to1/9.png"",""time"":901},{""stimulus"":""img/3to1/10.png"",""time"":1001},{""stimulus"":""img/3to1/11.png"",""time"":1101},{""stimulus"":""img/3to1/12.png"",""time"":1201}]","[]"
"","","","observe","63d13bce0971871b9ff88f56","bdp_cybrbll","Sun Mar 26 2023 10:29:17 GMT-0400 (Eastern Daylight Time)","421126","3","1","image-keyboard-response","35","48159","0.0-5.0-1.15","","null","","img/1to3/1.png","null","210","292","0.5","0.5","1","2","",""
"","","","","63d13bce0971871b9ff88f56","bdp_cybrbll","Sun Mar 26 2023 10:29:17 GMT-0400 (Eastern Daylight Time)","421126","3","1","animation","36","49459","0.0-5.0-2.15","","","","","","210","","","","1","2","[{""stimulus"":""img/1to2/1.png"",""time"":100},{""stimulus"":""img/1to2/2.png"",""time"":200},{""stimulus"":""img/1to2/3.png"",""time"":300},{""stimulus"":""img/1to2/4.png"",""time"":400},{""stimulus"":""img/1to2/5.png"",""time"":500},{""stimulus"":""img/1to2/6.png"",""time"":601},{""stimulus"":""img/1to2/7.png"",""time"":700},{""stimulus"":""img/1to2/8.png"",""time"":801},{""stimulus"":""img/1to2/9.png"",""time"":900},{""stimulus"":""img/1to2/10.png"",""time"":1000},{""stimulus"":""img/1to2/11.png"",""time"":1100},{""stimulus"":""img/1to2/12.png"",""time"":1200}]","[]"
"","","","choice","63d13bce0971871b9ff88f56","bdp_cybrbll","Sun Mar 26 2023 10:29:17 GMT-0400 (Eastern Daylight Time)","421126","3","1","image-keyboard-response","37","49574","0.0-5.0-1.16","","115","","img/2to1/1.png","2","209","181","0.5","0.5","2","3","",""
"","","","","63d13bce0971871b9ff88f56","bdp_cybrbll","Sun Mar 26 2023 10:29:17 GMT-0400 (Eastern Daylight Time)","421126","3","1","animation","38","50874","0.0-5.0-2.16","","","","","","209","","","","2","3","[{""stimulus"":""img/2to3/1.png"",""time"":101},{""stimulus"":""img/2to3/2.png"",""time"":201},{""stimulus"":""img/2to3/3.png"",""time"":301},{""stimulus"":""img/2to3/4.png"",""time"":400},{""stimulus"":""img/2to3/5.png"",""time"":501},{""stimulus"":""img/2to3/6.png"",""time"":600},{""stimulus"":""img/2to3/7.png"",""time"":700},{""stimulus"":""img/2to3/8.png"",""time"":800},{""stimulus"":""img/2to3/9.png"",""time"":900},{""stimulus"":""img/2to3/10.png"",""time"":1000},{""stimulus"":""img/2to3/11.png"",""time"":1100},{""stimulus"":""img/2to3/12.png"",""time"":1201}]","[]"
"","","","observe","63d13bce0971871b9ff88f56","bdp_cybrbll","Sun Mar 26 2023 10:29:17 GMT-0400 (Eastern Daylight Time)","421126","3","1","image-keyboard-response","39","51474","0.0-5.0-1.17","","null","","img/3to2/1.png","null","208","597","0.5","0.5","3","2","",""
"","","","","63d13bce0971871b9ff88f56","bdp_cybrbll","Sun Mar 26 2023 10:29:17 GMT-0400 (Eastern Daylight Time)","421126","3","1","animation","40","52774","0.0-5.0-2.17","","","","","","208","","","","3","2","[{""stimulus"":""img/3to2/1.png"",""time"":99},{""stimulus"":""img/3to2/2.png"",""time"":200},{""stimulus"":""img/3to2/3.png"",""time"":300},{""stimulus"":""img/3to2/4.png"",""time"":400},{""stimulus"":""img/3to2/5.png"",""time"":500},{""stimulus"":""img/3to2/6.png"",""time"":600},{""stimulus"":""img/3to2/7.png"",""time"":700},{""stimulus"":""img/3to2/8.png"",""time"":800},{""stimulus"":""img/3to2/9.png"",""time"":900},{""stimulus"":""img/3to2/10.png"",""time"":999},{""stimulus"":""img/3to2/11.png"",""time"":1100},{""stimulus"":""img/3to2/12.png"",""time"":1199}]","[]"
"","","","choice","63d13bce0971871b9ff88f56","bdp_cybrbll","Sun Mar 26 2023 10:29:17 GMT-0400 (Eastern Daylight Time)","421126","3","1","image-keyboard-response","41","53119","0.0-5.0-1.18","","344","","img/2to1/1.png","1","207","474","0.5","0.5","2","1","",""
"","","","","63d13bce0971871b9ff88f56","bdp_cybrbll","Sun Mar 26 2023 10:29:17 GMT-0400 (Eastern Daylight Time)","421126","3","1","animation","42","54423","0.0-5.0-2.18","","","","","","207","","","","2","1","[{""stimulus"":""img/2to1/1.png"",""time"":103},{""stimulus"":""img/2to1/2.png"",""time"":203},{""stimulus"":""img/2to1/3.png"",""time"":304},{""stimulus"":""img/2to1/4.png"",""time"":403},{""stimulus"":""img/2to1/5.png"",""time"":504},{""stimulus"":""img/2to1/6.png"",""time"":604},{""stimulus"":""img/2to1/7.png"",""time"":704},{""stimulus"":""img/2to1/8.png"",""time"":804},{""stimulus"":""img/2to1/9.png"",""time"":904},{""stimulus"":""img/2to1/10.png"",""time"":1004},{""stimulus"":""img/2to1/11.png"",""time"":1104},{""stimulus"":""img/2to1/12.png"",""time"":1204}]","[]"
"","","","observe","63d13bce0971871b9ff88f56","bdp_cybrbll","Sun Mar 26 2023 10:29:17 GMT-0400 (Eastern Daylight Time)","421126","3","1","image-keyboard-response","43","54761","0.0-5.0-1.19","","null","","img/1to3/1.png","null","206","319","0.5","0.5","1","2","",""
"","","","","63d13bce0971871b9ff88f56","bdp_cybrbll","Sun Mar 26 2023 10:29:17 GMT-0400 (Eastern Daylight Time)","421126","3","1","animation","44","56065","0.0-5.0-2.19","","","","","","206","","","","1","2","[{""stimulus"":""img/1to2/1.png"",""time"":100},{""stimulus"":""img/1to2/2.png"",""time"":201},{""stimulus"":""img/1to2/3.png"",""time"":301},{""stimulus"":""img/1to2/4.png"",""time"":402},{""stimulus"":""img/1to2/5.png"",""time"":502},{""stimulus"":""img/1to2/6.png"",""time"":602},{""stimulus"":""img/1to2/7.png"",""time"":702},{""stimulus"":""img/1to2/8.png"",""time"":802},{""stimulus"":""img/1to2/9.png"",""time"":903},{""stimulus"":""img/1to2/10.png"",""time"":1002},{""stimulus"":""img/1to2/11.png"",""time"":1104},{""stimulus"":""img/1to2/12.png"",""time"":1203}]","[]"
"","","","choice","63d13bce0971871b9ff88f56","bdp_cybrbll","Sun Mar 26 2023 10:29:17 GMT-0400 (Eastern Daylight Time)","421126","3","1","image-keyboard-response","45","56239","0.0-5.0-1.20","","174","","img/2to1/1.png","2","205","394","0.5","0.5","2","3","",""
"","","","","63d13bce0971871b9ff88f56","bdp_cybrbll","Sun Mar 26 2023 10:29:17 GMT-0400 (Eastern Daylight Time)","421126","3","1","animation","46","57546","0.0-5.0-2.20","","","","","","205","","","","2","3","[{""stimulus"":""img/2to3/1.png"",""time"":105},{""stimulus"":""img/2to3/2.png"",""time"":205},{""stimulus"":""img/2to3/3.png"",""time"":304},{""stimulus"":""img/2to3/4.png"",""time"":406},{""stimulus"":""img/2to3/5.png"",""time"":504},{""stimulus"":""img/2to3/6.png"",""time"":606},{""stimulus"":""img/2to3/7.png"",""time"":705},{""stimulus"":""img/2to3/8.png"",""time"":805},{""stimulus"":""img/2to3/9.png"",""time"":907},{""stimulus"":""img/2to3/10.png"",""time"":1006},{""stimulus"":""img/2to3/11.png"",""time"":1106},{""stimulus"":""img/2to3/12.png"",""time"":1206}]","[]"
"","","","observe","63d13bce0971871b9ff88f56","bdp_cybrbll","Sun Mar 26 2023 10:29:17 GMT-0400 (Eastern Daylight Time)","421126","3","1","image-keyboard-response","47","57784","0.0-5.0-1.21","","null","","img/3to2/1.png","null","204","222","0.5","0.5","3","2","",""
"","","","","63d13bce0971871b9ff88f56","bdp_cybrbll","Sun Mar 26 2023 10:29:17 GMT-0400 (Eastern Daylight Time)","421126","3","1","animation","48","59087","0.0-5.0-2.21","","","","","","204","","","","3","2","[{""stimulus"":""img/3to2/1.png"",""time"":101},{""stimulus"":""img/3to2/2.png"",""time"":200},{""stimulus"":""img/3to2/3.png"",""time"":301},{""stimulus"":""img/3to2/4.png"",""time"":402},{""stimulus"":""img/3to2/5.png"",""time"":501},{""stimulus"":""img/3to2/6.png"",""time"":602},{""stimulus"":""img/3to2/7.png"",""time"":701},{""stimulus"":""img/3to2/8.png"",""time"":802},{""stimulus"":""img/3to2/9.png"",""time"":902},{""stimulus"":""img/3to2/10.png"",""time"":1003},{""stimulus"":""img/3to2/11.png"",""time"":1102},{""stimulus"":""img/3to2/12.png"",""time"":1203}]","[]"
"","","","choice","63d13bce0971871b9ff88f56","bdp_cybrbll","Sun Mar 26 2023 10:29:17 GMT-0400 (Eastern Daylight Time)","421126","3","1","image-keyboard-response","49","59647","0.0-5.0-1.22","","560","","img/2to1/1.png","1","203","833","0.5","0.5","2","1","",""
"","","","","63d13bce0971871b9ff88f56","bdp_cybrbll","Sun Mar 26 2023 10:29:17 GMT-0400 (Eastern Daylight Time)","421126","3","1","animation","50","60953","0.0-5.0-2.22","","","","","","203","","","","2","1","[{""stimulus"":""img/2to1/1.png"",""time"":102},{""stimulus"":""img/2to1/2.png"",""time"":202},{""stimulus"":""img/2to1/3.png"",""time"":304},{""stimulus"":""img/2to1/4.png"",""time"":404},{""stimulus"":""img/2to1/5.png"",""time"":504},{""stimulus"":""img/2to1/6.png"",""time"":603},{""stimulus"":""img/2to1/7.png"",""time"":704},{""stimulus"":""img/2to1/8.png"",""time"":804},{""stimulus"":""img/2to1/9.png"",""time"":904},{""stimulus"":""img/2to1/10.png"",""time"":1004},{""stimulus"":""img/2to1/11.png"",""time"":1105},{""stimulus"":""img/2to1/12.png"",""time"":1205}]","[]"
"","","","observe","63d13bce0971871b9ff88f56","bdp_cybrbll","Sun Mar 26 2023 10:29:17 GMT-0400 (Eastern Daylight Time)","421126","3","1","image-keyboard-response","51","62523","0.0-5.0-1.23","","null","","img/1to3/1.png","null","202","1564","0.5","0.5","1","2","",""
"","","","","63d13bce0971871b9ff88f56","bdp_cybrbll","Sun Mar 26 2023 10:29:17 GMT-0400 (Eastern Daylight Time)","421126","3","1","animation","52","63824","0.0-5.0-2.23","","","","","","202","","","","1","2","[{""stimulus"":""img/1to2/1.png"",""time"":100},{""stimulus"":""img/1to2/2.png"",""time"":200},{""stimulus"":""img/1to2/3.png"",""time"":301},{""stimulus"":""img/1to2/4.png"",""time"":400},{""stimulus"":""img/1to2/5.png"",""time"":500},{""stimulus"":""img/1to2/6.png"",""time"":601},{""stimulus"":""img/1to2/7.png"",""time"":700},{""stimulus"":""img/1to2/8.png"",""time"":801},{""stimulus"":""img/1to2/9.png"",""time"":901},{""stimulus"":""img/1to2/10.png"",""time"":1001},{""stimulus"":""img/1to2/11.png"",""time"":1101},{""stimulus"":""img/1to2/12.png"",""time"":1201}]","[]"
"","","","choice","63d13bce0971871b9ff88f56","bdp_cybrbll","Sun Mar 26 2023 10:29:17 GMT-0400 (Eastern Daylight Time)","421126","3","1","image-keyboard-response","53","64013","0.0-5.0-1.24","","189","","img/2to1/1.png","2","201","720","0.5","0.5","2","3","",""
"","","","","63d13bce0971871b9ff88f56","bdp_cybrbll","Sun Mar 26 2023 10:29:17 GMT-0400 (Eastern Daylight Time)","421126","3","1","animation","54","65327","0.0-5.0-2.24","","","","","","201","","","","2","3","[{""stimulus"":""img/2to3/1.png"",""time"":113},{""stimulus"":""img/2to3/2.png"",""time"":212},{""stimulus"":""img/2to3/3.png"",""time"":313},{""stimulus"":""img/2to3/4.png"",""time"":413},{""stimulus"":""img/2to3/5.png"",""time"":513},{""stimulus"":""img/2to3/6.png"",""time"":613},{""stimulus"":""img/2to3/7.png"",""time"":713},{""stimulus"":""img/2to3/8.png"",""time"":813},{""stimulus"":""img/2to3/9.png"",""time"":914},{""stimulus"":""img/2to3/10.png"",""time"":1013},{""stimulus"":""img/2to3/11.png"",""time"":1113},{""stimulus"":""img/2to3/12.png"",""time"":1213}]","[]"
"","","","observe","63d13bce0971871b9ff88f56","bdp_cybrbll","Sun Mar 26 2023 10:29:17 GMT-0400 (Eastern Daylight Time)","421126","3","1","image-keyboard-response","55","65881","0.0-5.0-1.25","","null","","img/3to2/1.png","null","200","552","0.5","0.5","3","2","",""
"","","","","63d13bce0971871b9ff88f56","bdp_cybrbll","Sun Mar 26 2023 10:29:17 GMT-0400 (Eastern Daylight Time)","421126","3","1","animation","56","67198","0.0-5.0-2.25","","","","","","200","","","","3","2","[{""stimulus"":""img/3to2/1.png"",""time"":112},{""stimulus"":""img/3to2/2.png"",""time"":212},{""stimulus"":""img/3to2/3.png"",""time"":312},{""stimulus"":""img/3to2/4.png"",""time"":412},{""stimulus"":""img/3to2/5.png"",""time"":513},{""stimulus"":""img/3to2/6.png"",""time"":612},{""stimulus"":""img/3to2/7.png"",""time"":713},{""stimulus"":""img/3to2/8.png"",""time"":813},{""stimulus"":""img/3to2/9.png"",""time"":913},{""stimulus"":""img/3to2/10.png"",""time"":1013},{""stimulus"":""img/3to2/11.png"",""time"":1114},{""stimulus"":""img/3to2/12.png"",""time"":1214}]","[]"
"","","","choice","63d13bce0971871b9ff88f56","bdp_cybrbll","Sun Mar 26 2023 10:29:17 GMT-0400 (Eastern Daylight Time)","421126","3","1","image-keyboard-response","57","67262","0.0-5.0-1.26","","64","","img/2to1/1.png","1","199","165","0.5","0.5","2","1","",""
"","","","","63d13bce0971871b9ff88f56","bdp_cybrbll","Sun Mar 26 2023 10:29:17 GMT-0400 (Eastern Daylight Time)","421126","3","1","animation","58","68584","0.0-5.0-2.26","","","","","","199","","","","2","1","[{""stimulus"":""img/2to1/1.png"",""time"":119},{""stimulus"":""img/2to1/2.png"",""time"":219},{""stimulus"":""img/2to1/3.png"",""time"":319},{""stimulus"":""img/2to1/4.png"",""time"":420},{""stimulus"":""img/2to1/5.png"",""time"":520},{""stimulus"":""img/2to1/6.png"",""time"":620},{""stimulus"":""img/2to1/7.png"",""time"":720},{""stimulus"":""img/2to1/8.png"",""time"":821},{""stimulus"":""img/2to1/9.png"",""time"":920},{""stimulus"":""img/2to1/10.png"",""time"":1020},{""stimulus"":""img/2to1/11.png"",""time"":1121},{""stimulus"":""img/2to1/12.png"",""time"":1221}]","[]"
"","","","observe","63d13bce0971871b9ff88f56","bdp_cybrbll","Sun Mar 26 2023 10:29:17 GMT-0400 (Eastern Daylight Time)","421126","3","1","image-keyboard-response","59","68884","0.0-5.0-1.27","","null","","img/1to3/1.png","null","198","298","0.5","0.5","1","3","",""
"","","","","63d13bce0971871b9ff88f56","bdp_cybrbll","Sun Mar 26 2023 10:29:17 GMT-0400 (Eastern Daylight Time)","421126","3","1","animation","60","70188","0.0-5.0-2.27","","","","","","198","","","","1","3","[{""stimulus"":""img/1to3/1.png"",""time"":99},{""stimulus"":""img/1to3/2.png"",""time"":199},{""stimulus"":""img/1to3/3.png"",""time"":300},{""stimulus"":""img/1to3/4.png"",""time"":399},{""stimulus"":""img/1to3/5.png"",""time"":500},{""stimulus"":""img/1to3/6.png"",""time"":600},{""stimulus"":""img/1to3/7.png"",""time"":701},{""stimulus"":""img/1to3/8.png"",""time"":801},{""stimulus"":""img/1to3/9.png"",""time"":901},{""stimulus"":""img/1to3/10.png"",""time"":1001},{""stimulus"":""img/1to3/11.png"",""time"":1101},{""stimulus"":""img/1to3/12.png"",""time"":1201}]","[]"
"","","","observe","63d13bce0971871b9ff88f56","bdp_cybrbll","Sun Mar 26 2023 10:29:17 GMT-0400 (Eastern Daylight Time)","421126","3","1","image-keyboard-response","61","70366","0.0-5.0-1.28","","null","","img/3to2/1.png","null","197","165","0.5","0.5","3","1","",""
"","","","","63d13bce0971871b9ff88f56","bdp_cybrbll","Sun Mar 26 2023 10:29:17 GMT-0400 (Eastern Daylight Time)","421126","3","1","animation","62","71668","0.0-5.0-2.28","","","","","","197","","","","3","1","[{""stimulus"":""img/3to1/1.png"",""time"":100},{""stimulus"":""img/3to1/2.png"",""time"":201},{""stimulus"":""img/3to1/3.png"",""time"":301},{""stimulus"":""img/3to1/4.png"",""time"":400},{""stimulus"":""img/3to1/5.png"",""time"":501},{""stimulus"":""img/3to1/6.png"",""time"":601},{""stimulus"":""img/3to1/7.png"",""time"":702},{""stimulus"":""img/3to1/8.png"",""time"":801},{""stimulus"":""img/3to1/9.png"",""time"":901},{""stimulus"":""img/3to1/10.png"",""time"":1002},{""stimulus"":""img/3to1/11.png"",""time"":1102},{""stimulus"":""img/3to1/12.png"",""time"":1202}]","[]"
"","","","observe","63d13bce0971871b9ff88f56","bdp_cybrbll","Sun Mar 26 2023 10:29:17 GMT-0400 (Eastern Daylight Time)","421126","3","1","image-keyboard-response","63","72038","0.0-5.0-1.29","","null","","img/1to3/1.png","null","196","363","0.5","0.5","1","3","",""
"","","","","63d13bce0971871b9ff88f56","bdp_cybrbll","Sun Mar 26 2023 10:29:17 GMT-0400 (Eastern Daylight Time)","421126","3","1","animation","64","73338","0.0-5.0-2.29","","","","","","196","","","","1","3","[{""stimulus"":""img/1to3/1.png"",""time"":100},{""stimulus"":""img/1to3/2.png"",""time"":200},{""stimulus"":""img/1to3/3.png"",""time"":300},{""stimulus"":""img/1to3/4.png"",""time"":400},{""stimulus"":""img/1to3/5.png"",""time"":501},{""stimulus"":""img/1to3/6.png"",""time"":601},{""stimulus"":""img/1to3/7.png"",""time"":701},{""stimulus"":""img/1to3/8.png"",""time"":801},{""stimulus"":""img/1to3/9.png"",""time"":901},{""stimulus"":""img/1to3/10.png"",""time"":1000},{""stimulus"":""img/1to3/11.png"",""time"":1101},{""stimulus"":""img/1to3/12.png"",""time"":1200}]","[]"
"","","","observe","63d13bce0971871b9ff88f56","bdp_cybrbll","Sun Mar 26 2023 10:29:17 GMT-0400 (Eastern Daylight Time)","421126","3","1","image-keyboard-response","65","73639","0.0-5.0-1.30","","null","","img/3to2/1.png","null","195","290","0.5","0.5","3","2","",""
"","","","","63d13bce0971871b9ff88f56","bdp_cybrbll","Sun Mar 26 2023 10:29:17 GMT-0400 (Eastern Daylight Time)","421126","3","1","animation","66","74955","0.0-5.0-2.30","","","","","","195","","","","3","2","[{""stimulus"":""img/3to2/1.png"",""time"":114},{""stimulus"":""img/3to2/2.png"",""time"":214},{""stimulus"":""img/3to2/3.png"",""time"":315},{""stimulus"":""img/3to2/4.png"",""time"":414},{""stimulus"":""img/3to2/5.png"",""time"":514},{""stimulus"":""img/3to2/6.png"",""time"":614},{""stimulus"":""img/3to2/7.png"",""time"":714},{""stimulus"":""img/3to2/8.png"",""time"":815},{""stimulus"":""img/3to2/9.png"",""time"":915},{""stimulus"":""img/3to2/10.png"",""time"":1015},{""stimulus"":""img/3to2/11.png"",""time"":1115},{""stimulus"":""img/3to2/12.png"",""time"":1215}]","[]"
"","","","choice","63d13bce0971871b9ff88f56","bdp_cybrbll","Sun Mar 26 2023 10:29:17 GMT-0400 (Eastern Daylight Time)","421126","3","1","image-keyboard-response","67","75183","0.0-5.0-1.31","","227","","img/2to1/1.png","1","194","791","0.5","0.5","2","1","",""
"","","","","63d13bce0971871b9ff88f56","bdp_cybrbll","Sun Mar 26 2023 10:29:17 GMT-0400 (Eastern Daylight Time)","421126","3","1","animation","68","76495","0.0-5.0-2.31","","","","","","194","","","","2","1","[{""stimulus"":""img/2to1/1.png"",""time"":109},{""stimulus"":""img/2to1/2.png"",""time"":208},{""stimulus"":""img/2to1/3.png"",""time"":309},{""stimulus"":""img/2to1/4.png"",""time"":409},{""stimulus"":""img/2to1/5.png"",""time"":509},{""stimulus"":""img/2to1/6.png"",""time"":609},{""stimulus"":""img/2to1/7.png"",""time"":710},{""stimulus"":""img/2to1/8.png"",""time"":810},{""stimulus"":""img/2to1/9.png"",""time"":911},{""stimulus"":""img/2to1/10.png"",""time"":1010},{""stimulus"":""img/2to1/11.png"",""time"":1111},{""stimulus"":""img/2to1/12.png"",""time"":1211}]","[]"
"","","","observe","63d13bce0971871b9ff88f56","bdp_cybrbll","Sun Mar 26 2023 10:29:17 GMT-0400 (Eastern Daylight Time)","421126","3","1","image-keyboard-response","69","77074","0.0-5.0-1.32","","null","","img/1to3/1.png","null","193","576","0.5","0.5","1","2","",""
"","","","","63d13bce0971871b9ff88f56","bdp_cybrbll","Sun Mar 26 2023 10:29:17 GMT-0400 (Eastern Daylight Time)","421126","3","1","animation","70","78376","0.0-5.0-2.32","","","","","","193","","","","1","2","[{""stimulus"":""img/1to2/1.png"",""time"":101},{""stimulus"":""img/1to2/2.png"",""time"":200},{""stimulus"":""img/1to2/3.png"",""time"":300},{""stimulus"":""img/1to2/4.png"",""time"":401},{""stimulus"":""img/1to2/5.png"",""time"":502},{""stimulus"":""img/1to2/6.png"",""time"":601},{""stimulus"":""img/1to2/7.png"",""time"":701},{""stimulus"":""img/1to2/8.png"",""time"":801},{""stimulus"":""img/1to2/9.png"",""time"":901},{""stimulus"":""img/1to2/10.png"",""time"":1001},{""stimulus"":""img/1to2/11.png"",""time"":1101},{""stimulus"":""img/1to2/12.png"",""time"":1201}]","[]"
"","","","choice","63d13bce0971871b9ff88f56","bdp_cybrbll","Sun Mar 26 2023 10:29:17 GMT-0400 (Eastern Daylight Time)","421126","3","1","image-keyboard-response","71","78511","0.0-5.0-1.33","","135","","img/2to1/1.png","2","192","533","0.5","0.5","2","3","",""
"","","","","63d13bce0971871b9ff88f56","bdp_cybrbll","Sun Mar 26 2023 10:29:17 GMT-0400 (Eastern Daylight Time)","421126","3","1","animation","72","79817","0.0-5.0-2.33","","","","","","192","","","","2","3","[{""stimulus"":""img/2to3/1.png"",""time"":103},{""stimulus"":""img/2to3/2.png"",""time"":204},{""stimulus"":""img/2to3/3.png"",""time"":304},{""stimulus"":""img/2to3/4.png"",""time"":404},{""stimulus"":""img/2to3/5.png"",""time"":503},{""stimulus"":""img/2to3/6.png"",""time"":604},{""stimulus"":""img/2to3/7.png"",""time"":705},{""stimulus"":""img/2to3/8.png"",""time"":805},{""stimulus"":""img/2to3/9.png"",""time"":904},{""stimulus"":""img/2to3/10.png"",""time"":1005},{""stimulus"":""img/2to3/11.png"",""time"":1105},{""stimulus"":""img/2to3/12.png"",""time"":1205}]","[]"
"","","","observe","63d13bce0971871b9ff88f56","bdp_cybrbll","Sun Mar 26 2023 10:29:17 GMT-0400 (Eastern Daylight Time)","421126","3","1","image-keyboard-response","73","80349","0.0-5.0-1.34","","null","","img/3to2/1.png","null","191","526","0.5","0.5","3","2","",""
"","","","","63d13bce0971871b9ff88f56","bdp_cybrbll","Sun Mar 26 2023 10:29:17 GMT-0400 (Eastern Daylight Time)","421126","3","1","animation","74","81652","0.0-5.0-2.34","","","","","","191","","","","3","2","[{""stimulus"":""img/3to2/1.png"",""time"":101},{""stimulus"":""img/3to2/2.png"",""time"":201},{""stimulus"":""img/3to2/3.png"",""time"":301},{""stimulus"":""img/3to2/4.png"",""time"":402},{""stimulus"":""img/3to2/5.png"",""time"":502},{""stimulus"":""img/3to2/6.png"",""time"":602},{""stimulus"":""img/3to2/7.png"",""time"":702},{""stimulus"":""img/3to2/8.png"",""time"":803},{""stimulus"":""img/3to2/9.png"",""time"":902},{""stimulus"":""img/3to2/10.png"",""time"":1003},{""stimulus"":""img/3to2/11.png"",""time"":1103},{""stimulus"":""img/3to2/12.png"",""time"":1204}]","[]"
"","","","choice","63d13bce0971871b9ff88f56","bdp_cybrbll","Sun Mar 26 2023 10:29:17 GMT-0400 (Eastern Daylight Time)","421126","3","1","image-keyboard-response","75","81903","0.0-5.0-1.35","","250","","img/2to1/1.png","1","190","777","0.5","0.5","2","1","",""
"","","","","63d13bce0971871b9ff88f56","bdp_cybrbll","Sun Mar 26 2023 10:29:17 GMT-0400 (Eastern Daylight Time)","421126","3","1","animation","76","83208","0.0-5.0-2.35","","","","","","190","","","","2","1","[{""stimulus"":""img/2to1/1.png"",""time"":103},{""stimulus"":""img/2to1/2.png"",""time"":203},{""stimulus"":""img/2to1/3.png"",""time"":303},{""stimulus"":""img/2to1/4.png"",""time"":403},{""stimulus"":""img/2to1/5.png"",""time"":504},{""stimulus"":""img/2to1/6.png"",""time"":604},{""stimulus"":""img/2to1/7.png"",""time"":705},{""stimulus"":""img/2to1/8.png"",""time"":803},{""stimulus"":""img/2to1/9.png"",""time"":904},{""stimulus"":""img/2to1/10.png"",""time"":1005},{""stimulus"":""img/2to1/11.png"",""time"":1105},{""stimulus"":""img/2to1/12.png"",""time"":1205}]","[]"
"","","","observe","63d13bce0971871b9ff88f56","bdp_cybrbll","Sun Mar 26 2023 10:29:17 GMT-0400 (Eastern Daylight Time)","421126","3","1","image-keyboard-response","77","83371","0.0-5.0-1.36","","null","","img/1to3/1.png","null","189","159","0.5","0.5","1","2","",""
"","","","","63d13bce0971871b9ff88f56","bdp_cybrbll","Sun Mar 26 2023 10:29:17 GMT-0400 (Eastern Daylight Time)","421126","3","1","animation","78","84671","0.0-5.0-2.36","","","","","","189","","","","1","2","[{""stimulus"":""img/1to2/1.png"",""time"":100},{""stimulus"":""img/1to2/2.png"",""time"":199},{""stimulus"":""img/1to2/3.png"",""time"":299},{""stimulus"":""img/1to2/4.png"",""time"":399},{""stimulus"":""img/1to2/5.png"",""time"":499},{""stimulus"":""img/1to2/6.png"",""time"":600},{""stimulus"":""img/1to2/7.png"",""time"":699},{""stimulus"":""img/1to2/8.png"",""time"":799},{""stimulus"":""img/1to2/9.png"",""time"":898},{""stimulus"":""img/1to2/10.png"",""time"":999},{""stimulus"":""img/1to2/11.png"",""time"":1099},{""stimulus"":""img/1to2/12.png"",""time"":1200}]","[]"
"","","","choice","63d13bce0971871b9ff88f56","bdp_cybrbll","Sun Mar 26 2023 10:29:17 GMT-0400 (Eastern Daylight Time)","421126","3","1","image-keyboard-response","79","84782","0.0-5.0-1.37","","111","","img/2to1/1.png","2","188","885","0.5","0.5","2","3","",""
"","","","","63d13bce0971871b9ff88f56","bdp_cybrbll","Sun Mar 26 2023 10:29:17 GMT-0400 (Eastern Daylight Time)","421126","3","1","animation","80","86087","0.0-5.0-2.37","","","","","","188","","","","2","3","[{""stimulus"":""img/2to3/1.png"",""time"":104},{""stimulus"":""img/2to3/2.png"",""time"":205},{""stimulus"":""img/2to3/3.png"",""time"":305},{""stimulus"":""img/2to3/4.png"",""time"":405},{""stimulus"":""img/2to3/5.png"",""time"":505},{""stimulus"":""img/2to3/6.png"",""time"":604},{""stimulus"":""img/2to3/7.png"",""time"":705},{""stimulus"":""img/2to3/8.png"",""time"":805},{""stimulus"":""img/2to3/9.png"",""time"":905},{""stimulus"":""img/2to3/10.png"",""time"":1004},{""stimulus"":""img/2to3/11.png"",""time"":1106},{""stimulus"":""img/2to3/12.png"",""time"":1205}]","[]"
"","","","observe","63d13bce0971871b9ff88f56","bdp_cybrbll","Sun Mar 26 2023 10:29:17 GMT-0400 (Eastern Daylight Time)","421126","3","1","image-keyboard-response","81","86455","0.0-5.0-1.38","","null","","img/3to2/1.png","null","187","359","0.5","0.5","3","2","",""
"","","","","63d13bce0971871b9ff88f56","bdp_cybrbll","Sun Mar 26 2023 10:29:17 GMT-0400 (Eastern Daylight Time)","421126","3","1","animation","82","87756","0.0-5.0-2.38","","","","","","187","","","","3","2","[{""stimulus"":""img/3to2/1.png"",""time"":100},{""stimulus"":""img/3to2/2.png"",""time"":201},{""stimulus"":""img/3to2/3.png"",""time"":300},{""stimulus"":""img/3to2/4.png"",""time"":401},{""stimulus"":""img/3to2/5.png"",""time"":501},{""stimulus"":""img/3to2/6.png"",""time"":600},{""stimulus"":""img/3to2/7.png"",""time"":701},{""stimulus"":""img/3to2/8.png"",""time"":800},{""stimulus"":""img/3to2/9.png"",""time"":900},{""stimulus"":""img/3to2/10.png"",""time"":1001},{""stimulus"":""img/3to2/11.png"",""time"":1100},{""stimulus"":""img/3to2/12.png"",""time"":1201}]","[]"
"","","","choice","63d13bce0971871b9ff88f56","bdp_cybrbll","Sun Mar 26 2023 10:29:17 GMT-0400 (Eastern Daylight Time)","421126","3","1","image-keyboard-response","83","88119","0.0-5.0-1.39","","362","","img/2to1/1.png","1","186","289","0.5","0.5","2","1","",""
"","","","","63d13bce0971871b9ff88f56","bdp_cybrbll","Sun Mar 26 2023 10:29:17 GMT-0400 (Eastern Daylight Time)","421126","3","1","animation","84","89426","0.0-5.0-2.39","","","","","","186","","","","2","1","[{""stimulus"":""img/2to1/1.png"",""time"":106},{""stimulus"":""img/2to1/2.png"",""time"":205},{""stimulus"":""img/2to1/3.png"",""time"":305},{""stimulus"":""img/2to1/4.png"",""time"":406},{""stimulus"":""img/2to1/5.png"",""time"":506},{""stimulus"":""img/2to1/6.png"",""time"":605},{""stimulus"":""img/2to1/7.png"",""time"":706},{""stimulus"":""img/2to1/8.png"",""time"":805},{""stimulus"":""img/2to1/9.png"",""time"":907},{""stimulus"":""img/2to1/10.png"",""time"":1007},{""stimulus"":""img/2to1/11.png"",""time"":1106},{""stimulus"":""img/2to1/12.png"",""time"":1206}]","[]"
"","","","observe","63d13bce0971871b9ff88f56","bdp_cybrbll","Sun Mar 26 2023 10:29:17 GMT-0400 (Eastern Daylight Time)","421126","3","1","image-keyboard-response","85","89659","0.0-5.0-1.40","","null","","img/1to3/1.png","null","185","226","0.5","0.5","1","3","",""
"","","","","63d13bce0971871b9ff88f56","bdp_cybrbll","Sun Mar 26 2023 10:29:17 GMT-0400 (Eastern Daylight Time)","421126","3","1","animation","86","90961","0.0-5.0-2.40","","","","","","185","","","","1","3","[{""stimulus"":""img/1to3/1.png"",""time"":100},{""stimulus"":""img/1to3/2.png"",""time"":200},{""stimulus"":""img/1to3/3.png"",""time"":300},{""stimulus"":""img/1to3/4.png"",""time"":401},{""stimulus"":""img/1to3/5.png"",""time"":501},{""stimulus"":""img/1to3/6.png"",""time"":601},{""stimulus"":""img/1to3/7.png"",""time"":701},{""stimulus"":""img/1to3/8.png"",""time"":802},{""stimulus"":""img/1to3/9.png"",""time"":901},{""stimulus"":""img/1to3/10.png"",""time"":1002},{""stimulus"":""img/1to3/11.png"",""time"":1102},{""stimulus"":""img/1to3/12.png"",""time"":1203}]","[]"
"","","","observe","63d13bce0971871b9ff88f56","bdp_cybrbll","Sun Mar 26 2023 10:29:17 GMT-0400 (Eastern Daylight Time)","421126","3","1","image-keyboard-response","87","91448","0.0-5.0-1.41","","null","","img/3to2/1.png","null","184","481","0.5","0.5","3","1","",""
"","","","","63d13bce0971871b9ff88f56","bdp_cybrbll","Sun Mar 26 2023 10:29:17 GMT-0400 (Eastern Daylight Time)","421126","3","1","animation","88","92750","0.0-5.0-2.41","","","","","","184","","","","3","1","[{""stimulus"":""img/3to1/1.png"",""time"":100},{""stimulus"":""img/3to1/2.png"",""time"":200},{""stimulus"":""img/3to1/3.png"",""time"":301},{""stimulus"":""img/3to1/4.png"",""time"":401},{""stimulus"":""img/3to1/5.png"",""time"":501},{""stimulus"":""img/3to1/6.png"",""time"":601},{""stimulus"":""img/3to1/7.png"",""time"":702},{""stimulus"":""img/3to1/8.png"",""time"":802},{""stimulus"":""img/3to1/9.png"",""time"":902},{""stimulus"":""img/3to1/10.png"",""time"":1003},{""stimulus"":""img/3to1/11.png"",""time"":1103},{""stimulus"":""img/3to1/12.png"",""time"":1203}]","[]"
"","","","observe","63d13bce0971871b9ff88f56","bdp_cybrbll","Sun Mar 26 2023 10:29:17 GMT-0400 (Eastern Daylight Time)","421126","3","1","image-keyboard-response","89","93120","0.0-5.0-1.42","","null","","img/1to3/1.png","null","183","357","0.5","0.5","1","2","",""
"","","","","63d13bce0971871b9ff88f56","bdp_cybrbll","Sun Mar 26 2023 10:29:17 GMT-0400 (Eastern Daylight Time)","421126","3","1","animation","90","94423","0.0-5.0-2.42","","","","","","183","","","","1","2","[{""stimulus"":""img/1to2/1.png"",""time"":100},{""stimulus"":""img/1to2/2.png"",""time"":200},{""stimulus"":""img/1to2/3.png"",""time"":300},{""stimulus"":""img/1to2/4.png"",""time"":400},{""stimulus"":""img/1to2/5.png"",""time"":501},{""stimulus"":""img/1to2/6.png"",""time"":601},{""stimulus"":""img/1to2/7.png"",""time"":700},{""stimulus"":""img/1to2/8.png"",""time"":800},{""stimulus"":""img/1to2/9.png"",""time"":902},{""stimulus"":""img/1to2/10.png"",""time"":1001},{""stimulus"":""img/1to2/11.png"",""time"":1102},{""stimulus"":""img/1to2/12.png"",""time"":1202}]","[]"
"","","","choice","63d13bce0971871b9ff88f56","bdp_cybrbll","Sun Mar 26 2023 10:29:17 GMT-0400 (Eastern Daylight Time)","421126","3","1","image-keyboard-response","91","94607","0.0-5.0-1.43","","184","","img/2to1/1.png","2","182","480","0.5","0.5","2","3","",""
"","","","","63d13bce0971871b9ff88f56","bdp_cybrbll","Sun Mar 26 2023 10:29:17 GMT-0400 (Eastern Daylight Time)","421126","3","1","animation","92","95925","0.0-5.0-2.43","","","","","","182","","","","2","3","[{""stimulus"":""img/2to3/1.png"",""time"":116},{""stimulus"":""img/2to3/2.png"",""time"":217},{""stimulus"":""img/2to3/3.png"",""time"":317},{""stimulus"":""img/2to3/4.png"",""time"":417},{""stimulus"":""img/2to3/5.png"",""time"":517},{""stimulus"":""img/2to3/6.png"",""time"":617},{""stimulus"":""img/2to3/7.png"",""time"":718},{""stimulus"":""img/2to3/8.png"",""time"":818},{""stimulus"":""img/2to3/9.png"",""time"":918},{""stimulus"":""img/2to3/10.png"",""time"":1019},{""stimulus"":""img/2to3/11.png"",""time"":1118},{""stimulus"":""img/2to3/12.png"",""time"":1218}]","[]"
"","","","observe","63d13bce0971871b9ff88f56","bdp_cybrbll","Sun Mar 26 2023 10:29:17 GMT-0400 (Eastern Daylight Time)","421126","3","1","image-keyboard-response","93","96989","0.0-5.0-1.44","","null","","img/3to2/1.png","null","181","1062","0.5","0.5","3","1","",""
"","","","","63d13bce0971871b9ff88f56","bdp_cybrbll","Sun Mar 26 2023 10:29:17 GMT-0400 (Eastern Daylight Time)","421126","3","1","animation","94","98292","0.0-5.0-2.44","","","","","","181","","","","3","1","[{""stimulus"":""img/3to1/1.png"",""time"":99},{""stimulus"":""img/3to1/2.png"",""time"":199},{""stimulus"":""img/3to1/3.png"",""time"":299},{""stimulus"":""img/3to1/4.png"",""time"":400},{""stimulus"":""img/3to1/5.png"",""time"":500},{""stimulus"":""img/3to1/6.png"",""time"":601},{""stimulus"":""img/3to1/7.png"",""time"":701},{""stimulus"":""img/3to1/8.png"",""time"":801},{""stimulus"":""img/3to1/9.png"",""time"":901},{""stimulus"":""img/3to1/10.png"",""time"":1001},{""stimulus"":""img/3to1/11.png"",""time"":1101},{""stimulus"":""img/3to1/12.png"",""time"":1202}]","[]"
"","","","observe","63d13bce0971871b9ff88f56","bdp_cybrbll","Sun Mar 26 2023 10:29:17 GMT-0400 (Eastern Daylight Time)","421126","3","1","image-keyboard-response","95","98846","0.0-5.0-1.45","","null","","img/1to3/1.png","null","180","548","0.5","0.5","1","3","",""
"","","","","63d13bce0971871b9ff88f56","bdp_cybrbll","Sun Mar 26 2023 10:29:17 GMT-0400 (Eastern Daylight Time)","421126","3","1","animation","96","100146","0.0-5.0-2.45","","","","","","180","","","","1","3","[{""stimulus"":""img/1to3/1.png"",""time"":100},{""stimulus"":""img/1to3/2.png"",""time"":200},{""stimulus"":""img/1to3/3.png"",""time"":299},{""stimulus"":""img/1to3/4.png"",""time"":400},{""stimulus"":""img/1to3/5.png"",""time"":500},{""stimulus"":""img/1to3/6.png"",""time"":600},{""stimulus"":""img/1to3/7.png"",""time"":700},{""stimulus"":""img/1to3/8.png"",""time"":801},{""stimulus"":""img/1to3/9.png"",""time"":900},{""stimulus"":""img/1to3/10.png"",""time"":1001},{""stimulus"":""img/1to3/11.png"",""time"":1100},{""stimulus"":""img/1to3/12.png"",""time"":1201}]","[]"
"","","","observe","63d13bce0971871b9ff88f56","bdp_cybrbll","Sun Mar 26 2023 10:29:17 GMT-0400 (Eastern Daylight Time)","421126","3","1","image-keyboard-response","97","100331","0.0-5.0-1.46","","null","","img/3to2/1.png","null","179","177","0.5","0.5","3","1","",""
"","","","","63d13bce0971871b9ff88f56","bdp_cybrbll","Sun Mar 26 2023 10:29:17 GMT-0400 (Eastern Daylight Time)","421126","3","1","animation","98","101634","0.0-5.0-2.46","","","","","","179","","","","3","1","[{""stimulus"":""img/3to1/1.png"",""time"":101},{""stimulus"":""img/3to1/2.png"",""time"":201},{""stimulus"":""img/3to1/3.png"",""time"":302},{""stimulus"":""img/3to1/4.png"",""time"":402},{""stimulus"":""img/3to1/5.png"",""time"":502},{""stimulus"":""img/3to1/6.png"",""time"":602},{""stimulus"":""img/3to1/7.png"",""time"":702},{""stimulus"":""img/3to1/8.png"",""time"":802},{""stimulus"":""img/3to1/9.png"",""time"":902},{""stimulus"":""img/3to1/10.png"",""time"":1002},{""stimulus"":""img/3to1/11.png"",""time"":1102},{""stimulus"":""img/3to1/12.png"",""time"":1203}]","[]"
"","","","observe","63d13bce0971871b9ff88f56","bdp_cybrbll","Sun Mar 26 2023 10:29:17 GMT-0400 (Eastern Daylight Time)","421126","3","1","image-keyboard-response","99","101934","0.0-5.0-1.47","","null","","img/1to3/1.png","null","178","289","0.5","0.5","1","2","",""
"","","","","63d13bce0971871b9ff88f56","bdp_cybrbll","Sun Mar 26 2023 10:29:17 GMT-0400 (Eastern Daylight Time)","421126","3","1","animation","100","103237","0.0-5.0-2.47","","","","","","178","","","","1","2","[{""stimulus"":""img/1to2/1.png"",""time"":101},{""stimulus"":""img/1to2/2.png"",""time"":200},{""stimulus"":""img/1to2/3.png"",""time"":300},{""stimulus"":""img/1to2/4.png"",""time"":401},{""stimulus"":""img/1to2/5.png"",""time"":501},{""stimulus"":""img/1to2/6.png"",""time"":601},{""stimulus"":""img/1to2/7.png"",""time"":702},{""stimulus"":""img/1to2/8.png"",""time"":802},{""stimulus"":""img/1to2/9.png"",""time"":902},{""stimulus"":""img/1to2/10.png"",""time"":1003},{""stimulus"":""img/1to2/11.png"",""time"":1103},{""stimulus"":""img/1to2/12.png"",""time"":1203}]","[]"
"","","","choice","63d13bce0971871b9ff88f56","bdp_cybrbll","Sun Mar 26 2023 10:29:17 GMT-0400 (Eastern Daylight Time)","421126","3","1","image-keyboard-response","101","103583","0.0-5.0-1.48","","345","","img/2to1/1.png","2","177","1861","0.5","0.5","2","3","",""
"","","","","63d13bce0971871b9ff88f56","bdp_cybrbll","Sun Mar 26 2023 10:29:17 GMT-0400 (Eastern Daylight Time)","421126","3","1","animation","102","104887","0.0-5.0-2.48","","","","","","177","","","","2","3","[{""stimulus"":""img/2to3/1.png"",""time"":102},{""stimulus"":""img/2to3/2.png"",""time"":202},{""stimulus"":""img/2to3/3.png"",""time"":302},{""stimulus"":""img/2to3/4.png"",""time"":403},{""stimulus"":""img/2to3/5.png"",""time"":502},{""stimulus"":""img/2to3/6.png"",""time"":603},{""stimulus"":""img/2to3/7.png"",""time"":703},{""stimulus"":""img/2to3/8.png"",""time"":803},{""stimulus"":""img/2to3/9.png"",""time"":903},{""stimulus"":""img/2to3/10.png"",""time"":1004},{""stimulus"":""img/2to3/11.png"",""time"":1104},{""stimulus"":""img/2to3/12.png"",""time"":1205}]","[]"
"","","","observe","63d13bce0971871b9ff88f56","bdp_cybrbll","Sun Mar 26 2023 10:29:17 GMT-0400 (Eastern Daylight Time)","421126","3","1","image-keyboard-response","103","105157","0.0-5.0-1.49","","null","","img/3to2/1.png","null","176","265","0.5","0.5","3","2","",""
"","","","","63d13bce0971871b9ff88f56","bdp_cybrbll","Sun Mar 26 2023 10:29:17 GMT-0400 (Eastern Daylight Time)","421126","3","1","animation","104","106457","0.0-5.0-2.49","","","","","","176","","","","3","2","[{""stimulus"":""img/3to2/1.png"",""time"":99},{""stimulus"":""img/3to2/2.png"",""time"":201},{""stimulus"":""img/3to2/3.png"",""time"":301},{""stimulus"":""img/3to2/4.png"",""time"":400},{""stimulus"":""img/3to2/5.png"",""time"":500},{""stimulus"":""img/3to2/6.png"",""time"":601},{""stimulus"":""img/3to2/7.png"",""time"":701},{""stimulus"":""img/3to2/8.png"",""time"":801},{""stimulus"":""img/3to2/9.png"",""time"":901},{""stimulus"":""img/3to2/10.png"",""time"":1001},{""stimulus"":""img/3to2/11.png"",""time"":1100},{""stimulus"":""img/3to2/12.png"",""time"":1201}]","[]"
"","","","choice","63d13bce0971871b9ff88f56","bdp_cybrbll","Sun Mar 26 2023 10:29:17 GMT-0400 (Eastern Daylight Time)","421126","3","1","image-keyboard-response","105","106911","0.0-5.0-1.50","","453","","img/2to1/1.png","1","175","281","0.5","0.5","2","1","",""
"","","","","63d13bce0971871b9ff88f56","bdp_cybrbll","Sun Mar 26 2023 10:29:17 GMT-0400 (Eastern Daylight Time)","421126","3","1","animation","106","108222","0.0-5.0-2.50","","","","","","175","","","","2","1","[{""stimulus"":""img/2to1/1.png"",""time"":110},{""stimulus"":""img/2to1/2.png"",""time"":210},{""stimulus"":""img/2to1/3.png"",""time"":311},{""stimulus"":""img/2to1/4.png"",""time"":411},{""stimulus"":""img/2to1/5.png"",""time"":510},{""stimulus"":""img/2to1/6.png"",""time"":610},{""stimulus"":""img/2to1/7.png"",""time"":711},{""stimulus"":""img/2to1/8.png"",""time"":811},{""stimulus"":""img/2to1/9.png"",""time"":911},{""stimulus"":""img/2to1/10.png"",""time"":1011},{""stimulus"":""img/2to1/11.png"",""time"":1111},{""stimulus"":""img/2to1/12.png"",""time"":1211}]","[]"
"","","","observe","63d13bce0971871b9ff88f56","bdp_cybrbll","Sun Mar 26 2023 10:29:17 GMT-0400 (Eastern Daylight Time)","421126","3","1","image-keyboard-response","107","109324","0.0-5.0-1.51","","null","","img/1to3/1.png","null","174","1094","0.5","0.5","1","2","",""
"","","","","63d13bce0971871b9ff88f56","bdp_cybrbll","Sun Mar 26 2023 10:29:17 GMT-0400 (Eastern Daylight Time)","421126","3","1","animation","108","110627","0.0-5.0-2.51","","","","","","174","","","","1","2","[{""stimulus"":""img/1to2/1.png"",""time"":100},{""stimulus"":""img/1to2/2.png"",""time"":200},{""stimulus"":""img/1to2/3.png"",""time"":301},{""stimulus"":""img/1to2/4.png"",""time"":401},{""stimulus"":""img/1to2/5.png"",""time"":501},{""stimulus"":""img/1to2/6.png"",""time"":601},{""stimulus"":""img/1to2/7.png"",""time"":701},{""stimulus"":""img/1to2/8.png"",""time"":802},{""stimulus"":""img/1to2/9.png"",""time"":902},{""stimulus"":""img/1to2/10.png"",""time"":1002},{""stimulus"":""img/1to2/11.png"",""time"":1102},{""stimulus"":""img/1to2/12.png"",""time"":1202}]","[]"
"","","","choice","63d13bce0971871b9ff88f56","bdp_cybrbll","Sun Mar 26 2023 10:29:17 GMT-0400 (Eastern Daylight Time)","421126","3","1","image-keyboard-response","109","110861","0.0-5.0-1.52","","233","","img/2to1/1.png","2","173","280","0.5","0.5","2","3","",""
"","","","","63d13bce0971871b9ff88f56","bdp_cybrbll","Sun Mar 26 2023 10:29:17 GMT-0400 (Eastern Daylight Time)","421126","3","1","animation","110","112168","0.0-5.0-2.52","","","","","","173","","","","2","3","[{""stimulus"":""img/2to3/1.png"",""time"":104},{""stimulus"":""img/2to3/2.png"",""time"":205},{""stimulus"":""img/2to3/3.png"",""time"":305},{""stimulus"":""img/2to3/4.png"",""time"":405},{""stimulus"":""img/2to3/5.png"",""time"":505},{""stimulus"":""img/2to3/6.png"",""time"":605},{""stimulus"":""img/2to3/7.png"",""time"":706},{""stimulus"":""img/2to3/8.png"",""time"":805},{""stimulus"":""img/2to3/9.png"",""time"":906},{""stimulus"":""img/2to3/10.png"",""time"":1006},{""stimulus"":""img/2to3/11.png"",""time"":1106},{""stimulus"":""img/2to3/12.png"",""time"":1207}]","[]"
"","","","observe","63d13bce0971871b9ff88f56","bdp_cybrbll","Sun Mar 26 2023 10:29:17 GMT-0400 (Eastern Daylight Time)","421126","3","1","image-keyboard-response","111","112485","0.0-5.0-1.53","","null","","img/3to2/1.png","null","172","304","0.5","0.5","3","1","",""
"","","","","63d13bce0971871b9ff88f56","bdp_cybrbll","Sun Mar 26 2023 10:29:17 GMT-0400 (Eastern Daylight Time)","421126","3","1","animation","112","113788","0.0-5.0-2.53","","","","","","172","","","","3","1","[{""stimulus"":""img/3to1/1.png"",""time"":100},{""stimulus"":""img/3to1/2.png"",""time"":200},{""stimulus"":""img/3to1/3.png"",""time"":301},{""stimulus"":""img/3to1/4.png"",""time"":402},{""stimulus"":""img/3to1/5.png"",""time"":501},{""stimulus"":""img/3to1/6.png"",""time"":601},{""stimulus"":""img/3to1/7.png"",""time"":701},{""stimulus"":""img/3to1/8.png"",""time"":802},{""stimulus"":""img/3to1/9.png"",""time"":901},{""stimulus"":""img/3to1/10.png"",""time"":1002},{""stimulus"":""img/3to1/11.png"",""time"":1103},{""stimulus"":""img/3to1/12.png"",""time"":1202}]","[]"
"","","","observe","63d13bce0971871b9ff88f56","bdp_cybrbll","Sun Mar 26 2023 10:29:17 GMT-0400 (Eastern Daylight Time)","421126","3","1","image-keyboard-response","113","114135","0.0-5.0-1.54","","null","","img/1to3/1.png","null","171","345","0.5","0.5","1","2","",""
"","","","","63d13bce0971871b9ff88f56","bdp_cybrbll","Sun Mar 26 2023 10:29:17 GMT-0400 (Eastern Daylight Time)","421126","3","1","animation","114","115436","0.0-5.0-2.54","","","","","","171","","","","1","2","[{""stimulus"":""img/1to2/1.png"",""time"":101},{""stimulus"":""img/1to2/2.png"",""time"":200},{""stimulus"":""img/1to2/3.png"",""time"":300},{""stimulus"":""img/1to2/4.png"",""time"":401},{""stimulus"":""img/1to2/5.png"",""time"":501},{""stimulus"":""img/1to2/6.png"",""time"":601},{""stimulus"":""img/1to2/7.png"",""time"":701},{""stimulus"":""img/1to2/8.png"",""time"":802},{""stimulus"":""img/1to2/9.png"",""time"":902},{""stimulus"":""img/1to2/10.png"",""time"":1002},{""stimulus"":""img/1to2/11.png"",""time"":1102},{""stimulus"":""img/1to2/12.png"",""time"":1202}]","[]"
"","","","choice","63d13bce0971871b9ff88f56","bdp_cybrbll","Sun Mar 26 2023 10:29:17 GMT-0400 (Eastern Daylight Time)","421126","3","1","image-keyboard-response","115","115719","0.0-5.0-1.55","","282","","img/2to1/1.png","2","170","585","0.5","0.5","2","3","",""
"","","","","63d13bce0971871b9ff88f56","bdp_cybrbll","Sun Mar 26 2023 10:29:17 GMT-0400 (Eastern Daylight Time)","421126","3","1","animation","116","117021","0.0-5.0-2.55","","","","","","170","","","","2","3","[{""stimulus"":""img/2to3/1.png"",""time"":102},{""stimulus"":""img/2to3/2.png"",""time"":202},{""stimulus"":""img/2to3/3.png"",""time"":303},{""stimulus"":""img/2to3/4.png"",""time"":403},{""stimulus"":""img/2to3/5.png"",""time"":502},{""stimulus"":""img/2to3/6.png"",""time"":603},{""stimulus"":""img/2to3/7.png"",""time"":702},{""stimulus"":""img/2to3/8.png"",""time"":803},{""stimulus"":""img/2to3/9.png"",""time"":903},{""stimulus"":""img/2to3/10.png"",""time"":1003},{""stimulus"":""img/2to3/11.png"",""time"":1103},{""stimulus"":""img/2to3/12.png"",""time"":1202}]","[]"
"","","","observe","63d13bce0971871b9ff88f56","bdp_cybrbll","Sun Mar 26 2023 10:29:17 GMT-0400 (Eastern Daylight Time)","421126","3","1","image-keyboard-response","117","118841","0.0-5.0-1.56","","null","","img/3to2/1.png","null","169","1818","0.5","0.5","3","1","",""
"","","","","63d13bce0971871b9ff88f56","bdp_cybrbll","Sun Mar 26 2023 10:29:17 GMT-0400 (Eastern Daylight Time)","421126","3","1","animation","118","120142","0.0-5.0-2.56","","","","","","169","","","","3","1","[{""stimulus"":""img/3to1/1.png"",""time"":99},{""stimulus"":""img/3to1/2.png"",""time"":201},{""stimulus"":""img/3to1/3.png"",""time"":300},{""stimulus"":""img/3to1/4.png"",""time"":400},{""stimulus"":""img/3to1/5.png"",""time"":501},{""stimulus"":""img/3to1/6.png"",""time"":601},{""stimulus"":""img/3to1/7.png"",""time"":701},{""stimulus"":""img/3to1/8.png"",""time"":801},{""stimulus"":""img/3to1/9.png"",""time"":901},{""stimulus"":""img/3to1/10.png"",""time"":1001},{""stimulus"":""img/3to1/11.png"",""time"":1101},{""stimulus"":""img/3to1/12.png"",""time"":1201}]","[]"
"","","","observe","63d13bce0971871b9ff88f56","bdp_cybrbll","Sun Mar 26 2023 10:29:17 GMT-0400 (Eastern Daylight Time)","421126","3","1","image-keyboard-response","119","120680","0.0-5.0-1.57","","null","","img/1to3/1.png","null","168","523","0.5","0.5","1","3","",""
"","","","","63d13bce0971871b9ff88f56","bdp_cybrbll","Sun Mar 26 2023 10:29:17 GMT-0400 (Eastern Daylight Time)","421126","3","1","animation","120","121984","0.0-5.0-2.57","","","","","","168","","","","1","3","[{""stimulus"":""img/1to3/1.png"",""time"":101},{""stimulus"":""img/1to3/2.png"",""time"":200},{""stimulus"":""img/1to3/3.png"",""time"":300},{""stimulus"":""img/1to3/4.png"",""time"":401},{""stimulus"":""img/1to3/5.png"",""time"":502},{""stimulus"":""img/1to3/6.png"",""time"":601},{""stimulus"":""img/1to3/7.png"",""time"":702},{""stimulus"":""img/1to3/8.png"",""time"":802},{""stimulus"":""img/1to3/9.png"",""time"":901},{""stimulus"":""img/1to3/10.png"",""time"":1003},{""stimulus"":""img/1to3/11.png"",""time"":1103},{""stimulus"":""img/1to3/12.png"",""time"":1203}]","[]"
"","","","observe","63d13bce0971871b9ff88f56","bdp_cybrbll","Sun Mar 26 2023 10:29:17 GMT-0400 (Eastern Daylight Time)","421126","3","1","image-keyboard-response","121","122501","0.0-5.0-1.58","","null","","img/3to2/1.png","null","167","507","0.5","0.5","3","1","",""
"","","","","63d13bce0971871b9ff88f56","bdp_cybrbll","Sun Mar 26 2023 10:29:17 GMT-0400 (Eastern Daylight Time)","421126","3","1","animation","122","123803","0.0-5.0-2.58","","","","","","167","","","","3","1","[{""stimulus"":""img/3to1/1.png"",""time"":101},{""stimulus"":""img/3to1/2.png"",""time"":201},{""stimulus"":""img/3to1/3.png"",""time"":301},{""stimulus"":""img/3to1/4.png"",""time"":401},{""stimulus"":""img/3to1/5.png"",""time"":501},{""stimulus"":""img/3to1/6.png"",""time"":601},{""stimulus"":""img/3to1/7.png"",""time"":701},{""stimulus"":""img/3to1/8.png"",""time"":801},{""stimulus"":""img/3to1/9.png"",""time"":902},{""stimulus"":""img/3to1/10.png"",""time"":1002},{""stimulus"":""img/3to1/11.png"",""time"":1101},{""stimulus"":""img/3to1/12.png"",""time"":1202}]","[]"
"","","","observe","63d13bce0971871b9ff88f56","bdp_cybrbll","Sun Mar 26 2023 10:29:17 GMT-0400 (Eastern Daylight Time)","421126","3","1","image-keyboard-response","123","124387","0.0-5.0-1.59","","null","","img/1to3/1.png","null","166","579","0.5","0.5","1","2","",""
"","","","","63d13bce0971871b9ff88f56","bdp_cybrbll","Sun Mar 26 2023 10:29:17 GMT-0400 (Eastern Daylight Time)","421126","3","1","animation","124","125689","0.0-5.0-2.59","","","","","","166","","","","1","2","[{""stimulus"":""img/1to2/1.png"",""time"":101},{""stimulus"":""img/1to2/2.png"",""time"":201},{""stimulus"":""img/1to2/3.png"",""time"":301},{""stimulus"":""img/1to2/4.png"",""time"":401},{""stimulus"":""img/1to2/5.png"",""time"":501},{""stimulus"":""img/1to2/6.png"",""time"":602},{""stimulus"":""img/1to2/7.png"",""time"":701},{""stimulus"":""img/1to2/8.png"",""time"":802},{""stimulus"":""img/1to2/9.png"",""time"":902},{""stimulus"":""img/1to2/10.png"",""time"":1002},{""stimulus"":""img/1to2/11.png"",""time"":1102},{""stimulus"":""img/1to2/12.png"",""time"":1202}]","[]"
"","","","choice","63d13bce0971871b9ff88f56","bdp_cybrbll","Sun Mar 26 2023 10:29:17 GMT-0400 (Eastern Daylight Time)","421126","3","1","image-keyboard-response","125","125895","0.0-5.0-1.60","","206","","img/2to1/1.png","2","165","731","0.5","0.5","2","3","",""
"","","","","63d13bce0971871b9ff88f56","bdp_cybrbll","Sun Mar 26 2023 10:29:17 GMT-0400 (Eastern Daylight Time)","421126","3","1","animation","126","127206","0.0-5.0-2.60","","","","","","165","","","","2","3","[{""stimulus"":""img/2to3/1.png"",""time"":109},{""stimulus"":""img/2to3/2.png"",""time"":209},{""stimulus"":""img/2to3/3.png"",""time"":309},{""stimulus"":""img/2to3/4.png"",""time"":409},{""stimulus"":""img/2to3/5.png"",""time"":510},{""stimulus"":""img/2to3/6.png"",""time"":609},{""stimulus"":""img/2to3/7.png"",""time"":709},{""stimulus"":""img/2to3/8.png"",""time"":810},{""stimulus"":""img/2to3/9.png"",""time"":910},{""stimulus"":""img/2to3/10.png"",""time"":1010},{""stimulus"":""img/2to3/11.png"",""time"":1110},{""stimulus"":""img/2to3/12.png"",""time"":1210}]","[]"
"","","","observe","63d13bce0971871b9ff88f56","bdp_cybrbll","Sun Mar 26 2023 10:29:17 GMT-0400 (Eastern Daylight Time)","421126","3","1","image-keyboard-response","127","128907","0.0-5.0-1.61","","null","","img/3to2/1.png","null","164","1685","0.5","0.5","3","1","",""
"","","","","63d13bce0971871b9ff88f56","bdp_cybrbll","Sun Mar 26 2023 10:29:17 GMT-0400 (Eastern Daylight Time)","421126","3","1","animation","128","130206","0.0-5.0-2.61","","","","","","164","","","","3","1","[{""stimulus"":""img/3to1/1.png"",""time"":100},{""stimulus"":""img/3to1/2.png"",""time"":200},{""stimulus"":""img/3to1/3.png"",""time"":299},{""stimulus"":""img/3to1/4.png"",""time"":399},{""stimulus"":""img/3to1/5.png"",""time"":499},{""stimulus"":""img/3to1/6.png"",""time"":600},{""stimulus"":""img/3to1/7.png"",""time"":699},{""stimulus"":""img/3to1/8.png"",""time"":800},{""stimulus"":""img/3to1/9.png"",""time"":899},{""stimulus"":""img/3to1/10.png"",""time"":1000},{""stimulus"":""img/3to1/11.png"",""time"":1100},{""stimulus"":""img/3to1/12.png"",""time"":1200}]","[]"
"","","","observe","63d13bce0971871b9ff88f56","bdp_cybrbll","Sun Mar 26 2023 10:29:17 GMT-0400 (Eastern Daylight Time)","421126","3","1","image-keyboard-response","129","130476","0.0-5.0-1.62","","null","","img/1to3/1.png","null","163","254","0.5","0.5","1","3","",""
"","","","","63d13bce0971871b9ff88f56","bdp_cybrbll","Sun Mar 26 2023 10:29:17 GMT-0400 (Eastern Daylight Time)","421126","3","1","animation","130","131775","0.0-5.0-2.62","","","","","","163","","","","1","3","[{""stimulus"":""img/1to3/1.png"",""time"":100},{""stimulus"":""img/1to3/2.png"",""time"":200},{""stimulus"":""img/1to3/3.png"",""time"":301},{""stimulus"":""img/1to3/4.png"",""time"":400},{""stimulus"":""img/1to3/5.png"",""time"":501},{""stimulus"":""img/1to3/6.png"",""time"":601},{""stimulus"":""img/1to3/7.png"",""time"":700},{""stimulus"":""img/1to3/8.png"",""time"":800},{""stimulus"":""img/1to3/9.png"",""time"":900},{""stimulus"":""img/1to3/10.png"",""time"":1000},{""stimulus"":""img/1to3/11.png"",""time"":1100},{""stimulus"":""img/1to3/12.png"",""time"":1200}]","[]"
"","","","observe","63d13bce0971871b9ff88f56","bdp_cybrbll","Sun Mar 26 2023 10:29:17 GMT-0400 (Eastern Daylight Time)","421126","3","1","image-keyboard-response","131","132393","0.0-5.0-1.63","","null","","img/3to2/1.png","null","162","610","0.5","0.5","3","2","",""
"","","","","63d13bce0971871b9ff88f56","bdp_cybrbll","Sun Mar 26 2023 10:29:17 GMT-0400 (Eastern Daylight Time)","421126","3","1","animation","132","133697","0.0-5.0-2.63","","","","","","162","","","","3","2","[{""stimulus"":""img/3to2/1.png"",""time"":100},{""stimulus"":""img/3to2/2.png"",""time"":200},{""stimulus"":""img/3to2/3.png"",""time"":301},{""stimulus"":""img/3to2/4.png"",""time"":401},{""stimulus"":""img/3to2/5.png"",""time"":502},{""stimulus"":""img/3to2/6.png"",""time"":602},{""stimulus"":""img/3to2/7.png"",""time"":701},{""stimulus"":""img/3to2/8.png"",""time"":802},{""stimulus"":""img/3to2/9.png"",""time"":902},{""stimulus"":""img/3to2/10.png"",""time"":1002},{""stimulus"":""img/3to2/11.png"",""time"":1102},{""stimulus"":""img/3to2/12.png"",""time"":1203}]","[]"
"","","","choice","63d13bce0971871b9ff88f56","bdp_cybrbll","Sun Mar 26 2023 10:29:17 GMT-0400 (Eastern Daylight Time)","421126","3","1","image-keyboard-response","133","134110","0.0-5.0-1.64","","413","","img/2to1/1.png","1","161","408","0.5","0.5","2","1","",""
"","","","","63d13bce0971871b9ff88f56","bdp_cybrbll","Sun Mar 26 2023 10:29:17 GMT-0400 (Eastern Daylight Time)","421126","3","1","animation","134","135415","0.0-5.0-2.64","","","","","","161","","","","2","1","[{""stimulus"":""img/2to1/1.png"",""time"":104},{""stimulus"":""img/2to1/2.png"",""time"":204},{""stimulus"":""img/2to1/3.png"",""time"":303},{""stimulus"":""img/2to1/4.png"",""time"":404},{""stimulus"":""img/2to1/5.png"",""time"":504},{""stimulus"":""img/2to1/6.png"",""time"":605},{""stimulus"":""img/2to1/7.png"",""time"":704},{""stimulus"":""img/2to1/8.png"",""time"":805},{""stimulus"":""img/2to1/9.png"",""time"":904},{""stimulus"":""img/2to1/10.png"",""time"":1004},{""stimulus"":""img/2to1/11.png"",""time"":1104},{""stimulus"":""img/2to1/12.png"",""time"":1205}]","[]"
"","","","observe","63d13bce0971871b9ff88f56","bdp_cybrbll","Sun Mar 26 2023 10:29:17 GMT-0400 (Eastern Daylight Time)","421126","3","1","image-keyboard-response","135","135785","0.0-5.0-1.65","","null","","img/1to3/1.png","null","160","350","0.5","0.5","1","3","",""
"","","","","63d13bce0971871b9ff88f56","bdp_cybrbll","Sun Mar 26 2023 10:29:17 GMT-0400 (Eastern Daylight Time)","421126","3","1","animation","136","137087","0.0-5.0-2.65","","","","","","160","","","","1","3","[{""stimulus"":""img/1to3/1.png"",""time"":99},{""stimulus"":""img/1to3/2.png"",""time"":200},{""stimulus"":""img/1to3/3.png"",""time"":300},{""stimulus"":""img/1to3/4.png"",""time"":400},{""stimulus"":""img/1to3/5.png"",""time"":501},{""stimulus"":""img/1to3/6.png"",""time"":601},{""stimulus"":""img/1to3/7.png"",""time"":701},{""stimulus"":""img/1to3/8.png"",""time"":801},{""stimulus"":""img/1to3/9.png"",""time"":901},{""stimulus"":""img/1to3/10.png"",""time"":1001},{""stimulus"":""img/1to3/11.png"",""time"":1102},{""stimulus"":""img/1to3/12.png"",""time"":1202}]","[]"
"","","","observe","63d13bce0971871b9ff88f56","bdp_cybrbll","Sun Mar 26 2023 10:29:17 GMT-0400 (Eastern Daylight Time)","421126","3","1","image-keyboard-response","137","137588","0.0-5.0-1.66","","null","","img/3to2/1.png","null","159","489","0.5","0.5","3","2","",""
"","","","","63d13bce0971871b9ff88f56","bdp_cybrbll","Sun Mar 26 2023 10:29:17 GMT-0400 (Eastern Daylight Time)","421126","3","1","animation","138","138891","0.0-5.0-2.66","","","","","","159","","","","3","2","[{""stimulus"":""img/3to2/1.png"",""time"":100},{""stimulus"":""img/3to2/2.png"",""time"":200},{""stimulus"":""img/3to2/3.png"",""time"":301},{""stimulus"":""img/3to2/4.png"",""time"":401},{""stimulus"":""img/3to2/5.png"",""time"":501},{""stimulus"":""img/3to2/6.png"",""time"":601},{""stimulus"":""img/3to2/7.png"",""time"":702},{""stimulus"":""img/3to2/8.png"",""time"":801},{""stimulus"":""img/3to2/9.png"",""time"":902},{""stimulus"":""img/3to2/10.png"",""time"":1002},{""stimulus"":""img/3to2/11.png"",""time"":1103},{""stimulus"":""img/3to2/12.png"",""time"":1203}]","[]"
"","","","choice","63d13bce0971871b9ff88f56","bdp_cybrbll","Sun Mar 26 2023 10:29:17 GMT-0400 (Eastern Daylight Time)","421126","3","1","image-keyboard-response","139","139063","0.0-5.0-1.67","","171","","img/2to1/1.png","1","158","862","0.5","0.5","2","1","",""
"","","","","63d13bce0971871b9ff88f56","bdp_cybrbll","Sun Mar 26 2023 10:29:17 GMT-0400 (Eastern Daylight Time)","421126","3","1","animation","140","140370","0.0-5.0-2.67","","","","","","158","","","","2","1","[{""stimulus"":""img/2to1/1.png"",""time"":106},{""stimulus"":""img/2to1/2.png"",""time"":207},{""stimulus"":""img/2to1/3.png"",""time"":307},{""stimulus"":""img/2to1/4.png"",""time"":406},{""stimulus"":""img/2to1/5.png"",""time"":508},{""stimulus"":""img/2to1/6.png"",""time"":608},{""stimulus"":""img/2to1/7.png"",""time"":707},{""stimulus"":""img/2to1/8.png"",""time"":807},{""stimulus"":""img/2to1/9.png"",""time"":909},{""stimulus"":""img/2to1/10.png"",""time"":1007},{""stimulus"":""img/2to1/11.png"",""time"":1108},{""stimulus"":""img/2to1/12.png"",""time"":1208}]","[]"
"","","","observe","63d13bce0971871b9ff88f56","bdp_cybrbll","Sun Mar 26 2023 10:29:17 GMT-0400 (Eastern Daylight Time)","421126","3","1","image-keyboard-response","141","141272","0.0-5.0-1.68","","null","","img/1to3/1.png","null","157","897","0.5","0.5","1","3","",""
"","","","","63d13bce0971871b9ff88f56","bdp_cybrbll","Sun Mar 26 2023 10:29:17 GMT-0400 (Eastern Daylight Time)","421126","3","1","animation","142","142572","0.0-5.0-2.68","","","","","","157","","","","1","3","[{""stimulus"":""img/1to3/1.png"",""time"":100},{""stimulus"":""img/1to3/2.png"",""time"":200},{""stimulus"":""img/1to3/3.png"",""time"":300},{""stimulus"":""img/1to3/4.png"",""time"":401},{""stimulus"":""img/1to3/5.png"",""time"":500},{""stimulus"":""img/1to3/6.png"",""time"":601},{""stimulus"":""img/1to3/7.png"",""time"":700},{""stimulus"":""img/1to3/8.png"",""time"":801},{""stimulus"":""img/1to3/9.png"",""time"":901},{""stimulus"":""img/1to3/10.png"",""time"":1001},{""stimulus"":""img/1to3/11.png"",""time"":1101},{""stimulus"":""img/1to3/12.png"",""time"":1201}]","[]"
"","","","observe","63d13bce0971871b9ff88f56","bdp_cybrbll","Sun Mar 26 2023 10:29:17 GMT-0400 (Eastern Daylight Time)","421126","3","1","image-keyboard-response","143","143459","0.0-5.0-1.69","","null","","img/3to2/1.png","null","156","881","0.5","0.5","3","1","",""
"","","","","63d13bce0971871b9ff88f56","bdp_cybrbll","Sun Mar 26 2023 10:29:17 GMT-0400 (Eastern Daylight Time)","421126","3","1","animation","144","144764","0.0-5.0-2.69","","","","","","156","","","","3","1","[{""stimulus"":""img/3to1/1.png"",""time"":100},{""stimulus"":""img/3to1/2.png"",""time"":201},{""stimulus"":""img/3to1/3.png"",""time"":301},{""stimulus"":""img/3to1/4.png"",""time"":401},{""stimulus"":""img/3to1/5.png"",""time"":502},{""stimulus"":""img/3to1/6.png"",""time"":602},{""stimulus"":""img/3to1/7.png"",""time"":702},{""stimulus"":""img/3to1/8.png"",""time"":803},{""stimulus"":""img/3to1/9.png"",""time"":903},{""stimulus"":""img/3to1/10.png"",""time"":1004},{""stimulus"":""img/3to1/11.png"",""time"":1105},{""stimulus"":""img/3to1/12.png"",""time"":1204}]","[]"
"","","","observe","63d13bce0971871b9ff88f56","bdp_cybrbll","Sun Mar 26 2023 10:29:17 GMT-0400 (Eastern Daylight Time)","421126","3","1","image-keyboard-response","145","145218","0.0-5.0-1.70","","null","","img/1to3/1.png","null","155","448","0.5","0.5","1","3","",""
"","","","","63d13bce0971871b9ff88f56","bdp_cybrbll","Sun Mar 26 2023 10:29:17 GMT-0400 (Eastern Daylight Time)","421126","3","1","animation","146","146521","0.0-5.0-2.70","","","","","","155","","","","1","3","[{""stimulus"":""img/1to3/1.png"",""time"":100},{""stimulus"":""img/1to3/2.png"",""time"":201},{""stimulus"":""img/1to3/3.png"",""time"":301},{""stimulus"":""img/1to3/4.png"",""time"":401},{""stimulus"":""img/1to3/5.png"",""time"":500},{""stimulus"":""img/1to3/6.png"",""time"":601},{""stimulus"":""img/1to3/7.png"",""time"":700},{""stimulus"":""img/1to3/8.png"",""time"":801},{""stimulus"":""img/1to3/9.png"",""time"":901},{""stimulus"":""img/1to3/10.png"",""time"":1002},{""stimulus"":""img/1to3/11.png"",""time"":1102},{""stimulus"":""img/1to3/12.png"",""time"":1203}]","[]"
"","","","observe","63d13bce0971871b9ff88f56","bdp_cybrbll","Sun Mar 26 2023 10:29:17 GMT-0400 (Eastern Daylight Time)","421126","3","1","image-keyboard-response","147","147054","0.0-5.0-1.71","","null","","img/3to2/1.png","null","154","529","0.5","0.5","3","2","",""
"","","","","63d13bce0971871b9ff88f56","bdp_cybrbll","Sun Mar 26 2023 10:29:17 GMT-0400 (Eastern Daylight Time)","421126","3","1","animation","148","148355","0.0-5.0-2.71","","","","","","154","","","","3","2","[{""stimulus"":""img/3to2/1.png"",""time"":100},{""stimulus"":""img/3to2/2.png"",""time"":200},{""stimulus"":""img/3to2/3.png"",""time"":301},{""stimulus"":""img/3to2/4.png"",""time"":400},{""stimulus"":""img/3to2/5.png"",""time"":501},{""stimulus"":""img/3to2/6.png"",""time"":601},{""stimulus"":""img/3to2/7.png"",""time"":701},{""stimulus"":""img/3to2/8.png"",""time"":802},{""stimulus"":""img/3to2/9.png"",""time"":901},{""stimulus"":""img/3to2/10.png"",""time"":1001},{""stimulus"":""img/3to2/11.png"",""time"":1101},{""stimulus"":""img/3to2/12.png"",""time"":1202}]","[]"
"","","","choice","63d13bce0971871b9ff88f56","bdp_cybrbll","Sun Mar 26 2023 10:29:17 GMT-0400 (Eastern Daylight Time)","421126","3","1","image-keyboard-response","149","148679","0.0-5.0-1.72","","322","","img/2to1/1.png","1","153","871","0.5","0.5","2","1","",""
"","","","","63d13bce0971871b9ff88f56","bdp_cybrbll","Sun Mar 26 2023 10:29:17 GMT-0400 (Eastern Daylight Time)","421126","3","1","animation","150","149987","0.0-5.0-2.72","","","","","","153","","","","2","1","[{""stimulus"":""img/2to1/1.png"",""time"":108},{""stimulus"":""img/2to1/2.png"",""time"":208},{""stimulus"":""img/2to1/3.png"",""time"":307},{""stimulus"":""img/2to1/4.png"",""time"":408},{""stimulus"":""img/2to1/5.png"",""time"":507},{""stimulus"":""img/2to1/6.png"",""time"":608},{""stimulus"":""img/2to1/7.png"",""time"":708},{""stimulus"":""img/2to1/8.png"",""time"":808},{""stimulus"":""img/2to1/9.png"",""time"":908},{""stimulus"":""img/2to1/10.png"",""time"":1008},{""stimulus"":""img/2to1/11.png"",""time"":1108},{""stimulus"":""img/2to1/12.png"",""time"":1208}]","[]"
"","","","observe","63d13bce0971871b9ff88f56","bdp_cybrbll","Sun Mar 26 2023 10:29:17 GMT-0400 (Eastern Daylight Time)","421126","3","1","image-keyboard-response","151","150624","0.0-5.0-1.73","","null","","img/1to3/1.png","null","152","630","0.5","0.5","1","3","",""
"","","","","63d13bce0971871b9ff88f56","bdp_cybrbll","Sun Mar 26 2023 10:29:17 GMT-0400 (Eastern Daylight Time)","421126","3","1","animation","152","151925","0.0-5.0-2.73","","","","","","152","","","","1","3","[{""stimulus"":""img/1to3/1.png"",""time"":100},{""stimulus"":""img/1to3/2.png"",""time"":201},{""stimulus"":""img/1to3/3.png"",""time"":300},{""stimulus"":""img/1to3/4.png"",""time"":401},{""stimulus"":""img/1to3/5.png"",""time"":500},{""stimulus"":""img/1to3/6.png"",""time"":600},{""stimulus"":""img/1to3/7.png"",""time"":700},{""stimulus"":""img/1to3/8.png"",""time"":800},{""stimulus"":""img/1to3/9.png"",""time"":901},{""stimulus"":""img/1to3/10.png"",""time"":1000},{""stimulus"":""img/1to3/11.png"",""time"":1101},{""stimulus"":""img/1to3/12.png"",""time"":1200}]","[]"
"","","","observe","63d13bce0971871b9ff88f56","bdp_cybrbll","Sun Mar 26 2023 10:29:17 GMT-0400 (Eastern Daylight Time)","421126","3","1","image-keyboard-response","153","152240","0.0-5.0-1.74","","null","","img/3to2/1.png","null","151","311","0.5","0.5","3","2","",""
"","","","","63d13bce0971871b9ff88f56","bdp_cybrbll","Sun Mar 26 2023 10:29:17 GMT-0400 (Eastern Daylight Time)","421126","3","1","animation","154","153543","0.0-5.0-2.74","","","","","","151","","","","3","2","[{""stimulus"":""img/3to2/1.png"",""time"":101},{""stimulus"":""img/3to2/2.png"",""time"":200},{""stimulus"":""img/3to2/3.png"",""time"":301},{""stimulus"":""img/3to2/4.png"",""time"":401},{""stimulus"":""img/3to2/5.png"",""time"":502},{""stimulus"":""img/3to2/6.png"",""time"":602},{""stimulus"":""img/3to2/7.png"",""time"":701},{""stimulus"":""img/3to2/8.png"",""time"":802},{""stimulus"":""img/3to2/9.png"",""time"":902},{""stimulus"":""img/3to2/10.png"",""time"":1003},{""stimulus"":""img/3to2/11.png"",""time"":1103},{""stimulus"":""img/3to2/12.png"",""time"":1203}]","[]"
"","","","choice","63d13bce0971871b9ff88f56","bdp_cybrbll","Sun Mar 26 2023 10:29:17 GMT-0400 (Eastern Daylight Time)","421126","3","1","image-keyboard-response","155","153703","0.0-5.0-1.75","","158","","img/2to1/1.png","1","150","795","0.5","0.5","2","1","",""
"","","","","63d13bce0971871b9ff88f56","bdp_cybrbll","Sun Mar 26 2023 10:29:17 GMT-0400 (Eastern Daylight Time)","421126","3","1","animation","156","155015","0.0-5.0-2.75","","","","","","150","","","","2","1","[{""stimulus"":""img/2to1/1.png"",""time"":109},{""stimulus"":""img/2to1/2.png"",""time"":209},{""stimulus"":""img/2to1/3.png"",""time"":310},{""stimulus"":""img/2to1/4.png"",""time"":409},{""stimulus"":""img/2to1/5.png"",""time"":509},{""stimulus"":""img/2to1/6.png"",""time"":610},{""stimulus"":""img/2to1/7.png"",""time"":710},{""stimulus"":""img/2to1/8.png"",""time"":811},{""stimulus"":""img/2to1/9.png"",""time"":911},{""stimulus"":""img/2to1/10.png"",""time"":1011},{""stimulus"":""img/2to1/11.png"",""time"":1111},{""stimulus"":""img/2to1/12.png"",""time"":1211}]","[]"
"","","","observe","63d13bce0971871b9ff88f56","bdp_cybrbll","Sun Mar 26 2023 10:29:17 GMT-0400 (Eastern Daylight Time)","421126","3","1","image-keyboard-response","157","155261","0.0-5.0-1.76","","null","","img/1to3/1.png","null","149","243","0.5","0.1","1","3","",""
"","","","","63d13bce0971871b9ff88f56","bdp_cybrbll","Sun Mar 26 2023 10:29:17 GMT-0400 (Eastern Daylight Time)","421126","3","1","animation","158","156566","0.0-5.0-2.76","","","","","","149","","","","1","3","[{""stimulus"":""img/1to3/1.png"",""time"":101},{""stimulus"":""img/1to3/2.png"",""time"":202},{""stimulus"":""img/1to3/3.png"",""time"":303},{""stimulus"":""img/1to3/4.png"",""time"":403},{""stimulus"":""img/1to3/5.png"",""time"":503},{""stimulus"":""img/1to3/6.png"",""time"":603},{""stimulus"":""img/1to3/7.png"",""time"":703},{""stimulus"":""img/1to3/8.png"",""time"":804},{""stimulus"":""img/1to3/9.png"",""time"":904},{""stimulus"":""img/1to3/10.png"",""time"":1004},{""stimulus"":""img/1to3/11.png"",""time"":1105},{""stimulus"":""img/1to3/12.png"",""time"":1205}]","[]"
"","","","observe","63d13bce0971871b9ff88f56","bdp_cybrbll","Sun Mar 26 2023 10:29:17 GMT-0400 (Eastern Daylight Time)","421126","3","1","image-keyboard-response","159","157066","0.0-5.0-1.77","","null","","img/3to2/1.png","null","148","493","0.5","0.1","3","1","",""
"","","","","63d13bce0971871b9ff88f56","bdp_cybrbll","Sun Mar 26 2023 10:29:17 GMT-0400 (Eastern Daylight Time)","421126","3","1","animation","160","158370","0.0-5.0-2.77","","","","","","148","","","","3","1","[{""stimulus"":""img/3to1/1.png"",""time"":101},{""stimulus"":""img/3to1/2.png"",""time"":201},{""stimulus"":""img/3to1/3.png"",""time"":302},{""stimulus"":""img/3to1/4.png"",""time"":402},{""stimulus"":""img/3to1/5.png"",""time"":501},{""stimulus"":""img/3to1/6.png"",""time"":602},{""stimulus"":""img/3to1/7.png"",""time"":703},{""stimulus"":""img/3to1/8.png"",""time"":802},{""stimulus"":""img/3to1/9.png"",""time"":903},{""stimulus"":""img/3to1/10.png"",""time"":1004},{""stimulus"":""img/3to1/11.png"",""time"":1103},{""stimulus"":""img/3to1/12.png"",""time"":1203}]","[]"
"","","","observe","63d13bce0971871b9ff88f56","bdp_cybrbll","Sun Mar 26 2023 10:29:17 GMT-0400 (Eastern Daylight Time)","421126","3","1","image-keyboard-response","161","158823","0.0-5.0-1.78","","null","","img/1to3/1.png","null","147","446","0.5","0.1","1","3","",""
"","","","","63d13bce0971871b9ff88f56","bdp_cybrbll","Sun Mar 26 2023 10:29:17 GMT-0400 (Eastern Daylight Time)","421126","3","1","animation","162","160124","0.0-5.0-2.78","","","","","","147","","","","1","3","[{""stimulus"":""img/1to3/1.png"",""time"":100},{""stimulus"":""img/1to3/2.png"",""time"":200},{""stimulus"":""img/1to3/3.png"",""time"":300},{""stimulus"":""img/1to3/4.png"",""time"":400},{""stimulus"":""img/1to3/5.png"",""time"":501},{""stimulus"":""img/1to3/6.png"",""time"":600},{""stimulus"":""img/1to3/7.png"",""time"":701},{""stimulus"":""img/1to3/8.png"",""time"":801},{""stimulus"":""img/1to3/9.png"",""time"":900},{""stimulus"":""img/1to3/10.png"",""time"":1002},{""stimulus"":""img/1to3/11.png"",""time"":1101},{""stimulus"":""img/1to3/12.png"",""time"":1202}]","[]"
"","","","observe","63d13bce0971871b9ff88f56","bdp_cybrbll","Sun Mar 26 2023 10:29:17 GMT-0400 (Eastern Daylight Time)","421126","3","1","image-keyboard-response","163","160440","0.0-5.0-1.79","","null","","img/3to2/1.png","null","146","314","0.5","0.1","3","2","",""
"","","","","63d13bce0971871b9ff88f56","bdp_cybrbll","Sun Mar 26 2023 10:29:17 GMT-0400 (Eastern Daylight Time)","421126","3","1","animation","164","161740","0.0-5.0-2.79","","","","","","146","","","","3","2","[{""stimulus"":""img/3to2/1.png"",""time"":100},{""stimulus"":""img/3to2/2.png"",""time"":201},{""stimulus"":""img/3to2/3.png"",""time"":301},{""stimulus"":""img/3to2/4.png"",""time"":401},{""stimulus"":""img/3to2/5.png"",""time"":500},{""stimulus"":""img/3to2/6.png"",""time"":601},{""stimulus"":""img/3to2/7.png"",""time"":701},{""stimulus"":""img/3to2/8.png"",""time"":801},{""stimulus"":""img/3to2/9.png"",""time"":901},{""stimulus"":""img/3to2/10.png"",""time"":1001},{""stimulus"":""img/3to2/11.png"",""time"":1101},{""stimulus"":""img/3to2/12.png"",""time"":1201}]","[]"
"","","","choice","63d13bce0971871b9ff88f56","bdp_cybrbll","Sun Mar 26 2023 10:29:17 GMT-0400 (Eastern Daylight Time)","421126","3","1","image-keyboard-response","165","161903","0.0-5.0-1.80","","162","","img/2to1/1.png","1","145","410","0.5","0.1","2","1","",""
"","","","","63d13bce0971871b9ff88f56","bdp_cybrbll","Sun Mar 26 2023 10:29:17 GMT-0400 (Eastern Daylight Time)","421126","3","1","animation","166","163203","0.0-5.0-2.80","","","","","","145","","","","2","1","[{""stimulus"":""img/2to1/1.png"",""time"":100},{""stimulus"":""img/2to1/2.png"",""time"":200},{""stimulus"":""img/2to1/3.png"",""time"":300},{""stimulus"":""img/2to1/4.png"",""time"":401},{""stimulus"":""img/2to1/5.png"",""time"":501},{""stimulus"":""img/2to1/6.png"",""time"":601},{""stimulus"":""img/2to1/7.png"",""time"":701},{""stimulus"":""img/2to1/8.png"",""time"":800},{""stimulus"":""img/2to1/9.png"",""time"":901},{""stimulus"":""img/2to1/10.png"",""time"":1001},{""stimulus"":""img/2to1/11.png"",""time"":1101},{""stimulus"":""img/2to1/12.png"",""time"":1200}]","[]"
"","","","observe","63d13bce0971871b9ff88f56","bdp_cybrbll","Sun Mar 26 2023 10:29:17 GMT-0400 (Eastern Daylight Time)","421126","3","1","image-keyboard-response","167","163572","0.0-5.0-1.81","","null","","img/1to3/1.png","null","144","363","0.5","0.1","1","2","",""
"","","","","63d13bce0971871b9ff88f56","bdp_cybrbll","Sun Mar 26 2023 10:29:17 GMT-0400 (Eastern Daylight Time)","421126","3","1","animation","168","164873","0.0-5.0-2.81","","","","","","144","","","","1","2","[{""stimulus"":""img/1to2/1.png"",""time"":100},{""stimulus"":""img/1to2/2.png"",""time"":200},{""stimulus"":""img/1to2/3.png"",""time"":301},{""stimulus"":""img/1to2/4.png"",""time"":401},{""stimulus"":""img/1to2/5.png"",""time"":500},{""stimulus"":""img/1to2/6.png"",""time"":601},{""stimulus"":""img/1to2/7.png"",""time"":700},{""stimulus"":""img/1to2/8.png"",""time"":800},{""stimulus"":""img/1to2/9.png"",""time"":900},{""stimulus"":""img/1to2/10.png"",""time"":1001},{""stimulus"":""img/1to2/11.png"",""time"":1101},{""stimulus"":""img/1to2/12.png"",""time"":1202}]","[]"
"","","","choice","63d13bce0971871b9ff88f56","bdp_cybrbll","Sun Mar 26 2023 10:29:17 GMT-0400 (Eastern Daylight Time)","421126","3","1","image-keyboard-response","169","165055","0.0-5.0-1.82","","181","","img/2to1/1.png","2","143","618","0.5","0.1","2","3","",""
"","","","","63d13bce0971871b9ff88f56","bdp_cybrbll","Sun Mar 26 2023 10:29:17 GMT-0400 (Eastern Daylight Time)","421126","3","1","animation","170","166361","0.0-5.0-2.82","","","","","","143","","","","2","3","[{""stimulus"":""img/2to3/1.png"",""time"":104},{""stimulus"":""img/2to3/2.png"",""time"":204},{""stimulus"":""img/2to3/3.png"",""time"":305},{""stimulus"":""img/2to3/4.png"",""time"":404},{""stimulus"":""img/2to3/5.png"",""time"":504},{""stimulus"":""img/2to3/6.png"",""time"":605},{""stimulus"":""img/2to3/7.png"",""time"":705},{""stimulus"":""img/2to3/8.png"",""time"":805},{""stimulus"":""img/2to3/9.png"",""time"":905},{""stimulus"":""img/2to3/10.png"",""time"":1006},{""stimulus"":""img/2to3/11.png"",""time"":1106},{""stimulus"":""img/2to3/12.png"",""time"":1206}]","[]"
"","","","observe","63d13bce0971871b9ff88f56","bdp_cybrbll","Sun Mar 26 2023 10:29:17 GMT-0400 (Eastern Daylight Time)","421126","3","1","image-keyboard-response","171","166630","0.0-5.0-1.83","","null","","img/3to2/1.png","null","142","249","0.5","0.1","3","2","",""
"","","","","63d13bce0971871b9ff88f56","bdp_cybrbll","Sun Mar 26 2023 10:29:17 GMT-0400 (Eastern Daylight Time)","421126","3","1","animation","172","167934","0.0-5.0-2.83","","","","","","142","","","","3","2","[{""stimulus"":""img/3to2/1.png"",""time"":101},{""stimulus"":""img/3to2/2.png"",""time"":201},{""stimulus"":""img/3to2/3.png"",""time"":301},{""stimulus"":""img/3to2/4.png"",""time"":401},{""stimulus"":""img/3to2/5.png"",""time"":501},{""stimulus"":""img/3to2/6.png"",""time"":602},{""stimulus"":""img/3to2/7.png"",""time"":702},{""stimulus"":""img/3to2/8.png"",""time"":803},{""stimulus"":""img/3to2/9.png"",""time"":903},{""stimulus"":""img/3to2/10.png"",""time"":1003},{""stimulus"":""img/3to2/11.png"",""time"":1103},{""stimulus"":""img/3to2/12.png"",""time"":1204}]","[]"
"","","","choice","63d13bce0971871b9ff88f56","bdp_cybrbll","Sun Mar 26 2023 10:29:17 GMT-0400 (Eastern Daylight Time)","421126","3","1","image-keyboard-response","173","168143","0.0-5.0-1.84","","208","","img/2to1/1.png","1","141","292","0.5","0.1","2","1","",""
"","","","","63d13bce0971871b9ff88f56","bdp_cybrbll","Sun Mar 26 2023 10:29:17 GMT-0400 (Eastern Daylight Time)","421126","3","1","animation","174","169452","0.0-5.0-2.84","","","","","","141","","","","2","1","[{""stimulus"":""img/2to1/1.png"",""time"":105},{""stimulus"":""img/2to1/2.png"",""time"":206},{""stimulus"":""img/2to1/3.png"",""time"":306},{""stimulus"":""img/2to1/4.png"",""time"":407},{""stimulus"":""img/2to1/5.png"",""time"":506},{""stimulus"":""img/2to1/6.png"",""time"":607},{""stimulus"":""img/2to1/7.png"",""time"":708},{""stimulus"":""img/2to1/8.png"",""time"":807},{""stimulus"":""img/2to1/9.png"",""time"":908},{""stimulus"":""img/2to1/10.png"",""time"":1008},{""stimulus"":""img/2to1/11.png"",""time"":1109},{""stimulus"":""img/2to1/12.png"",""time"":1209}]","[]"
"","","","observe","63d13bce0971871b9ff88f56","bdp_cybrbll","Sun Mar 26 2023 10:29:17 GMT-0400 (Eastern Daylight Time)","421126","3","1","image-keyboard-response","175","170054","0.0-5.0-1.85","","null","","img/1to3/1.png","null","140","595","0.5","0.1","1","3","",""
"","","","","63d13bce0971871b9ff88f56","bdp_cybrbll","Sun Mar 26 2023 10:29:17 GMT-0400 (Eastern Daylight Time)","421126","3","1","animation","176","171357","0.0-5.0-2.85","","","","","","140","","","","1","3","[{""stimulus"":""img/1to3/1.png"",""time"":101},{""stimulus"":""img/1to3/2.png"",""time"":200},{""stimulus"":""img/1to3/3.png"",""time"":300},{""stimulus"":""img/1to3/4.png"",""time"":401},{""stimulus"":""img/1to3/5.png"",""time"":501},{""stimulus"":""img/1to3/6.png"",""time"":602},{""stimulus"":""img/1to3/7.png"",""time"":702},{""stimulus"":""img/1to3/8.png"",""time"":802},{""stimulus"":""img/1to3/9.png"",""time"":902},{""stimulus"":""img/1to3/10.png"",""time"":1003},{""stimulus"":""img/1to3/11.png"",""time"":1103},{""stimulus"":""img/1to3/12.png"",""time"":1203}]","[]"
"","","","observe","63d13bce0971871b9ff88f56","bdp_cybrbll","Sun Mar 26 2023 10:29:17 GMT-0400 (Eastern Daylight Time)","421126","3","1","image-keyboard-response","177","171519","0.0-5.0-1.86","","null","","img/3to2/1.png","null","139","158","0.5","0.1","3","1","",""
"","","","","63d13bce0971871b9ff88f56","bdp_cybrbll","Sun Mar 26 2023 10:29:17 GMT-0400 (Eastern Daylight Time)","421126","3","1","animation","178","172820","0.0-5.0-2.86","","","","","","139","","","","3","1","[{""stimulus"":""img/3to1/1.png"",""time"":102},{""stimulus"":""img/3to1/2.png"",""time"":201},{""stimulus"":""img/3to1/3.png"",""time"":301},{""stimulus"":""img/3to1/4.png"",""time"":401},{""stimulus"":""img/3to1/5.png"",""time"":501},{""stimulus"":""img/3to1/6.png"",""time"":601},{""stimulus"":""img/3to1/7.png"",""time"":701},{""stimulus"":""img/3to1/8.png"",""time"":802},{""stimulus"":""img/3to1/9.png"",""time"":901},{""stimulus"":""img/3to1/10.png"",""time"":1001},{""stimulus"":""img/3to1/11.png"",""time"":1101},{""stimulus"":""img/3to1/12.png"",""time"":1201}]","[]"
"","","","observe","63d13bce0971871b9ff88f56","bdp_cybrbll","Sun Mar 26 2023 10:29:17 GMT-0400 (Eastern Daylight Time)","421126","3","1","image-keyboard-response","179","173243","0.0-5.0-1.87","","null","","img/1to3/1.png","null","138","404","0.5","0.1","1","3","",""
"","","","","63d13bce0971871b9ff88f56","bdp_cybrbll","Sun Mar 26 2023 10:29:17 GMT-0400 (Eastern Daylight Time)","421126","3","1","animation","180","174542","0.0-5.0-2.87","","","","","","138","","","","1","3","[{""stimulus"":""img/1to3/1.png"",""time"":99},{""stimulus"":""img/1to3/2.png"",""time"":199},{""stimulus"":""img/1to3/3.png"",""time"":300},{""stimulus"":""img/1to3/4.png"",""time"":399},{""stimulus"":""img/1to3/5.png"",""time"":499},{""stimulus"":""img/1to3/6.png"",""time"":599},{""stimulus"":""img/1to3/7.png"",""time"":699},{""stimulus"":""img/1to3/8.png"",""time"":800},{""stimulus"":""img/1to3/9.png"",""time"":900},{""stimulus"":""img/1to3/10.png"",""time"":999},{""stimulus"":""img/1to3/11.png"",""time"":1100},{""stimulus"":""img/1to3/12.png"",""time"":1200}]","[]"
"","","","observe","63d13bce0971871b9ff88f56","bdp_cybrbll","Sun Mar 26 2023 10:29:17 GMT-0400 (Eastern Daylight Time)","421126","3","1","image-keyboard-response","181","174873","0.0-5.0-1.88","","null","","img/3to2/1.png","null","137","321","0.5","0.1","3","2","",""
"","","","","63d13bce0971871b9ff88f56","bdp_cybrbll","Sun Mar 26 2023 10:29:17 GMT-0400 (Eastern Daylight Time)","421126","3","1","animation","182","176174","0.0-5.0-2.88","","","","","","137","","","","3","2","[{""stimulus"":""img/3to2/1.png"",""time"":100},{""stimulus"":""img/3to2/2.png"",""time"":201},{""stimulus"":""img/3to2/3.png"",""time"":301},{""stimulus"":""img/3to2/4.png"",""time"":401},{""stimulus"":""img/3to2/5.png"",""time"":501},{""stimulus"":""img/3to2/6.png"",""time"":600},{""stimulus"":""img/3to2/7.png"",""time"":701},{""stimulus"":""img/3to2/8.png"",""time"":800},{""stimulus"":""img/3to2/9.png"",""time"":901},{""stimulus"":""img/3to2/10.png"",""time"":1001},{""stimulus"":""img/3to2/11.png"",""time"":1101},{""stimulus"":""img/3to2/12.png"",""time"":1201}]","[]"
"","","","choice","63d13bce0971871b9ff88f56","bdp_cybrbll","Sun Mar 26 2023 10:29:17 GMT-0400 (Eastern Daylight Time)","421126","3","1","image-keyboard-response","183","176191","0.0-5.0-1.89","","16","","img/2to1/1.png","1","136","384","0.5","0.1","2","1","",""
"","","","","63d13bce0971871b9ff88f56","bdp_cybrbll","Sun Mar 26 2023 10:29:17 GMT-0400 (Eastern Daylight Time)","421126","3","1","animation","184","177506","0.0-5.0-2.89","","","","","","136","","","","2","1","[{""stimulus"":""img/2to1/1.png"",""time"":114},{""stimulus"":""img/2to1/2.png"",""time"":214},{""stimulus"":""img/2to1/3.png"",""time"":314},{""stimulus"":""img/2to1/4.png"",""time"":414},{""stimulus"":""img/2to1/5.png"",""time"":514},{""stimulus"":""img/2to1/6.png"",""time"":614},{""stimulus"":""img/2to1/7.png"",""time"":714},{""stimulus"":""img/2to1/8.png"",""time"":814},{""stimulus"":""img/2to1/9.png"",""time"":914},{""stimulus"":""img/2to1/10.png"",""time"":1014},{""stimulus"":""img/2to1/11.png"",""time"":1114},{""stimulus"":""img/2to1/12.png"",""time"":1214}]","[]"
"","","","observe","63d13bce0971871b9ff88f56","bdp_cybrbll","Sun Mar 26 2023 10:29:17 GMT-0400 (Eastern Daylight Time)","421126","3","1","image-keyboard-response","185","178006","0.0-5.0-1.90","","null","","img/1to3/1.png","null","135","496","0.5","0.1","1","3","",""
"","","","","63d13bce0971871b9ff88f56","bdp_cybrbll","Sun Mar 26 2023 10:29:17 GMT-0400 (Eastern Daylight Time)","421126","3","1","animation","186","179309","0.0-5.0-2.90","","","","","","135","","","","1","3","[{""stimulus"":""img/1to3/1.png"",""time"":101},{""stimulus"":""img/1to3/2.png"",""time"":201},{""stimulus"":""img/1to3/3.png"",""time"":302},{""stimulus"":""img/1to3/4.png"",""time"":401},{""stimulus"":""img/1to3/5.png"",""time"":502},{""stimulus"":""img/1to3/6.png"",""time"":603},{""stimulus"":""img/1to3/7.png"",""time"":702},{""stimulus"":""img/1to3/8.png"",""time"":803},{""stimulus"":""img/1to3/9.png"",""time"":902},{""stimulus"":""img/1to3/10.png"",""time"":1003},{""stimulus"":""img/1to3/11.png"",""time"":1103},{""stimulus"":""img/1to3/12.png"",""time"":1203}]","[]"
"","","","observe","63d13bce0971871b9ff88f56","bdp_cybrbll","Sun Mar 26 2023 10:29:17 GMT-0400 (Eastern Daylight Time)","421126","3","1","image-keyboard-response","187","179810","0.0-5.0-1.91","","null","","img/3to2/1.png","null","134","488","0.5","0.1","3","1","",""
"","","","","63d13bce0971871b9ff88f56","bdp_cybrbll","Sun Mar 26 2023 10:29:17 GMT-0400 (Eastern Daylight Time)","421126","3","1","animation","188","181116","0.0-5.0-2.91","","","","","","134","","","","3","1","[{""stimulus"":""img/3to1/1.png"",""time"":100},{""stimulus"":""img/3to1/2.png"",""time"":201},{""stimulus"":""img/3to1/3.png"",""time"":301},{""stimulus"":""img/3to1/4.png"",""time"":402},{""stimulus"":""img/3to1/5.png"",""time"":503},{""stimulus"":""img/3to1/6.png"",""time"":604},{""stimulus"":""img/3to1/7.png"",""time"":703},{""stimulus"":""img/3to1/8.png"",""time"":804},{""stimulus"":""img/3to1/9.png"",""time"":905},{""stimulus"":""img/3to1/10.png"",""time"":1005},{""stimulus"":""img/3to1/11.png"",""time"":1106},{""stimulus"":""img/3to1/12.png"",""time"":1206}]","[]"
"","","","observe","63d13bce0971871b9ff88f56","bdp_cybrbll","Sun Mar 26 2023 10:29:17 GMT-0400 (Eastern Daylight Time)","421126","3","1","image-keyboard-response","189","181355","0.0-5.0-1.92","","null","","img/1to3/1.png","null","133","238","0.5","0.1","1","3","",""
"","","","","63d13bce0971871b9ff88f56","bdp_cybrbll","Sun Mar 26 2023 10:29:17 GMT-0400 (Eastern Daylight Time)","421126","3","1","animation","190","182658","0.0-5.0-2.92","","","","","","133","","","","1","3","[{""stimulus"":""img/1to3/1.png"",""time"":100},{""stimulus"":""img/1to3/2.png"",""time"":200},{""stimulus"":""img/1to3/3.png"",""time"":300},{""stimulus"":""img/1to3/4.png"",""time"":401},{""stimulus"":""img/1to3/5.png"",""time"":501},{""stimulus"":""img/1to3/6.png"",""time"":601},{""stimulus"":""img/1to3/7.png"",""time"":701},{""stimulus"":""img/1to3/8.png"",""time"":801},{""stimulus"":""img/1to3/9.png"",""time"":902},{""stimulus"":""img/1to3/10.png"",""time"":1002},{""stimulus"":""img/1to3/11.png"",""time"":1103},{""stimulus"":""img/1to3/12.png"",""time"":1203}]","[]"
