"trial_type","trial_index","time_elapsed","internal_node_id","subject_id","task","startTime","totalTime","fairPartner","unfairPartner","view_history","rt","success","stimulus","key_press","trialtype","throwsLeft","rtDur","pFair","pUnfair","holder","receiver","animation_sequence","responses"
"pavlovia","0","4","0.0-0.0","63e51ddb19fccd05514c629c","bdp_cybrbll","Tue Mar 28 2023 18:15:25 GMT-0700 (Pacific Daylight Time)","446759","1","3","","","","","","","","","","","","","",""
"instructions","1","4066","0.0-1.0","63e51ddb19fccd05514c629c","bdp_cybrbll","Tue Mar 28 2023 18:15:25 GMT-0700 (Pacific Daylight Time)","446759","1","3","[{""page_index"":0,""viewing_time"":4060}]","4060","","","","","","","","","","","",""
"fullscreen","2","6153","0.0-2.0","63e51ddb19fccd05514c629c","bdp_cybrbll","Tue Mar 28 2023 18:15:25 GMT-0700 (Pacific Daylight Time)","446759","1","3","","","true","","","","","","","","","","",""
"image-keyboard-response","3","7927","0.0-3.0-0.0","63e51ddb19fccd05514c629c","bdp_cybrbll","Tue Mar 28 2023 18:15:25 GMT-0700 (Pacific Daylight Time)","446759","1","3","","1772","","","32","fullscreenfail","","","","","","","",""
"instructions","4","27813","0.0-4.0","63e51ddb19fccd05514c629c","bdp_cybrbll","Tue Mar 28 2023 18:15:25 GMT-0700 (Pacific Daylight Time)","446759","1","3","[{""page_index"":0,""viewing_time"":19625}]","19625","","","","","","","","","","","",""
"image-keyboard-response","5","29526","0.0-5.0-1.0","63e51ddb19fccd05514c629c","bdp_cybrbll","Tue Mar 28 2023 18:15:25 GMT-0700 (Pacific Daylight Time)","446759","1","3","","1710","","img/2to1/1.png","2","choice","225","672","0.5","0.5","2","3","",""
"animation","6","30819","0.0-5.0-2.0","63e51ddb19fccd05514c629c","bdp_cybrbll","Tue Mar 28 2023 18:15:25 GMT-0700 (Pacific Daylight Time)","446759","1","3","","","","","","","225","","","","2","3","[{""stimulus"":""img/2to3/1.png"",""time"":110},{""stimulus"":""img/2to3/2.png"",""time"":201},{""stimulus"":""img/2to3/3.png"",""time"":311},{""stimulus"":""img/2to3/4.png"",""time"":406},{""stimulus"":""img/2to3/5.png"",""time"":499},{""stimulus"":""img/2to3/6.png"",""time"":607},{""stimulus"":""img/2to3/7.png"",""time"":701},{""stimulus"":""img/2to3/8.png"",""time"":795},{""stimulus"":""img/2to3/9.png"",""time"":903},{""stimulus"":""img/2to3/10.png"",""time"":997},{""stimulus"":""img/2to3/11.png"",""time"":1092},{""stimulus"":""img/2to3/12.png"",""time"":1200}]","[]"
"image-keyboard-response","7","31346","0.0-5.0-1.1","63e51ddb19fccd05514c629c","bdp_cybrbll","Tue Mar 28 2023 18:15:25 GMT-0700 (Pacific Daylight Time)","446759","1","3","","null","","img/3to2/1.png","null","observe","224","522","0.5","0.5","3","2","",""
"animation","8","32634","0.0-5.0-2.1","63e51ddb19fccd05514c629c","bdp_cybrbll","Tue Mar 28 2023 18:15:25 GMT-0700 (Pacific Daylight Time)","446759","1","3","","","","","","","224","","","","3","2","[{""stimulus"":""img/3to2/1.png"",""time"":109},{""stimulus"":""img/3to2/2.png"",""time"":202},{""stimulus"":""img/3to2/3.png"",""time"":312},{""stimulus"":""img/3to2/4.png"",""time"":408},{""stimulus"":""img/3to2/5.png"",""time"":501},{""stimulus"":""img/3to2/6.png"",""time"":609},{""stimulus"":""img/3to2/7.png"",""time"":694},{""stimulus"":""img/3to2/8.png"",""time"":797},{""stimulus"":""img/3to2/9.png"",""time"":908},{""stimulus"":""img/3to2/10.png"",""time"":992},{""stimulus"":""img/3to2/11.png"",""time"":1097},{""stimulus"":""img/3to2/12.png"",""time"":1189}]","[]"
"image-keyboard-response","9","33146","0.0-5.0-1.2","63e51ddb19fccd05514c629c","bdp_cybrbll","Tue Mar 28 2023 18:15:25 GMT-0700 (Pacific Daylight Time)","446759","1","3","","511","","img/2to1/1.png","2","choice","223","198","0.5","0.5","2","3","",""
"animation","10","34434","0.0-5.0-2.2","63e51ddb19fccd05514c629c","bdp_cybrbll","Tue Mar 28 2023 18:15:25 GMT-0700 (Pacific Daylight Time)","446759","1","3","","","","","","","223","","","","2","3","[{""stimulus"":""img/2to3/1.png"",""time"":100},{""stimulus"":""img/2to3/2.png"",""time"":200},{""stimulus"":""img/2to3/3.png"",""time"":310},{""stimulus"":""img/2to3/4.png"",""time"":405},{""stimulus"":""img/2to3/5.png"",""time"":497},{""stimulus"":""img/2to3/6.png"",""time"":605},{""stimulus"":""img/2to3/7.png"",""time"":694},{""stimulus"":""img/2to3/8.png"",""time"":795},{""stimulus"":""img/2to3/9.png"",""time"":904},{""stimulus"":""img/2to3/10.png"",""time"":991},{""stimulus"":""img/2to3/11.png"",""time"":1092},{""stimulus"":""img/2to3/12.png"",""time"":1202}]","[]"
"image-keyboard-response","11","34642","0.0-5.0-1.3","63e51ddb19fccd05514c629c","bdp_cybrbll","Tue Mar 28 2023 18:15:25 GMT-0700 (Pacific Daylight Time)","446759","1","3","","null","","img/3to2/1.png","null","observe","222","197","0.5","0.5","3","2","",""
"animation","12","35936","0.0-5.0-2.3","63e51ddb19fccd05514c629c","bdp_cybrbll","Tue Mar 28 2023 18:15:25 GMT-0700 (Pacific Daylight Time)","446759","1","3","","","","","","","222","","","","3","2","[{""stimulus"":""img/3to2/1.png"",""time"":110},{""stimulus"":""img/3to2/2.png"",""time"":203},{""stimulus"":""img/3to2/3.png"",""time"":311},{""stimulus"":""img/3to2/4.png"",""time"":406},{""stimulus"":""img/3to2/5.png"",""time"":496},{""stimulus"":""img/3to2/6.png"",""time"":608},{""stimulus"":""img/3to2/7.png"",""time"":701},{""stimulus"":""img/3to2/8.png"",""time"":796},{""stimulus"":""img/3to2/9.png"",""time"":892},{""stimulus"":""img/3to2/10.png"",""time"":999},{""stimulus"":""img/3to2/11.png"",""time"":1090},{""stimulus"":""img/3to2/12.png"",""time"":1189}]","[]"
"image-keyboard-response","13","36328","0.0-5.0-1.4","63e51ddb19fccd05514c629c","bdp_cybrbll","Tue Mar 28 2023 18:15:25 GMT-0700 (Pacific Daylight Time)","446759","1","3","","390","","img/2to1/1.png","2","choice","221","404","0.5","0.5","2","3","",""
"animation","14","37631","0.0-5.0-2.4","63e51ddb19fccd05514c629c","bdp_cybrbll","Tue Mar 28 2023 18:15:25 GMT-0700 (Pacific Daylight Time)","446759","1","3","","","","","","","221","","","","2","3","[{""stimulus"":""img/2to3/1.png"",""time"":107},{""stimulus"":""img/2to3/2.png"",""time"":198},{""stimulus"":""img/2to3/3.png"",""time"":309},{""stimulus"":""img/2to3/4.png"",""time"":401},{""stimulus"":""img/2to3/5.png"",""time"":496},{""stimulus"":""img/2to3/6.png"",""time"":602},{""stimulus"":""img/2to3/7.png"",""time"":697},{""stimulus"":""img/2to3/8.png"",""time"":805},{""stimulus"":""img/2to3/9.png"",""time"":898},{""stimulus"":""img/2to3/10.png"",""time"":1006},{""stimulus"":""img/2to3/11.png"",""time"":1102},{""stimulus"":""img/2to3/12.png"",""time"":1195}]","[]"
"image-keyboard-response","15","38564","0.0-5.0-1.5","63e51ddb19fccd05514c629c","bdp_cybrbll","Tue Mar 28 2023 18:15:25 GMT-0700 (Pacific Daylight Time)","446759","1","3","","null","","img/3to2/1.png","null","observe","220","919","0.5","0.5","3","1","",""
"animation","16","39859","0.0-5.0-2.5","63e51ddb19fccd05514c629c","bdp_cybrbll","Tue Mar 28 2023 18:15:25 GMT-0700 (Pacific Daylight Time)","446759","1","3","","","","","","","220","","","","3","1","[{""stimulus"":""img/3to1/1.png"",""time"":115},{""stimulus"":""img/3to1/2.png"",""time"":201},{""stimulus"":""img/3to1/3.png"",""time"":310},{""stimulus"":""img/3to1/4.png"",""time"":403},{""stimulus"":""img/3to1/5.png"",""time"":498},{""stimulus"":""img/3to1/6.png"",""time"":594},{""stimulus"":""img/3to1/7.png"",""time"":702},{""stimulus"":""img/3to1/8.png"",""time"":795},{""stimulus"":""img/3to1/9.png"",""time"":905},{""stimulus"":""img/3to1/10.png"",""time"":997},{""stimulus"":""img/3to1/11.png"",""time"":1091},{""stimulus"":""img/3to1/12.png"",""time"":1199}]","[]"
"image-keyboard-response","17","41429","0.0-5.0-1.6","63e51ddb19fccd05514c629c","bdp_cybrbll","Tue Mar 28 2023 18:15:25 GMT-0700 (Pacific Daylight Time)","446759","1","3","","null","","img/1to3/1.png","null","observe","219","1569","0.5","0.5","1","2","",""
"animation","18","42723","0.0-5.0-2.6","63e51ddb19fccd05514c629c","bdp_cybrbll","Tue Mar 28 2023 18:15:25 GMT-0700 (Pacific Daylight Time)","446759","1","3","","","","","","","219","","","","1","2","[{""stimulus"":""img/1to2/1.png"",""time"":110},{""stimulus"":""img/1to2/2.png"",""time"":202},{""stimulus"":""img/1to2/3.png"",""time"":311},{""stimulus"":""img/1to2/4.png"",""time"":406},{""stimulus"":""img/1to2/5.png"",""time"":500},{""stimulus"":""img/1to2/6.png"",""time"":609},{""stimulus"":""img/1to2/7.png"",""time"":703},{""stimulus"":""img/1to2/8.png"",""time"":798},{""stimulus"":""img/1to2/9.png"",""time"":891},{""stimulus"":""img/1to2/10.png"",""time"":1000},{""stimulus"":""img/1to2/11.png"",""time"":1092},{""stimulus"":""img/1to2/12.png"",""time"":1202}]","[]"
"image-keyboard-response","19","43375","0.0-5.0-1.7","63e51ddb19fccd05514c629c","bdp_cybrbll","Tue Mar 28 2023 18:15:25 GMT-0700 (Pacific Daylight Time)","446759","1","3","","651","","img/2to1/1.png","1","choice","218","394","0.5","0.5","2","1","",""
"animation","20","44670","0.0-5.0-2.7","63e51ddb19fccd05514c629c","bdp_cybrbll","Tue Mar 28 2023 18:15:25 GMT-0700 (Pacific Daylight Time)","446759","1","3","","","","","","","218","","","","2","1","[{""stimulus"":""img/2to1/1.png"",""time"":113},{""stimulus"":""img/2to1/2.png"",""time"":205},{""stimulus"":""img/2to1/3.png"",""time"":313},{""stimulus"":""img/2to1/4.png"",""time"":396},{""stimulus"":""img/2to1/5.png"",""time"":499},{""stimulus"":""img/2to1/6.png"",""time"":608},{""stimulus"":""img/2to1/7.png"",""time"":694},{""stimulus"":""img/2to1/8.png"",""time"":795},{""stimulus"":""img/2to1/9.png"",""time"":903},{""stimulus"":""img/2to1/10.png"",""time"":996},{""stimulus"":""img/2to1/11.png"",""time"":1090},{""stimulus"":""img/2to1/12.png"",""time"":1200}]","[]"
"image-keyboard-response","21","44824","0.0-5.0-1.8","63e51ddb19fccd05514c629c","bdp_cybrbll","Tue Mar 28 2023 18:15:25 GMT-0700 (Pacific Daylight Time)","446759","1","3","","null","","img/1to3/1.png","null","observe","217","149","0.5","0.5","1","2","",""
"animation","22","46128","0.0-5.0-2.8","63e51ddb19fccd05514c629c","bdp_cybrbll","Tue Mar 28 2023 18:15:25 GMT-0700 (Pacific Daylight Time)","446759","1","3","","","","","","","217","","","","1","2","[{""stimulus"":""img/1to2/1.png"",""time"":110},{""stimulus"":""img/1to2/2.png"",""time"":200},{""stimulus"":""img/1to2/3.png"",""time"":313},{""stimulus"":""img/1to2/4.png"",""time"":406},{""stimulus"":""img/1to2/5.png"",""time"":501},{""stimulus"":""img/1to2/6.png"",""time"":609},{""stimulus"":""img/1to2/7.png"",""time"":703},{""stimulus"":""img/1to2/8.png"",""time"":796},{""stimulus"":""img/1to2/9.png"",""time"":904},{""stimulus"":""img/1to2/10.png"",""time"":991},{""stimulus"":""img/1to2/11.png"",""time"":1093},{""stimulus"":""img/1to2/12.png"",""time"":1202}]","[]"
"image-keyboard-response","23","46280","0.0-5.0-1.9","63e51ddb19fccd05514c629c","bdp_cybrbll","Tue Mar 28 2023 18:15:25 GMT-0700 (Pacific Daylight Time)","446759","1","3","","151","","img/2to1/1.png","1","choice","216","443","0.5","0.5","2","1","",""
"animation","24","47568","0.0-5.0-2.9","63e51ddb19fccd05514c629c","bdp_cybrbll","Tue Mar 28 2023 18:15:25 GMT-0700 (Pacific Daylight Time)","446759","1","3","","","","","","","216","","","","2","1","[{""stimulus"":""img/2to1/1.png"",""time"":104},{""stimulus"":""img/2to1/2.png"",""time"":213},{""stimulus"":""img/2to1/3.png"",""time"":306},{""stimulus"":""img/2to1/4.png"",""time"":398},{""stimulus"":""img/2to1/5.png"",""time"":507},{""stimulus"":""img/2to1/6.png"",""time"":603},{""stimulus"":""img/2to1/7.png"",""time"":694},{""stimulus"":""img/2to1/8.png"",""time"":805},{""stimulus"":""img/2to1/9.png"",""time"":893},{""stimulus"":""img/2to1/10.png"",""time"":992},{""stimulus"":""img/2to1/11.png"",""time"":1101},{""stimulus"":""img/2to1/12.png"",""time"":1189}]","[]"
"image-keyboard-response","25","47801","0.0-5.0-1.10","63e51ddb19fccd05514c629c","bdp_cybrbll","Tue Mar 28 2023 18:15:25 GMT-0700 (Pacific Daylight Time)","446759","1","3","","null","","img/1to3/1.png","null","observe","215","218","0.5","0.5","1","2","",""
"animation","26","49094","0.0-5.0-2.10","63e51ddb19fccd05514c629c","bdp_cybrbll","Tue Mar 28 2023 18:15:25 GMT-0700 (Pacific Daylight Time)","446759","1","3","","","","","","","215","","","","1","2","[{""stimulus"":""img/1to2/1.png"",""time"":109},{""stimulus"":""img/1to2/2.png"",""time"":202},{""stimulus"":""img/1to2/3.png"",""time"":312},{""stimulus"":""img/1to2/4.png"",""time"":397},{""stimulus"":""img/1to2/5.png"",""time"":496},{""stimulus"":""img/1to2/6.png"",""time"":605},{""stimulus"":""img/1to2/7.png"",""time"":693},{""stimulus"":""img/1to2/8.png"",""time"":793},{""stimulus"":""img/1to2/9.png"",""time"":902},{""stimulus"":""img/1to2/10.png"",""time"":996},{""stimulus"":""img/1to2/11.png"",""time"":1091},{""stimulus"":""img/1to2/12.png"",""time"":1189}]","[]"
"image-keyboard-response","27","49260","0.0-5.0-1.11","63e51ddb19fccd05514c629c","bdp_cybrbll","Tue Mar 28 2023 18:15:25 GMT-0700 (Pacific Daylight Time)","446759","1","3","","166","","img/2to1/1.png","1","choice","214","463","0.5","0.5","2","1","",""
"animation","28","50549","0.0-5.0-2.11","63e51ddb19fccd05514c629c","bdp_cybrbll","Tue Mar 28 2023 18:15:25 GMT-0700 (Pacific Daylight Time)","446759","1","3","","","","","","","214","","","","2","1","[{""stimulus"":""img/2to1/1.png"",""time"":101},{""stimulus"":""img/2to1/2.png"",""time"":199},{""stimulus"":""img/2to1/3.png"",""time"":302},{""stimulus"":""img/2to1/4.png"",""time"":411},{""stimulus"":""img/2to1/5.png"",""time"":504},{""stimulus"":""img/2to1/6.png"",""time"":596},{""stimulus"":""img/2to1/7.png"",""time"":694},{""stimulus"":""img/2to1/8.png"",""time"":798},{""stimulus"":""img/2to1/9.png"",""time"":908},{""stimulus"":""img/2to1/10.png"",""time"":999},{""stimulus"":""img/2to1/11.png"",""time"":1092},{""stimulus"":""img/2to1/12.png"",""time"":1202}]","[]"
"image-keyboard-response","29","51101","0.0-5.0-1.12","63e51ddb19fccd05514c629c","bdp_cybrbll","Tue Mar 28 2023 18:15:25 GMT-0700 (Pacific Daylight Time)","446759","1","3","","null","","img/1to3/1.png","null","observe","213","548","0.5","0.5","1","2","",""
"animation","30","52397","0.0-5.0-2.12","63e51ddb19fccd05514c629c","bdp_cybrbll","Tue Mar 28 2023 18:15:25 GMT-0700 (Pacific Daylight Time)","446759","1","3","","","","","","","213","","","","1","2","[{""stimulus"":""img/1to2/1.png"",""time"":108},{""stimulus"":""img/1to2/2.png"",""time"":198},{""stimulus"":""img/1to2/3.png"",""time"":311},{""stimulus"":""img/1to2/4.png"",""time"":400},{""stimulus"":""img/1to2/5.png"",""time"":495},{""stimulus"":""img/1to2/6.png"",""time"":610},{""stimulus"":""img/1to2/7.png"",""time"":693},{""stimulus"":""img/1to2/8.png"",""time"":796},{""stimulus"":""img/1to2/9.png"",""time"":906},{""stimulus"":""img/1to2/10.png"",""time"":999},{""stimulus"":""img/1to2/11.png"",""time"":1093},{""stimulus"":""img/1to2/12.png"",""time"":1202}]","[]"
"image-keyboard-response","31","52620","0.0-5.0-1.13","63e51ddb19fccd05514c629c","bdp_cybrbll","Tue Mar 28 2023 18:15:25 GMT-0700 (Pacific Daylight Time)","446759","1","3","","221","","img/2to1/1.png","1","choice","212","1016","0.5","0.5","2","1","",""
"animation","32","53909","0.0-5.0-2.13","63e51ddb19fccd05514c629c","bdp_cybrbll","Tue Mar 28 2023 18:15:25 GMT-0700 (Pacific Daylight Time)","446759","1","3","","","","","","","212","","","","2","1","[{""stimulus"":""img/2to1/1.png"",""time"":103},{""stimulus"":""img/2to1/2.png"",""time"":200},{""stimulus"":""img/2to1/3.png"",""time"":305},{""stimulus"":""img/2to1/4.png"",""time"":398},{""stimulus"":""img/2to1/5.png"",""time"":496},{""stimulus"":""img/2to1/6.png"",""time"":602},{""stimulus"":""img/2to1/7.png"",""time"":695},{""stimulus"":""img/2to1/8.png"",""time"":804},{""stimulus"":""img/2to1/9.png"",""time"":899},{""stimulus"":""img/2to1/10.png"",""time"":992},{""stimulus"":""img/2to1/11.png"",""time"":1103},{""stimulus"":""img/2to1/12.png"",""time"":1189}]","[]"
"image-keyboard-response","33","54498","0.0-5.0-1.14","63e51ddb19fccd05514c629c","bdp_cybrbll","Tue Mar 28 2023 18:15:25 GMT-0700 (Pacific Daylight Time)","446759","1","3","","null","","img/1to3/1.png","null","observe","211","575","0.5","0.5","1","3","",""
"animation","34","55785","0.0-5.0-2.14","63e51ddb19fccd05514c629c","bdp_cybrbll","Tue Mar 28 2023 18:15:25 GMT-0700 (Pacific Daylight Time)","446759","1","3","","","","","","","211","","","","1","3","[{""stimulus"":""img/1to3/1.png"",""time"":108},{""stimulus"":""img/1to3/2.png"",""time"":199},{""stimulus"":""img/1to3/3.png"",""time"":311},{""stimulus"":""img/1to3/4.png"",""time"":404},{""stimulus"":""img/1to3/5.png"",""time"":498},{""stimulus"":""img/1to3/6.png"",""time"":607},{""stimulus"":""img/1to3/7.png"",""time"":700},{""stimulus"":""img/1to3/8.png"",""time"":793},{""stimulus"":""img/1to3/9.png"",""time"":903},{""stimulus"":""img/1to3/10.png"",""time"":998},{""stimulus"":""img/1to3/11.png"",""time"":1092},{""stimulus"":""img/1to3/12.png"",""time"":1200}]","[]"
"image-keyboard-response","35","56568","0.0-5.0-1.15","63e51ddb19fccd05514c629c","bdp_cybrbll","Tue Mar 28 2023 18:15:25 GMT-0700 (Pacific Daylight Time)","446759","1","3","","null","","img/3to2/1.png","null","observe","210","777","0.5","0.5","3","1","",""
"animation","36","57859","0.0-5.0-2.15","63e51ddb19fccd05514c629c","bdp_cybrbll","Tue Mar 28 2023 18:15:25 GMT-0700 (Pacific Daylight Time)","446759","1","3","","","","","","","210","","","","3","1","[{""stimulus"":""img/3to1/1.png"",""time"":111},{""stimulus"":""img/3to1/2.png"",""time"":199},{""stimulus"":""img/3to1/3.png"",""time"":299},{""stimulus"":""img/3to1/4.png"",""time"":397},{""stimulus"":""img/3to1/5.png"",""time"":499},{""stimulus"":""img/3to1/6.png"",""time"":609},{""stimulus"":""img/3to1/7.png"",""time"":694},{""stimulus"":""img/3to1/8.png"",""time"":796},{""stimulus"":""img/3to1/9.png"",""time"":905},{""stimulus"":""img/3to1/10.png"",""time"":991},{""stimulus"":""img/3to1/11.png"",""time"":1090},{""stimulus"":""img/3to1/12.png"",""time"":1189}]","[]"
"image-keyboard-response","37","58342","0.0-5.0-1.16","63e51ddb19fccd05514c629c","bdp_cybrbll","Tue Mar 28 2023 18:15:25 GMT-0700 (Pacific Daylight Time)","446759","1","3","","null","","img/1to3/1.png","null","observe","209","471","0.5","0.5","1","2","",""
"animation","38","59630","0.0-5.0-2.16","63e51ddb19fccd05514c629c","bdp_cybrbll","Tue Mar 28 2023 18:15:25 GMT-0700 (Pacific Daylight Time)","446759","1","3","","","","","","","209","","","","1","2","[{""stimulus"":""img/1to2/1.png"",""time"":110},{""stimulus"":""img/1to2/2.png"",""time"":203},{""stimulus"":""img/1to2/3.png"",""time"":312},{""stimulus"":""img/1to2/4.png"",""time"":405},{""stimulus"":""img/1to2/5.png"",""time"":497},{""stimulus"":""img/1to2/6.png"",""time"":604},{""stimulus"":""img/1to2/7.png"",""time"":694},{""stimulus"":""img/1to2/8.png"",""time"":816},{""stimulus"":""img/1to2/9.png"",""time"":902},{""stimulus"":""img/1to2/10.png"",""time"":991},{""stimulus"":""img/1to2/11.png"",""time"":1090},{""stimulus"":""img/1to2/12.png"",""time"":1199}]","[]"
"image-keyboard-response","39","59917","0.0-5.0-1.17","63e51ddb19fccd05514c629c","bdp_cybrbll","Tue Mar 28 2023 18:15:25 GMT-0700 (Pacific Daylight Time)","446759","1","3","","287","","img/2to1/1.png","1","choice","208","345","0.5","0.5","2","1","",""
"animation","40","61207","0.0-5.0-2.17","63e51ddb19fccd05514c629c","bdp_cybrbll","Tue Mar 28 2023 18:15:25 GMT-0700 (Pacific Daylight Time)","446759","1","3","","","","","","","208","","","","2","1","[{""stimulus"":""img/2to1/1.png"",""time"":105},{""stimulus"":""img/2to1/2.png"",""time"":199},{""stimulus"":""img/2to1/3.png"",""time"":309},{""stimulus"":""img/2to1/4.png"",""time"":403},{""stimulus"":""img/2to1/5.png"",""time"":512},{""stimulus"":""img/2to1/6.png"",""time"":604},{""stimulus"":""img/2to1/7.png"",""time"":703},{""stimulus"":""img/2to1/8.png"",""time"":807},{""stimulus"":""img/2to1/9.png"",""time"":901},{""stimulus"":""img/2to1/10.png"",""time"":993},{""stimulus"":""img/2to1/11.png"",""time"":1102},{""stimulus"":""img/2to1/12.png"",""time"":1198}]","[]"
"image-keyboard-response","41","61579","0.0-5.0-1.18","63e51ddb19fccd05514c629c","bdp_cybrbll","Tue Mar 28 2023 18:15:25 GMT-0700 (Pacific Daylight Time)","446759","1","3","","null","","img/1to3/1.png","null","observe","207","363","0.5","0.5","1","2","",""
"animation","42","62875","0.0-5.0-2.18","63e51ddb19fccd05514c629c","bdp_cybrbll","Tue Mar 28 2023 18:15:25 GMT-0700 (Pacific Daylight Time)","446759","1","3","","","","","","","207","","","","1","2","[{""stimulus"":""img/1to2/1.png"",""time"":109},{""stimulus"":""img/1to2/2.png"",""time"":203},{""stimulus"":""img/1to2/3.png"",""time"":312},{""stimulus"":""img/1to2/4.png"",""time"":407},{""stimulus"":""img/1to2/5.png"",""time"":501},{""stimulus"":""img/1to2/6.png"",""time"":604},{""stimulus"":""img/1to2/7.png"",""time"":694},{""stimulus"":""img/1to2/8.png"",""time"":798},{""stimulus"":""img/1to2/9.png"",""time"":907},{""stimulus"":""img/1to2/10.png"",""time"":999},{""stimulus"":""img/1to2/11.png"",""time"":1094},{""stimulus"":""img/1to2/12.png"",""time"":1201}]","[]"
"image-keyboard-response","43","63121","0.0-5.0-1.19","63e51ddb19fccd05514c629c","bdp_cybrbll","Tue Mar 28 2023 18:15:25 GMT-0700 (Pacific Daylight Time)","446759","1","3","","245","","img/2to1/1.png","2","choice","206","877","0.5","0.5","2","3","",""
"animation","44","64409","0.0-5.0-2.19","63e51ddb19fccd05514c629c","bdp_cybrbll","Tue Mar 28 2023 18:15:25 GMT-0700 (Pacific Daylight Time)","446759","1","3","","","","","","","206","","","","2","3","[{""stimulus"":""img/2to3/1.png"",""time"":102},{""stimulus"":""img/2to3/2.png"",""time"":199},{""stimulus"":""img/2to3/3.png"",""time"":298},{""stimulus"":""img/2to3/4.png"",""time"":407},{""stimulus"":""img/2to3/5.png"",""time"":496},{""stimulus"":""img/2to3/6.png"",""time"":610},{""stimulus"":""img/2to3/7.png"",""time"":694},{""stimulus"":""img/2to3/8.png"",""time"":797},{""stimulus"":""img/2to3/9.png"",""time"":905},{""stimulus"":""img/2to3/10.png"",""time"":991},{""stimulus"":""img/2to3/11.png"",""time"":1104},{""stimulus"":""img/2to3/12.png"",""time"":1189}]","[]"
"image-keyboard-response","45","64848","0.0-5.0-1.20","63e51ddb19fccd05514c629c","bdp_cybrbll","Tue Mar 28 2023 18:15:25 GMT-0700 (Pacific Daylight Time)","446759","1","3","","null","","img/3to2/1.png","null","observe","205","432","0.5","0.5","3","2","",""
"animation","46","66139","0.0-5.0-2.20","63e51ddb19fccd05514c629c","bdp_cybrbll","Tue Mar 28 2023 18:15:25 GMT-0700 (Pacific Daylight Time)","446759","1","3","","","","","","","205","","","","3","2","[{""stimulus"":""img/3to2/1.png"",""time"":110},{""stimulus"":""img/3to2/2.png"",""time"":199},{""stimulus"":""img/3to2/3.png"",""time"":313},{""stimulus"":""img/3to2/4.png"",""time"":398},{""stimulus"":""img/3to2/5.png"",""time"":496},{""stimulus"":""img/3to2/6.png"",""time"":607},{""stimulus"":""img/3to2/7.png"",""time"":694},{""stimulus"":""img/3to2/8.png"",""time"":795},{""stimulus"":""img/3to2/9.png"",""time"":902},{""stimulus"":""img/3to2/10.png"",""time"":991},{""stimulus"":""img/3to2/11.png"",""time"":1090},{""stimulus"":""img/3to2/12.png"",""time"":1198}]","[]"
"image-keyboard-response","47","66422","0.0-5.0-1.21","63e51ddb19fccd05514c629c","bdp_cybrbll","Tue Mar 28 2023 18:15:25 GMT-0700 (Pacific Daylight Time)","446759","1","3","","281","","img/2to1/1.png","2","choice","204","269","0.5","0.5","2","3","",""
"animation","48","67710","0.0-5.0-2.21","63e51ddb19fccd05514c629c","bdp_cybrbll","Tue Mar 28 2023 18:15:25 GMT-0700 (Pacific Daylight Time)","446759","1","3","","","","","","","204","","","","2","3","[{""stimulus"":""img/2to3/1.png"",""time"":106},{""stimulus"":""img/2to3/2.png"",""time"":215},{""stimulus"":""img/2to3/3.png"",""time"":308},{""stimulus"":""img/2to3/4.png"",""time"":397},{""stimulus"":""img/2to3/5.png"",""time"":510},{""stimulus"":""img/2to3/6.png"",""time"":604},{""stimulus"":""img/2to3/7.png"",""time"":694},{""stimulus"":""img/2to3/8.png"",""time"":805},{""stimulus"":""img/2to3/9.png"",""time"":898},{""stimulus"":""img/2to3/10.png"",""time"":992},{""stimulus"":""img/2to3/11.png"",""time"":1102},{""stimulus"":""img/2to3/12.png"",""time"":1196}]","[]"
"image-keyboard-response","49","68957","0.0-5.0-1.22","63e51ddb19fccd05514c629c","bdp_cybrbll","Tue Mar 28 2023 18:15:25 GMT-0700 (Pacific Daylight Time)","446759","1","3","","null","","img/3to2/1.png","null","observe","203","1239","0.5","0.5","3","2","",""
"animation","50","70245","0.0-5.0-2.22","63e51ddb19fccd05514c629c","bdp_cybrbll","Tue Mar 28 2023 18:15:25 GMT-0700 (Pacific Daylight Time)","446759","1","3","","","","","","","203","","","","3","2","[{""stimulus"":""img/3to2/1.png"",""time"":110},{""stimulus"":""img/3to2/2.png"",""time"":204},{""stimulus"":""img/3to2/3.png"",""time"":311},{""stimulus"":""img/3to2/4.png"",""time"":405},{""stimulus"":""img/3to2/5.png"",""time"":496},{""stimulus"":""img/3to2/6.png"",""time"":608},{""stimulus"":""img/3to2/7.png"",""time"":702},{""stimulus"":""img/3to2/8.png"",""time"":795},{""stimulus"":""img/3to2/9.png"",""time"":904},{""stimulus"":""img/3to2/10.png"",""time"":998},{""stimulus"":""img/3to2/11.png"",""time"":1091},{""stimulus"":""img/3to2/12.png"",""time"":1201}]","[]"
"image-keyboard-response","51","70600","0.0-5.0-1.23","63e51ddb19fccd05514c629c","bdp_cybrbll","Tue Mar 28 2023 18:15:25 GMT-0700 (Pacific Daylight Time)","446759","1","3","","353","","img/2to1/1.png","2","choice","202","776","0.5","0.5","2","3","",""
"animation","52","71888","0.0-5.0-2.23","63e51ddb19fccd05514c629c","bdp_cybrbll","Tue Mar 28 2023 18:15:25 GMT-0700 (Pacific Daylight Time)","446759","1","3","","","","","","","202","","","","2","3","[{""stimulus"":""img/2to3/1.png"",""time"":101},{""stimulus"":""img/2to3/2.png"",""time"":213},{""stimulus"":""img/2to3/3.png"",""time"":306},{""stimulus"":""img/2to3/4.png"",""time"":401},{""stimulus"":""img/2to3/5.png"",""time"":510},{""stimulus"":""img/2to3/6.png"",""time"":603},{""stimulus"":""img/2to3/7.png"",""time"":696},{""stimulus"":""img/2to3/8.png"",""time"":806},{""stimulus"":""img/2to3/9.png"",""time"":897},{""stimulus"":""img/2to3/10.png"",""time"":1006},{""stimulus"":""img/2to3/11.png"",""time"":1091},{""stimulus"":""img/2to3/12.png"",""time"":1191}]","[]"
"image-keyboard-response","53","72418","0.0-5.0-1.24","63e51ddb19fccd05514c629c","bdp_cybrbll","Tue Mar 28 2023 18:15:25 GMT-0700 (Pacific Daylight Time)","446759","1","3","","null","","img/3to2/1.png","null","observe","201","526","0.5","0.5","3","2","",""
"animation","54","73716","0.0-5.0-2.24","63e51ddb19fccd05514c629c","bdp_cybrbll","Tue Mar 28 2023 18:15:25 GMT-0700 (Pacific Daylight Time)","446759","1","3","","","","","","","201","","","","3","2","[{""stimulus"":""img/3to2/1.png"",""time"":109},{""stimulus"":""img/3to2/2.png"",""time"":203},{""stimulus"":""img/3to2/3.png"",""time"":299},{""stimulus"":""img/3to2/4.png"",""time"":409},{""stimulus"":""img/3to2/5.png"",""time"":499},{""stimulus"":""img/3to2/6.png"",""time"":596},{""stimulus"":""img/3to2/7.png"",""time"":706},{""stimulus"":""img/3to2/8.png"",""time"":798},{""stimulus"":""img/3to2/9.png"",""time"":892},{""stimulus"":""img/3to2/10.png"",""time"":994},{""stimulus"":""img/3to2/11.png"",""time"":1094},{""stimulus"":""img/3to2/12.png"",""time"":1205}]","[]"
"image-keyboard-response","55","74213","0.0-5.0-1.25","63e51ddb19fccd05514c629c","bdp_cybrbll","Tue Mar 28 2023 18:15:25 GMT-0700 (Pacific Daylight Time)","446759","1","3","","495","","img/2to1/1.png","1","choice","200","888","0.5","0.5","2","1","",""
"animation","56","75506","0.0-5.0-2.25","63e51ddb19fccd05514c629c","bdp_cybrbll","Tue Mar 28 2023 18:15:25 GMT-0700 (Pacific Daylight Time)","446759","1","3","","","","","","","200","","","","2","1","[{""stimulus"":""img/2to1/1.png"",""time"":100},{""stimulus"":""img/2to1/2.png"",""time"":201},{""stimulus"":""img/2to1/3.png"",""time"":312},{""stimulus"":""img/2to1/4.png"",""time"":397},{""stimulus"":""img/2to1/5.png"",""time"":499},{""stimulus"":""img/2to1/6.png"",""time"":606},{""stimulus"":""img/2to1/7.png"",""time"":699},{""stimulus"":""img/2to1/8.png"",""time"":793},{""stimulus"":""img/2to1/9.png"",""time"":903},{""stimulus"":""img/2to1/10.png"",""time"":997},{""stimulus"":""img/2to1/11.png"",""time"":1105},{""stimulus"":""img/2to1/12.png"",""time"":1201}]","[]"
"image-keyboard-response","57","76036","0.0-5.0-1.26","63e51ddb19fccd05514c629c","bdp_cybrbll","Tue Mar 28 2023 18:15:25 GMT-0700 (Pacific Daylight Time)","446759","1","3","","null","","img/1to3/1.png","null","observe","199","522","0.5","0.5","1","2","",""
"animation","58","77324","0.0-5.0-2.26","63e51ddb19fccd05514c629c","bdp_cybrbll","Tue Mar 28 2023 18:15:25 GMT-0700 (Pacific Daylight Time)","446759","1","3","","","","","","","199","","","","1","2","[{""stimulus"":""img/1to2/1.png"",""time"":110},{""stimulus"":""img/1to2/2.png"",""time"":199},{""stimulus"":""img/1to2/3.png"",""time"":312},{""stimulus"":""img/1to2/4.png"",""time"":404},{""stimulus"":""img/1to2/5.png"",""time"":497},{""stimulus"":""img/1to2/6.png"",""time"":606},{""stimulus"":""img/1to2/7.png"",""time"":699},{""stimulus"":""img/1to2/8.png"",""time"":808},{""stimulus"":""img/1to2/9.png"",""time"":902},{""stimulus"":""img/1to2/10.png"",""time"":996},{""stimulus"":""img/1to2/11.png"",""time"":1105},{""stimulus"":""img/1to2/12.png"",""time"":1189}]","[]"
"image-keyboard-response","59","78254","0.0-5.0-1.27","63e51ddb19fccd05514c629c","bdp_cybrbll","Tue Mar 28 2023 18:15:25 GMT-0700 (Pacific Daylight Time)","446759","1","3","","929","","img/2to1/1.png","1","choice","198","144","0.5","0.5","2","1","",""
"animation","60","79542","0.0-5.0-2.27","63e51ddb19fccd05514c629c","bdp_cybrbll","Tue Mar 28 2023 18:15:25 GMT-0700 (Pacific Daylight Time)","446759","1","3","","","","","","","198","","","","2","1","[{""stimulus"":""img/2to1/1.png"",""time"":101},{""stimulus"":""img/2to1/2.png"",""time"":199},{""stimulus"":""img/2to1/3.png"",""time"":300},{""stimulus"":""img/2to1/4.png"",""time"":410},{""stimulus"":""img/2to1/5.png"",""time"":504},{""stimulus"":""img/2to1/6.png"",""time"":598},{""stimulus"":""img/2to1/7.png"",""time"":707},{""stimulus"":""img/2to1/8.png"",""time"":793},{""stimulus"":""img/2to1/9.png"",""time"":896},{""stimulus"":""img/2to1/10.png"",""time"":1002},{""stimulus"":""img/2to1/11.png"",""time"":1094},{""stimulus"":""img/2to1/12.png"",""time"":1203}]","[]"
"image-keyboard-response","61","79865","0.0-5.0-1.28","63e51ddb19fccd05514c629c","bdp_cybrbll","Tue Mar 28 2023 18:15:25 GMT-0700 (Pacific Daylight Time)","446759","1","3","","null","","img/1to3/1.png","null","observe","197","307","0.5","0.5","1","2","",""
"animation","62","81153","0.0-5.0-2.28","63e51ddb19fccd05514c629c","bdp_cybrbll","Tue Mar 28 2023 18:15:25 GMT-0700 (Pacific Daylight Time)","446759","1","3","","","","","","","197","","","","1","2","[{""stimulus"":""img/1to2/1.png"",""time"":110},{""stimulus"":""img/1to2/2.png"",""time"":202},{""stimulus"":""img/1to2/3.png"",""time"":310},{""stimulus"":""img/1to2/4.png"",""time"":396},{""stimulus"":""img/1to2/5.png"",""time"":510},{""stimulus"":""img/1to2/6.png"",""time"":608},{""stimulus"":""img/1to2/7.png"",""time"":693},{""stimulus"":""img/1to2/8.png"",""time"":805},{""stimulus"":""img/1to2/9.png"",""time"":898},{""stimulus"":""img/1to2/10.png"",""time"":991},{""stimulus"":""img/1to2/11.png"",""time"":1100},{""stimulus"":""img/1to2/12.png"",""time"":1193}]","[]"
"image-keyboard-response","63","81813","0.0-5.0-1.29","63e51ddb19fccd05514c629c","bdp_cybrbll","Tue Mar 28 2023 18:15:25 GMT-0700 (Pacific Daylight Time)","446759","1","3","","657","","img/2to1/1.png","1","choice","196","1390","0.5","0.5","2","1","",""
"animation","64","83101","0.0-5.0-2.29","63e51ddb19fccd05514c629c","bdp_cybrbll","Tue Mar 28 2023 18:15:25 GMT-0700 (Pacific Daylight Time)","446759","1","3","","","","","","","196","","","","2","1","[{""stimulus"":""img/2to1/1.png"",""time"":100},{""stimulus"":""img/2to1/2.png"",""time"":212},{""stimulus"":""img/2to1/3.png"",""time"":305},{""stimulus"":""img/2to1/4.png"",""time"":406},{""stimulus"":""img/2to1/5.png"",""time"":507},{""stimulus"":""img/2to1/6.png"",""time"":601},{""stimulus"":""img/2to1/7.png"",""time"":708},{""stimulus"":""img/2to1/8.png"",""time"":803},{""stimulus"":""img/2to1/9.png"",""time"":899},{""stimulus"":""img/2to1/10.png"",""time"":992},{""stimulus"":""img/2to1/11.png"",""time"":1090},{""stimulus"":""img/2to1/12.png"",""time"":1192}]","[]"
"image-keyboard-response","65","83535","0.0-5.0-1.30","63e51ddb19fccd05514c629c","bdp_cybrbll","Tue Mar 28 2023 18:15:25 GMT-0700 (Pacific Daylight Time)","446759","1","3","","null","","img/1to3/1.png","null","observe","195","423","0.5","0.5","1","3","",""
"animation","66","84822","0.0-5.0-2.30","63e51ddb19fccd05514c629c","bdp_cybrbll","Tue Mar 28 2023 18:15:25 GMT-0700 (Pacific Daylight Time)","446759","1","3","","","","","","","195","","","","1","3","[{""stimulus"":""img/1to3/1.png"",""time"":108},{""stimulus"":""img/1to3/2.png"",""time"":203},{""stimulus"":""img/1to3/3.png"",""time"":310},{""stimulus"":""img/1to3/4.png"",""time"":397},{""stimulus"":""img/1to3/5.png"",""time"":512},{""stimulus"":""img/1to3/6.png"",""time"":603},{""stimulus"":""img/1to3/7.png"",""time"":696},{""stimulus"":""img/1to3/8.png"",""time"":806},{""stimulus"":""img/1to3/9.png"",""time"":899},{""stimulus"":""img/1to3/10.png"",""time"":994},{""stimulus"":""img/1to3/11.png"",""time"":1101},{""stimulus"":""img/1to3/12.png"",""time"":1196}]","[]"
"image-keyboard-response","67","84961","0.0-5.0-1.31","63e51ddb19fccd05514c629c","bdp_cybrbll","Tue Mar 28 2023 18:15:25 GMT-0700 (Pacific Daylight Time)","446759","1","3","","null","","img/3to2/1.png","null","observe","194","130","0.5","0.5","3","1","",""
"animation","68","86256","0.0-5.0-2.31","63e51ddb19fccd05514c629c","bdp_cybrbll","Tue Mar 28 2023 18:15:25 GMT-0700 (Pacific Daylight Time)","446759","1","3","","","","","","","194","","","","3","1","[{""stimulus"":""img/3to1/1.png"",""time"":109},{""stimulus"":""img/3to1/2.png"",""time"":202},{""stimulus"":""img/3to1/3.png"",""time"":311},{""stimulus"":""img/3to1/4.png"",""time"":397},{""stimulus"":""img/3to1/5.png"",""time"":496},{""stimulus"":""img/3to1/6.png"",""time"":606},{""stimulus"":""img/3to1/7.png"",""time"":700},{""stimulus"":""img/3to1/8.png"",""time"":794},{""stimulus"":""img/3to1/9.png"",""time"":905},{""stimulus"":""img/3to1/10.png"",""time"":999},{""stimulus"":""img/3to1/11.png"",""time"":1092},{""stimulus"":""img/3to1/12.png"",""time"":1202}]","[]"
"image-keyboard-response","69","86829","0.0-5.0-1.32","63e51ddb19fccd05514c629c","bdp_cybrbll","Tue Mar 28 2023 18:15:25 GMT-0700 (Pacific Daylight Time)","446759","1","3","","null","","img/1to3/1.png","null","observe","193","569","0.5","0.5","1","2","",""
"animation","70","88125","0.0-5.0-2.32","63e51ddb19fccd05514c629c","bdp_cybrbll","Tue Mar 28 2023 18:15:25 GMT-0700 (Pacific Daylight Time)","446759","1","3","","","","","","","193","","","","1","2","[{""stimulus"":""img/1to2/1.png"",""time"":111},{""stimulus"":""img/1to2/2.png"",""time"":200},{""stimulus"":""img/1to2/3.png"",""time"":299},{""stimulus"":""img/1to2/4.png"",""time"":408},{""stimulus"":""img/1to2/5.png"",""time"":496},{""stimulus"":""img/1to2/6.png"",""time"":595},{""stimulus"":""img/1to2/7.png"",""time"":694},{""stimulus"":""img/1to2/8.png"",""time"":797},{""stimulus"":""img/1to2/9.png"",""time"":906},{""stimulus"":""img/1to2/10.png"",""time"":1000},{""stimulus"":""img/1to2/11.png"",""time"":1093},{""stimulus"":""img/1to2/12.png"",""time"":1203}]","[]"
"image-keyboard-response","71","88414","0.0-5.0-1.33","63e51ddb19fccd05514c629c","bdp_cybrbll","Tue Mar 28 2023 18:15:25 GMT-0700 (Pacific Daylight Time)","446759","1","3","","288","","img/2to1/1.png","1","choice","192","265","0.5","0.5","2","1","",""
"animation","72","89715","0.0-5.0-2.33","63e51ddb19fccd05514c629c","bdp_cybrbll","Tue Mar 28 2023 18:15:25 GMT-0700 (Pacific Daylight Time)","446759","1","3","","","","","","","192","","","","2","1","[{""stimulus"":""img/2to1/1.png"",""time"":103},{""stimulus"":""img/2to1/2.png"",""time"":211},{""stimulus"":""img/2to1/3.png"",""time"":304},{""stimulus"":""img/2to1/4.png"",""time"":399},{""stimulus"":""img/2to1/5.png"",""time"":498},{""stimulus"":""img/2to1/6.png"",""time"":600},{""stimulus"":""img/2to1/7.png"",""time"":695},{""stimulus"":""img/2to1/8.png"",""time"":801},{""stimulus"":""img/2to1/9.png"",""time"":896},{""stimulus"":""img/2to1/10.png"",""time"":991},{""stimulus"":""img/2to1/11.png"",""time"":1099},{""stimulus"":""img/2to1/12.png"",""time"":1191}]","[]"
"image-keyboard-response","73","90307","0.0-5.0-1.34","63e51ddb19fccd05514c629c","bdp_cybrbll","Tue Mar 28 2023 18:15:25 GMT-0700 (Pacific Daylight Time)","446759","1","3","","null","","img/1to3/1.png","null","observe","191","589","0.5","0.5","1","2","",""
"animation","74","91595","0.0-5.0-2.34","63e51ddb19fccd05514c629c","bdp_cybrbll","Tue Mar 28 2023 18:15:25 GMT-0700 (Pacific Daylight Time)","446759","1","3","","","","","","","191","","","","1","2","[{""stimulus"":""img/1to2/1.png"",""time"":108},{""stimulus"":""img/1to2/2.png"",""time"":202},{""stimulus"":""img/1to2/3.png"",""time"":311},{""stimulus"":""img/1to2/4.png"",""time"":403},{""stimulus"":""img/1to2/5.png"",""time"":495},{""stimulus"":""img/1to2/6.png"",""time"":609},{""stimulus"":""img/1to2/7.png"",""time"":701},{""stimulus"":""img/1to2/8.png"",""time"":795},{""stimulus"":""img/1to2/9.png"",""time"":904},{""stimulus"":""img/1to2/10.png"",""time"":990},{""stimulus"":""img/1to2/11.png"",""time"":1093},{""stimulus"":""img/1to2/12.png"",""time"":1189}]","[]"
"image-keyboard-response","75","92095","0.0-5.0-1.35","63e51ddb19fccd05514c629c","bdp_cybrbll","Tue Mar 28 2023 18:15:25 GMT-0700 (Pacific Daylight Time)","446759","1","3","","499","","img/2to1/1.png","2","choice","190","336","0.5","0.5","2","3","",""
"animation","76","93394","0.0-5.0-2.35","63e51ddb19fccd05514c629c","bdp_cybrbll","Tue Mar 28 2023 18:15:25 GMT-0700 (Pacific Daylight Time)","446759","1","3","","","","","","","190","","","","2","3","[{""stimulus"":""img/2to3/1.png"",""time"":101},{""stimulus"":""img/2to3/2.png"",""time"":199},{""stimulus"":""img/2to3/3.png"",""time"":302},{""stimulus"":""img/2to3/4.png"",""time"":397},{""stimulus"":""img/2to3/5.png"",""time"":506},{""stimulus"":""img/2to3/6.png"",""time"":598},{""stimulus"":""img/2to3/7.png"",""time"":694},{""stimulus"":""img/2to3/8.png"",""time"":793},{""stimulus"":""img/2to3/9.png"",""time"":894},{""stimulus"":""img/2to3/10.png"",""time"":992},{""stimulus"":""img/2to3/11.png"",""time"":1090},{""stimulus"":""img/2to3/12.png"",""time"":1190}]","[]"
"image-keyboard-response","77","93925","0.0-5.0-1.36","63e51ddb19fccd05514c629c","bdp_cybrbll","Tue Mar 28 2023 18:15:25 GMT-0700 (Pacific Daylight Time)","446759","1","3","","null","","img/3to2/1.png","null","observe","189","527","0.5","0.5","3","2","",""
"animation","78","95214","0.0-5.0-2.36","63e51ddb19fccd05514c629c","bdp_cybrbll","Tue Mar 28 2023 18:15:25 GMT-0700 (Pacific Daylight Time)","446759","1","3","","","","","","","189","","","","3","2","[{""stimulus"":""img/3to2/1.png"",""time"":112},{""stimulus"":""img/3to2/2.png"",""time"":199},{""stimulus"":""img/3to2/3.png"",""time"":313},{""stimulus"":""img/3to2/4.png"",""time"":407},{""stimulus"":""img/3to2/5.png"",""time"":495},{""stimulus"":""img/3to2/6.png"",""time"":609},{""stimulus"":""img/3to2/7.png"",""time"":702},{""stimulus"":""img/3to2/8.png"",""time"":796},{""stimulus"":""img/3to2/9.png"",""time"":904},{""stimulus"":""img/3to2/10.png"",""time"":991},{""stimulus"":""img/3to2/11.png"",""time"":1092},{""stimulus"":""img/3to2/12.png"",""time"":1201}]","[]"
"image-keyboard-response","79","96801","0.0-5.0-1.37","63e51ddb19fccd05514c629c","bdp_cybrbll","Tue Mar 28 2023 18:15:25 GMT-0700 (Pacific Daylight Time)","446759","1","3","","1585","","img/2to1/1.png","1","choice","188","254","0.5","0.5","2","1","",""
"animation","80","98097","0.0-5.0-2.37","63e51ddb19fccd05514c629c","bdp_cybrbll","Tue Mar 28 2023 18:15:25 GMT-0700 (Pacific Daylight Time)","446759","1","3","","","","","","","188","","","","2","1","[{""stimulus"":""img/2to1/1.png"",""time"":100},{""stimulus"":""img/2to1/2.png"",""time"":212},{""stimulus"":""img/2to1/3.png"",""time"":304},{""stimulus"":""img/2to1/4.png"",""time"":413},{""stimulus"":""img/2to1/5.png"",""time"":496},{""stimulus"":""img/2to1/6.png"",""time"":597},{""stimulus"":""img/2to1/7.png"",""time"":694},{""stimulus"":""img/2to1/8.png"",""time"":799},{""stimulus"":""img/2to1/9.png"",""time"":893},{""stimulus"":""img/2to1/10.png"",""time"":1001},{""stimulus"":""img/2to1/11.png"",""time"":1094},{""stimulus"":""img/2to1/12.png"",""time"":1202}]","[]"
"image-keyboard-response","81","98780","0.0-5.0-1.38","63e51ddb19fccd05514c629c","bdp_cybrbll","Tue Mar 28 2023 18:15:25 GMT-0700 (Pacific Daylight Time)","446759","1","3","","null","","img/1to3/1.png","null","observe","187","668","0.5","0.5","1","3","",""
"animation","82","100077","0.0-5.0-2.38","63e51ddb19fccd05514c629c","bdp_cybrbll","Tue Mar 28 2023 18:15:25 GMT-0700 (Pacific Daylight Time)","446759","1","3","","","","","","","187","","","","1","3","[{""stimulus"":""img/1to3/1.png"",""time"":112},{""stimulus"":""img/1to3/2.png"",""time"":199},{""stimulus"":""img/1to3/3.png"",""time"":299},{""stimulus"":""img/1to3/4.png"",""time"":397},{""stimulus"":""img/1to3/5.png"",""time"":496},{""stimulus"":""img/1to3/6.png"",""time"":596},{""stimulus"":""img/1to3/7.png"",""time"":694},{""stimulus"":""img/1to3/8.png"",""time"":797},{""stimulus"":""img/1to3/9.png"",""time"":892},{""stimulus"":""img/1to3/10.png"",""time"":1002},{""stimulus"":""img/1to3/11.png"",""time"":1096},{""stimulus"":""img/1to3/12.png"",""time"":1204}]","[]"
"image-keyboard-response","83","100250","0.0-5.0-1.39","63e51ddb19fccd05514c629c","bdp_cybrbll","Tue Mar 28 2023 18:15:25 GMT-0700 (Pacific Daylight Time)","446759","1","3","","null","","img/3to2/1.png","null","observe","186","159","0.5","0.5","3","2","",""
"animation","84","101538","0.0-5.0-2.39","63e51ddb19fccd05514c629c","bdp_cybrbll","Tue Mar 28 2023 18:15:25 GMT-0700 (Pacific Daylight Time)","446759","1","3","","","","","","","186","","","","3","2","[{""stimulus"":""img/3to2/1.png"",""time"":107},{""stimulus"":""img/3to2/2.png"",""time"":200},{""stimulus"":""img/3to2/3.png"",""time"":308},{""stimulus"":""img/3to2/4.png"",""time"":396},{""stimulus"":""img/3to2/5.png"",""time"":495},{""stimulus"":""img/3to2/6.png"",""time"":604},{""stimulus"":""img/3to2/7.png"",""time"":697},{""stimulus"":""img/3to2/8.png"",""time"":808},{""stimulus"":""img/3to2/9.png"",""time"":901},{""stimulus"":""img/3to2/10.png"",""time"":998},{""stimulus"":""img/3to2/11.png"",""time"":1105},{""stimulus"":""img/3to2/12.png"",""time"":1189}]","[]"
"image-keyboard-response","85","101594","0.0-5.0-1.40","63e51ddb19fccd05514c629c","bdp_cybrbll","Tue Mar 28 2023 18:15:25 GMT-0700 (Pacific Daylight Time)","446759","1","3","","54","","img/2to1/1.png","2","choice","185","471","0.5","0.5","2","3","",""
"animation","86","102894","0.0-5.0-2.40","63e51ddb19fccd05514c629c","bdp_cybrbll","Tue Mar 28 2023 18:15:25 GMT-0700 (Pacific Daylight Time)","446759","1","3","","","","","","","185","","","","2","3","[{""stimulus"":""img/2to3/1.png"",""time"":101},{""stimulus"":""img/2to3/2.png"",""time"":211},{""stimulus"":""img/2to3/3.png"",""time"":299},{""stimulus"":""img/2to3/4.png"",""time"":397},{""stimulus"":""img/2to3/5.png"",""time"":508},{""stimulus"":""img/2to3/6.png"",""time"":601},{""stimulus"":""img/2to3/7.png"",""time"":694},{""stimulus"":""img/2to3/8.png"",""time"":803},{""stimulus"":""img/2to3/9.png"",""time"":892},{""stimulus"":""img/2to3/10.png"",""time"":1007},{""stimulus"":""img/2to3/11.png"",""time"":1099},{""stimulus"":""img/2to3/12.png"",""time"":1191}]","[]"
"image-keyboard-response","87","103597","0.0-5.0-1.41","63e51ddb19fccd05514c629c","bdp_cybrbll","Tue Mar 28 2023 18:15:25 GMT-0700 (Pacific Daylight Time)","446759","1","3","","null","","img/3to2/1.png","null","observe","184","686","0.5","0.5","3","2","",""
"animation","88","104890","0.0-5.0-2.41","63e51ddb19fccd05514c629c","bdp_cybrbll","Tue Mar 28 2023 18:15:25 GMT-0700 (Pacific Daylight Time)","446759","1","3","","","","","","","184","","","","3","2","[{""stimulus"":""img/3to2/1.png"",""time"":110},{""stimulus"":""img/3to2/2.png"",""time"":199},{""stimulus"":""img/3to2/3.png"",""time"":311},{""stimulus"":""img/3to2/4.png"",""time"":397},{""stimulus"":""img/3to2/5.png"",""time"":497},{""stimulus"":""img/3to2/6.png"",""time"":607},{""stimulus"":""img/3to2/7.png"",""time"":700},{""stimulus"":""img/3to2/8.png"",""time"":795},{""stimulus"":""img/3to2/9.png"",""time"":904},{""stimulus"":""img/3to2/10.png"",""time"":997},{""stimulus"":""img/3to2/11.png"",""time"":1092},{""stimulus"":""img/3to2/12.png"",""time"":1201}]","[]"
"image-keyboard-response","89","105385","0.0-5.0-1.42","63e51ddb19fccd05514c629c","bdp_cybrbll","Tue Mar 28 2023 18:15:25 GMT-0700 (Pacific Daylight Time)","446759","1","3","","494","","img/2to1/1.png","2","choice","183","306","0.5","0.5","2","3","",""
"animation","90","106673","0.0-5.0-2.42","63e51ddb19fccd05514c629c","bdp_cybrbll","Tue Mar 28 2023 18:15:25 GMT-0700 (Pacific Daylight Time)","446759","1","3","","","","","","","183","","","","2","3","[{""stimulus"":""img/2to3/1.png"",""time"":101},{""stimulus"":""img/2to3/2.png"",""time"":205},{""stimulus"":""img/2to3/3.png"",""time"":300},{""stimulus"":""img/2to3/4.png"",""time"":408},{""stimulus"":""img/2to3/5.png"",""time"":502},{""stimulus"":""img/2to3/6.png"",""time"":596},{""stimulus"":""img/2to3/7.png"",""time"":694},{""stimulus"":""img/2to3/8.png"",""time"":799},{""stimulus"":""img/2to3/9.png"",""time"":907},{""stimulus"":""img/2to3/10.png"",""time"":992},{""stimulus"":""img/2to3/11.png"",""time"":1095},{""stimulus"":""img/2to3/12.png"",""time"":1190}]","[]"
"image-keyboard-response","91","107742","0.0-5.0-1.43","63e51ddb19fccd05514c629c","bdp_cybrbll","Tue Mar 28 2023 18:15:25 GMT-0700 (Pacific Daylight Time)","446759","1","3","","null","","img/3to2/1.png","null","observe","182","1057","0.5","0.5","3","2","",""
"animation","92","109030","0.0-5.0-2.43","63e51ddb19fccd05514c629c","bdp_cybrbll","Tue Mar 28 2023 18:15:25 GMT-0700 (Pacific Daylight Time)","446759","1","3","","","","","","","182","","","","3","2","[{""stimulus"":""img/3to2/1.png"",""time"":109},{""stimulus"":""img/3to2/2.png"",""time"":203},{""stimulus"":""img/3to2/3.png"",""time"":312},{""stimulus"":""img/3to2/4.png"",""time"":405},{""stimulus"":""img/3to2/5.png"",""time"":496},{""stimulus"":""img/3to2/6.png"",""time"":608},{""stimulus"":""img/3to2/7.png"",""time"":701},{""stimulus"":""img/3to2/8.png"",""time"":795},{""stimulus"":""img/3to2/9.png"",""time"":905},{""stimulus"":""img/3to2/10.png"",""time"":999},{""stimulus"":""img/3to2/11.png"",""time"":1092},{""stimulus"":""img/3to2/12.png"",""time"":1201}]","[]"
"image-keyboard-response","93","109575","0.0-5.0-1.44","63e51ddb19fccd05514c629c","bdp_cybrbll","Tue Mar 28 2023 18:15:25 GMT-0700 (Pacific Daylight Time)","446759","1","3","","544","","img/2to1/1.png","2","choice","181","347","0.5","0.5","2","3","",""
"animation","94","110874","0.0-5.0-2.44","63e51ddb19fccd05514c629c","bdp_cybrbll","Tue Mar 28 2023 18:15:25 GMT-0700 (Pacific Daylight Time)","446759","1","3","","","","","","","181","","","","2","3","[{""stimulus"":""img/2to3/1.png"",""time"":100},{""stimulus"":""img/2to3/2.png"",""time"":208},{""stimulus"":""img/2to3/3.png"",""time"":302},{""stimulus"":""img/2to3/4.png"",""time"":410},{""stimulus"":""img/2to3/5.png"",""time"":495},{""stimulus"":""img/2to3/6.png"",""time"":598},{""stimulus"":""img/2to3/7.png"",""time"":694},{""stimulus"":""img/2to3/8.png"",""time"":794},{""stimulus"":""img/2to3/9.png"",""time"":893},{""stimulus"":""img/2to3/10.png"",""time"":1002},{""stimulus"":""img/2to3/11.png"",""time"":1095},{""stimulus"":""img/2to3/12.png"",""time"":1189}]","[]"
"image-keyboard-response","95","111169","0.0-5.0-1.45","63e51ddb19fccd05514c629c","bdp_cybrbll","Tue Mar 28 2023 18:15:25 GMT-0700 (Pacific Daylight Time)","446759","1","3","","null","","img/3to2/1.png","null","observe","180","292","0.5","0.5","3","1","",""
"animation","96","112457","0.0-5.0-2.45","63e51ddb19fccd05514c629c","bdp_cybrbll","Tue Mar 28 2023 18:15:25 GMT-0700 (Pacific Daylight Time)","446759","1","3","","","","","","","180","","","","3","1","[{""stimulus"":""img/3to1/1.png"",""time"":109},{""stimulus"":""img/3to1/2.png"",""time"":199},{""stimulus"":""img/3to1/3.png"",""time"":312},{""stimulus"":""img/3to1/4.png"",""time"":404},{""stimulus"":""img/3to1/5.png"",""time"":495},{""stimulus"":""img/3to1/6.png"",""time"":606},{""stimulus"":""img/3to1/7.png"",""time"":699},{""stimulus"":""img/3to1/8.png"",""time"":794},{""stimulus"":""img/3to1/9.png"",""time"":904},{""stimulus"":""img/3to1/10.png"",""time"":990},{""stimulus"":""img/3to1/11.png"",""time"":1093},{""stimulus"":""img/3to1/12.png"",""time"":1190}]","[]"
"image-keyboard-response","97","112682","0.0-5.0-1.46","63e51ddb19fccd05514c629c","bdp_cybrbll","Tue Mar 28 2023 18:15:25 GMT-0700 (Pacific Daylight Time)","446759","1","3","","null","","img/1to3/1.png","null","observe","179","211","0.5","0.5","1","3","",""
"animation","98","113975","0.0-5.0-2.46","63e51ddb19fccd05514c629c","bdp_cybrbll","Tue Mar 28 2023 18:15:25 GMT-0700 (Pacific Daylight Time)","446759","1","3","","","","","","","179","","","","1","3","[{""stimulus"":""img/1to3/1.png"",""time"":110},{""stimulus"":""img/1to3/2.png"",""time"":199},{""stimulus"":""img/1to3/3.png"",""time"":311},{""stimulus"":""img/1to3/4.png"",""time"":397},{""stimulus"":""img/1to3/5.png"",""time"":497},{""stimulus"":""img/1to3/6.png"",""time"":606},{""stimulus"":""img/1to3/7.png"",""time"":695},{""stimulus"":""img/1to3/8.png"",""time"":795},{""stimulus"":""img/1to3/9.png"",""time"":904},{""stimulus"":""img/1to3/10.png"",""time"":999},{""stimulus"":""img/1to3/11.png"",""time"":1092},{""stimulus"":""img/1to3/12.png"",""time"":1202}]","[]"
"image-keyboard-response","99","114664","0.0-5.0-1.47","63e51ddb19fccd05514c629c","bdp_cybrbll","Tue Mar 28 2023 18:15:25 GMT-0700 (Pacific Daylight Time)","446759","1","3","","null","","img/3to2/1.png","null","observe","178","675","0.5","0.5","3","2","",""
"animation","100","115960","0.0-5.0-2.47","63e51ddb19fccd05514c629c","bdp_cybrbll","Tue Mar 28 2023 18:15:25 GMT-0700 (Pacific Daylight Time)","446759","1","3","","","","","","","178","","","","3","2","[{""stimulus"":""img/3to2/1.png"",""time"":108},{""stimulus"":""img/3to2/2.png"",""time"":198},{""stimulus"":""img/3to2/3.png"",""time"":312},{""stimulus"":""img/3to2/4.png"",""time"":397},{""stimulus"":""img/3to2/5.png"",""time"":499},{""stimulus"":""img/3to2/6.png"",""time"":609},{""stimulus"":""img/3to2/7.png"",""time"":702},{""stimulus"":""img/3to2/8.png"",""time"":796},{""stimulus"":""img/3to2/9.png"",""time"":904},{""stimulus"":""img/3to2/10.png"",""time"":991},{""stimulus"":""img/3to2/11.png"",""time"":1095},{""stimulus"":""img/3to2/12.png"",""time"":1202}]","[]"
"image-keyboard-response","101","117712","0.0-5.0-1.48","63e51ddb19fccd05514c629c","bdp_cybrbll","Tue Mar 28 2023 18:15:25 GMT-0700 (Pacific Daylight Time)","446759","1","3","","1751","","img/2to1/1.png","2","choice","177","394","0.5","0.5","2","3","",""
"animation","102","119000","0.0-5.0-2.48","63e51ddb19fccd05514c629c","bdp_cybrbll","Tue Mar 28 2023 18:15:25 GMT-0700 (Pacific Daylight Time)","446759","1","3","","","","","","","177","","","","2","3","[{""stimulus"":""img/2to3/1.png"",""time"":100},{""stimulus"":""img/2to3/2.png"",""time"":200},{""stimulus"":""img/2to3/3.png"",""time"":309},{""stimulus"":""img/2to3/4.png"",""time"":403},{""stimulus"":""img/2to3/5.png"",""time"":497},{""stimulus"":""img/2to3/6.png"",""time"":606},{""stimulus"":""img/2to3/7.png"",""time"":702},{""stimulus"":""img/2to3/8.png"",""time"":794},{""stimulus"":""img/2to3/9.png"",""time"":903},{""stimulus"":""img/2to3/10.png"",""time"":996},{""stimulus"":""img/2to3/11.png"",""time"":1104},{""stimulus"":""img/2to3/12.png"",""time"":1199}]","[]"
"image-keyboard-response","103","119191","0.0-5.0-1.49","63e51ddb19fccd05514c629c","bdp_cybrbll","Tue Mar 28 2023 18:15:25 GMT-0700 (Pacific Daylight Time)","446759","1","3","","null","","img/3to2/1.png","null","observe","176","177","0.5","0.5","3","2","",""
"animation","104","120484","0.0-5.0-2.49","63e51ddb19fccd05514c629c","bdp_cybrbll","Tue Mar 28 2023 18:15:25 GMT-0700 (Pacific Daylight Time)","446759","1","3","","","","","","","176","","","","3","2","[{""stimulus"":""img/3to2/1.png"",""time"":109},{""stimulus"":""img/3to2/2.png"",""time"":202},{""stimulus"":""img/3to2/3.png"",""time"":298},{""stimulus"":""img/3to2/4.png"",""time"":397},{""stimulus"":""img/3to2/5.png"",""time"":495},{""stimulus"":""img/3to2/6.png"",""time"":610},{""stimulus"":""img/3to2/7.png"",""time"":694},{""stimulus"":""img/3to2/8.png"",""time"":793},{""stimulus"":""img/3to2/9.png"",""time"":904},{""stimulus"":""img/3to2/10.png"",""time"":991},{""stimulus"":""img/3to2/11.png"",""time"":1100},{""stimulus"":""img/3to2/12.png"",""time"":1189}]","[]"
"image-keyboard-response","105","122073","0.0-5.0-1.50","63e51ddb19fccd05514c629c","bdp_cybrbll","Tue Mar 28 2023 18:15:25 GMT-0700 (Pacific Daylight Time)","446759","1","3","","1588","","img/2to1/1.png","2","choice","175","771","0.5","0.5","2","3","",""
"animation","106","123365","0.0-5.0-2.50","63e51ddb19fccd05514c629c","bdp_cybrbll","Tue Mar 28 2023 18:15:25 GMT-0700 (Pacific Daylight Time)","446759","1","3","","","","","","","175","","","","2","3","[{""stimulus"":""img/2to3/1.png"",""time"":100},{""stimulus"":""img/2to3/2.png"",""time"":202},{""stimulus"":""img/2to3/3.png"",""time"":311},{""stimulus"":""img/2to3/4.png"",""time"":397},{""stimulus"":""img/2to3/5.png"",""time"":496},{""stimulus"":""img/2to3/6.png"",""time"":607},{""stimulus"":""img/2to3/7.png"",""time"":701},{""stimulus"":""img/2to3/8.png"",""time"":793},{""stimulus"":""img/2to3/9.png"",""time"":903},{""stimulus"":""img/2to3/10.png"",""time"":992},{""stimulus"":""img/2to3/11.png"",""time"":1105},{""stimulus"":""img/2to3/12.png"",""time"":1198}]","[]"
"image-keyboard-response","107","123709","0.0-5.0-1.51","63e51ddb19fccd05514c629c","bdp_cybrbll","Tue Mar 28 2023 18:15:25 GMT-0700 (Pacific Daylight Time)","446759","1","3","","null","","img/3to2/1.png","null","observe","174","328","0.5","0.5","3","1","",""
"animation","108","124997","0.0-5.0-2.51","63e51ddb19fccd05514c629c","bdp_cybrbll","Tue Mar 28 2023 18:15:25 GMT-0700 (Pacific Daylight Time)","446759","1","3","","","","","","","174","","","","3","1","[{""stimulus"":""img/3to1/1.png"",""time"":108},{""stimulus"":""img/3to1/2.png"",""time"":200},{""stimulus"":""img/3to1/3.png"",""time"":308},{""stimulus"":""img/3to1/4.png"",""time"":401},{""stimulus"":""img/3to1/5.png"",""time"":510},{""stimulus"":""img/3to1/6.png"",""time"":602},{""stimulus"":""img/3to1/7.png"",""time"":694},{""stimulus"":""img/3to1/8.png"",""time"":794},{""stimulus"":""img/3to1/9.png"",""time"":898},{""stimulus"":""img/3to1/10.png"",""time"":991},{""stimulus"":""img/3to1/11.png"",""time"":1101},{""stimulus"":""img/3to1/12.png"",""time"":1193}]","[]"
"image-keyboard-response","109","125886","0.0-5.0-1.52","63e51ddb19fccd05514c629c","bdp_cybrbll","Tue Mar 28 2023 18:15:25 GMT-0700 (Pacific Daylight Time)","446759","1","3","","null","","img/1to3/1.png","null","observe","173","881","0.5","0.5","1","3","",""
"animation","110","127175","0.0-5.0-2.52","63e51ddb19fccd05514c629c","bdp_cybrbll","Tue Mar 28 2023 18:15:25 GMT-0700 (Pacific Daylight Time)","446759","1","3","","","","","","","173","","","","1","3","[{""stimulus"":""img/1to3/1.png"",""time"":109},{""stimulus"":""img/1to3/2.png"",""time"":199},{""stimulus"":""img/1to3/3.png"",""time"":312},{""stimulus"":""img/1to3/4.png"",""time"":398},{""stimulus"":""img/1to3/5.png"",""time"":501},{""stimulus"":""img/1to3/6.png"",""time"":610},{""stimulus"":""img/1to3/7.png"",""time"":694},{""stimulus"":""img/1to3/8.png"",""time"":796},{""stimulus"":""img/1to3/9.png"",""time"":905},{""stimulus"":""img/1to3/10.png"",""time"":1001},{""stimulus"":""img/1to3/11.png"",""time"":1093},{""stimulus"":""img/1to3/12.png"",""time"":1204}]","[]"
"image-keyboard-response","111","128132","0.0-5.0-1.53","63e51ddb19fccd05514c629c","bdp_cybrbll","Tue Mar 28 2023 18:15:25 GMT-0700 (Pacific Daylight Time)","446759","1","3","","null","","img/3to2/1.png","null","observe","172","946","0.5","0.5","3","2","",""
"animation","112","129421","0.0-5.0-2.53","63e51ddb19fccd05514c629c","bdp_cybrbll","Tue Mar 28 2023 18:15:25 GMT-0700 (Pacific Daylight Time)","446759","1","3","","","","","","","172","","","","3","2","[{""stimulus"":""img/3to2/1.png"",""time"":110},{""stimulus"":""img/3to2/2.png"",""time"":204},{""stimulus"":""img/3to2/3.png"",""time"":311},{""stimulus"":""img/3to2/4.png"",""time"":398},{""stimulus"":""img/3to2/5.png"",""time"":500},{""stimulus"":""img/3to2/6.png"",""time"":610},{""stimulus"":""img/3to2/7.png"",""time"":704},{""stimulus"":""img/3to2/8.png"",""time"":797},{""stimulus"":""img/3to2/9.png"",""time"":892},{""stimulus"":""img/3to2/10.png"",""time"":991},{""stimulus"":""img/3to2/11.png"",""time"":1094},{""stimulus"":""img/3to2/12.png"",""time"":1202}]","[]"
"image-keyboard-response","113","131368","0.0-5.0-1.54","63e51ddb19fccd05514c629c","bdp_cybrbll","Tue Mar 28 2023 18:15:25 GMT-0700 (Pacific Daylight Time)","446759","1","3","","1947","","img/2to1/1.png","2","choice","171","245","0.5","0.5","2","3","",""
"animation","114","132668","0.0-5.0-2.54","63e51ddb19fccd05514c629c","bdp_cybrbll","Tue Mar 28 2023 18:15:25 GMT-0700 (Pacific Daylight Time)","446759","1","3","","","","","","","171","","","","2","3","[{""stimulus"":""img/2to3/1.png"",""time"":115},{""stimulus"":""img/2to3/2.png"",""time"":199},{""stimulus"":""img/2to3/3.png"",""time"":301},{""stimulus"":""img/2to3/4.png"",""time"":397},{""stimulus"":""img/2to3/5.png"",""time"":505},{""stimulus"":""img/2to3/6.png"",""time"":597},{""stimulus"":""img/2to3/7.png"",""time"":709},{""stimulus"":""img/2to3/8.png"",""time"":802},{""stimulus"":""img/2to3/9.png"",""time"":896},{""stimulus"":""img/2to3/10.png"",""time"":991},{""stimulus"":""img/2to3/11.png"",""time"":1099},{""stimulus"":""img/2to3/12.png"",""time"":1191}]","[]"
"image-keyboard-response","115","133149","0.0-5.0-1.55","63e51ddb19fccd05514c629c","bdp_cybrbll","Tue Mar 28 2023 18:15:25 GMT-0700 (Pacific Daylight Time)","446759","1","3","","null","","img/3to2/1.png","null","observe","170","472","0.5","0.5","3","1","",""
"animation","116","134444","0.0-5.0-2.55","63e51ddb19fccd05514c629c","bdp_cybrbll","Tue Mar 28 2023 18:15:25 GMT-0700 (Pacific Daylight Time)","446759","1","3","","","","","","","170","","","","3","1","[{""stimulus"":""img/3to1/1.png"",""time"":108},{""stimulus"":""img/3to1/2.png"",""time"":199},{""stimulus"":""img/3to1/3.png"",""time"":311},{""stimulus"":""img/3to1/4.png"",""time"":404},{""stimulus"":""img/3to1/5.png"",""time"":496},{""stimulus"":""img/3to1/6.png"",""time"":606},{""stimulus"":""img/3to1/7.png"",""time"":694},{""stimulus"":""img/3to1/8.png"",""time"":809},{""stimulus"":""img/3to1/9.png"",""time"":903},{""stimulus"":""img/3to1/10.png"",""time"":992},{""stimulus"":""img/3to1/11.png"",""time"":1105},{""stimulus"":""img/3to1/12.png"",""time"":1201}]","[]"
"image-keyboard-response","117","134769","0.0-5.0-1.56","63e51ddb19fccd05514c629c","bdp_cybrbll","Tue Mar 28 2023 18:15:25 GMT-0700 (Pacific Daylight Time)","446759","1","3","","null","","img/1to3/1.png","null","observe","169","309","0.5","0.5","1","2","",""
"animation","118","136057","0.0-5.0-2.56","63e51ddb19fccd05514c629c","bdp_cybrbll","Tue Mar 28 2023 18:15:25 GMT-0700 (Pacific Daylight Time)","446759","1","3","","","","","","","169","","","","1","2","[{""stimulus"":""img/1to2/1.png"",""time"":110},{""stimulus"":""img/1to2/2.png"",""time"":204},{""stimulus"":""img/1to2/3.png"",""time"":312},{""stimulus"":""img/1to2/4.png"",""time"":405},{""stimulus"":""img/1to2/5.png"",""time"":500},{""stimulus"":""img/1to2/6.png"",""time"":610},{""stimulus"":""img/1to2/7.png"",""time"":694},{""stimulus"":""img/1to2/8.png"",""time"":795},{""stimulus"":""img/1to2/9.png"",""time"":905},{""stimulus"":""img/1to2/10.png"",""time"":998},{""stimulus"":""img/1to2/11.png"",""time"":1091},{""stimulus"":""img/1to2/12.png"",""time"":1189}]","[]"
"image-keyboard-response","119","136210","0.0-5.0-1.57","63e51ddb19fccd05514c629c","bdp_cybrbll","Tue Mar 28 2023 18:15:25 GMT-0700 (Pacific Daylight Time)","446759","1","3","","152","","img/2to1/1.png","2","choice","168","432","0.5","0.5","2","3","",""
"animation","120","137500","0.0-5.0-2.57","63e51ddb19fccd05514c629c","bdp_cybrbll","Tue Mar 28 2023 18:15:25 GMT-0700 (Pacific Daylight Time)","446759","1","3","","","","","","","168","","","","2","3","[{""stimulus"":""img/2to3/1.png"",""time"":102},{""stimulus"":""img/2to3/2.png"",""time"":211},{""stimulus"":""img/2to3/3.png"",""time"":304},{""stimulus"":""img/2to3/4.png"",""time"":397},{""stimulus"":""img/2to3/5.png"",""time"":505},{""stimulus"":""img/2to3/6.png"",""time"":600},{""stimulus"":""img/2to3/7.png"",""time"":707},{""stimulus"":""img/2to3/8.png"",""time"":802},{""stimulus"":""img/2to3/9.png"",""time"":896},{""stimulus"":""img/2to3/10.png"",""time"":991},{""stimulus"":""img/2to3/11.png"",""time"":1099},{""stimulus"":""img/2to3/12.png"",""time"":1192}]","[]"
"image-keyboard-response","121","137823","0.0-5.0-1.58","63e51ddb19fccd05514c629c","bdp_cybrbll","Tue Mar 28 2023 18:15:25 GMT-0700 (Pacific Daylight Time)","446759","1","3","","null","","img/3to2/1.png","null","observe","167","310","0.5","0.5","3","2","",""
"animation","122","139126","0.0-5.0-2.58","63e51ddb19fccd05514c629c","bdp_cybrbll","Tue Mar 28 2023 18:15:25 GMT-0700 (Pacific Daylight Time)","446759","1","3","","","","","","","167","","","","3","2","[{""stimulus"":""img/3to2/1.png"",""time"":108},{""stimulus"":""img/3to2/2.png"",""time"":202},{""stimulus"":""img/3to2/3.png"",""time"":310},{""stimulus"":""img/3to2/4.png"",""time"":403},{""stimulus"":""img/3to2/5.png"",""time"":496},{""stimulus"":""img/3to2/6.png"",""time"":604},{""stimulus"":""img/3to2/7.png"",""time"":694},{""stimulus"":""img/3to2/8.png"",""time"":793},{""stimulus"":""img/3to2/9.png"",""time"":899},{""stimulus"":""img/3to2/10.png"",""time"":991},{""stimulus"":""img/3to2/11.png"",""time"":1100},{""stimulus"":""img/3to2/12.png"",""time"":1193}]","[]"
"image-keyboard-response","123","139256","0.0-5.0-1.59","63e51ddb19fccd05514c629c","bdp_cybrbll","Tue Mar 28 2023 18:15:25 GMT-0700 (Pacific Daylight Time)","446759","1","3","","129","","img/2to1/1.png","1","choice","166","693","0.5","0.5","2","1","",""
"animation","124","140544","0.0-5.0-2.59","63e51ddb19fccd05514c629c","bdp_cybrbll","Tue Mar 28 2023 18:15:25 GMT-0700 (Pacific Daylight Time)","446759","1","3","","","","","","","166","","","","2","1","[{""stimulus"":""img/2to1/1.png"",""time"":100},{""stimulus"":""img/2to1/2.png"",""time"":212},{""stimulus"":""img/2to1/3.png"",""time"":306},{""stimulus"":""img/2to1/4.png"",""time"":397},{""stimulus"":""img/2to1/5.png"",""time"":497},{""stimulus"":""img/2to1/6.png"",""time"":606},{""stimulus"":""img/2to1/7.png"",""time"":694},{""stimulus"":""img/2to1/8.png"",""time"":806},{""stimulus"":""img/2to1/9.png"",""time"":899},{""stimulus"":""img/2to1/10.png"",""time"":993},{""stimulus"":""img/2to1/11.png"",""time"":1100},{""stimulus"":""img/2to1/12.png"",""time"":1190}]","[]"
"image-keyboard-response","125","141227","0.0-5.0-1.60","63e51ddb19fccd05514c629c","bdp_cybrbll","Tue Mar 28 2023 18:15:25 GMT-0700 (Pacific Daylight Time)","446759","1","3","","null","","img/1to3/1.png","null","observe","165","674","0.5","0.5","1","2","",""
"animation","126","142519","0.0-5.0-2.60","63e51ddb19fccd05514c629c","bdp_cybrbll","Tue Mar 28 2023 18:15:25 GMT-0700 (Pacific Daylight Time)","446759","1","3","","","","","","","165","","","","1","2","[{""stimulus"":""img/1to2/1.png"",""time"":110},{""stimulus"":""img/1to2/2.png"",""time"":199},{""stimulus"":""img/1to2/3.png"",""time"":298},{""stimulus"":""img/1to2/4.png"",""time"":397},{""stimulus"":""img/1to2/5.png"",""time"":496},{""stimulus"":""img/1to2/6.png"",""time"":610},{""stimulus"":""img/1to2/7.png"",""time"":695},{""stimulus"":""img/1to2/8.png"",""time"":794},{""stimulus"":""img/1to2/9.png"",""time"":903},{""stimulus"":""img/1to2/10.png"",""time"":996},{""stimulus"":""img/1to2/11.png"",""time"":1105},{""stimulus"":""img/1to2/12.png"",""time"":1202}]","[]"
"image-keyboard-response","127","143205","0.0-5.0-1.61","63e51ddb19fccd05514c629c","bdp_cybrbll","Tue Mar 28 2023 18:15:25 GMT-0700 (Pacific Daylight Time)","446759","1","3","","685","","img/2to1/1.png","2","choice","164","248","0.5","0.5","2","3","",""
"animation","128","144497","0.0-5.0-2.61","63e51ddb19fccd05514c629c","bdp_cybrbll","Tue Mar 28 2023 18:15:25 GMT-0700 (Pacific Daylight Time)","446759","1","3","","","","","","","164","","","","2","3","[{""stimulus"":""img/2to3/1.png"",""time"":100},{""stimulus"":""img/2to3/2.png"",""time"":199},{""stimulus"":""img/2to3/3.png"",""time"":312},{""stimulus"":""img/2to3/4.png"",""time"":397},{""stimulus"":""img/2to3/5.png"",""time"":496},{""stimulus"":""img/2to3/6.png"",""time"":607},{""stimulus"":""img/2to3/7.png"",""time"":694},{""stimulus"":""img/2to3/8.png"",""time"":808},{""stimulus"":""img/2to3/9.png"",""time"":902},{""stimulus"":""img/2to3/10.png"",""time"":995},{""stimulus"":""img/2to3/11.png"",""time"":1091},{""stimulus"":""img/2to3/12.png"",""time"":1199}]","[]"
"image-keyboard-response","129","145373","0.0-5.0-1.62","63e51ddb19fccd05514c629c","bdp_cybrbll","Tue Mar 28 2023 18:15:25 GMT-0700 (Pacific Daylight Time)","446759","1","3","","null","","img/3to2/1.png","null","observe","163","872","0.5","0.5","3","1","",""
"animation","130","146662","0.0-5.0-2.62","63e51ddb19fccd05514c629c","bdp_cybrbll","Tue Mar 28 2023 18:15:25 GMT-0700 (Pacific Daylight Time)","446759","1","3","","","","","","","163","","","","3","1","[{""stimulus"":""img/3to1/1.png"",""time"":109},{""stimulus"":""img/3to1/2.png"",""time"":205},{""stimulus"":""img/3to1/3.png"",""time"":311},{""stimulus"":""img/3to1/4.png"",""time"":403},{""stimulus"":""img/3to1/5.png"",""time"":497},{""stimulus"":""img/3to1/6.png"",""time"":607},{""stimulus"":""img/3to1/7.png"",""time"":699},{""stimulus"":""img/3to1/8.png"",""time"":809},{""stimulus"":""img/3to1/9.png"",""time"":904},{""stimulus"":""img/3to1/10.png"",""time"":991},{""stimulus"":""img/3to1/11.png"",""time"":1098},{""stimulus"":""img/3to1/12.png"",""time"":1196}]","[]"
"image-keyboard-response","131","147065","0.0-5.0-1.63","63e51ddb19fccd05514c629c","bdp_cybrbll","Tue Mar 28 2023 18:15:25 GMT-0700 (Pacific Daylight Time)","446759","1","3","","null","","img/1to3/1.png","null","observe","162","391","0.5","0.5","1","2","",""
"animation","132","148357","0.0-5.0-2.63","63e51ddb19fccd05514c629c","bdp_cybrbll","Tue Mar 28 2023 18:15:25 GMT-0700 (Pacific Daylight Time)","446759","1","3","","","","","","","162","","","","1","2","[{""stimulus"":""img/1to2/1.png"",""time"":109},{""stimulus"":""img/1to2/2.png"",""time"":198},{""stimulus"":""img/1to2/3.png"",""time"":311},{""stimulus"":""img/1to2/4.png"",""time"":404},{""stimulus"":""img/1to2/5.png"",""time"":497},{""stimulus"":""img/1to2/6.png"",""time"":604},{""stimulus"":""img/1to2/7.png"",""time"":693},{""stimulus"":""img/1to2/8.png"",""time"":792},{""stimulus"":""img/1to2/9.png"",""time"":902},{""stimulus"":""img/1to2/10.png"",""time"":991},{""stimulus"":""img/1to2/11.png"",""time"":1090},{""stimulus"":""img/1to2/12.png"",""time"":1198}]","[]"
"image-keyboard-response","133","148599","0.0-5.0-1.64","63e51ddb19fccd05514c629c","bdp_cybrbll","Tue Mar 28 2023 18:15:25 GMT-0700 (Pacific Daylight Time)","446759","1","3","","241","","img/2to1/1.png","2","choice","161","276","0.5","0.5","2","3","",""
"animation","134","149887","0.0-5.0-2.64","63e51ddb19fccd05514c629c","bdp_cybrbll","Tue Mar 28 2023 18:15:25 GMT-0700 (Pacific Daylight Time)","446759","1","3","","","","","","","161","","","","2","3","[{""stimulus"":""img/2to3/1.png"",""time"":100},{""stimulus"":""img/2to3/2.png"",""time"":209},{""stimulus"":""img/2to3/3.png"",""time"":303},{""stimulus"":""img/2to3/4.png"",""time"":396},{""stimulus"":""img/2to3/5.png"",""time"":507},{""stimulus"":""img/2to3/6.png"",""time"":600},{""stimulus"":""img/2to3/7.png"",""time"":693},{""stimulus"":""img/2to3/8.png"",""time"":802},{""stimulus"":""img/2to3/9.png"",""time"":897},{""stimulus"":""img/2to3/10.png"",""time"":1005},{""stimulus"":""img/2to3/11.png"",""time"":1097},{""stimulus"":""img/2to3/12.png"",""time"":1190}]","[]"
"image-keyboard-response","135","150617","0.0-5.0-1.65","63e51ddb19fccd05514c629c","bdp_cybrbll","Tue Mar 28 2023 18:15:25 GMT-0700 (Pacific Daylight Time)","446759","1","3","","null","","img/3to2/1.png","null","observe","160","726","0.5","0.5","3","2","",""
"animation","136","151905","0.0-5.0-2.65","63e51ddb19fccd05514c629c","bdp_cybrbll","Tue Mar 28 2023 18:15:25 GMT-0700 (Pacific Daylight Time)","446759","1","3","","","","","","","160","","","","3","2","[{""stimulus"":""img/3to2/1.png"",""time"":110},{""stimulus"":""img/3to2/2.png"",""time"":203},{""stimulus"":""img/3to2/3.png"",""time"":312},{""stimulus"":""img/3to2/4.png"",""time"":404},{""stimulus"":""img/3to2/5.png"",""time"":498},{""stimulus"":""img/3to2/6.png"",""time"":608},{""stimulus"":""img/3to2/7.png"",""time"":694},{""stimulus"":""img/3to2/8.png"",""time"":793},{""stimulus"":""img/3to2/9.png"",""time"":902},{""stimulus"":""img/3to2/10.png"",""time"":996},{""stimulus"":""img/3to2/11.png"",""time"":1104},{""stimulus"":""img/3to2/12.png"",""time"":1189}]","[]"
"image-keyboard-response","137","152213","0.0-5.0-1.66","63e51ddb19fccd05514c629c","bdp_cybrbll","Tue Mar 28 2023 18:15:25 GMT-0700 (Pacific Daylight Time)","446759","1","3","","307","","img/2to1/1.png","2","choice","159","415","0.5","0.5","2","3","",""
"animation","138","153504","0.0-5.0-2.66","63e51ddb19fccd05514c629c","bdp_cybrbll","Tue Mar 28 2023 18:15:25 GMT-0700 (Pacific Daylight Time)","446759","1","3","","","","","","","159","","","","2","3","[{""stimulus"":""img/2to3/1.png"",""time"":99},{""stimulus"":""img/2to3/2.png"",""time"":199},{""stimulus"":""img/2to3/3.png"",""time"":304},{""stimulus"":""img/2to3/4.png"",""time"":399},{""stimulus"":""img/2to3/5.png"",""time"":507},{""stimulus"":""img/2to3/6.png"",""time"":601},{""stimulus"":""img/2to3/7.png"",""time"":695},{""stimulus"":""img/2to3/8.png"",""time"":793},{""stimulus"":""img/2to3/9.png"",""time"":901},{""stimulus"":""img/2to3/10.png"",""time"":994},{""stimulus"":""img/2to3/11.png"",""time"":1104},{""stimulus"":""img/2to3/12.png"",""time"":1197}]","[]"
"image-keyboard-response","139","153939","0.0-5.0-1.67","63e51ddb19fccd05514c629c","bdp_cybrbll","Tue Mar 28 2023 18:15:25 GMT-0700 (Pacific Daylight Time)","446759","1","3","","null","","img/3to2/1.png","null","observe","158","432","0.5","0.5","3","2","",""
"animation","140","155235","0.0-5.0-2.67","63e51ddb19fccd05514c629c","bdp_cybrbll","Tue Mar 28 2023 18:15:25 GMT-0700 (Pacific Daylight Time)","446759","1","3","","","","","","","158","","","","3","2","[{""stimulus"":""img/3to2/1.png"",""time"":109},{""stimulus"":""img/3to2/2.png"",""time"":201},{""stimulus"":""img/3to2/3.png"",""time"":312},{""stimulus"":""img/3to2/4.png"",""time"":397},{""stimulus"":""img/3to2/5.png"",""time"":499},{""stimulus"":""img/3to2/6.png"",""time"":594},{""stimulus"":""img/3to2/7.png"",""time"":702},{""stimulus"":""img/3to2/8.png"",""time"":797},{""stimulus"":""img/3to2/9.png"",""time"":892},{""stimulus"":""img/3to2/10.png"",""time"":998},{""stimulus"":""img/3to2/11.png"",""time"":1091},{""stimulus"":""img/3to2/12.png"",""time"":1201}]","[]"
"image-keyboard-response","141","155255","0.0-5.0-1.68","63e51ddb19fccd05514c629c","bdp_cybrbll","Tue Mar 28 2023 18:15:25 GMT-0700 (Pacific Daylight Time)","446759","1","3","","18","","img/2to1/1.png","2","choice","157","609","0.5","0.5","2","3","",""
"animation","142","156559","0.0-5.0-2.68","63e51ddb19fccd05514c629c","bdp_cybrbll","Tue Mar 28 2023 18:15:25 GMT-0700 (Pacific Daylight Time)","446759","1","3","","","","","","","157","","","","2","3","[{""stimulus"":""img/2to3/1.png"",""time"":105},{""stimulus"":""img/2to3/2.png"",""time"":201},{""stimulus"":""img/2to3/3.png"",""time"":298},{""stimulus"":""img/2to3/4.png"",""time"":400},{""stimulus"":""img/2to3/5.png"",""time"":496},{""stimulus"":""img/2to3/6.png"",""time"":595},{""stimulus"":""img/2to3/7.png"",""time"":698},{""stimulus"":""img/2to3/8.png"",""time"":793},{""stimulus"":""img/2to3/9.png"",""time"":899},{""stimulus"":""img/2to3/10.png"",""time"":992},{""stimulus"":""img/2to3/11.png"",""time"":1102},{""stimulus"":""img/2to3/12.png"",""time"":1195}]","[]"
"image-keyboard-response","143","157714","0.0-5.0-1.69","63e51ddb19fccd05514c629c","bdp_cybrbll","Tue Mar 28 2023 18:15:25 GMT-0700 (Pacific Daylight Time)","446759","1","3","","null","","img/3to2/1.png","null","observe","156","1150","0.5","0.5","3","2","",""
"animation","144","159002","0.0-5.0-2.69","63e51ddb19fccd05514c629c","bdp_cybrbll","Tue Mar 28 2023 18:15:25 GMT-0700 (Pacific Daylight Time)","446759","1","3","","","","","","","156","","","","3","2","[{""stimulus"":""img/3to2/1.png"",""time"":110},{""stimulus"":""img/3to2/2.png"",""time"":199},{""stimulus"":""img/3to2/3.png"",""time"":312},{""stimulus"":""img/3to2/4.png"",""time"":398},{""stimulus"":""img/3to2/5.png"",""time"":501},{""stimulus"":""img/3to2/6.png"",""time"":609},{""stimulus"":""img/3to2/7.png"",""time"":694},{""stimulus"":""img/3to2/8.png"",""time"":798},{""stimulus"":""img/3to2/9.png"",""time"":908},{""stimulus"":""img/3to2/10.png"",""time"":1001},{""stimulus"":""img/3to2/11.png"",""time"":1094},{""stimulus"":""img/3to2/12.png"",""time"":1190}]","[]"
"image-keyboard-response","145","160410","0.0-5.0-1.70","63e51ddb19fccd05514c629c","bdp_cybrbll","Tue Mar 28 2023 18:15:25 GMT-0700 (Pacific Daylight Time)","446759","1","3","","1407","","img/2to1/1.png","2","choice","155","422","0.5","0.5","2","3","",""
"animation","146","161704","0.0-5.0-2.70","63e51ddb19fccd05514c629c","bdp_cybrbll","Tue Mar 28 2023 18:15:25 GMT-0700 (Pacific Daylight Time)","446759","1","3","","","","","","","155","","","","2","3","[{""stimulus"":""img/2to3/1.png"",""time"":100},{""stimulus"":""img/2to3/2.png"",""time"":200},{""stimulus"":""img/2to3/3.png"",""time"":302},{""stimulus"":""img/2to3/4.png"",""time"":408},{""stimulus"":""img/2to3/5.png"",""time"":501},{""stimulus"":""img/2to3/6.png"",""time"":609},{""stimulus"":""img/2to3/7.png"",""time"":693},{""stimulus"":""img/2to3/8.png"",""time"":796},{""stimulus"":""img/2to3/9.png"",""time"":905},{""stimulus"":""img/2to3/10.png"",""time"":997},{""stimulus"":""img/2to3/11.png"",""time"":1092},{""stimulus"":""img/2to3/12.png"",""time"":1201}]","[]"
"image-keyboard-response","147","162765","0.0-5.0-1.71","63e51ddb19fccd05514c629c","bdp_cybrbll","Tue Mar 28 2023 18:15:25 GMT-0700 (Pacific Daylight Time)","446759","1","3","","null","","img/3to2/1.png","null","observe","154","1046","0.5","0.5","3","1","",""
"animation","148","164054","0.0-5.0-2.71","63e51ddb19fccd05514c629c","bdp_cybrbll","Tue Mar 28 2023 18:15:25 GMT-0700 (Pacific Daylight Time)","446759","1","3","","","","","","","154","","","","3","1","[{""stimulus"":""img/3to1/1.png"",""time"":111},{""stimulus"":""img/3to1/2.png"",""time"":202},{""stimulus"":""img/3to1/3.png"",""time"":311},{""stimulus"":""img/3to1/4.png"",""time"":405},{""stimulus"":""img/3to1/5.png"",""time"":500},{""stimulus"":""img/3to1/6.png"",""time"":607},{""stimulus"":""img/3to1/7.png"",""time"":695},{""stimulus"":""img/3to1/8.png"",""time"":794},{""stimulus"":""img/3to1/9.png"",""time"":901},{""stimulus"":""img/3to1/10.png"",""time"":995},{""stimulus"":""img/3to1/11.png"",""time"":1102},{""stimulus"":""img/3to1/12.png"",""time"":1197}]","[]"
"image-keyboard-response","149","164383","0.0-5.0-1.72","63e51ddb19fccd05514c629c","bdp_cybrbll","Tue Mar 28 2023 18:15:25 GMT-0700 (Pacific Daylight Time)","446759","1","3","","null","","img/1to3/1.png","null","observe","153","319","0.5","0.5","1","3","",""
"animation","150","165674","0.0-5.0-2.72","63e51ddb19fccd05514c629c","bdp_cybrbll","Tue Mar 28 2023 18:15:25 GMT-0700 (Pacific Daylight Time)","446759","1","3","","","","","","","153","","","","1","3","[{""stimulus"":""img/1to3/1.png"",""time"":109},{""stimulus"":""img/1to3/2.png"",""time"":201},{""stimulus"":""img/1to3/3.png"",""time"":310},{""stimulus"":""img/1to3/4.png"",""time"":397},{""stimulus"":""img/1to3/5.png"",""time"":496},{""stimulus"":""img/1to3/6.png"",""time"":604},{""stimulus"":""img/1to3/7.png"",""time"":694},{""stimulus"":""img/1to3/8.png"",""time"":808},{""stimulus"":""img/1to3/9.png"",""time"":902},{""stimulus"":""img/1to3/10.png"",""time"":991},{""stimulus"":""img/1to3/11.png"",""time"":1104},{""stimulus"":""img/1to3/12.png"",""time"":1189}]","[]"
"image-keyboard-response","151","166171","0.0-5.0-1.73","63e51ddb19fccd05514c629c","bdp_cybrbll","Tue Mar 28 2023 18:15:25 GMT-0700 (Pacific Daylight Time)","446759","1","3","","null","","img/3to2/1.png","null","observe","152","492","0.5","0.5","3","2","",""
"animation","152","167461","0.0-5.0-2.73","63e51ddb19fccd05514c629c","bdp_cybrbll","Tue Mar 28 2023 18:15:25 GMT-0700 (Pacific Daylight Time)","446759","1","3","","","","","","","152","","","","3","2","[{""stimulus"":""img/3to2/1.png"",""time"":109},{""stimulus"":""img/3to2/2.png"",""time"":200},{""stimulus"":""img/3to2/3.png"",""time"":310},{""stimulus"":""img/3to2/4.png"",""time"":403},{""stimulus"":""img/3to2/5.png"",""time"":497},{""stimulus"":""img/3to2/6.png"",""time"":606},{""stimulus"":""img/3to2/7.png"",""time"":699},{""stimulus"":""img/3to2/8.png"",""time"":793},{""stimulus"":""img/3to2/9.png"",""time"":901},{""stimulus"":""img/3to2/10.png"",""time"":992},{""stimulus"":""img/3to2/11.png"",""time"":1104},{""stimulus"":""img/3to2/12.png"",""time"":1198}]","[]"
"image-keyboard-response","153","167481","0.0-5.0-1.74","63e51ddb19fccd05514c629c","bdp_cybrbll","Tue Mar 28 2023 18:15:25 GMT-0700 (Pacific Daylight Time)","446759","1","3","","19","","img/2to1/1.png","2","choice","151","853","0.5","0.5","2","3","",""
"animation","154","168769","0.0-5.0-2.74","63e51ddb19fccd05514c629c","bdp_cybrbll","Tue Mar 28 2023 18:15:25 GMT-0700 (Pacific Daylight Time)","446759","1","3","","","","","","","151","","","","2","3","[{""stimulus"":""img/2to3/1.png"",""time"":107},{""stimulus"":""img/2to3/2.png"",""time"":201},{""stimulus"":""img/2to3/3.png"",""time"":311},{""stimulus"":""img/2to3/4.png"",""time"":405},{""stimulus"":""img/2to3/5.png"",""time"":505},{""stimulus"":""img/2to3/6.png"",""time"":608},{""stimulus"":""img/2to3/7.png"",""time"":702},{""stimulus"":""img/2to3/8.png"",""time"":793},{""stimulus"":""img/2to3/9.png"",""time"":907},{""stimulus"":""img/2to3/10.png"",""time"":1000},{""stimulus"":""img/2to3/11.png"",""time"":1094},{""stimulus"":""img/2to3/12.png"",""time"":1203}]","[]"
"image-keyboard-response","155","169708","0.0-5.0-1.75","63e51ddb19fccd05514c629c","bdp_cybrbll","Tue Mar 28 2023 18:15:25 GMT-0700 (Pacific Daylight Time)","446759","1","3","","null","","img/3to2/1.png","null","observe","150","923","0.5","0.5","3","2","",""
"animation","156","171000","0.0-5.0-2.75","63e51ddb19fccd05514c629c","bdp_cybrbll","Tue Mar 28 2023 18:15:25 GMT-0700 (Pacific Daylight Time)","446759","1","3","","","","","","","150","","","","3","2","[{""stimulus"":""img/3to2/1.png"",""time"":110},{""stimulus"":""img/3to2/2.png"",""time"":203},{""stimulus"":""img/3to2/3.png"",""time"":312},{""stimulus"":""img/3to2/4.png"",""time"":397},{""stimulus"":""img/3to2/5.png"",""time"":496},{""stimulus"":""img/3to2/6.png"",""time"":611},{""stimulus"":""img/3to2/7.png"",""time"":703},{""stimulus"":""img/3to2/8.png"",""time"":796},{""stimulus"":""img/3to2/9.png"",""time"":895},{""stimulus"":""img/3to2/10.png"",""time"":998},{""stimulus"":""img/3to2/11.png"",""time"":1091},{""stimulus"":""img/3to2/12.png"",""time"":1191}]","[]"
"image-keyboard-response","157","171666","0.0-5.0-1.76","63e51ddb19fccd05514c629c","bdp_cybrbll","Tue Mar 28 2023 18:15:25 GMT-0700 (Pacific Daylight Time)","446759","1","3","","665","","img/2to1/1.png","2","choice","149","429","0.5","0.1","2","3","",""
"animation","158","172965","0.0-5.0-2.76","63e51ddb19fccd05514c629c","bdp_cybrbll","Tue Mar 28 2023 18:15:25 GMT-0700 (Pacific Daylight Time)","446759","1","3","","","","","","","149","","","","2","3","[{""stimulus"":""img/2to3/1.png"",""time"":103},{""stimulus"":""img/2to3/2.png"",""time"":199},{""stimulus"":""img/2to3/3.png"",""time"":304},{""stimulus"":""img/2to3/4.png"",""time"":397},{""stimulus"":""img/2to3/5.png"",""time"":507},{""stimulus"":""img/2to3/6.png"",""time"":605},{""stimulus"":""img/2to3/7.png"",""time"":694},{""stimulus"":""img/2to3/8.png"",""time"":802},{""stimulus"":""img/2to3/9.png"",""time"":895},{""stimulus"":""img/2to3/10.png"",""time"":991},{""stimulus"":""img/2to3/11.png"",""time"":1099},{""stimulus"":""img/2to3/12.png"",""time"":1192}]","[]"
"image-keyboard-response","159","173370","0.0-5.0-1.77","63e51ddb19fccd05514c629c","bdp_cybrbll","Tue Mar 28 2023 18:15:25 GMT-0700 (Pacific Daylight Time)","446759","1","3","","null","","img/3to2/1.png","null","observe","148","392","0.5","0.1","3","1","",""
"animation","160","174663","0.0-5.0-2.77","63e51ddb19fccd05514c629c","bdp_cybrbll","Tue Mar 28 2023 18:15:25 GMT-0700 (Pacific Daylight Time)","446759","1","3","","","","","","","148","","","","3","1","[{""stimulus"":""img/3to1/1.png"",""time"":110},{""stimulus"":""img/3to1/2.png"",""time"":198},{""stimulus"":""img/3to1/3.png"",""time"":298},{""stimulus"":""img/3to1/4.png"",""time"":407},{""stimulus"":""img/3to1/5.png"",""time"":496},{""stimulus"":""img/3to1/6.png"",""time"":609},{""stimulus"":""img/3to1/7.png"",""time"":704},{""stimulus"":""img/3to1/8.png"",""time"":797},{""stimulus"":""img/3to1/9.png"",""time"":892},{""stimulus"":""img/3to1/10.png"",""time"":999},{""stimulus"":""img/3to1/11.png"",""time"":1092},{""stimulus"":""img/3to1/12.png"",""time"":1201}]","[]"
"image-keyboard-response","161","175295","0.0-5.0-1.78","63e51ddb19fccd05514c629c","bdp_cybrbll","Tue Mar 28 2023 18:15:25 GMT-0700 (Pacific Daylight Time)","446759","1","3","","null","","img/1to3/1.png","null","observe","147","629","0.5","0.1","1","2","",""
"animation","162","176584","0.0-5.0-2.78","63e51ddb19fccd05514c629c","bdp_cybrbll","Tue Mar 28 2023 18:15:25 GMT-0700 (Pacific Daylight Time)","446759","1","3","","","","","","","147","","","","1","2","[{""stimulus"":""img/1to2/1.png"",""time"":101},{""stimulus"":""img/1to2/2.png"",""time"":210},{""stimulus"":""img/1to2/3.png"",""time"":303},{""stimulus"":""img/1to2/4.png"",""time"":397},{""stimulus"":""img/1to2/5.png"",""time"":507},{""stimulus"":""img/1to2/6.png"",""time"":601},{""stimulus"":""img/1to2/7.png"",""time"":696},{""stimulus"":""img/1to2/8.png"",""time"":805},{""stimulus"":""img/1to2/9.png"",""time"":892},{""stimulus"":""img/1to2/10.png"",""time"":1005},{""stimulus"":""img/1to2/11.png"",""time"":1100},{""stimulus"":""img/1to2/12.png"",""time"":1194}]","[]"
"image-keyboard-response","163","177099","0.0-5.0-1.79","63e51ddb19fccd05514c629c","bdp_cybrbll","Tue Mar 28 2023 18:15:25 GMT-0700 (Pacific Daylight Time)","446759","1","3","","515","","img/2to1/1.png","2","choice","146","573","0.5","0.1","2","3","",""
"animation","164","178399","0.0-5.0-2.79","63e51ddb19fccd05514c629c","bdp_cybrbll","Tue Mar 28 2023 18:15:25 GMT-0700 (Pacific Daylight Time)","446759","1","3","","","","","","","146","","","","2","3","[{""stimulus"":""img/2to3/1.png"",""time"":101},{""stimulus"":""img/2to3/2.png"",""time"":200},{""stimulus"":""img/2to3/3.png"",""time"":307},{""stimulus"":""img/2to3/4.png"",""time"":397},{""stimulus"":""img/2to3/5.png"",""time"":512},{""stimulus"":""img/2to3/6.png"",""time"":604},{""stimulus"":""img/2to3/7.png"",""time"":694},{""stimulus"":""img/2to3/8.png"",""time"":806},{""stimulus"":""img/2to3/9.png"",""time"":898},{""stimulus"":""img/2to3/10.png"",""time"":991},{""stimulus"":""img/2to3/11.png"",""time"":1100},{""stimulus"":""img/2to3/12.png"",""time"":1193}]","[]"
"image-keyboard-response","165","179146","0.0-5.0-1.80","63e51ddb19fccd05514c629c","bdp_cybrbll","Tue Mar 28 2023 18:15:25 GMT-0700 (Pacific Daylight Time)","446759","1","3","","null","","img/3to2/1.png","null","observe","145","741","0.5","0.1","3","1","",""
"animation","166","180438","0.0-5.0-2.80","63e51ddb19fccd05514c629c","bdp_cybrbll","Tue Mar 28 2023 18:15:25 GMT-0700 (Pacific Daylight Time)","446759","1","3","","","","","","","145","","","","3","1","[{""stimulus"":""img/3to1/1.png"",""time"":108},{""stimulus"":""img/3to1/2.png"",""time"":202},{""stimulus"":""img/3to1/3.png"",""time"":311},{""stimulus"":""img/3to1/4.png"",""time"":405},{""stimulus"":""img/3to1/5.png"",""time"":499},{""stimulus"":""img/3to1/6.png"",""time"":609},{""stimulus"":""img/3to1/7.png"",""time"":702},{""stimulus"":""img/3to1/8.png"",""time"":793},{""stimulus"":""img/3to1/9.png"",""time"":904},{""stimulus"":""img/3to1/10.png"",""time"":991},{""stimulus"":""img/3to1/11.png"",""time"":1090},{""stimulus"":""img/3to1/12.png"",""time"":1199}]","[]"
"image-keyboard-response","167","181451","0.0-5.0-1.81","63e51ddb19fccd05514c629c","bdp_cybrbll","Tue Mar 28 2023 18:15:25 GMT-0700 (Pacific Daylight Time)","446759","1","3","","null","","img/1to3/1.png","null","observe","144","1008","0.5","0.1","1","2","",""
"animation","168","182748","0.0-5.0-2.81","63e51ddb19fccd05514c629c","bdp_cybrbll","Tue Mar 28 2023 18:15:25 GMT-0700 (Pacific Daylight Time)","446759","1","3","","","","","","","144","","","","1","2","[{""stimulus"":""img/1to2/1.png"",""time"":111},{""stimulus"":""img/1to2/2.png"",""time"":203},{""stimulus"":""img/1to2/3.png"",""time"":312},{""stimulus"":""img/1to2/4.png"",""time"":407},{""stimulus"":""img/1to2/5.png"",""time"":497},{""stimulus"":""img/1to2/6.png"",""time"":607},{""stimulus"":""img/1to2/7.png"",""time"":716},{""stimulus"":""img/1to2/8.png"",""time"":801},{""stimulus"":""img/1to2/9.png"",""time"":892},{""stimulus"":""img/1to2/10.png"",""time"":1001},{""stimulus"":""img/1to2/11.png"",""time"":1094},{""stimulus"":""img/1to2/12.png"",""time"":1203}]","[]"
"image-keyboard-response","169","184015","0.0-5.0-1.82","63e51ddb19fccd05514c629c","bdp_cybrbll","Tue Mar 28 2023 18:15:25 GMT-0700 (Pacific Daylight Time)","446759","1","3","","1266","","img/2to1/1.png","2","choice","143","1560","0.5","0.1","2","3","",""
"animation","170","185302","0.0-5.0-2.82","63e51ddb19fccd05514c629c","bdp_cybrbll","Tue Mar 28 2023 18:15:25 GMT-0700 (Pacific Daylight Time)","446759","1","3","","","","","","","143","","","","2","3","[{""stimulus"":""img/2to3/1.png"",""time"":101},{""stimulus"":""img/2to3/2.png"",""time"":199},{""stimulus"":""img/2to3/3.png"",""time"":309},{""stimulus"":""img/2to3/4.png"",""time"":402},{""stimulus"":""img/2to3/5.png"",""time"":510},{""stimulus"":""img/2to3/6.png"",""time"":602},{""stimulus"":""img/2to3/7.png"",""time"":695},{""stimulus"":""img/2to3/8.png"",""time"":804},{""stimulus"":""img/2to3/9.png"",""time"":897},{""stimulus"":""img/2to3/10.png"",""time"":1006},{""stimulus"":""img/2to3/11.png"",""time"":1100},{""stimulus"":""img/2to3/12.png"",""time"":1190}]","[]"
"image-keyboard-response","171","185754","0.0-5.0-1.83","63e51ddb19fccd05514c629c","bdp_cybrbll","Tue Mar 28 2023 18:15:25 GMT-0700 (Pacific Daylight Time)","446759","1","3","","null","","img/3to2/1.png","null","observe","142","440","0.5","0.1","3","1","",""
"animation","172","187046","0.0-5.0-2.83","63e51ddb19fccd05514c629c","bdp_cybrbll","Tue Mar 28 2023 18:15:25 GMT-0700 (Pacific Daylight Time)","446759","1","3","","","","","","","142","","","","3","1","[{""stimulus"":""img/3to1/1.png"",""time"":109},{""stimulus"":""img/3to1/2.png"",""time"":200},{""stimulus"":""img/3to1/3.png"",""time"":312},{""stimulus"":""img/3to1/4.png"",""time"":406},{""stimulus"":""img/3to1/5.png"",""time"":497},{""stimulus"":""img/3to1/6.png"",""time"":610},{""stimulus"":""img/3to1/7.png"",""time"":702},{""stimulus"":""img/3to1/8.png"",""time"":796},{""stimulus"":""img/3to1/9.png"",""time"":905},{""stimulus"":""img/3to1/10.png"",""time"":991},{""stimulus"":""img/3to1/11.png"",""time"":1092},{""stimulus"":""img/3to1/12.png"",""time"":1200}]","[]"
"image-keyboard-response","173","187436","0.0-5.0-1.84","63e51ddb19fccd05514c629c","bdp_cybrbll","Tue Mar 28 2023 18:15:25 GMT-0700 (Pacific Daylight Time)","446759","1","3","","null","","img/1to3/1.png","null","observe","141","380","0.5","0.1","1","3","",""
"animation","174","188730","0.0-5.0-2.84","63e51ddb19fccd05514c629c","bdp_cybrbll","Tue Mar 28 2023 18:15:25 GMT-0700 (Pacific Daylight Time)","446759","1","3","","","","","","","141","","","","1","3","[{""stimulus"":""img/1to3/1.png"",""time"":109},{""stimulus"":""img/1to3/2.png"",""time"":203},{""stimulus"":""img/1to3/3.png"",""time"":313},{""stimulus"":""img/1to3/4.png"",""time"":397},{""stimulus"":""img/1to3/5.png"",""time"":500},{""stimulus"":""img/1to3/6.png"",""time"":609},{""stimulus"":""img/1to3/7.png"",""time"":702},{""stimulus"":""img/1to3/8.png"",""time"":794},{""stimulus"":""img/1to3/9.png"",""time"":903},{""stimulus"":""img/1to3/10.png"",""time"":997},{""stimulus"":""img/1to3/11.png"",""time"":1107},{""stimulus"":""img/1to3/12.png"",""time"":1200}]","[]"
"image-keyboard-response","175","189865","0.0-5.0-1.85","63e51ddb19fccd05514c629c","bdp_cybrbll","Tue Mar 28 2023 18:15:25 GMT-0700 (Pacific Daylight Time)","446759","1","3","","null","","img/3to2/1.png","null","observe","140","1130","0.5","0.1","3","1","",""
"animation","176","191153","0.0-5.0-2.85","63e51ddb19fccd05514c629c","bdp_cybrbll","Tue Mar 28 2023 18:15:25 GMT-0700 (Pacific Daylight Time)","446759","1","3","","","","","","","140","","","","3","1","[{""stimulus"":""img/3to1/1.png"",""time"":109},{""stimulus"":""img/3to1/2.png"",""time"":199},{""stimulus"":""img/3to1/3.png"",""time"":311},{""stimulus"":""img/3to1/4.png"",""time"":397},{""stimulus"":""img/3to1/5.png"",""time"":499},{""stimulus"":""img/3to1/6.png"",""time"":616},{""stimulus"":""img/3to1/7.png"",""time"":694},{""stimulus"":""img/3to1/8.png"",""time"":795},{""stimulus"":""img/3to1/9.png"",""time"":892},{""stimulus"":""img/3to1/10.png"",""time"":990},{""stimulus"":""img/3to1/11.png"",""time"":1103},{""stimulus"":""img/3to1/12.png"",""time"":1195}]","[]"
"image-keyboard-response","177","191749","0.0-5.0-1.86","63e51ddb19fccd05514c629c","bdp_cybrbll","Tue Mar 28 2023 18:15:25 GMT-0700 (Pacific Daylight Time)","446759","1","3","","null","","img/1to3/1.png","null","observe","139","589","0.5","0.1","1","2","",""
"animation","178","193042","0.0-5.0-2.86","63e51ddb19fccd05514c629c","bdp_cybrbll","Tue Mar 28 2023 18:15:25 GMT-0700 (Pacific Daylight Time)","446759","1","3","","","","","","","139","","","","1","2","[{""stimulus"":""img/1to2/1.png"",""time"":109},{""stimulus"":""img/1to2/2.png"",""time"":199},{""stimulus"":""img/1to2/3.png"",""time"":309},{""stimulus"":""img/1to2/4.png"",""time"":396},{""stimulus"":""img/1to2/5.png"",""time"":497},{""stimulus"":""img/1to2/6.png"",""time"":607},{""stimulus"":""img/1to2/7.png"",""time"":701},{""stimulus"":""img/1to2/8.png"",""time"":794},{""stimulus"":""img/1to2/9.png"",""time"":905},{""stimulus"":""img/1to2/10.png"",""time"":991},{""stimulus"":""img/1to2/11.png"",""time"":1090},{""stimulus"":""img/1to2/12.png"",""time"":1200}]","[]"
"image-keyboard-response","179","193152","0.0-5.0-1.87","63e51ddb19fccd05514c629c","bdp_cybrbll","Tue Mar 28 2023 18:15:25 GMT-0700 (Pacific Daylight Time)","446759","1","3","","110","","img/2to1/1.png","1","choice","138","325","0.5","0.1","2","1","",""
"animation","180","194446","0.0-5.0-2.87","63e51ddb19fccd05514c629c","bdp_cybrbll","Tue Mar 28 2023 18:15:25 GMT-0700 (Pacific Daylight Time)","446759","1","3","","","","","","","138","","","","2","1","[{""stimulus"":""img/2to1/1.png"",""time"":101},{""stimulus"":""img/2to1/2.png"",""time"":199},{""stimulus"":""img/2to1/3.png"",""time"":312},{""stimulus"":""img/2to1/4.png"",""time"":405},{""stimulus"":""img/2to1/5.png"",""time"":497},{""stimulus"":""img/2to1/6.png"",""time"":610},{""stimulus"":""img/2to1/7.png"",""time"":703},{""stimulus"":""img/2to1/8.png"",""time"":797},{""stimulus"":""img/2to1/9.png"",""time"":905},{""stimulus"":""img/2to1/10.png"",""time"":992},{""stimulus"":""img/2to1/11.png"",""time"":1093},{""stimulus"":""img/2to1/12.png"",""time"":1201}]","[]"
"image-keyboard-response","181","195146","0.0-5.0-1.88","63e51ddb19fccd05514c629c","bdp_cybrbll","Tue Mar 28 2023 18:15:25 GMT-0700 (Pacific Daylight Time)","446759","1","3","","null","","img/1to3/1.png","null","observe","137","693","0.5","0.1","1","2","",""
"animation","182","196441","0.0-5.0-2.88","63e51ddb19fccd05514c629c","bdp_cybrbll","Tue Mar 28 2023 18:15:25 GMT-0700 (Pacific Daylight Time)","446759","1","3","","","","","","","137","","","","1","2","[{""stimulus"":""img/1to2/1.png"",""time"":110},{""stimulus"":""img/1to2/2.png"",""time"":199},{""stimulus"":""img/1to2/3.png"",""time"":313},{""stimulus"":""img/1to2/4.png"",""time"":397},{""stimulus"":""img/1to2/5.png"",""time"":500},{""stimulus"":""img/1to2/6.png"",""time"":609},{""stimulus"":""img/1to2/7.png"",""time"":694},{""stimulus"":""img/1to2/8.png"",""time"":796},{""stimulus"":""img/1to2/9.png"",""time"":905},{""stimulus"":""img/1to2/10.png"",""time"":1000},{""stimulus"":""img/1to2/11.png"",""time"":1092},{""stimulus"":""img/1to2/12.png"",""time"":1190}]","[]"
"image-keyboard-response","183","196668","0.0-5.0-1.89","63e51ddb19fccd05514c629c","bdp_cybrbll","Tue Mar 28 2023 18:15:25 GMT-0700 (Pacific Daylight Time)","446759","1","3","","225","","img/2to1/1.png","2","choice","136","731","0.5","0.1","2","3","",""
"animation","184","197969","0.0-5.0-2.89","63e51ddb19fccd05514c629c","bdp_cybrbll","Tue Mar 28 2023 18:15:25 GMT-0700 (Pacific Daylight Time)","446759","1","3","","","","","","","136","","","","2","3","[{""stimulus"":""img/2to3/1.png"",""time"":101},{""stimulus"":""img/2to3/2.png"",""time"":210},{""stimulus"":""img/2to3/3.png"",""time"":306},{""stimulus"":""img/2to3/4.png"",""time"":401},{""stimulus"":""img/2to3/5.png"",""time"":496},{""stimulus"":""img/2to3/6.png"",""time"":604},{""stimulus"":""img/2to3/7.png"",""time"":693},{""stimulus"":""img/2to3/8.png"",""time"":804},{""stimulus"":""img/2to3/9.png"",""time"":897},{""stimulus"":""img/2to3/10.png"",""time"":1005},{""stimulus"":""img/2to3/11.png"",""time"":1098},{""stimulus"":""img/2to3/12.png"",""time"":1189}]","[]"
"image-keyboard-response","185","198216","0.0-5.0-1.90","63e51ddb19fccd05514c629c","bdp_cybrbll","Tue Mar 28 2023 18:15:25 GMT-0700 (Pacific Daylight Time)","446759","1","3","","null","","img/3to2/1.png","null","observe","135","234","0.5","0.1","3","1","",""
"animation","186","199509","0.0-5.0-2.90","63e51ddb19fccd05514c629c","bdp_cybrbll","Tue Mar 28 2023 18:15:25 GMT-0700 (Pacific Daylight Time)","446759","1","3","","","","","","","135","","","","3","1","[{""stimulus"":""img/3to1/1.png"",""time"":113},{""stimulus"":""img/3to1/2.png"",""time"":199},{""stimulus"":""img/3to1/3.png"",""time"":313},{""stimulus"":""img/3to1/4.png"",""time"":406},{""stimulus"":""img/3to1/5.png"",""time"":496},{""stimulus"":""img/3to1/6.png"",""time"":609},{""stimulus"":""img/3to1/7.png"",""time"":694},{""stimulus"":""img/3to1/8.png"",""time"":794},{""stimulus"":""img/3to1/9.png"",""time"":903},{""stimulus"":""img/3to1/10.png"",""time"":997},{""stimulus"":""img/3to1/11.png"",""time"":1105},{""stimulus"":""img/3to1/12.png"",""time"":1189}]","[]"
"image-keyboard-response","187","200328","0.0-5.0-1.91","63e51ddb19fccd05514c629c","bdp_cybrbll","Tue Mar 28 2023 18:15:25 GMT-0700 (Pacific Daylight Time)","446759","1","3","","null","","img/1to3/1.png","null","observe","134","800","0.5","0.1","1","3","",""
"animation","188","201616","0.0-5.0-2.91","63e51ddb19fccd05514c629c","bdp_cybrbll","Tue Mar 28 2023 18:15:25 GMT-0700 (Pacific Daylight Time)","446759","1","3","","","","","","","134","","","","1","3","[{""stimulus"":""img/1to3/1.png"",""time"":102},{""stimulus"":""img/1to3/2.png"",""time"":211},{""stimulus"":""img/1to3/3.png"",""time"":306},{""stimulus"":""img/1to3/4.png"",""time"":399},{""stimulus"":""img/1to3/5.png"",""time"":497},{""stimulus"":""img/1to3/6.png"",""time"":602},{""stimulus"":""img/1to3/7.png"",""time"":695},{""stimulus"":""img/1to3/8.png"",""time"":803},{""stimulus"":""img/1to3/9.png"",""time"":897},{""stimulus"":""img/1to3/10.png"",""time"":993},{""stimulus"":""img/1to3/11.png"",""time"":1100},{""stimulus"":""img/1to3/12.png"",""time"":1192}]","[]"
"image-keyboard-response","189","202239","0.0-5.0-1.92","63e51ddb19fccd05514c629c","bdp_cybrbll","Tue Mar 28 2023 18:15:25 GMT-0700 (Pacific Daylight Time)","446759","1","3","","null","","img/3to2/1.png","null","observe","133","610","0.5","0.1","3","1","",""
"animation","190","203528","0.0-5.0-2.92","63e51ddb19fccd05514c629c","bdp_cybrbll","Tue Mar 28 2023 18:15:25 GMT-0700 (Pacific Daylight Time)","446759","1","3","","","","","","","133","","","","3","1","[{""stimulus"":""img/3to1/1.png"",""time"":108},{""stimulus"":""img/3to1/2.png"",""time"":199},{""stimulus"":""img/3to1/3.png"",""time"":309},{""stimulus"":""img/3to1/4.png"",""time"":398},{""stimulus"":""img/3to1/5.png"",""time"":497},{""stimulus"":""img/3to1/6.png"",""time"":605},{""stimulus"":""img/3to1/7.png"",""time"":699},{""stimulus"":""img/3to1/8.png"",""time"":808},{""stimulus"":""img/3to1/9.png"",""time"":901},{""stimulus"":""img/3to1/10.png"",""time"":994},{""stimulus"":""img/3to1/11.png"",""time"":1102},{""stimulus"":""img/3to1/12.png"",""time"":1189}]","[]"
"image-keyboard-response","191","203793","0.0-5.0-1.93","63e51ddb19fccd05514c629c","bdp_cybrbll","Tue Mar 28 2023 18:15:25 GMT-0700 (Pacific Daylight Time)","446759","1","3","","null","","img/1to3/1.png","null","observe","132","258","0.5","0.1","1","3","",""
"animation","192","205085","0.0-5.0-2.93","63e51ddb19fccd05514c629c","bdp_cybrbll","Tue Mar 28 2023 18:15:25 GMT-0700 (Pacific Daylight Time)","446759","1","3","","","","","","","132","","","","1","3","[{""stimulus"":""img/1to3/1.png"",""time"":110},{""stimulus"":""img/1to3/2.png"",""time"":199},{""stimulus"":""img/1to3/3.png"",""time"":312},{""stimulus"":""img/1to3/4.png"",""time"":397},{""stimulus"":""img/1to3/5.png"",""time"":500},{""stimulus"":""img/1to3/6.png"",""time"":609},{""stimulus"":""img/1to3/7.png"",""time"":701},{""stimulus"":""img/1to3/8.png"",""time"":795},{""stimulus"":""img/1to3/9.png"",""time"":905},{""stimulus"":""img/1to3/10.png"",""time"":999},{""stimulus"":""img/1to3/11.png"",""time"":1091},{""stimulus"":""img/1to3/12.png"",""time"":1200}]","[]"
"image-keyboard-response","193","205505","0.0-5.0-1.94","63e51ddb19fccd05514c629c","bdp_cybrbll","Tue Mar 28 2023 18:15:25 GMT-0700 (Pacific Daylight Time)","446759","1","3","","null","","img/3to2/1.png","null","observe","131","408","0.5","0.1","3","1","",""
"animation","194","206793","0.0-5.0-2.94","63e51ddb19fccd05514c629c","bdp_cybrbll","Tue Mar 28 2023 18:15:25 GMT-0700 (Pacific Daylight Time)","446759","1","3","","","","","","","131","","","","3","1","[{""stimulus"":""img/3to1/1.png"",""time"":109},{""stimulus"":""img/3to1/2.png"",""time"":200},{""stimulus"":""img/3to1/3.png"",""time"":311},{""stimulus"":""img/3to1/4.png"",""time"":397},{""stimulus"":""img/3to1/5.png"",""time"":498},{""stimulus"":""img/3to1/6.png"",""time"":607},{""stimulus"":""img/3to1/7.png"",""time"":699},{""stimulus"":""img/3to1/8.png"",""time"":811},{""stimulus"":""img/3to1/9.png"",""time"":902},{""stimulus"":""img/3to1/10.png"",""time"":996},{""stimulus"":""img/3to1/11.png"",""time"":1090},{""stimulus"":""img/3to1/12.png"",""time"":1197}]","[]"
"image-keyboard-response","195","208273","0.0-5.0-1.95","63e51ddb19fccd05514c629c","bdp_cybrbll","Tue Mar 28 2023 18:15:25 GMT-0700 (Pacific Daylight Time)","446759","1","3","","null","","img/1to3/1.png","null","observe","130","1471","0.5","0.1","1","2","",""
