"trial_type","trial_index","time_elapsed","internal_node_id","subject_id","task","startTime","totalTime","fairPartner","unfairPartner","view_history","rt","event","trial","time","trialtype","success","stimulus","key_press","throwsLeft","rtDur","pFair","pUnfair","holder","receiver","animation_sequence","responses"
"pavlovia","0","6","0.0-0.0","61650ba8e42101c561bf7335","bdp_cybrbll","Wed Mar 29 2023 13:15:56 GMT-0400 (Eastern Daylight Time)","624121","3","1","","","","","","","","","","","","","","","","",""
"instructions","1","32776","0.0-1.0","61650ba8e42101c561bf7335","bdp_cybrbll","Wed Mar 29 2023 13:15:56 GMT-0400 (Eastern Daylight Time)","624121","3","1","[{""page_index"":0,""viewing_time"":32769}]","32769","","","","","","","","","","","","","","",""
"","","","","61650ba8e42101c561bf7335","bdp_cybrbll","Wed Mar 29 2023 13:15:56 GMT-0400 (Eastern Daylight Time)","624121","3","1","","","fullscreenenter","2","34197","fullscreenenter","","","","","","","","","","",""
"fullscreen","2","35192","0.0-2.0","61650ba8e42101c561bf7335","bdp_cybrbll","Wed Mar 29 2023 13:15:56 GMT-0400 (Eastern Daylight Time)","624121","3","1","","","","","","","true","","","","","","","","","",""
"instructions","3","226406","0.0-4.0","61650ba8e42101c561bf7335","bdp_cybrbll","Wed Mar 29 2023 13:15:56 GMT-0400 (Eastern Daylight Time)","624121","3","1","[{""page_index"":0,""viewing_time"":191212}]","191212","","","","","","","","","","","","","","",""
"image-keyboard-response","4","227792","0.0-5.0-1.0","61650ba8e42101c561bf7335","bdp_cybrbll","Wed Mar 29 2023 13:15:56 GMT-0400 (Eastern Daylight Time)","624121","3","1","","1382","","","","choice","","img/2to1/1.png","1","225","1188","0.5","0.5","2","1","",""
"animation","5","229095","0.0-5.0-2.0","61650ba8e42101c561bf7335","bdp_cybrbll","Wed Mar 29 2023 13:15:56 GMT-0400 (Eastern Daylight Time)","624121","3","1","","","","","","","","","","225","","","","2","1","[{""stimulus"":""img/2to1/1.png"",""time"":100},{""stimulus"":""img/2to1/2.png"",""time"":200},{""stimulus"":""img/2to1/3.png"",""time"":298},{""stimulus"":""img/2to1/4.png"",""time"":398},{""stimulus"":""img/2to1/5.png"",""time"":496},{""stimulus"":""img/2to1/6.png"",""time"":595},{""stimulus"":""img/2to1/7.png"",""time"":694},{""stimulus"":""img/2to1/8.png"",""time"":793},{""stimulus"":""img/2to1/9.png"",""time"":892},{""stimulus"":""img/2to1/10.png"",""time"":992},{""stimulus"":""img/2to1/11.png"",""time"":1091},{""stimulus"":""img/2to1/12.png"",""time"":1190}]","[]"
"image-keyboard-response","6","229581","0.0-5.0-1.1","61650ba8e42101c561bf7335","bdp_cybrbll","Wed Mar 29 2023 13:15:56 GMT-0400 (Eastern Daylight Time)","624121","3","1","","null","","","","observe","","img/1to3/1.png","null","224","484","0.5","0.5","1","2","",""
"animation","7","230869","0.0-5.0-2.1","61650ba8e42101c561bf7335","bdp_cybrbll","Wed Mar 29 2023 13:15:56 GMT-0400 (Eastern Daylight Time)","624121","3","1","","","","","","","","","","224","","","","1","2","[{""stimulus"":""img/1to2/1.png"",""time"":100},{""stimulus"":""img/1to2/2.png"",""time"":199},{""stimulus"":""img/1to2/3.png"",""time"":298},{""stimulus"":""img/1to2/4.png"",""time"":397},{""stimulus"":""img/1to2/5.png"",""time"":496},{""stimulus"":""img/1to2/6.png"",""time"":595},{""stimulus"":""img/1to2/7.png"",""time"":695},{""stimulus"":""img/1to2/8.png"",""time"":794},{""stimulus"":""img/1to2/9.png"",""time"":893},{""stimulus"":""img/1to2/10.png"",""time"":991},{""stimulus"":""img/1to2/11.png"",""time"":1090},{""stimulus"":""img/1to2/12.png"",""time"":1190}]","[]"
"image-keyboard-response","8","231388","0.0-5.0-1.2","61650ba8e42101c561bf7335","bdp_cybrbll","Wed Mar 29 2023 13:15:56 GMT-0400 (Eastern Daylight Time)","624121","3","1","","517","","","","choice","","img/2to1/1.png","2","223","269","0.5","0.5","2","3","",""
"animation","9","232678","0.0-5.0-2.2","61650ba8e42101c561bf7335","bdp_cybrbll","Wed Mar 29 2023 13:15:56 GMT-0400 (Eastern Daylight Time)","624121","3","1","","","","","","","","","","223","","","","2","3","[{""stimulus"":""img/2to3/1.png"",""time"":100},{""stimulus"":""img/2to3/2.png"",""time"":199},{""stimulus"":""img/2to3/3.png"",""time"":298},{""stimulus"":""img/2to3/4.png"",""time"":398},{""stimulus"":""img/2to3/5.png"",""time"":496},{""stimulus"":""img/2to3/6.png"",""time"":595},{""stimulus"":""img/2to3/7.png"",""time"":693},{""stimulus"":""img/2to3/8.png"",""time"":792},{""stimulus"":""img/2to3/9.png"",""time"":892},{""stimulus"":""img/2to3/10.png"",""time"":991},{""stimulus"":""img/2to3/11.png"",""time"":1091},{""stimulus"":""img/2to3/12.png"",""time"":1189}]","[]"
"image-keyboard-response","10","232992","0.0-5.0-1.3","61650ba8e42101c561bf7335","bdp_cybrbll","Wed Mar 29 2023 13:15:56 GMT-0400 (Eastern Daylight Time)","624121","3","1","","null","","","","observe","","img/3to2/1.png","null","222","313","0.5","0.5","3","2","",""
"animation","11","234280","0.0-5.0-2.3","61650ba8e42101c561bf7335","bdp_cybrbll","Wed Mar 29 2023 13:15:56 GMT-0400 (Eastern Daylight Time)","624121","3","1","","","","","","","","","","222","","","","3","2","[{""stimulus"":""img/3to2/1.png"",""time"":99},{""stimulus"":""img/3to2/2.png"",""time"":198},{""stimulus"":""img/3to2/3.png"",""time"":298},{""stimulus"":""img/3to2/4.png"",""time"":396},{""stimulus"":""img/3to2/5.png"",""time"":495},{""stimulus"":""img/3to2/6.png"",""time"":595},{""stimulus"":""img/3to2/7.png"",""time"":694},{""stimulus"":""img/3to2/8.png"",""time"":793},{""stimulus"":""img/3to2/9.png"",""time"":891},{""stimulus"":""img/3to2/10.png"",""time"":990},{""stimulus"":""img/3to2/11.png"",""time"":1090},{""stimulus"":""img/3to2/12.png"",""time"":1189}]","[]"
"image-keyboard-response","12","234573","0.0-5.0-1.4","61650ba8e42101c561bf7335","bdp_cybrbll","Wed Mar 29 2023 13:15:56 GMT-0400 (Eastern Daylight Time)","624121","3","1","","292","","","","choice","","img/2to1/1.png","2","221","163","0.5","0.5","2","3","",""
"animation","13","235862","0.0-5.0-2.4","61650ba8e42101c561bf7335","bdp_cybrbll","Wed Mar 29 2023 13:15:56 GMT-0400 (Eastern Daylight Time)","624121","3","1","","","","","","","","","","221","","","","2","3","[{""stimulus"":""img/2to3/1.png"",""time"":100},{""stimulus"":""img/2to3/2.png"",""time"":199},{""stimulus"":""img/2to3/3.png"",""time"":298},{""stimulus"":""img/2to3/4.png"",""time"":398},{""stimulus"":""img/2to3/5.png"",""time"":496},{""stimulus"":""img/2to3/6.png"",""time"":596},{""stimulus"":""img/2to3/7.png"",""time"":694},{""stimulus"":""img/2to3/8.png"",""time"":793},{""stimulus"":""img/2to3/9.png"",""time"":893},{""stimulus"":""img/2to3/10.png"",""time"":991},{""stimulus"":""img/2to3/11.png"",""time"":1091},{""stimulus"":""img/2to3/12.png"",""time"":1189}]","[]"
"image-keyboard-response","14","236241","0.0-5.0-1.5","61650ba8e42101c561bf7335","bdp_cybrbll","Wed Mar 29 2023 13:15:56 GMT-0400 (Eastern Daylight Time)","624121","3","1","","null","","","","observe","","img/3to2/1.png","null","220","379","0.5","0.5","3","1","",""
"animation","15","237529","0.0-5.0-2.5","61650ba8e42101c561bf7335","bdp_cybrbll","Wed Mar 29 2023 13:15:56 GMT-0400 (Eastern Daylight Time)","624121","3","1","","","","","","","","","","220","","","","3","1","[{""stimulus"":""img/3to1/1.png"",""time"":100},{""stimulus"":""img/3to1/2.png"",""time"":200},{""stimulus"":""img/3to1/3.png"",""time"":297},{""stimulus"":""img/3to1/4.png"",""time"":396},{""stimulus"":""img/3to1/5.png"",""time"":495},{""stimulus"":""img/3to1/6.png"",""time"":594},{""stimulus"":""img/3to1/7.png"",""time"":694},{""stimulus"":""img/3to1/8.png"",""time"":792},{""stimulus"":""img/3to1/9.png"",""time"":892},{""stimulus"":""img/3to1/10.png"",""time"":990},{""stimulus"":""img/3to1/11.png"",""time"":1090},{""stimulus"":""img/3to1/12.png"",""time"":1189}]","[]"
"image-keyboard-response","16","237905","0.0-5.0-1.6","61650ba8e42101c561bf7335","bdp_cybrbll","Wed Mar 29 2023 13:15:56 GMT-0400 (Eastern Daylight Time)","624121","3","1","","null","","","","observe","","img/1to3/1.png","null","219","375","0.5","0.5","1","3","",""
"animation","17","239194","0.0-5.0-2.6","61650ba8e42101c561bf7335","bdp_cybrbll","Wed Mar 29 2023 13:15:56 GMT-0400 (Eastern Daylight Time)","624121","3","1","","","","","","","","","","219","","","","1","3","[{""stimulus"":""img/1to3/1.png"",""time"":100},{""stimulus"":""img/1to3/2.png"",""time"":199},{""stimulus"":""img/1to3/3.png"",""time"":298},{""stimulus"":""img/1to3/4.png"",""time"":397},{""stimulus"":""img/1to3/5.png"",""time"":496},{""stimulus"":""img/1to3/6.png"",""time"":595},{""stimulus"":""img/1to3/7.png"",""time"":694},{""stimulus"":""img/1to3/8.png"",""time"":793},{""stimulus"":""img/1to3/9.png"",""time"":891},{""stimulus"":""img/1to3/10.png"",""time"":991},{""stimulus"":""img/1to3/11.png"",""time"":1090},{""stimulus"":""img/1to3/12.png"",""time"":1190}]","[]"
"image-keyboard-response","18","239734","0.0-5.0-1.7","61650ba8e42101c561bf7335","bdp_cybrbll","Wed Mar 29 2023 13:15:56 GMT-0400 (Eastern Daylight Time)","624121","3","1","","null","","","","observe","","img/3to2/1.png","null","218","539","0.5","0.5","3","1","",""
"animation","19","241022","0.0-5.0-2.7","61650ba8e42101c561bf7335","bdp_cybrbll","Wed Mar 29 2023 13:15:56 GMT-0400 (Eastern Daylight Time)","624121","3","1","","","","","","","","","","218","","","","3","1","[{""stimulus"":""img/3to1/1.png"",""time"":100},{""stimulus"":""img/3to1/2.png"",""time"":200},{""stimulus"":""img/3to1/3.png"",""time"":299},{""stimulus"":""img/3to1/4.png"",""time"":398},{""stimulus"":""img/3to1/5.png"",""time"":496},{""stimulus"":""img/3to1/6.png"",""time"":595},{""stimulus"":""img/3to1/7.png"",""time"":695},{""stimulus"":""img/3to1/8.png"",""time"":794},{""stimulus"":""img/3to1/9.png"",""time"":893},{""stimulus"":""img/3to1/10.png"",""time"":991},{""stimulus"":""img/3to1/11.png"",""time"":1091},{""stimulus"":""img/3to1/12.png"",""time"":1189}]","[]"
"image-keyboard-response","20","241334","0.0-5.0-1.8","61650ba8e42101c561bf7335","bdp_cybrbll","Wed Mar 29 2023 13:15:56 GMT-0400 (Eastern Daylight Time)","624121","3","1","","null","","","","observe","","img/1to3/1.png","null","217","310","0.5","0.5","1","3","",""
"animation","21","242622","0.0-5.0-2.8","61650ba8e42101c561bf7335","bdp_cybrbll","Wed Mar 29 2023 13:15:56 GMT-0400 (Eastern Daylight Time)","624121","3","1","","","","","","","","","","217","","","","1","3","[{""stimulus"":""img/1to3/1.png"",""time"":101},{""stimulus"":""img/1to3/2.png"",""time"":199},{""stimulus"":""img/1to3/3.png"",""time"":298},{""stimulus"":""img/1to3/4.png"",""time"":397},{""stimulus"":""img/1to3/5.png"",""time"":496},{""stimulus"":""img/1to3/6.png"",""time"":595},{""stimulus"":""img/1to3/7.png"",""time"":694},{""stimulus"":""img/1to3/8.png"",""time"":793},{""stimulus"":""img/1to3/9.png"",""time"":892},{""stimulus"":""img/1to3/10.png"",""time"":991},{""stimulus"":""img/1to3/11.png"",""time"":1090},{""stimulus"":""img/1to3/12.png"",""time"":1190}]","[]"
"image-keyboard-response","22","242874","0.0-5.0-1.9","61650ba8e42101c561bf7335","bdp_cybrbll","Wed Mar 29 2023 13:15:56 GMT-0400 (Eastern Daylight Time)","624121","3","1","","null","","","","observe","","img/3to2/1.png","null","216","251","0.5","0.5","3","1","",""
"animation","23","244163","0.0-5.0-2.9","61650ba8e42101c561bf7335","bdp_cybrbll","Wed Mar 29 2023 13:15:56 GMT-0400 (Eastern Daylight Time)","624121","3","1","","","","","","","","","","216","","","","3","1","[{""stimulus"":""img/3to1/1.png"",""time"":100},{""stimulus"":""img/3to1/2.png"",""time"":199},{""stimulus"":""img/3to1/3.png"",""time"":298},{""stimulus"":""img/3to1/4.png"",""time"":410},{""stimulus"":""img/3to1/5.png"",""time"":496},{""stimulus"":""img/3to1/6.png"",""time"":595},{""stimulus"":""img/3to1/7.png"",""time"":693},{""stimulus"":""img/3to1/8.png"",""time"":792},{""stimulus"":""img/3to1/9.png"",""time"":892},{""stimulus"":""img/3to1/10.png"",""time"":991},{""stimulus"":""img/3to1/11.png"",""time"":1090},{""stimulus"":""img/3to1/12.png"",""time"":1189}]","[]"
"image-keyboard-response","24","244438","0.0-5.0-1.10","61650ba8e42101c561bf7335","bdp_cybrbll","Wed Mar 29 2023 13:15:56 GMT-0400 (Eastern Daylight Time)","624121","3","1","","null","","","","observe","","img/1to3/1.png","null","215","274","0.5","0.5","1","3","",""
"animation","25","245726","0.0-5.0-2.10","61650ba8e42101c561bf7335","bdp_cybrbll","Wed Mar 29 2023 13:15:56 GMT-0400 (Eastern Daylight Time)","624121","3","1","","","","","","","","","","215","","","","1","3","[{""stimulus"":""img/1to3/1.png"",""time"":100},{""stimulus"":""img/1to3/2.png"",""time"":199},{""stimulus"":""img/1to3/3.png"",""time"":298},{""stimulus"":""img/1to3/4.png"",""time"":397},{""stimulus"":""img/1to3/5.png"",""time"":495},{""stimulus"":""img/1to3/6.png"",""time"":595},{""stimulus"":""img/1to3/7.png"",""time"":694},{""stimulus"":""img/1to3/8.png"",""time"":793},{""stimulus"":""img/1to3/9.png"",""time"":892},{""stimulus"":""img/1to3/10.png"",""time"":991},{""stimulus"":""img/1to3/11.png"",""time"":1090},{""stimulus"":""img/1to3/12.png"",""time"":1189}]","[]"
"image-keyboard-response","26","246144","0.0-5.0-1.11","61650ba8e42101c561bf7335","bdp_cybrbll","Wed Mar 29 2023 13:15:56 GMT-0400 (Eastern Daylight Time)","624121","3","1","","null","","","","observe","","img/3to2/1.png","null","214","416","0.5","0.5","3","2","",""
"animation","27","247432","0.0-5.0-2.11","61650ba8e42101c561bf7335","bdp_cybrbll","Wed Mar 29 2023 13:15:56 GMT-0400 (Eastern Daylight Time)","624121","3","1","","","","","","","","","","214","","","","3","2","[{""stimulus"":""img/3to2/1.png"",""time"":100},{""stimulus"":""img/3to2/2.png"",""time"":199},{""stimulus"":""img/3to2/3.png"",""time"":298},{""stimulus"":""img/3to2/4.png"",""time"":398},{""stimulus"":""img/3to2/5.png"",""time"":496},{""stimulus"":""img/3to2/6.png"",""time"":596},{""stimulus"":""img/3to2/7.png"",""time"":695},{""stimulus"":""img/3to2/8.png"",""time"":793},{""stimulus"":""img/3to2/9.png"",""time"":893},{""stimulus"":""img/3to2/10.png"",""time"":991},{""stimulus"":""img/3to2/11.png"",""time"":1091},{""stimulus"":""img/3to2/12.png"",""time"":1189}]","[]"
"image-keyboard-response","28","247683","0.0-5.0-1.12","61650ba8e42101c561bf7335","bdp_cybrbll","Wed Mar 29 2023 13:15:56 GMT-0400 (Eastern Daylight Time)","624121","3","1","","250","","","","choice","","img/2to1/1.png","2","213","424","0.5","0.5","2","3","",""
"animation","29","248971","0.0-5.0-2.12","61650ba8e42101c561bf7335","bdp_cybrbll","Wed Mar 29 2023 13:15:56 GMT-0400 (Eastern Daylight Time)","624121","3","1","","","","","","","","","","213","","","","2","3","[{""stimulus"":""img/2to3/1.png"",""time"":100},{""stimulus"":""img/2to3/2.png"",""time"":200},{""stimulus"":""img/2to3/3.png"",""time"":298},{""stimulus"":""img/2to3/4.png"",""time"":398},{""stimulus"":""img/2to3/5.png"",""time"":498},{""stimulus"":""img/2to3/6.png"",""time"":595},{""stimulus"":""img/2to3/7.png"",""time"":695},{""stimulus"":""img/2to3/8.png"",""time"":793},{""stimulus"":""img/2to3/9.png"",""time"":892},{""stimulus"":""img/2to3/10.png"",""time"":992},{""stimulus"":""img/2to3/11.png"",""time"":1090},{""stimulus"":""img/2to3/12.png"",""time"":1189}]","[]"
"image-keyboard-response","30","249708","0.0-5.0-1.13","61650ba8e42101c561bf7335","bdp_cybrbll","Wed Mar 29 2023 13:15:56 GMT-0400 (Eastern Daylight Time)","624121","3","1","","null","","","","observe","","img/3to2/1.png","null","212","736","0.5","0.5","3","1","",""
"animation","31","250996","0.0-5.0-2.13","61650ba8e42101c561bf7335","bdp_cybrbll","Wed Mar 29 2023 13:15:56 GMT-0400 (Eastern Daylight Time)","624121","3","1","","","","","","","","","","212","","","","3","1","[{""stimulus"":""img/3to1/1.png"",""time"":99},{""stimulus"":""img/3to1/2.png"",""time"":198},{""stimulus"":""img/3to1/3.png"",""time"":298},{""stimulus"":""img/3to1/4.png"",""time"":396},{""stimulus"":""img/3to1/5.png"",""time"":496},{""stimulus"":""img/3to1/6.png"",""time"":595},{""stimulus"":""img/3to1/7.png"",""time"":694},{""stimulus"":""img/3to1/8.png"",""time"":793},{""stimulus"":""img/3to1/9.png"",""time"":892},{""stimulus"":""img/3to1/10.png"",""time"":991},{""stimulus"":""img/3to1/11.png"",""time"":1089},{""stimulus"":""img/3to1/12.png"",""time"":1188}]","[]"
"image-keyboard-response","32","251498","0.0-5.0-1.14","61650ba8e42101c561bf7335","bdp_cybrbll","Wed Mar 29 2023 13:15:56 GMT-0400 (Eastern Daylight Time)","624121","3","1","","null","","","","observe","","img/1to3/1.png","null","211","500","0.5","0.5","1","3","",""
"animation","33","252786","0.0-5.0-2.14","61650ba8e42101c561bf7335","bdp_cybrbll","Wed Mar 29 2023 13:15:56 GMT-0400 (Eastern Daylight Time)","624121","3","1","","","","","","","","","","211","","","","1","3","[{""stimulus"":""img/1to3/1.png"",""time"":101},{""stimulus"":""img/1to3/2.png"",""time"":200},{""stimulus"":""img/1to3/3.png"",""time"":298},{""stimulus"":""img/1to3/4.png"",""time"":398},{""stimulus"":""img/1to3/5.png"",""time"":496},{""stimulus"":""img/1to3/6.png"",""time"":595},{""stimulus"":""img/1to3/7.png"",""time"":694},{""stimulus"":""img/1to3/8.png"",""time"":793},{""stimulus"":""img/1to3/9.png"",""time"":892},{""stimulus"":""img/1to3/10.png"",""time"":991},{""stimulus"":""img/1to3/11.png"",""time"":1091},{""stimulus"":""img/1to3/12.png"",""time"":1190}]","[]"
"image-keyboard-response","34","253646","0.0-5.0-1.15","61650ba8e42101c561bf7335","bdp_cybrbll","Wed Mar 29 2023 13:15:56 GMT-0400 (Eastern Daylight Time)","624121","3","1","","null","","","","observe","","img/3to2/1.png","null","210","850","0.5","0.5","3","1","",""
"animation","35","254933","0.0-5.0-2.15","61650ba8e42101c561bf7335","bdp_cybrbll","Wed Mar 29 2023 13:15:56 GMT-0400 (Eastern Daylight Time)","624121","3","1","","","","","","","","","","210","","","","3","1","[{""stimulus"":""img/3to1/1.png"",""time"":101},{""stimulus"":""img/3to1/2.png"",""time"":201},{""stimulus"":""img/3to1/3.png"",""time"":298},{""stimulus"":""img/3to1/4.png"",""time"":397},{""stimulus"":""img/3to1/5.png"",""time"":496},{""stimulus"":""img/3to1/6.png"",""time"":596},{""stimulus"":""img/3to1/7.png"",""time"":695},{""stimulus"":""img/3to1/8.png"",""time"":794},{""stimulus"":""img/3to1/9.png"",""time"":892},{""stimulus"":""img/3to1/10.png"",""time"":991},{""stimulus"":""img/3to1/11.png"",""time"":1090},{""stimulus"":""img/3to1/12.png"",""time"":1189}]","[]"
"image-keyboard-response","36","256409","0.0-5.0-1.16","61650ba8e42101c561bf7335","bdp_cybrbll","Wed Mar 29 2023 13:15:56 GMT-0400 (Eastern Daylight Time)","624121","3","1","","null","","","","observe","","img/1to3/1.png","null","209","1474","0.5","0.5","1","3","",""
"animation","37","257698","0.0-5.0-2.16","61650ba8e42101c561bf7335","bdp_cybrbll","Wed Mar 29 2023 13:15:56 GMT-0400 (Eastern Daylight Time)","624121","3","1","","","","","","","","","","209","","","","1","3","[{""stimulus"":""img/1to3/1.png"",""time"":101},{""stimulus"":""img/1to3/2.png"",""time"":200},{""stimulus"":""img/1to3/3.png"",""time"":298},{""stimulus"":""img/1to3/4.png"",""time"":397},{""stimulus"":""img/1to3/5.png"",""time"":496},{""stimulus"":""img/1to3/6.png"",""time"":596},{""stimulus"":""img/1to3/7.png"",""time"":694},{""stimulus"":""img/1to3/8.png"",""time"":794},{""stimulus"":""img/1to3/9.png"",""time"":893},{""stimulus"":""img/1to3/10.png"",""time"":991},{""stimulus"":""img/1to3/11.png"",""time"":1090},{""stimulus"":""img/1to3/12.png"",""time"":1190}]","[]"
"image-keyboard-response","38","257864","0.0-5.0-1.17","61650ba8e42101c561bf7335","bdp_cybrbll","Wed Mar 29 2023 13:15:56 GMT-0400 (Eastern Daylight Time)","624121","3","1","","null","","","","observe","","img/3to2/1.png","null","208","165","0.5","0.5","3","1","",""
"animation","39","259152","0.0-5.0-2.17","61650ba8e42101c561bf7335","bdp_cybrbll","Wed Mar 29 2023 13:15:56 GMT-0400 (Eastern Daylight Time)","624121","3","1","","","","","","","","","","208","","","","3","1","[{""stimulus"":""img/3to1/1.png"",""time"":101},{""stimulus"":""img/3to1/2.png"",""time"":199},{""stimulus"":""img/3to1/3.png"",""time"":300},{""stimulus"":""img/3to1/4.png"",""time"":397},{""stimulus"":""img/3to1/5.png"",""time"":496},{""stimulus"":""img/3to1/6.png"",""time"":596},{""stimulus"":""img/3to1/7.png"",""time"":694},{""stimulus"":""img/3to1/8.png"",""time"":793},{""stimulus"":""img/3to1/9.png"",""time"":892},{""stimulus"":""img/3to1/10.png"",""time"":991},{""stimulus"":""img/3to1/11.png"",""time"":1091},{""stimulus"":""img/3to1/12.png"",""time"":1189}]","[]"
"image-keyboard-response","40","260285","0.0-5.0-1.18","61650ba8e42101c561bf7335","bdp_cybrbll","Wed Mar 29 2023 13:15:56 GMT-0400 (Eastern Daylight Time)","624121","3","1","","null","","","","observe","","img/1to3/1.png","null","207","1132","0.5","0.5","1","2","",""
"animation","41","261574","0.0-5.0-2.18","61650ba8e42101c561bf7335","bdp_cybrbll","Wed Mar 29 2023 13:15:56 GMT-0400 (Eastern Daylight Time)","624121","3","1","","","","","","","","","","207","","","","1","2","[{""stimulus"":""img/1to2/1.png"",""time"":101},{""stimulus"":""img/1to2/2.png"",""time"":199},{""stimulus"":""img/1to2/3.png"",""time"":298},{""stimulus"":""img/1to2/4.png"",""time"":398},{""stimulus"":""img/1to2/5.png"",""time"":497},{""stimulus"":""img/1to2/6.png"",""time"":596},{""stimulus"":""img/1to2/7.png"",""time"":694},{""stimulus"":""img/1to2/8.png"",""time"":794},{""stimulus"":""img/1to2/9.png"",""time"":893},{""stimulus"":""img/1to2/10.png"",""time"":991},{""stimulus"":""img/1to2/11.png"",""time"":1090},{""stimulus"":""img/1to2/12.png"",""time"":1189}]","[]"
"image-keyboard-response","42","261719","0.0-5.0-1.19","61650ba8e42101c561bf7335","bdp_cybrbll","Wed Mar 29 2023 13:15:56 GMT-0400 (Eastern Daylight Time)","624121","3","1","","144","","","","choice","","img/2to1/1.png","2","206","409","0.5","0.5","2","3","",""
"animation","43","263007","0.0-5.0-2.19","61650ba8e42101c561bf7335","bdp_cybrbll","Wed Mar 29 2023 13:15:56 GMT-0400 (Eastern Daylight Time)","624121","3","1","","","","","","","","","","206","","","","2","3","[{""stimulus"":""img/2to3/1.png"",""time"":101},{""stimulus"":""img/2to3/2.png"",""time"":200},{""stimulus"":""img/2to3/3.png"",""time"":299},{""stimulus"":""img/2to3/4.png"",""time"":398},{""stimulus"":""img/2to3/5.png"",""time"":496},{""stimulus"":""img/2to3/6.png"",""time"":596},{""stimulus"":""img/2to3/7.png"",""time"":694},{""stimulus"":""img/2to3/8.png"",""time"":794},{""stimulus"":""img/2to3/9.png"",""time"":893},{""stimulus"":""img/2to3/10.png"",""time"":992},{""stimulus"":""img/2to3/11.png"",""time"":1091},{""stimulus"":""img/2to3/12.png"",""time"":1189}]","[]"
"image-keyboard-response","44","263808","0.0-5.0-1.20","61650ba8e42101c561bf7335","bdp_cybrbll","Wed Mar 29 2023 13:15:56 GMT-0400 (Eastern Daylight Time)","624121","3","1","","null","","","","observe","","img/3to2/1.png","null","205","800","0.5","0.5","3","1","",""
"animation","45","265096","0.0-5.0-2.20","61650ba8e42101c561bf7335","bdp_cybrbll","Wed Mar 29 2023 13:15:56 GMT-0400 (Eastern Daylight Time)","624121","3","1","","","","","","","","","","205","","","","3","1","[{""stimulus"":""img/3to1/1.png"",""time"":102},{""stimulus"":""img/3to1/2.png"",""time"":200},{""stimulus"":""img/3to1/3.png"",""time"":298},{""stimulus"":""img/3to1/4.png"",""time"":398},{""stimulus"":""img/3to1/5.png"",""time"":497},{""stimulus"":""img/3to1/6.png"",""time"":595},{""stimulus"":""img/3to1/7.png"",""time"":695},{""stimulus"":""img/3to1/8.png"",""time"":793},{""stimulus"":""img/3to1/9.png"",""time"":893},{""stimulus"":""img/3to1/10.png"",""time"":992},{""stimulus"":""img/3to1/11.png"",""time"":1090},{""stimulus"":""img/3to1/12.png"",""time"":1189}]","[]"
"image-keyboard-response","46","265956","0.0-5.0-1.21","61650ba8e42101c561bf7335","bdp_cybrbll","Wed Mar 29 2023 13:15:56 GMT-0400 (Eastern Daylight Time)","624121","3","1","","null","","","","observe","","img/1to3/1.png","null","204","859","0.5","0.5","1","3","",""
"animation","47","267244","0.0-5.0-2.21","61650ba8e42101c561bf7335","bdp_cybrbll","Wed Mar 29 2023 13:15:56 GMT-0400 (Eastern Daylight Time)","624121","3","1","","","","","","","","","","204","","","","1","3","[{""stimulus"":""img/1to3/1.png"",""time"":100},{""stimulus"":""img/1to3/2.png"",""time"":199},{""stimulus"":""img/1to3/3.png"",""time"":299},{""stimulus"":""img/1to3/4.png"",""time"":398},{""stimulus"":""img/1to3/5.png"",""time"":497},{""stimulus"":""img/1to3/6.png"",""time"":595},{""stimulus"":""img/1to3/7.png"",""time"":695},{""stimulus"":""img/1to3/8.png"",""time"":794},{""stimulus"":""img/1to3/9.png"",""time"":892},{""stimulus"":""img/1to3/10.png"",""time"":991},{""stimulus"":""img/1to3/11.png"",""time"":1090},{""stimulus"":""img/1to3/12.png"",""time"":1189}]","[]"
"image-keyboard-response","48","267809","0.0-5.0-1.22","61650ba8e42101c561bf7335","bdp_cybrbll","Wed Mar 29 2023 13:15:56 GMT-0400 (Eastern Daylight Time)","624121","3","1","","null","","","","observe","","img/3to2/1.png","null","203","563","0.5","0.5","3","2","",""
"animation","49","269097","0.0-5.0-2.22","61650ba8e42101c561bf7335","bdp_cybrbll","Wed Mar 29 2023 13:15:56 GMT-0400 (Eastern Daylight Time)","624121","3","1","","","","","","","","","","203","","","","3","2","[{""stimulus"":""img/3to2/1.png"",""time"":101},{""stimulus"":""img/3to2/2.png"",""time"":199},{""stimulus"":""img/3to2/3.png"",""time"":298},{""stimulus"":""img/3to2/4.png"",""time"":397},{""stimulus"":""img/3to2/5.png"",""time"":496},{""stimulus"":""img/3to2/6.png"",""time"":596},{""stimulus"":""img/3to2/7.png"",""time"":695},{""stimulus"":""img/3to2/8.png"",""time"":794},{""stimulus"":""img/3to2/9.png"",""time"":893},{""stimulus"":""img/3to2/10.png"",""time"":997},{""stimulus"":""img/3to2/11.png"",""time"":1091},{""stimulus"":""img/3to2/12.png"",""time"":1190}]","[]"
"image-keyboard-response","50","269332","0.0-5.0-1.23","61650ba8e42101c561bf7335","bdp_cybrbll","Wed Mar 29 2023 13:15:56 GMT-0400 (Eastern Daylight Time)","624121","3","1","","234","","","","choice","","img/2to1/1.png","1","202","328","0.5","0.5","2","1","",""
"animation","51","270620","0.0-5.0-2.23","61650ba8e42101c561bf7335","bdp_cybrbll","Wed Mar 29 2023 13:15:56 GMT-0400 (Eastern Daylight Time)","624121","3","1","","","","","","","","","","202","","","","2","1","[{""stimulus"":""img/2to1/1.png"",""time"":101},{""stimulus"":""img/2to1/2.png"",""time"":200},{""stimulus"":""img/2to1/3.png"",""time"":299},{""stimulus"":""img/2to1/4.png"",""time"":397},{""stimulus"":""img/2to1/5.png"",""time"":496},{""stimulus"":""img/2to1/6.png"",""time"":595},{""stimulus"":""img/2to1/7.png"",""time"":695},{""stimulus"":""img/2to1/8.png"",""time"":793},{""stimulus"":""img/2to1/9.png"",""time"":893},{""stimulus"":""img/2to1/10.png"",""time"":991},{""stimulus"":""img/2to1/11.png"",""time"":1091},{""stimulus"":""img/2to1/12.png"",""time"":1189}]","[]"
"image-keyboard-response","52","271178","0.0-5.0-1.24","61650ba8e42101c561bf7335","bdp_cybrbll","Wed Mar 29 2023 13:15:56 GMT-0400 (Eastern Daylight Time)","624121","3","1","","null","","","","observe","","img/1to3/1.png","null","201","556","0.5","0.5","1","2","",""
"animation","53","272465","0.0-5.0-2.24","61650ba8e42101c561bf7335","bdp_cybrbll","Wed Mar 29 2023 13:15:56 GMT-0400 (Eastern Daylight Time)","624121","3","1","","","","","","","","","","201","","","","1","2","[{""stimulus"":""img/1to2/1.png"",""time"":100},{""stimulus"":""img/1to2/2.png"",""time"":199},{""stimulus"":""img/1to2/3.png"",""time"":298},{""stimulus"":""img/1to2/4.png"",""time"":397},{""stimulus"":""img/1to2/5.png"",""time"":497},{""stimulus"":""img/1to2/6.png"",""time"":595},{""stimulus"":""img/1to2/7.png"",""time"":694},{""stimulus"":""img/1to2/8.png"",""time"":793},{""stimulus"":""img/1to2/9.png"",""time"":892},{""stimulus"":""img/1to2/10.png"",""time"":992},{""stimulus"":""img/1to2/11.png"",""time"":1090},{""stimulus"":""img/1to2/12.png"",""time"":1189}]","[]"
"image-keyboard-response","54","272574","0.0-5.0-1.25","61650ba8e42101c561bf7335","bdp_cybrbll","Wed Mar 29 2023 13:15:56 GMT-0400 (Eastern Daylight Time)","624121","3","1","","108","","","","choice","","img/2to1/1.png","1","200","359","0.5","0.5","2","1","",""
"animation","55","273863","0.0-5.0-2.25","61650ba8e42101c561bf7335","bdp_cybrbll","Wed Mar 29 2023 13:15:56 GMT-0400 (Eastern Daylight Time)","624121","3","1","","","","","","","","","","200","","","","2","1","[{""stimulus"":""img/2to1/1.png"",""time"":99},{""stimulus"":""img/2to1/2.png"",""time"":198},{""stimulus"":""img/2to1/3.png"",""time"":299},{""stimulus"":""img/2to1/4.png"",""time"":397},{""stimulus"":""img/2to1/5.png"",""time"":495},{""stimulus"":""img/2to1/6.png"",""time"":595},{""stimulus"":""img/2to1/7.png"",""time"":694},{""stimulus"":""img/2to1/8.png"",""time"":793},{""stimulus"":""img/2to1/9.png"",""time"":892},{""stimulus"":""img/2to1/10.png"",""time"":991},{""stimulus"":""img/2to1/11.png"",""time"":1090},{""stimulus"":""img/2to1/12.png"",""time"":1189}]","[]"
"image-keyboard-response","56","274080","0.0-5.0-1.26","61650ba8e42101c561bf7335","bdp_cybrbll","Wed Mar 29 2023 13:15:56 GMT-0400 (Eastern Daylight Time)","624121","3","1","","null","","","","observe","","img/1to3/1.png","null","199","216","0.5","0.5","1","2","",""
"animation","57","275367","0.0-5.0-2.26","61650ba8e42101c561bf7335","bdp_cybrbll","Wed Mar 29 2023 13:15:56 GMT-0400 (Eastern Daylight Time)","624121","3","1","","","","","","","","","","199","","","","1","2","[{""stimulus"":""img/1to2/1.png"",""time"":101},{""stimulus"":""img/1to2/2.png"",""time"":199},{""stimulus"":""img/1to2/3.png"",""time"":298},{""stimulus"":""img/1to2/4.png"",""time"":398},{""stimulus"":""img/1to2/5.png"",""time"":496},{""stimulus"":""img/1to2/6.png"",""time"":595},{""stimulus"":""img/1to2/7.png"",""time"":694},{""stimulus"":""img/1to2/8.png"",""time"":793},{""stimulus"":""img/1to2/9.png"",""time"":892},{""stimulus"":""img/1to2/10.png"",""time"":991},{""stimulus"":""img/1to2/11.png"",""time"":1090},{""stimulus"":""img/1to2/12.png"",""time"":1189}]","[]"
"image-keyboard-response","58","275505","0.0-5.0-1.27","61650ba8e42101c561bf7335","bdp_cybrbll","Wed Mar 29 2023 13:15:56 GMT-0400 (Eastern Daylight Time)","624121","3","1","","137","","","","choice","","img/2to1/1.png","2","198","238","0.5","0.5","2","3","",""
"animation","59","276793","0.0-5.0-2.27","61650ba8e42101c561bf7335","bdp_cybrbll","Wed Mar 29 2023 13:15:56 GMT-0400 (Eastern Daylight Time)","624121","3","1","","","","","","","","","","198","","","","2","3","[{""stimulus"":""img/2to3/1.png"",""time"":101},{""stimulus"":""img/2to3/2.png"",""time"":199},{""stimulus"":""img/2to3/3.png"",""time"":298},{""stimulus"":""img/2to3/4.png"",""time"":398},{""stimulus"":""img/2to3/5.png"",""time"":496},{""stimulus"":""img/2to3/6.png"",""time"":595},{""stimulus"":""img/2to3/7.png"",""time"":695},{""stimulus"":""img/2to3/8.png"",""time"":793},{""stimulus"":""img/2to3/9.png"",""time"":894},{""stimulus"":""img/2to3/10.png"",""time"":992},{""stimulus"":""img/2to3/11.png"",""time"":1090},{""stimulus"":""img/2to3/12.png"",""time"":1189}]","[]"
"image-keyboard-response","60","277187","0.0-5.0-1.28","61650ba8e42101c561bf7335","bdp_cybrbll","Wed Mar 29 2023 13:15:56 GMT-0400 (Eastern Daylight Time)","624121","3","1","","null","","","","observe","","img/3to2/1.png","null","197","392","0.5","0.5","3","2","",""
"animation","61","278475","0.0-5.0-2.28","61650ba8e42101c561bf7335","bdp_cybrbll","Wed Mar 29 2023 13:15:56 GMT-0400 (Eastern Daylight Time)","624121","3","1","","","","","","","","","","197","","","","3","2","[{""stimulus"":""img/3to2/1.png"",""time"":101},{""stimulus"":""img/3to2/2.png"",""time"":199},{""stimulus"":""img/3to2/3.png"",""time"":298},{""stimulus"":""img/3to2/4.png"",""time"":397},{""stimulus"":""img/3to2/5.png"",""time"":496},{""stimulus"":""img/3to2/6.png"",""time"":595},{""stimulus"":""img/3to2/7.png"",""time"":695},{""stimulus"":""img/3to2/8.png"",""time"":794},{""stimulus"":""img/3to2/9.png"",""time"":892},{""stimulus"":""img/3to2/10.png"",""time"":991},{""stimulus"":""img/3to2/11.png"",""time"":1090},{""stimulus"":""img/3to2/12.png"",""time"":1189}]","[]"
"image-keyboard-response","62","278564","0.0-5.0-1.29","61650ba8e42101c561bf7335","bdp_cybrbll","Wed Mar 29 2023 13:15:56 GMT-0400 (Eastern Daylight Time)","624121","3","1","","88","","","","choice","","img/2to1/1.png","2","196","311","0.5","0.5","2","3","",""
"animation","63","279852","0.0-5.0-2.29","61650ba8e42101c561bf7335","bdp_cybrbll","Wed Mar 29 2023 13:15:56 GMT-0400 (Eastern Daylight Time)","624121","3","1","","","","","","","","","","196","","","","2","3","[{""stimulus"":""img/2to3/1.png"",""time"":101},{""stimulus"":""img/2to3/2.png"",""time"":199},{""stimulus"":""img/2to3/3.png"",""time"":298},{""stimulus"":""img/2to3/4.png"",""time"":397},{""stimulus"":""img/2to3/5.png"",""time"":496},{""stimulus"":""img/2to3/6.png"",""time"":595},{""stimulus"":""img/2to3/7.png"",""time"":695},{""stimulus"":""img/2to3/8.png"",""time"":804},{""stimulus"":""img/2to3/9.png"",""time"":893},{""stimulus"":""img/2to3/10.png"",""time"":992},{""stimulus"":""img/2to3/11.png"",""time"":1090},{""stimulus"":""img/2to3/12.png"",""time"":1189}]","[]"
"image-keyboard-response","64","280107","0.0-5.0-1.30","61650ba8e42101c561bf7335","bdp_cybrbll","Wed Mar 29 2023 13:15:56 GMT-0400 (Eastern Daylight Time)","624121","3","1","","null","","","","observe","","img/3to2/1.png","null","195","253","0.5","0.5","3","1","",""
"animation","65","281396","0.0-5.0-2.30","61650ba8e42101c561bf7335","bdp_cybrbll","Wed Mar 29 2023 13:15:56 GMT-0400 (Eastern Daylight Time)","624121","3","1","","","","","","","","","","195","","","","3","1","[{""stimulus"":""img/3to1/1.png"",""time"":100},{""stimulus"":""img/3to1/2.png"",""time"":198},{""stimulus"":""img/3to1/3.png"",""time"":298},{""stimulus"":""img/3to1/4.png"",""time"":397},{""stimulus"":""img/3to1/5.png"",""time"":496},{""stimulus"":""img/3to1/6.png"",""time"":595},{""stimulus"":""img/3to1/7.png"",""time"":694},{""stimulus"":""img/3to1/8.png"",""time"":793},{""stimulus"":""img/3to1/9.png"",""time"":892},{""stimulus"":""img/3to1/10.png"",""time"":990},{""stimulus"":""img/3to1/11.png"",""time"":1090},{""stimulus"":""img/3to1/12.png"",""time"":1189}]","[]"
"image-keyboard-response","66","281755","0.0-5.0-1.31","61650ba8e42101c561bf7335","bdp_cybrbll","Wed Mar 29 2023 13:15:56 GMT-0400 (Eastern Daylight Time)","624121","3","1","","null","","","","observe","","img/1to3/1.png","null","194","358","0.5","0.5","1","3","",""
"animation","67","283043","0.0-5.0-2.31","61650ba8e42101c561bf7335","bdp_cybrbll","Wed Mar 29 2023 13:15:56 GMT-0400 (Eastern Daylight Time)","624121","3","1","","","","","","","","","","194","","","","1","3","[{""stimulus"":""img/1to3/1.png"",""time"":99},{""stimulus"":""img/1to3/2.png"",""time"":199},{""stimulus"":""img/1to3/3.png"",""time"":298},{""stimulus"":""img/1to3/4.png"",""time"":398},{""stimulus"":""img/1to3/5.png"",""time"":496},{""stimulus"":""img/1to3/6.png"",""time"":594},{""stimulus"":""img/1to3/7.png"",""time"":694},{""stimulus"":""img/1to3/8.png"",""time"":793},{""stimulus"":""img/1to3/9.png"",""time"":891},{""stimulus"":""img/1to3/10.png"",""time"":992},{""stimulus"":""img/1to3/11.png"",""time"":1090},{""stimulus"":""img/1to3/12.png"",""time"":1190}]","[]"
"image-keyboard-response","68","283571","0.0-5.0-1.32","61650ba8e42101c561bf7335","bdp_cybrbll","Wed Mar 29 2023 13:15:56 GMT-0400 (Eastern Daylight Time)","624121","3","1","","null","","","","observe","","img/3to2/1.png","null","193","526","0.5","0.5","3","2","",""
"animation","69","284858","0.0-5.0-2.32","61650ba8e42101c561bf7335","bdp_cybrbll","Wed Mar 29 2023 13:15:56 GMT-0400 (Eastern Daylight Time)","624121","3","1","","","","","","","","","","193","","","","3","2","[{""stimulus"":""img/3to2/1.png"",""time"":101},{""stimulus"":""img/3to2/2.png"",""time"":199},{""stimulus"":""img/3to2/3.png"",""time"":299},{""stimulus"":""img/3to2/4.png"",""time"":398},{""stimulus"":""img/3to2/5.png"",""time"":496},{""stimulus"":""img/3to2/6.png"",""time"":595},{""stimulus"":""img/3to2/7.png"",""time"":694},{""stimulus"":""img/3to2/8.png"",""time"":794},{""stimulus"":""img/3to2/9.png"",""time"":892},{""stimulus"":""img/3to2/10.png"",""time"":991},{""stimulus"":""img/3to2/11.png"",""time"":1090},{""stimulus"":""img/3to2/12.png"",""time"":1190}]","[]"
"image-keyboard-response","70","284860","0.0-5.0-1.33","61650ba8e42101c561bf7335","bdp_cybrbll","Wed Mar 29 2023 13:15:56 GMT-0400 (Eastern Daylight Time)","624121","3","1","","1","","","","choice","","img/2to1/1.png","2","192","280","0.5","0.5","2","3","",""
"animation","71","286149","0.0-5.0-2.33","61650ba8e42101c561bf7335","bdp_cybrbll","Wed Mar 29 2023 13:15:56 GMT-0400 (Eastern Daylight Time)","624121","3","1","","","","","","","","","","192","","","","2","3","[{""stimulus"":""img/2to3/1.png"",""time"":101},{""stimulus"":""img/2to3/2.png"",""time"":199},{""stimulus"":""img/2to3/3.png"",""time"":298},{""stimulus"":""img/2to3/4.png"",""time"":396},{""stimulus"":""img/2to3/5.png"",""time"":496},{""stimulus"":""img/2to3/6.png"",""time"":595},{""stimulus"":""img/2to3/7.png"",""time"":694},{""stimulus"":""img/2to3/8.png"",""time"":794},{""stimulus"":""img/2to3/9.png"",""time"":892},{""stimulus"":""img/2to3/10.png"",""time"":990},{""stimulus"":""img/2to3/11.png"",""time"":1090},{""stimulus"":""img/2to3/12.png"",""time"":1189}]","[]"
"image-keyboard-response","72","286831","0.0-5.0-1.34","61650ba8e42101c561bf7335","bdp_cybrbll","Wed Mar 29 2023 13:15:56 GMT-0400 (Eastern Daylight Time)","624121","3","1","","null","","","","observe","","img/3to2/1.png","null","191","680","0.5","0.5","3","2","",""
"animation","73","288120","0.0-5.0-2.34","61650ba8e42101c561bf7335","bdp_cybrbll","Wed Mar 29 2023 13:15:56 GMT-0400 (Eastern Daylight Time)","624121","3","1","","","","","","","","","","191","","","","3","2","[{""stimulus"":""img/3to2/1.png"",""time"":101},{""stimulus"":""img/3to2/2.png"",""time"":201},{""stimulus"":""img/3to2/3.png"",""time"":299},{""stimulus"":""img/3to2/4.png"",""time"":397},{""stimulus"":""img/3to2/5.png"",""time"":496},{""stimulus"":""img/3to2/6.png"",""time"":594},{""stimulus"":""img/3to2/7.png"",""time"":694},{""stimulus"":""img/3to2/8.png"",""time"":793},{""stimulus"":""img/3to2/9.png"",""time"":892},{""stimulus"":""img/3to2/10.png"",""time"":991},{""stimulus"":""img/3to2/11.png"",""time"":1089},{""stimulus"":""img/3to2/12.png"",""time"":1189}]","[]"
"image-keyboard-response","74","288450","0.0-5.0-1.35","61650ba8e42101c561bf7335","bdp_cybrbll","Wed Mar 29 2023 13:15:56 GMT-0400 (Eastern Daylight Time)","624121","3","1","","330","","","","choice","","img/2to1/1.png","1","190","367","0.5","0.5","2","1","",""
"animation","75","289739","0.0-5.0-2.35","61650ba8e42101c561bf7335","bdp_cybrbll","Wed Mar 29 2023 13:15:56 GMT-0400 (Eastern Daylight Time)","624121","3","1","","","","","","","","","","190","","","","2","1","[{""stimulus"":""img/2to1/1.png"",""time"":100},{""stimulus"":""img/2to1/2.png"",""time"":199},{""stimulus"":""img/2to1/3.png"",""time"":298},{""stimulus"":""img/2to1/4.png"",""time"":397},{""stimulus"":""img/2to1/5.png"",""time"":496},{""stimulus"":""img/2to1/6.png"",""time"":596},{""stimulus"":""img/2to1/7.png"",""time"":693},{""stimulus"":""img/2to1/8.png"",""time"":792},{""stimulus"":""img/2to1/9.png"",""time"":892},{""stimulus"":""img/2to1/10.png"",""time"":990},{""stimulus"":""img/2to1/11.png"",""time"":1090},{""stimulus"":""img/2to1/12.png"",""time"":1189}]","[]"
"image-keyboard-response","76","290129","0.0-5.0-1.36","61650ba8e42101c561bf7335","bdp_cybrbll","Wed Mar 29 2023 13:15:56 GMT-0400 (Eastern Daylight Time)","624121","3","1","","null","","","","observe","","img/1to3/1.png","null","189","388","0.5","0.5","1","2","",""
"animation","77","291418","0.0-5.0-2.36","61650ba8e42101c561bf7335","bdp_cybrbll","Wed Mar 29 2023 13:15:56 GMT-0400 (Eastern Daylight Time)","624121","3","1","","","","","","","","","","189","","","","1","2","[{""stimulus"":""img/1to2/1.png"",""time"":101},{""stimulus"":""img/1to2/2.png"",""time"":199},{""stimulus"":""img/1to2/3.png"",""time"":298},{""stimulus"":""img/1to2/4.png"",""time"":398},{""stimulus"":""img/1to2/5.png"",""time"":497},{""stimulus"":""img/1to2/6.png"",""time"":596},{""stimulus"":""img/1to2/7.png"",""time"":695},{""stimulus"":""img/1to2/8.png"",""time"":794},{""stimulus"":""img/1to2/9.png"",""time"":892},{""stimulus"":""img/1to2/10.png"",""time"":991},{""stimulus"":""img/1to2/11.png"",""time"":1091},{""stimulus"":""img/1to2/12.png"",""time"":1190}]","[]"
"image-keyboard-response","78","291454","0.0-5.0-1.37","61650ba8e42101c561bf7335","bdp_cybrbll","Wed Mar 29 2023 13:15:56 GMT-0400 (Eastern Daylight Time)","624121","3","1","","36","","","","choice","","img/2to1/1.png","2","188","408","0.5","0.5","2","3","",""
"animation","79","292743","0.0-5.0-2.37","61650ba8e42101c561bf7335","bdp_cybrbll","Wed Mar 29 2023 13:15:56 GMT-0400 (Eastern Daylight Time)","624121","3","1","","","","","","","","","","188","","","","2","3","[{""stimulus"":""img/2to3/1.png"",""time"":100},{""stimulus"":""img/2to3/2.png"",""time"":199},{""stimulus"":""img/2to3/3.png"",""time"":298},{""stimulus"":""img/2to3/4.png"",""time"":396},{""stimulus"":""img/2to3/5.png"",""time"":497},{""stimulus"":""img/2to3/6.png"",""time"":595},{""stimulus"":""img/2to3/7.png"",""time"":694},{""stimulus"":""img/2to3/8.png"",""time"":793},{""stimulus"":""img/2to3/9.png"",""time"":891},{""stimulus"":""img/2to3/10.png"",""time"":991},{""stimulus"":""img/2to3/11.png"",""time"":1103},{""stimulus"":""img/2to3/12.png"",""time"":1189}]","[]"
"image-keyboard-response","80","293106","0.0-5.0-1.38","61650ba8e42101c561bf7335","bdp_cybrbll","Wed Mar 29 2023 13:15:56 GMT-0400 (Eastern Daylight Time)","624121","3","1","","null","","","","observe","","img/3to2/1.png","null","187","361","0.5","0.5","3","1","",""
"animation","81","294394","0.0-5.0-2.38","61650ba8e42101c561bf7335","bdp_cybrbll","Wed Mar 29 2023 13:15:56 GMT-0400 (Eastern Daylight Time)","624121","3","1","","","","","","","","","","187","","","","3","1","[{""stimulus"":""img/3to1/1.png"",""time"":101},{""stimulus"":""img/3to1/2.png"",""time"":200},{""stimulus"":""img/3to1/3.png"",""time"":299},{""stimulus"":""img/3to1/4.png"",""time"":398},{""stimulus"":""img/3to1/5.png"",""time"":497},{""stimulus"":""img/3to1/6.png"",""time"":595},{""stimulus"":""img/3to1/7.png"",""time"":694},{""stimulus"":""img/3to1/8.png"",""time"":794},{""stimulus"":""img/3to1/9.png"",""time"":893},{""stimulus"":""img/3to1/10.png"",""time"":991},{""stimulus"":""img/3to1/11.png"",""time"":1090},{""stimulus"":""img/3to1/12.png"",""time"":1190}]","[]"
"image-keyboard-response","82","294657","0.0-5.0-1.39","61650ba8e42101c561bf7335","bdp_cybrbll","Wed Mar 29 2023 13:15:56 GMT-0400 (Eastern Daylight Time)","624121","3","1","","null","","","","observe","","img/1to3/1.png","null","186","261","0.5","0.5","1","3","",""
"animation","83","295945","0.0-5.0-2.39","61650ba8e42101c561bf7335","bdp_cybrbll","Wed Mar 29 2023 13:15:56 GMT-0400 (Eastern Daylight Time)","624121","3","1","","","","","","","","","","186","","","","1","3","[{""stimulus"":""img/1to3/1.png"",""time"":99},{""stimulus"":""img/1to3/2.png"",""time"":199},{""stimulus"":""img/1to3/3.png"",""time"":297},{""stimulus"":""img/1to3/4.png"",""time"":397},{""stimulus"":""img/1to3/5.png"",""time"":495},{""stimulus"":""img/1to3/6.png"",""time"":595},{""stimulus"":""img/1to3/7.png"",""time"":695},{""stimulus"":""img/1to3/8.png"",""time"":792},{""stimulus"":""img/1to3/9.png"",""time"":893},{""stimulus"":""img/1to3/10.png"",""time"":990},{""stimulus"":""img/1to3/11.png"",""time"":1089},{""stimulus"":""img/1to3/12.png"",""time"":1189}]","[]"
"image-keyboard-response","84","296323","0.0-5.0-1.40","61650ba8e42101c561bf7335","bdp_cybrbll","Wed Mar 29 2023 13:15:56 GMT-0400 (Eastern Daylight Time)","624121","3","1","","null","","","","observe","","img/3to2/1.png","null","185","377","0.5","0.5","3","2","",""
"animation","85","297611","0.0-5.0-2.40","61650ba8e42101c561bf7335","bdp_cybrbll","Wed Mar 29 2023 13:15:56 GMT-0400 (Eastern Daylight Time)","624121","3","1","","","","","","","","","","185","","","","3","2","[{""stimulus"":""img/3to2/1.png"",""time"":101},{""stimulus"":""img/3to2/2.png"",""time"":200},{""stimulus"":""img/3to2/3.png"",""time"":299},{""stimulus"":""img/3to2/4.png"",""time"":397},{""stimulus"":""img/3to2/5.png"",""time"":497},{""stimulus"":""img/3to2/6.png"",""time"":596},{""stimulus"":""img/3to2/7.png"",""time"":694},{""stimulus"":""img/3to2/8.png"",""time"":793},{""stimulus"":""img/3to2/9.png"",""time"":892},{""stimulus"":""img/3to2/10.png"",""time"":991},{""stimulus"":""img/3to2/11.png"",""time"":1091},{""stimulus"":""img/3to2/12.png"",""time"":1189}]","[]"
"image-keyboard-response","86","298776","0.0-5.0-1.41","61650ba8e42101c561bf7335","bdp_cybrbll","Wed Mar 29 2023 13:15:56 GMT-0400 (Eastern Daylight Time)","624121","3","1","","1165","","","","choice","","img/2to1/1.png","1","184","618","0.5","0.5","2","1","",""
"animation","87","300064","0.0-5.0-2.41","61650ba8e42101c561bf7335","bdp_cybrbll","Wed Mar 29 2023 13:15:56 GMT-0400 (Eastern Daylight Time)","624121","3","1","","","","","","","","","","184","","","","2","1","[{""stimulus"":""img/2to1/1.png"",""time"":102},{""stimulus"":""img/2to1/2.png"",""time"":199},{""stimulus"":""img/2to1/3.png"",""time"":298},{""stimulus"":""img/2to1/4.png"",""time"":397},{""stimulus"":""img/2to1/5.png"",""time"":496},{""stimulus"":""img/2to1/6.png"",""time"":596},{""stimulus"":""img/2to1/7.png"",""time"":694},{""stimulus"":""img/2to1/8.png"",""time"":793},{""stimulus"":""img/2to1/9.png"",""time"":892},{""stimulus"":""img/2to1/10.png"",""time"":992},{""stimulus"":""img/2to1/11.png"",""time"":1090},{""stimulus"":""img/2to1/12.png"",""time"":1189}]","[]"
"image-keyboard-response","88","300755","0.0-5.0-1.42","61650ba8e42101c561bf7335","bdp_cybrbll","Wed Mar 29 2023 13:15:56 GMT-0400 (Eastern Daylight Time)","624121","3","1","","null","","","","observe","","img/1to3/1.png","null","183","687","0.5","0.5","1","3","",""
"animation","89","302043","0.0-5.0-2.42","61650ba8e42101c561bf7335","bdp_cybrbll","Wed Mar 29 2023 13:15:56 GMT-0400 (Eastern Daylight Time)","624121","3","1","","","","","","","","","","183","","","","1","3","[{""stimulus"":""img/1to3/1.png"",""time"":100},{""stimulus"":""img/1to3/2.png"",""time"":199},{""stimulus"":""img/1to3/3.png"",""time"":298},{""stimulus"":""img/1to3/4.png"",""time"":397},{""stimulus"":""img/1to3/5.png"",""time"":496},{""stimulus"":""img/1to3/6.png"",""time"":595},{""stimulus"":""img/1to3/7.png"",""time"":696},{""stimulus"":""img/1to3/8.png"",""time"":793},{""stimulus"":""img/1to3/9.png"",""time"":893},{""stimulus"":""img/1to3/10.png"",""time"":992},{""stimulus"":""img/1to3/11.png"",""time"":1090},{""stimulus"":""img/1to3/12.png"",""time"":1190}]","[]"
"image-keyboard-response","90","302498","0.0-5.0-1.43","61650ba8e42101c561bf7335","bdp_cybrbll","Wed Mar 29 2023 13:15:56 GMT-0400 (Eastern Daylight Time)","624121","3","1","","null","","","","observe","","img/3to2/1.png","null","182","453","0.5","0.5","3","2","",""
"animation","91","303787","0.0-5.0-2.43","61650ba8e42101c561bf7335","bdp_cybrbll","Wed Mar 29 2023 13:15:56 GMT-0400 (Eastern Daylight Time)","624121","3","1","","","","","","","","","","182","","","","3","2","[{""stimulus"":""img/3to2/1.png"",""time"":101},{""stimulus"":""img/3to2/2.png"",""time"":199},{""stimulus"":""img/3to2/3.png"",""time"":297},{""stimulus"":""img/3to2/4.png"",""time"":396},{""stimulus"":""img/3to2/5.png"",""time"":496},{""stimulus"":""img/3to2/6.png"",""time"":595},{""stimulus"":""img/3to2/7.png"",""time"":694},{""stimulus"":""img/3to2/8.png"",""time"":792},{""stimulus"":""img/3to2/9.png"",""time"":891},{""stimulus"":""img/3to2/10.png"",""time"":991},{""stimulus"":""img/3to2/11.png"",""time"":1090},{""stimulus"":""img/3to2/12.png"",""time"":1189}]","[]"
"image-keyboard-response","92","304046","0.0-5.0-1.44","61650ba8e42101c561bf7335","bdp_cybrbll","Wed Mar 29 2023 13:15:56 GMT-0400 (Eastern Daylight Time)","624121","3","1","","257","","","","choice","","img/2to1/1.png","2","181","498","0.5","0.5","2","3","",""
"animation","93","305333","0.0-5.0-2.44","61650ba8e42101c561bf7335","bdp_cybrbll","Wed Mar 29 2023 13:15:56 GMT-0400 (Eastern Daylight Time)","624121","3","1","","","","","","","","","","181","","","","2","3","[{""stimulus"":""img/2to3/1.png"",""time"":100},{""stimulus"":""img/2to3/2.png"",""time"":199},{""stimulus"":""img/2to3/3.png"",""time"":299},{""stimulus"":""img/2to3/4.png"",""time"":397},{""stimulus"":""img/2to3/5.png"",""time"":496},{""stimulus"":""img/2to3/6.png"",""time"":595},{""stimulus"":""img/2to3/7.png"",""time"":695},{""stimulus"":""img/2to3/8.png"",""time"":794},{""stimulus"":""img/2to3/9.png"",""time"":893},{""stimulus"":""img/2to3/10.png"",""time"":992},{""stimulus"":""img/2to3/11.png"",""time"":1090},{""stimulus"":""img/2to3/12.png"",""time"":1189}]","[]"
"image-keyboard-response","94","305683","0.0-5.0-1.45","61650ba8e42101c561bf7335","bdp_cybrbll","Wed Mar 29 2023 13:15:56 GMT-0400 (Eastern Daylight Time)","624121","3","1","","null","","","","observe","","img/3to2/1.png","null","180","347","0.5","0.5","3","1","",""
"animation","95","306972","0.0-5.0-2.45","61650ba8e42101c561bf7335","bdp_cybrbll","Wed Mar 29 2023 13:15:56 GMT-0400 (Eastern Daylight Time)","624121","3","1","","","","","","","","","","180","","","","3","1","[{""stimulus"":""img/3to1/1.png"",""time"":100},{""stimulus"":""img/3to1/2.png"",""time"":199},{""stimulus"":""img/3to1/3.png"",""time"":299},{""stimulus"":""img/3to1/4.png"",""time"":397},{""stimulus"":""img/3to1/5.png"",""time"":496},{""stimulus"":""img/3to1/6.png"",""time"":596},{""stimulus"":""img/3to1/7.png"",""time"":694},{""stimulus"":""img/3to1/8.png"",""time"":794},{""stimulus"":""img/3to1/9.png"",""time"":892},{""stimulus"":""img/3to1/10.png"",""time"":992},{""stimulus"":""img/3to1/11.png"",""time"":1091},{""stimulus"":""img/3to1/12.png"",""time"":1189}]","[]"
"image-keyboard-response","96","307234","0.0-5.0-1.46","61650ba8e42101c561bf7335","bdp_cybrbll","Wed Mar 29 2023 13:15:56 GMT-0400 (Eastern Daylight Time)","624121","3","1","","null","","","","observe","","img/1to3/1.png","null","179","261","0.5","0.5","1","3","",""
"animation","97","308522","0.0-5.0-2.46","61650ba8e42101c561bf7335","bdp_cybrbll","Wed Mar 29 2023 13:15:56 GMT-0400 (Eastern Daylight Time)","624121","3","1","","","","","","","","","","179","","","","1","3","[{""stimulus"":""img/1to3/1.png"",""time"":100},{""stimulus"":""img/1to3/2.png"",""time"":199},{""stimulus"":""img/1to3/3.png"",""time"":298},{""stimulus"":""img/1to3/4.png"",""time"":396},{""stimulus"":""img/1to3/5.png"",""time"":495},{""stimulus"":""img/1to3/6.png"",""time"":595},{""stimulus"":""img/1to3/7.png"",""time"":694},{""stimulus"":""img/1to3/8.png"",""time"":792},{""stimulus"":""img/1to3/9.png"",""time"":892},{""stimulus"":""img/1to3/10.png"",""time"":991},{""stimulus"":""img/1to3/11.png"",""time"":1090},{""stimulus"":""img/1to3/12.png"",""time"":1189}]","[]"
"image-keyboard-response","98","309226","0.0-5.0-1.47","61650ba8e42101c561bf7335","bdp_cybrbll","Wed Mar 29 2023 13:15:56 GMT-0400 (Eastern Daylight Time)","624121","3","1","","null","","","","observe","","img/3to2/1.png","null","178","704","0.5","0.5","3","2","",""
"animation","99","310514","0.0-5.0-2.47","61650ba8e42101c561bf7335","bdp_cybrbll","Wed Mar 29 2023 13:15:56 GMT-0400 (Eastern Daylight Time)","624121","3","1","","","","","","","","","","178","","","","3","2","[{""stimulus"":""img/3to2/1.png"",""time"":101},{""stimulus"":""img/3to2/2.png"",""time"":199},{""stimulus"":""img/3to2/3.png"",""time"":299},{""stimulus"":""img/3to2/4.png"",""time"":399},{""stimulus"":""img/3to2/5.png"",""time"":495},{""stimulus"":""img/3to2/6.png"",""time"":595},{""stimulus"":""img/3to2/7.png"",""time"":695},{""stimulus"":""img/3to2/8.png"",""time"":793},{""stimulus"":""img/3to2/9.png"",""time"":892},{""stimulus"":""img/3to2/10.png"",""time"":991},{""stimulus"":""img/3to2/11.png"",""time"":1090},{""stimulus"":""img/3to2/12.png"",""time"":1190}]","[]"
"image-keyboard-response","100","310667","0.0-5.0-1.48","61650ba8e42101c561bf7335","bdp_cybrbll","Wed Mar 29 2023 13:15:56 GMT-0400 (Eastern Daylight Time)","624121","3","1","","152","","","","choice","","img/2to1/1.png","1","177","744","0.5","0.5","2","1","",""
"animation","101","311956","0.0-5.0-2.48","61650ba8e42101c561bf7335","bdp_cybrbll","Wed Mar 29 2023 13:15:56 GMT-0400 (Eastern Daylight Time)","624121","3","1","","","","","","","","","","177","","","","2","1","[{""stimulus"":""img/2to1/1.png"",""time"":101},{""stimulus"":""img/2to1/2.png"",""time"":199},{""stimulus"":""img/2to1/3.png"",""time"":299},{""stimulus"":""img/2to1/4.png"",""time"":398},{""stimulus"":""img/2to1/5.png"",""time"":497},{""stimulus"":""img/2to1/6.png"",""time"":595},{""stimulus"":""img/2to1/7.png"",""time"":694},{""stimulus"":""img/2to1/8.png"",""time"":793},{""stimulus"":""img/2to1/9.png"",""time"":893},{""stimulus"":""img/2to1/10.png"",""time"":991},{""stimulus"":""img/2to1/11.png"",""time"":1091},{""stimulus"":""img/2to1/12.png"",""time"":1190}]","[]"
"image-keyboard-response","102","312282","0.0-5.0-1.49","61650ba8e42101c561bf7335","bdp_cybrbll","Wed Mar 29 2023 13:15:56 GMT-0400 (Eastern Daylight Time)","624121","3","1","","null","","","","observe","","img/1to3/1.png","null","176","325","0.5","0.5","1","2","",""
"animation","103","313570","0.0-5.0-2.49","61650ba8e42101c561bf7335","bdp_cybrbll","Wed Mar 29 2023 13:15:56 GMT-0400 (Eastern Daylight Time)","624121","3","1","","","","","","","","","","176","","","","1","2","[{""stimulus"":""img/1to2/1.png"",""time"":100},{""stimulus"":""img/1to2/2.png"",""time"":199},{""stimulus"":""img/1to2/3.png"",""time"":298},{""stimulus"":""img/1to2/4.png"",""time"":397},{""stimulus"":""img/1to2/5.png"",""time"":495},{""stimulus"":""img/1to2/6.png"",""time"":594},{""stimulus"":""img/1to2/7.png"",""time"":693},{""stimulus"":""img/1to2/8.png"",""time"":794},{""stimulus"":""img/1to2/9.png"",""time"":891},{""stimulus"":""img/1to2/10.png"",""time"":991},{""stimulus"":""img/1to2/11.png"",""time"":1090},{""stimulus"":""img/1to2/12.png"",""time"":1189}]","[]"
"image-keyboard-response","104","314033","0.0-5.0-1.50","61650ba8e42101c561bf7335","bdp_cybrbll","Wed Mar 29 2023 13:15:56 GMT-0400 (Eastern Daylight Time)","624121","3","1","","462","","","","choice","","img/2to1/1.png","2","175","1632","0.5","0.5","2","3","",""
"animation","105","315321","0.0-5.0-2.50","61650ba8e42101c561bf7335","bdp_cybrbll","Wed Mar 29 2023 13:15:56 GMT-0400 (Eastern Daylight Time)","624121","3","1","","","","","","","","","","175","","","","2","3","[{""stimulus"":""img/2to3/1.png"",""time"":100},{""stimulus"":""img/2to3/2.png"",""time"":200},{""stimulus"":""img/2to3/3.png"",""time"":298},{""stimulus"":""img/2to3/4.png"",""time"":397},{""stimulus"":""img/2to3/5.png"",""time"":498},{""stimulus"":""img/2to3/6.png"",""time"":595},{""stimulus"":""img/2to3/7.png"",""time"":695},{""stimulus"":""img/2to3/8.png"",""time"":794},{""stimulus"":""img/2to3/9.png"",""time"":893},{""stimulus"":""img/2to3/10.png"",""time"":991},{""stimulus"":""img/2to3/11.png"",""time"":1090},{""stimulus"":""img/2to3/12.png"",""time"":1189}]","[]"
"image-keyboard-response","106","316083","0.0-5.0-1.51","61650ba8e42101c561bf7335","bdp_cybrbll","Wed Mar 29 2023 13:15:56 GMT-0400 (Eastern Daylight Time)","624121","3","1","","null","","","","observe","","img/3to2/1.png","null","174","761","0.5","0.5","3","1","",""
"animation","107","317371","0.0-5.0-2.51","61650ba8e42101c561bf7335","bdp_cybrbll","Wed Mar 29 2023 13:15:56 GMT-0400 (Eastern Daylight Time)","624121","3","1","","","","","","","","","","174","","","","3","1","[{""stimulus"":""img/3to1/1.png"",""time"":100},{""stimulus"":""img/3to1/2.png"",""time"":200},{""stimulus"":""img/3to1/3.png"",""time"":298},{""stimulus"":""img/3to1/4.png"",""time"":397},{""stimulus"":""img/3to1/5.png"",""time"":496},{""stimulus"":""img/3to1/6.png"",""time"":595},{""stimulus"":""img/3to1/7.png"",""time"":693},{""stimulus"":""img/3to1/8.png"",""time"":792},{""stimulus"":""img/3to1/9.png"",""time"":892},{""stimulus"":""img/3to1/10.png"",""time"":991},{""stimulus"":""img/3to1/11.png"",""time"":1090},{""stimulus"":""img/3to1/12.png"",""time"":1189}]","[]"
"image-keyboard-response","108","317993","0.0-5.0-1.52","61650ba8e42101c561bf7335","bdp_cybrbll","Wed Mar 29 2023 13:15:56 GMT-0400 (Eastern Daylight Time)","624121","3","1","","null","","","","observe","","img/1to3/1.png","null","173","620","0.5","0.5","1","2","",""
"animation","109","319280","0.0-5.0-2.52","61650ba8e42101c561bf7335","bdp_cybrbll","Wed Mar 29 2023 13:15:56 GMT-0400 (Eastern Daylight Time)","624121","3","1","","","","","","","","","","173","","","","1","2","[{""stimulus"":""img/1to2/1.png"",""time"":101},{""stimulus"":""img/1to2/2.png"",""time"":199},{""stimulus"":""img/1to2/3.png"",""time"":298},{""stimulus"":""img/1to2/4.png"",""time"":397},{""stimulus"":""img/1to2/5.png"",""time"":497},{""stimulus"":""img/1to2/6.png"",""time"":595},{""stimulus"":""img/1to2/7.png"",""time"":694},{""stimulus"":""img/1to2/8.png"",""time"":793},{""stimulus"":""img/1to2/9.png"",""time"":892},{""stimulus"":""img/1to2/10.png"",""time"":992},{""stimulus"":""img/1to2/11.png"",""time"":1091},{""stimulus"":""img/1to2/12.png"",""time"":1190}]","[]"
"image-keyboard-response","110","319687","0.0-5.0-1.53","61650ba8e42101c561bf7335","bdp_cybrbll","Wed Mar 29 2023 13:15:56 GMT-0400 (Eastern Daylight Time)","624121","3","1","","406","","","","choice","","img/2to1/1.png","2","172","1137","0.5","0.5","2","3","",""
"animation","111","320974","0.0-5.0-2.53","61650ba8e42101c561bf7335","bdp_cybrbll","Wed Mar 29 2023 13:15:56 GMT-0400 (Eastern Daylight Time)","624121","3","1","","","","","","","","","","172","","","","2","3","[{""stimulus"":""img/2to3/1.png"",""time"":100},{""stimulus"":""img/2to3/2.png"",""time"":200},{""stimulus"":""img/2to3/3.png"",""time"":298},{""stimulus"":""img/2to3/4.png"",""time"":397},{""stimulus"":""img/2to3/5.png"",""time"":496},{""stimulus"":""img/2to3/6.png"",""time"":596},{""stimulus"":""img/2to3/7.png"",""time"":694},{""stimulus"":""img/2to3/8.png"",""time"":793},{""stimulus"":""img/2to3/9.png"",""time"":893},{""stimulus"":""img/2to3/10.png"",""time"":991},{""stimulus"":""img/2to3/11.png"",""time"":1091},{""stimulus"":""img/2to3/12.png"",""time"":1190}]","[]"
"image-keyboard-response","112","321888","0.0-5.0-1.54","61650ba8e42101c561bf7335","bdp_cybrbll","Wed Mar 29 2023 13:15:56 GMT-0400 (Eastern Daylight Time)","624121","3","1","","null","","","","observe","","img/3to2/1.png","null","171","911","0.5","0.5","3","2","",""
"animation","113","323176","0.0-5.0-2.54","61650ba8e42101c561bf7335","bdp_cybrbll","Wed Mar 29 2023 13:15:56 GMT-0400 (Eastern Daylight Time)","624121","3","1","","","","","","","","","","171","","","","3","2","[{""stimulus"":""img/3to2/1.png"",""time"":100},{""stimulus"":""img/3to2/2.png"",""time"":199},{""stimulus"":""img/3to2/3.png"",""time"":298},{""stimulus"":""img/3to2/4.png"",""time"":398},{""stimulus"":""img/3to2/5.png"",""time"":496},{""stimulus"":""img/3to2/6.png"",""time"":596},{""stimulus"":""img/3to2/7.png"",""time"":694},{""stimulus"":""img/3to2/8.png"",""time"":794},{""stimulus"":""img/3to2/9.png"",""time"":892},{""stimulus"":""img/3to2/10.png"",""time"":992},{""stimulus"":""img/3to2/11.png"",""time"":1090},{""stimulus"":""img/3to2/12.png"",""time"":1190}]","[]"
"image-keyboard-response","114","323340","0.0-5.0-1.55","61650ba8e42101c561bf7335","bdp_cybrbll","Wed Mar 29 2023 13:15:56 GMT-0400 (Eastern Daylight Time)","624121","3","1","","163","","","","choice","","img/2to1/1.png","1","170","279","0.5","0.5","2","1","",""
"animation","115","324628","0.0-5.0-2.55","61650ba8e42101c561bf7335","bdp_cybrbll","Wed Mar 29 2023 13:15:56 GMT-0400 (Eastern Daylight Time)","624121","3","1","","","","","","","","","","170","","","","2","1","[{""stimulus"":""img/2to1/1.png"",""time"":100},{""stimulus"":""img/2to1/2.png"",""time"":200},{""stimulus"":""img/2to1/3.png"",""time"":298},{""stimulus"":""img/2to1/4.png"",""time"":398},{""stimulus"":""img/2to1/5.png"",""time"":496},{""stimulus"":""img/2to1/6.png"",""time"":597},{""stimulus"":""img/2to1/7.png"",""time"":695},{""stimulus"":""img/2to1/8.png"",""time"":794},{""stimulus"":""img/2to1/9.png"",""time"":892},{""stimulus"":""img/2to1/10.png"",""time"":992},{""stimulus"":""img/2to1/11.png"",""time"":1090},{""stimulus"":""img/2to1/12.png"",""time"":1190}]","[]"
"image-keyboard-response","116","325522","0.0-5.0-1.56","61650ba8e42101c561bf7335","bdp_cybrbll","Wed Mar 29 2023 13:15:56 GMT-0400 (Eastern Daylight Time)","624121","3","1","","null","","","","observe","","img/1to3/1.png","null","169","892","0.5","0.5","1","2","",""
"animation","117","326809","0.0-5.0-2.56","61650ba8e42101c561bf7335","bdp_cybrbll","Wed Mar 29 2023 13:15:56 GMT-0400 (Eastern Daylight Time)","624121","3","1","","","","","","","","","","169","","","","1","2","[{""stimulus"":""img/1to2/1.png"",""time"":100},{""stimulus"":""img/1to2/2.png"",""time"":199},{""stimulus"":""img/1to2/3.png"",""time"":298},{""stimulus"":""img/1to2/4.png"",""time"":398},{""stimulus"":""img/1to2/5.png"",""time"":496},{""stimulus"":""img/1to2/6.png"",""time"":595},{""stimulus"":""img/1to2/7.png"",""time"":694},{""stimulus"":""img/1to2/8.png"",""time"":793},{""stimulus"":""img/1to2/9.png"",""time"":893},{""stimulus"":""img/1to2/10.png"",""time"":992},{""stimulus"":""img/1to2/11.png"",""time"":1090},{""stimulus"":""img/1to2/12.png"",""time"":1189}]","[]"
"image-keyboard-response","118","326901","0.0-5.0-1.57","61650ba8e42101c561bf7335","bdp_cybrbll","Wed Mar 29 2023 13:15:56 GMT-0400 (Eastern Daylight Time)","624121","3","1","","91","","","","choice","","img/2to1/1.png","2","168","303","0.5","0.5","2","3","",""
"animation","119","328189","0.0-5.0-2.57","61650ba8e42101c561bf7335","bdp_cybrbll","Wed Mar 29 2023 13:15:56 GMT-0400 (Eastern Daylight Time)","624121","3","1","","","","","","","","","","168","","","","2","3","[{""stimulus"":""img/2to3/1.png"",""time"":100},{""stimulus"":""img/2to3/2.png"",""time"":200},{""stimulus"":""img/2to3/3.png"",""time"":299},{""stimulus"":""img/2to3/4.png"",""time"":398},{""stimulus"":""img/2to3/5.png"",""time"":496},{""stimulus"":""img/2to3/6.png"",""time"":596},{""stimulus"":""img/2to3/7.png"",""time"":695},{""stimulus"":""img/2to3/8.png"",""time"":794},{""stimulus"":""img/2to3/9.png"",""time"":892},{""stimulus"":""img/2to3/10.png"",""time"":992},{""stimulus"":""img/2to3/11.png"",""time"":1091},{""stimulus"":""img/2to3/12.png"",""time"":1190}]","[]"
"image-keyboard-response","120","328431","0.0-5.0-1.58","61650ba8e42101c561bf7335","bdp_cybrbll","Wed Mar 29 2023 13:15:56 GMT-0400 (Eastern Daylight Time)","624121","3","1","","null","","","","observe","","img/3to2/1.png","null","167","242","0.5","0.5","3","2","",""
"animation","121","329719","0.0-5.0-2.58","61650ba8e42101c561bf7335","bdp_cybrbll","Wed Mar 29 2023 13:15:56 GMT-0400 (Eastern Daylight Time)","624121","3","1","","","","","","","","","","167","","","","3","2","[{""stimulus"":""img/3to2/1.png"",""time"":100},{""stimulus"":""img/3to2/2.png"",""time"":198},{""stimulus"":""img/3to2/3.png"",""time"":298},{""stimulus"":""img/3to2/4.png"",""time"":397},{""stimulus"":""img/3to2/5.png"",""time"":496},{""stimulus"":""img/3to2/6.png"",""time"":594},{""stimulus"":""img/3to2/7.png"",""time"":695},{""stimulus"":""img/3to2/8.png"",""time"":793},{""stimulus"":""img/3to2/9.png"",""time"":892},{""stimulus"":""img/3to2/10.png"",""time"":991},{""stimulus"":""img/3to2/11.png"",""time"":1090},{""stimulus"":""img/3to2/12.png"",""time"":1188}]","[]"
"image-keyboard-response","122","329946","0.0-5.0-1.59","61650ba8e42101c561bf7335","bdp_cybrbll","Wed Mar 29 2023 13:15:56 GMT-0400 (Eastern Daylight Time)","624121","3","1","","226","","","","choice","","img/2to1/1.png","1","166","691","0.5","0.5","2","1","",""
"animation","123","331234","0.0-5.0-2.59","61650ba8e42101c561bf7335","bdp_cybrbll","Wed Mar 29 2023 13:15:56 GMT-0400 (Eastern Daylight Time)","624121","3","1","","","","","","","","","","166","","","","2","1","[{""stimulus"":""img/2to1/1.png"",""time"":100},{""stimulus"":""img/2to1/2.png"",""time"":199},{""stimulus"":""img/2to1/3.png"",""time"":298},{""stimulus"":""img/2to1/4.png"",""time"":398},{""stimulus"":""img/2to1/5.png"",""time"":496},{""stimulus"":""img/2to1/6.png"",""time"":595},{""stimulus"":""img/2to1/7.png"",""time"":694},{""stimulus"":""img/2to1/8.png"",""time"":794},{""stimulus"":""img/2to1/9.png"",""time"":893},{""stimulus"":""img/2to1/10.png"",""time"":992},{""stimulus"":""img/2to1/11.png"",""time"":1090},{""stimulus"":""img/2to1/12.png"",""time"":1190}]","[]"
"image-keyboard-response","124","332071","0.0-5.0-1.60","61650ba8e42101c561bf7335","bdp_cybrbll","Wed Mar 29 2023 13:15:56 GMT-0400 (Eastern Daylight Time)","624121","3","1","","null","","","","observe","","img/1to3/1.png","null","165","836","0.5","0.5","1","2","",""
"animation","125","333360","0.0-5.0-2.60","61650ba8e42101c561bf7335","bdp_cybrbll","Wed Mar 29 2023 13:15:56 GMT-0400 (Eastern Daylight Time)","624121","3","1","","","","","","","","","","165","","","","1","2","[{""stimulus"":""img/1to2/1.png"",""time"":101},{""stimulus"":""img/1to2/2.png"",""time"":213},{""stimulus"":""img/1to2/3.png"",""time"":298},{""stimulus"":""img/1to2/4.png"",""time"":397},{""stimulus"":""img/1to2/5.png"",""time"":497},{""stimulus"":""img/1to2/6.png"",""time"":596},{""stimulus"":""img/1to2/7.png"",""time"":695},{""stimulus"":""img/1to2/8.png"",""time"":795},{""stimulus"":""img/1to2/9.png"",""time"":893},{""stimulus"":""img/1to2/10.png"",""time"":991},{""stimulus"":""img/1to2/11.png"",""time"":1090},{""stimulus"":""img/1to2/12.png"",""time"":1189}]","[]"
"image-keyboard-response","126","333783","0.0-5.0-1.61","61650ba8e42101c561bf7335","bdp_cybrbll","Wed Mar 29 2023 13:15:56 GMT-0400 (Eastern Daylight Time)","624121","3","1","","422","","","","choice","","img/2to1/1.png","2","164","523","0.5","0.5","2","3","",""
"animation","127","335071","0.0-5.0-2.61","61650ba8e42101c561bf7335","bdp_cybrbll","Wed Mar 29 2023 13:15:56 GMT-0400 (Eastern Daylight Time)","624121","3","1","","","","","","","","","","164","","","","2","3","[{""stimulus"":""img/2to3/1.png"",""time"":100},{""stimulus"":""img/2to3/2.png"",""time"":199},{""stimulus"":""img/2to3/3.png"",""time"":298},{""stimulus"":""img/2to3/4.png"",""time"":397},{""stimulus"":""img/2to3/5.png"",""time"":496},{""stimulus"":""img/2to3/6.png"",""time"":595},{""stimulus"":""img/2to3/7.png"",""time"":695},{""stimulus"":""img/2to3/8.png"",""time"":793},{""stimulus"":""img/2to3/9.png"",""time"":893},{""stimulus"":""img/2to3/10.png"",""time"":991},{""stimulus"":""img/2to3/11.png"",""time"":1090},{""stimulus"":""img/2to3/12.png"",""time"":1190}]","[]"
"image-keyboard-response","128","335328","0.0-5.0-1.62","61650ba8e42101c561bf7335","bdp_cybrbll","Wed Mar 29 2023 13:15:56 GMT-0400 (Eastern Daylight Time)","624121","3","1","","null","","","","observe","","img/3to2/1.png","null","163","255","0.5","0.5","3","1","",""
"animation","129","336616","0.0-5.0-2.62","61650ba8e42101c561bf7335","bdp_cybrbll","Wed Mar 29 2023 13:15:56 GMT-0400 (Eastern Daylight Time)","624121","3","1","","","","","","","","","","163","","","","3","1","[{""stimulus"":""img/3to1/1.png"",""time"":99},{""stimulus"":""img/3to1/2.png"",""time"":199},{""stimulus"":""img/3to1/3.png"",""time"":298},{""stimulus"":""img/3to1/4.png"",""time"":397},{""stimulus"":""img/3to1/5.png"",""time"":496},{""stimulus"":""img/3to1/6.png"",""time"":595},{""stimulus"":""img/3to1/7.png"",""time"":694},{""stimulus"":""img/3to1/8.png"",""time"":793},{""stimulus"":""img/3to1/9.png"",""time"":892},{""stimulus"":""img/3to1/10.png"",""time"":991},{""stimulus"":""img/3to1/11.png"",""time"":1089},{""stimulus"":""img/3to1/12.png"",""time"":1189}]","[]"
"image-keyboard-response","130","336944","0.0-5.0-1.63","61650ba8e42101c561bf7335","bdp_cybrbll","Wed Mar 29 2023 13:15:56 GMT-0400 (Eastern Daylight Time)","624121","3","1","","null","","","","observe","","img/1to3/1.png","null","162","325","0.5","0.5","1","2","",""
"animation","131","338232","0.0-5.0-2.63","61650ba8e42101c561bf7335","bdp_cybrbll","Wed Mar 29 2023 13:15:56 GMT-0400 (Eastern Daylight Time)","624121","3","1","","","","","","","","","","162","","","","1","2","[{""stimulus"":""img/1to2/1.png"",""time"":100},{""stimulus"":""img/1to2/2.png"",""time"":199},{""stimulus"":""img/1to2/3.png"",""time"":298},{""stimulus"":""img/1to2/4.png"",""time"":397},{""stimulus"":""img/1to2/5.png"",""time"":497},{""stimulus"":""img/1to2/6.png"",""time"":595},{""stimulus"":""img/1to2/7.png"",""time"":694},{""stimulus"":""img/1to2/8.png"",""time"":793},{""stimulus"":""img/1to2/9.png"",""time"":892},{""stimulus"":""img/1to2/10.png"",""time"":992},{""stimulus"":""img/1to2/11.png"",""time"":1091},{""stimulus"":""img/1to2/12.png"",""time"":1190}]","[]"
"image-keyboard-response","132","338447","0.0-5.0-1.64","61650ba8e42101c561bf7335","bdp_cybrbll","Wed Mar 29 2023 13:15:56 GMT-0400 (Eastern Daylight Time)","624121","3","1","","213","","","","choice","","img/2to1/1.png","2","161","578","0.5","0.5","2","3","",""
"animation","133","339735","0.0-5.0-2.64","61650ba8e42101c561bf7335","bdp_cybrbll","Wed Mar 29 2023 13:15:56 GMT-0400 (Eastern Daylight Time)","624121","3","1","","","","","","","","","","161","","","","2","3","[{""stimulus"":""img/2to3/1.png"",""time"":100},{""stimulus"":""img/2to3/2.png"",""time"":200},{""stimulus"":""img/2to3/3.png"",""time"":298},{""stimulus"":""img/2to3/4.png"",""time"":397},{""stimulus"":""img/2to3/5.png"",""time"":496},{""stimulus"":""img/2to3/6.png"",""time"":595},{""stimulus"":""img/2to3/7.png"",""time"":695},{""stimulus"":""img/2to3/8.png"",""time"":794},{""stimulus"":""img/2to3/9.png"",""time"":893},{""stimulus"":""img/2to3/10.png"",""time"":991},{""stimulus"":""img/2to3/11.png"",""time"":1091},{""stimulus"":""img/2to3/12.png"",""time"":1190}]","[]"
"image-keyboard-response","134","340091","0.0-5.0-1.65","61650ba8e42101c561bf7335","bdp_cybrbll","Wed Mar 29 2023 13:15:56 GMT-0400 (Eastern Daylight Time)","624121","3","1","","null","","","","observe","","img/3to2/1.png","null","160","354","0.5","0.5","3","1","",""
"animation","135","341379","0.0-5.0-2.65","61650ba8e42101c561bf7335","bdp_cybrbll","Wed Mar 29 2023 13:15:56 GMT-0400 (Eastern Daylight Time)","624121","3","1","","","","","","","","","","160","","","","3","1","[{""stimulus"":""img/3to1/1.png"",""time"":100},{""stimulus"":""img/3to1/2.png"",""time"":200},{""stimulus"":""img/3to1/3.png"",""time"":298},{""stimulus"":""img/3to1/4.png"",""time"":397},{""stimulus"":""img/3to1/5.png"",""time"":496},{""stimulus"":""img/3to1/6.png"",""time"":596},{""stimulus"":""img/3to1/7.png"",""time"":695},{""stimulus"":""img/3to1/8.png"",""time"":793},{""stimulus"":""img/3to1/9.png"",""time"":892},{""stimulus"":""img/3to1/10.png"",""time"":991},{""stimulus"":""img/3to1/11.png"",""time"":1091},{""stimulus"":""img/3to1/12.png"",""time"":1189}]","[]"
"image-keyboard-response","136","341817","0.0-5.0-1.66","61650ba8e42101c561bf7335","bdp_cybrbll","Wed Mar 29 2023 13:15:56 GMT-0400 (Eastern Daylight Time)","624121","3","1","","null","","","","observe","","img/1to3/1.png","null","159","436","0.5","0.5","1","3","",""
"animation","137","343106","0.0-5.0-2.66","61650ba8e42101c561bf7335","bdp_cybrbll","Wed Mar 29 2023 13:15:56 GMT-0400 (Eastern Daylight Time)","624121","3","1","","","","","","","","","","159","","","","1","3","[{""stimulus"":""img/1to3/1.png"",""time"":100},{""stimulus"":""img/1to3/2.png"",""time"":199},{""stimulus"":""img/1to3/3.png"",""time"":297},{""stimulus"":""img/1to3/4.png"",""time"":396},{""stimulus"":""img/1to3/5.png"",""time"":495},{""stimulus"":""img/1to3/6.png"",""time"":595},{""stimulus"":""img/1to3/7.png"",""time"":694},{""stimulus"":""img/1to3/8.png"",""time"":794},{""stimulus"":""img/1to3/9.png"",""time"":892},{""stimulus"":""img/1to3/10.png"",""time"":990},{""stimulus"":""img/1to3/11.png"",""time"":1090},{""stimulus"":""img/1to3/12.png"",""time"":1189}]","[]"
"image-keyboard-response","138","343950","0.0-5.0-1.67","61650ba8e42101c561bf7335","bdp_cybrbll","Wed Mar 29 2023 13:15:56 GMT-0400 (Eastern Daylight Time)","624121","3","1","","null","","","","observe","","img/3to2/1.png","null","158","843","0.5","0.5","3","2","",""
"animation","139","345239","0.0-5.0-2.67","61650ba8e42101c561bf7335","bdp_cybrbll","Wed Mar 29 2023 13:15:56 GMT-0400 (Eastern Daylight Time)","624121","3","1","","","","","","","","","","158","","","","3","2","[{""stimulus"":""img/3to2/1.png"",""time"":100},{""stimulus"":""img/3to2/2.png"",""time"":199},{""stimulus"":""img/3to2/3.png"",""time"":297},{""stimulus"":""img/3to2/4.png"",""time"":397},{""stimulus"":""img/3to2/5.png"",""time"":496},{""stimulus"":""img/3to2/6.png"",""time"":596},{""stimulus"":""img/3to2/7.png"",""time"":694},{""stimulus"":""img/3to2/8.png"",""time"":792},{""stimulus"":""img/3to2/9.png"",""time"":892},{""stimulus"":""img/3to2/10.png"",""time"":991},{""stimulus"":""img/3to2/11.png"",""time"":1090},{""stimulus"":""img/3to2/12.png"",""time"":1188}]","[]"
"image-keyboard-response","140","345280","0.0-5.0-1.68","61650ba8e42101c561bf7335","bdp_cybrbll","Wed Mar 29 2023 13:15:56 GMT-0400 (Eastern Daylight Time)","624121","3","1","","40","","","","choice","","img/2to1/1.png","1","157","577","0.5","0.5","2","1","",""
"animation","141","346568","0.0-5.0-2.68","61650ba8e42101c561bf7335","bdp_cybrbll","Wed Mar 29 2023 13:15:56 GMT-0400 (Eastern Daylight Time)","624121","3","1","","","","","","","","","","157","","","","2","1","[{""stimulus"":""img/2to1/1.png"",""time"":100},{""stimulus"":""img/2to1/2.png"",""time"":200},{""stimulus"":""img/2to1/3.png"",""time"":298},{""stimulus"":""img/2to1/4.png"",""time"":397},{""stimulus"":""img/2to1/5.png"",""time"":497},{""stimulus"":""img/2to1/6.png"",""time"":596},{""stimulus"":""img/2to1/7.png"",""time"":695},{""stimulus"":""img/2to1/8.png"",""time"":794},{""stimulus"":""img/2to1/9.png"",""time"":892},{""stimulus"":""img/2to1/10.png"",""time"":992},{""stimulus"":""img/2to1/11.png"",""time"":1090},{""stimulus"":""img/2to1/12.png"",""time"":1190}]","[]"
"image-keyboard-response","142","347024","0.0-5.0-1.69","61650ba8e42101c561bf7335","bdp_cybrbll","Wed Mar 29 2023 13:15:56 GMT-0400 (Eastern Daylight Time)","624121","3","1","","null","","","","observe","","img/1to3/1.png","null","156","455","0.5","0.5","1","2","",""
"animation","143","348312","0.0-5.0-2.69","61650ba8e42101c561bf7335","bdp_cybrbll","Wed Mar 29 2023 13:15:56 GMT-0400 (Eastern Daylight Time)","624121","3","1","","","","","","","","","","156","","","","1","2","[{""stimulus"":""img/1to2/1.png"",""time"":101},{""stimulus"":""img/1to2/2.png"",""time"":199},{""stimulus"":""img/1to2/3.png"",""time"":298},{""stimulus"":""img/1to2/4.png"",""time"":397},{""stimulus"":""img/1to2/5.png"",""time"":496},{""stimulus"":""img/1to2/6.png"",""time"":596},{""stimulus"":""img/1to2/7.png"",""time"":694},{""stimulus"":""img/1to2/8.png"",""time"":793},{""stimulus"":""img/1to2/9.png"",""time"":893},{""stimulus"":""img/1to2/10.png"",""time"":992},{""stimulus"":""img/1to2/11.png"",""time"":1090},{""stimulus"":""img/1to2/12.png"",""time"":1189}]","[]"
"image-keyboard-response","144","348341","0.0-5.0-1.70","61650ba8e42101c561bf7335","bdp_cybrbll","Wed Mar 29 2023 13:15:56 GMT-0400 (Eastern Daylight Time)","624121","3","1","","28","","","","choice","","img/2to1/1.png","2","155","526","0.5","0.5","2","3","",""
"animation","145","349629","0.0-5.0-2.70","61650ba8e42101c561bf7335","bdp_cybrbll","Wed Mar 29 2023 13:15:56 GMT-0400 (Eastern Daylight Time)","624121","3","1","","","","","","","","","","155","","","","2","3","[{""stimulus"":""img/2to3/1.png"",""time"":100},{""stimulus"":""img/2to3/2.png"",""time"":200},{""stimulus"":""img/2to3/3.png"",""time"":299},{""stimulus"":""img/2to3/4.png"",""time"":398},{""stimulus"":""img/2to3/5.png"",""time"":498},{""stimulus"":""img/2to3/6.png"",""time"":596},{""stimulus"":""img/2to3/7.png"",""time"":694},{""stimulus"":""img/2to3/8.png"",""time"":794},{""stimulus"":""img/2to3/9.png"",""time"":892},{""stimulus"":""img/2to3/10.png"",""time"":991},{""stimulus"":""img/2to3/11.png"",""time"":1090},{""stimulus"":""img/2to3/12.png"",""time"":1189}]","[]"
"image-keyboard-response","146","350510","0.0-5.0-1.71","61650ba8e42101c561bf7335","bdp_cybrbll","Wed Mar 29 2023 13:15:56 GMT-0400 (Eastern Daylight Time)","624121","3","1","","null","","","","observe","","img/3to2/1.png","null","154","878","0.5","0.5","3","1","",""
"animation","147","351798","0.0-5.0-2.71","61650ba8e42101c561bf7335","bdp_cybrbll","Wed Mar 29 2023 13:15:56 GMT-0400 (Eastern Daylight Time)","624121","3","1","","","","","","","","","","154","","","","3","1","[{""stimulus"":""img/3to1/1.png"",""time"":101},{""stimulus"":""img/3to1/2.png"",""time"":200},{""stimulus"":""img/3to1/3.png"",""time"":298},{""stimulus"":""img/3to1/4.png"",""time"":398},{""stimulus"":""img/3to1/5.png"",""time"":495},{""stimulus"":""img/3to1/6.png"",""time"":595},{""stimulus"":""img/3to1/7.png"",""time"":694},{""stimulus"":""img/3to1/8.png"",""time"":793},{""stimulus"":""img/3to1/9.png"",""time"":892},{""stimulus"":""img/3to1/10.png"",""time"":992},{""stimulus"":""img/3to1/11.png"",""time"":1092},{""stimulus"":""img/3to1/12.png"",""time"":1190}]","[]"
"image-keyboard-response","148","352399","0.0-5.0-1.72","61650ba8e42101c561bf7335","bdp_cybrbll","Wed Mar 29 2023 13:15:56 GMT-0400 (Eastern Daylight Time)","624121","3","1","","null","","","","observe","","img/1to3/1.png","null","153","599","0.5","0.5","1","2","",""
"animation","149","353687","0.0-5.0-2.72","61650ba8e42101c561bf7335","bdp_cybrbll","Wed Mar 29 2023 13:15:56 GMT-0400 (Eastern Daylight Time)","624121","3","1","","","","","","","","","","153","","","","1","2","[{""stimulus"":""img/1to2/1.png"",""time"":101},{""stimulus"":""img/1to2/2.png"",""time"":200},{""stimulus"":""img/1to2/3.png"",""time"":298},{""stimulus"":""img/1to2/4.png"",""time"":397},{""stimulus"":""img/1to2/5.png"",""time"":496},{""stimulus"":""img/1to2/6.png"",""time"":596},{""stimulus"":""img/1to2/7.png"",""time"":695},{""stimulus"":""img/1to2/8.png"",""time"":793},{""stimulus"":""img/1to2/9.png"",""time"":892},{""stimulus"":""img/1to2/10.png"",""time"":991},{""stimulus"":""img/1to2/11.png"",""time"":1090},{""stimulus"":""img/1to2/12.png"",""time"":1189}]","[]"
"image-keyboard-response","150","354219","0.0-5.0-1.73","61650ba8e42101c561bf7335","bdp_cybrbll","Wed Mar 29 2023 13:15:56 GMT-0400 (Eastern Daylight Time)","624121","3","1","","531","","","","choice","","img/2to1/1.png","2","152","321","0.5","0.5","2","3","",""
"animation","151","355507","0.0-5.0-2.73","61650ba8e42101c561bf7335","bdp_cybrbll","Wed Mar 29 2023 13:15:56 GMT-0400 (Eastern Daylight Time)","624121","3","1","","","","","","","","","","152","","","","2","3","[{""stimulus"":""img/2to3/1.png"",""time"":99},{""stimulus"":""img/2to3/2.png"",""time"":199},{""stimulus"":""img/2to3/3.png"",""time"":298},{""stimulus"":""img/2to3/4.png"",""time"":397},{""stimulus"":""img/2to3/5.png"",""time"":497},{""stimulus"":""img/2to3/6.png"",""time"":596},{""stimulus"":""img/2to3/7.png"",""time"":693},{""stimulus"":""img/2to3/8.png"",""time"":793},{""stimulus"":""img/2to3/9.png"",""time"":892},{""stimulus"":""img/2to3/10.png"",""time"":991},{""stimulus"":""img/2to3/11.png"",""time"":1090},{""stimulus"":""img/2to3/12.png"",""time"":1189}]","[]"
"image-keyboard-response","152","356257","0.0-5.0-1.74","61650ba8e42101c561bf7335","bdp_cybrbll","Wed Mar 29 2023 13:15:56 GMT-0400 (Eastern Daylight Time)","624121","3","1","","null","","","","observe","","img/3to2/1.png","null","151","748","0.5","0.5","3","2","",""
"animation","153","357545","0.0-5.0-2.74","61650ba8e42101c561bf7335","bdp_cybrbll","Wed Mar 29 2023 13:15:56 GMT-0400 (Eastern Daylight Time)","624121","3","1","","","","","","","","","","151","","","","3","2","[{""stimulus"":""img/3to2/1.png"",""time"":100},{""stimulus"":""img/3to2/2.png"",""time"":199},{""stimulus"":""img/3to2/3.png"",""time"":298},{""stimulus"":""img/3to2/4.png"",""time"":398},{""stimulus"":""img/3to2/5.png"",""time"":496},{""stimulus"":""img/3to2/6.png"",""time"":595},{""stimulus"":""img/3to2/7.png"",""time"":694},{""stimulus"":""img/3to2/8.png"",""time"":793},{""stimulus"":""img/3to2/9.png"",""time"":892},{""stimulus"":""img/3to2/10.png"",""time"":992},{""stimulus"":""img/3to2/11.png"",""time"":1091},{""stimulus"":""img/3to2/12.png"",""time"":1189}]","[]"
"image-keyboard-response","154","357753","0.0-5.0-1.75","61650ba8e42101c561bf7335","bdp_cybrbll","Wed Mar 29 2023 13:15:56 GMT-0400 (Eastern Daylight Time)","624121","3","1","","207","","","","choice","","img/2to1/1.png","2","150","584","0.5","0.5","2","3","",""
"animation","155","359041","0.0-5.0-2.75","61650ba8e42101c561bf7335","bdp_cybrbll","Wed Mar 29 2023 13:15:56 GMT-0400 (Eastern Daylight Time)","624121","3","1","","","","","","","","","","150","","","","2","3","[{""stimulus"":""img/2to3/1.png"",""time"":100},{""stimulus"":""img/2to3/2.png"",""time"":199},{""stimulus"":""img/2to3/3.png"",""time"":299},{""stimulus"":""img/2to3/4.png"",""time"":397},{""stimulus"":""img/2to3/5.png"",""time"":497},{""stimulus"":""img/2to3/6.png"",""time"":596},{""stimulus"":""img/2to3/7.png"",""time"":694},{""stimulus"":""img/2to3/8.png"",""time"":794},{""stimulus"":""img/2to3/9.png"",""time"":893},{""stimulus"":""img/2to3/10.png"",""time"":992},{""stimulus"":""img/2to3/11.png"",""time"":1091},{""stimulus"":""img/2to3/12.png"",""time"":1189}]","[]"
"image-keyboard-response","156","359379","0.0-5.0-1.76","61650ba8e42101c561bf7335","bdp_cybrbll","Wed Mar 29 2023 13:15:56 GMT-0400 (Eastern Daylight Time)","624121","3","1","","null","","","","observe","","img/3to2/1.png","null","149","337","0.5","0.1","3","2","",""
"animation","157","360667","0.0-5.0-2.76","61650ba8e42101c561bf7335","bdp_cybrbll","Wed Mar 29 2023 13:15:56 GMT-0400 (Eastern Daylight Time)","624121","3","1","","","","","","","","","","149","","","","3","2","[{""stimulus"":""img/3to2/1.png"",""time"":104},{""stimulus"":""img/3to2/2.png"",""time"":198},{""stimulus"":""img/3to2/3.png"",""time"":298},{""stimulus"":""img/3to2/4.png"",""time"":397},{""stimulus"":""img/3to2/5.png"",""time"":496},{""stimulus"":""img/3to2/6.png"",""time"":595},{""stimulus"":""img/3to2/7.png"",""time"":693},{""stimulus"":""img/3to2/8.png"",""time"":793},{""stimulus"":""img/3to2/9.png"",""time"":892},{""stimulus"":""img/3to2/10.png"",""time"":991},{""stimulus"":""img/3to2/11.png"",""time"":1090},{""stimulus"":""img/3to2/12.png"",""time"":1189}]","[]"
"image-keyboard-response","158","360897","0.0-5.0-1.77","61650ba8e42101c561bf7335","bdp_cybrbll","Wed Mar 29 2023 13:15:56 GMT-0400 (Eastern Daylight Time)","624121","3","1","","229","","","","choice","","img/2to1/1.png","1","148","448","0.5","0.1","2","1","",""
"animation","159","362186","0.0-5.0-2.77","61650ba8e42101c561bf7335","bdp_cybrbll","Wed Mar 29 2023 13:15:56 GMT-0400 (Eastern Daylight Time)","624121","3","1","","","","","","","","","","148","","","","2","1","[{""stimulus"":""img/2to1/1.png"",""time"":100},{""stimulus"":""img/2to1/2.png"",""time"":200},{""stimulus"":""img/2to1/3.png"",""time"":298},{""stimulus"":""img/2to1/4.png"",""time"":397},{""stimulus"":""img/2to1/5.png"",""time"":496},{""stimulus"":""img/2to1/6.png"",""time"":596},{""stimulus"":""img/2to1/7.png"",""time"":694},{""stimulus"":""img/2to1/8.png"",""time"":793},{""stimulus"":""img/2to1/9.png"",""time"":892},{""stimulus"":""img/2to1/10.png"",""time"":991},{""stimulus"":""img/2to1/11.png"",""time"":1090},{""stimulus"":""img/2to1/12.png"",""time"":1190}]","[]"
"image-keyboard-response","160","362491","0.0-5.0-1.78","61650ba8e42101c561bf7335","bdp_cybrbll","Wed Mar 29 2023 13:15:56 GMT-0400 (Eastern Daylight Time)","624121","3","1","","null","","","","observe","","img/1to3/1.png","null","147","303","0.5","0.1","1","3","",""
"animation","161","363780","0.0-5.0-2.78","61650ba8e42101c561bf7335","bdp_cybrbll","Wed Mar 29 2023 13:15:56 GMT-0400 (Eastern Daylight Time)","624121","3","1","","","","","","","","","","147","","","","1","3","[{""stimulus"":""img/1to3/1.png"",""time"":100},{""stimulus"":""img/1to3/2.png"",""time"":199},{""stimulus"":""img/1to3/3.png"",""time"":299},{""stimulus"":""img/1to3/4.png"",""time"":397},{""stimulus"":""img/1to3/5.png"",""time"":496},{""stimulus"":""img/1to3/6.png"",""time"":596},{""stimulus"":""img/1to3/7.png"",""time"":695},{""stimulus"":""img/1to3/8.png"",""time"":794},{""stimulus"":""img/1to3/9.png"",""time"":892},{""stimulus"":""img/1to3/10.png"",""time"":991},{""stimulus"":""img/1to3/11.png"",""time"":1090},{""stimulus"":""img/1to3/12.png"",""time"":1190}]","[]"
"image-keyboard-response","162","364537","0.0-5.0-1.79","61650ba8e42101c561bf7335","bdp_cybrbll","Wed Mar 29 2023 13:15:56 GMT-0400 (Eastern Daylight Time)","624121","3","1","","null","","","","observe","","img/3to2/1.png","null","146","756","0.5","0.1","3","2","",""
"animation","163","365825","0.0-5.0-2.79","61650ba8e42101c561bf7335","bdp_cybrbll","Wed Mar 29 2023 13:15:56 GMT-0400 (Eastern Daylight Time)","624121","3","1","","","","","","","","","","146","","","","3","2","[{""stimulus"":""img/3to2/1.png"",""time"":101},{""stimulus"":""img/3to2/2.png"",""time"":199},{""stimulus"":""img/3to2/3.png"",""time"":298},{""stimulus"":""img/3to2/4.png"",""time"":398},{""stimulus"":""img/3to2/5.png"",""time"":497},{""stimulus"":""img/3to2/6.png"",""time"":596},{""stimulus"":""img/3to2/7.png"",""time"":695},{""stimulus"":""img/3to2/8.png"",""time"":794},{""stimulus"":""img/3to2/9.png"",""time"":893},{""stimulus"":""img/3to2/10.png"",""time"":991},{""stimulus"":""img/3to2/11.png"",""time"":1090},{""stimulus"":""img/3to2/12.png"",""time"":1190}]","[]"
"image-keyboard-response","164","365832","0.0-5.0-1.80","61650ba8e42101c561bf7335","bdp_cybrbll","Wed Mar 29 2023 13:15:56 GMT-0400 (Eastern Daylight Time)","624121","3","1","","6","","","","choice","","img/2to1/1.png","1","145","492","0.5","0.1","2","1","",""
"animation","165","367121","0.0-5.0-2.80","61650ba8e42101c561bf7335","bdp_cybrbll","Wed Mar 29 2023 13:15:56 GMT-0400 (Eastern Daylight Time)","624121","3","1","","","","","","","","","","145","","","","2","1","[{""stimulus"":""img/2to1/1.png"",""time"":99},{""stimulus"":""img/2to1/2.png"",""time"":200},{""stimulus"":""img/2to1/3.png"",""time"":299},{""stimulus"":""img/2to1/4.png"",""time"":396},{""stimulus"":""img/2to1/5.png"",""time"":496},{""stimulus"":""img/2to1/6.png"",""time"":595},{""stimulus"":""img/2to1/7.png"",""time"":694},{""stimulus"":""img/2to1/8.png"",""time"":796},{""stimulus"":""img/2to1/9.png"",""time"":892},{""stimulus"":""img/2to1/10.png"",""time"":992},{""stimulus"":""img/2to1/11.png"",""time"":1090},{""stimulus"":""img/2to1/12.png"",""time"":1189}]","[]"
"image-keyboard-response","166","367679","0.0-5.0-1.81","61650ba8e42101c561bf7335","bdp_cybrbll","Wed Mar 29 2023 13:15:56 GMT-0400 (Eastern Daylight Time)","624121","3","1","","null","","","","observe","","img/1to3/1.png","null","144","556","0.5","0.1","1","2","",""
"animation","167","368968","0.0-5.0-2.81","61650ba8e42101c561bf7335","bdp_cybrbll","Wed Mar 29 2023 13:15:56 GMT-0400 (Eastern Daylight Time)","624121","3","1","","","","","","","","","","144","","","","1","2","[{""stimulus"":""img/1to2/1.png"",""time"":100},{""stimulus"":""img/1to2/2.png"",""time"":199},{""stimulus"":""img/1to2/3.png"",""time"":298},{""stimulus"":""img/1to2/4.png"",""time"":397},{""stimulus"":""img/1to2/5.png"",""time"":496},{""stimulus"":""img/1to2/6.png"",""time"":595},{""stimulus"":""img/1to2/7.png"",""time"":693},{""stimulus"":""img/1to2/8.png"",""time"":794},{""stimulus"":""img/1to2/9.png"",""time"":892},{""stimulus"":""img/1to2/10.png"",""time"":992},{""stimulus"":""img/1to2/11.png"",""time"":1090},{""stimulus"":""img/1to2/12.png"",""time"":1189}]","[]"
"image-keyboard-response","168","369055","0.0-5.0-1.82","61650ba8e42101c561bf7335","bdp_cybrbll","Wed Mar 29 2023 13:15:56 GMT-0400 (Eastern Daylight Time)","624121","3","1","","85","","","","choice","","img/2to1/1.png","2","143","1094","0.5","0.1","2","3","",""
"animation","169","370345","0.0-5.0-2.82","61650ba8e42101c561bf7335","bdp_cybrbll","Wed Mar 29 2023 13:15:56 GMT-0400 (Eastern Daylight Time)","624121","3","1","","","","","","","","","","143","","","","2","3","[{""stimulus"":""img/2to3/1.png"",""time"":100},{""stimulus"":""img/2to3/2.png"",""time"":200},{""stimulus"":""img/2to3/3.png"",""time"":299},{""stimulus"":""img/2to3/4.png"",""time"":397},{""stimulus"":""img/2to3/5.png"",""time"":496},{""stimulus"":""img/2to3/6.png"",""time"":596},{""stimulus"":""img/2to3/7.png"",""time"":695},{""stimulus"":""img/2to3/8.png"",""time"":793},{""stimulus"":""img/2to3/9.png"",""time"":892},{""stimulus"":""img/2to3/10.png"",""time"":991},{""stimulus"":""img/2to3/11.png"",""time"":1091},{""stimulus"":""img/2to3/12.png"",""time"":1190}]","[]"
"image-keyboard-response","170","370788","0.0-5.0-1.83","61650ba8e42101c561bf7335","bdp_cybrbll","Wed Mar 29 2023 13:15:56 GMT-0400 (Eastern Daylight Time)","624121","3","1","","null","","","","observe","","img/3to2/1.png","null","142","440","0.5","0.1","3","2","",""
"animation","171","372076","0.0-5.0-2.83","61650ba8e42101c561bf7335","bdp_cybrbll","Wed Mar 29 2023 13:15:56 GMT-0400 (Eastern Daylight Time)","624121","3","1","","","","","","","","","","142","","","","3","2","[{""stimulus"":""img/3to2/1.png"",""time"":102},{""stimulus"":""img/3to2/2.png"",""time"":199},{""stimulus"":""img/3to2/3.png"",""time"":298},{""stimulus"":""img/3to2/4.png"",""time"":397},{""stimulus"":""img/3to2/5.png"",""time"":496},{""stimulus"":""img/3to2/6.png"",""time"":595},{""stimulus"":""img/3to2/7.png"",""time"":694},{""stimulus"":""img/3to2/8.png"",""time"":794},{""stimulus"":""img/3to2/9.png"",""time"":892},{""stimulus"":""img/3to2/10.png"",""time"":991},{""stimulus"":""img/3to2/11.png"",""time"":1091},{""stimulus"":""img/3to2/12.png"",""time"":1189}]","[]"
"image-keyboard-response","172","372208","0.0-5.0-1.84","61650ba8e42101c561bf7335","bdp_cybrbll","Wed Mar 29 2023 13:15:56 GMT-0400 (Eastern Daylight Time)","624121","3","1","","131","","","","choice","","img/2to1/1.png","1","141","888","0.5","0.1","2","1","",""
"animation","173","373728","0.0-5.0-2.84","61650ba8e42101c561bf7335","bdp_cybrbll","Wed Mar 29 2023 13:15:56 GMT-0400 (Eastern Daylight Time)","624121","3","1","","","","","","","","","","141","","","","2","1","[{""stimulus"":""img/2to1/1.png"",""time"":99},{""stimulus"":""img/2to1/2.png"",""time"":199},{""stimulus"":""img/2to1/3.png"",""time"":299},{""stimulus"":""img/2to1/4.png"",""time"":398},{""stimulus"":""img/2to1/5.png"",""time"":496},{""stimulus"":""img/2to1/6.png"",""time"":596},{""stimulus"":""img/2to1/7.png"",""time"":709},{""stimulus"":""img/2to1/8.png"",""time"":796},{""stimulus"":""img/2to1/9.png"",""time"":910},{""stimulus"":""img/2to1/10.png"",""time"":991},{""stimulus"":""img/2to1/11.png"",""time"":1109},{""stimulus"":""img/2to1/12.png"",""time"":1190}]","[]"
"image-keyboard-response","174","374030","0.0-5.0-1.85","61650ba8e42101c561bf7335","bdp_cybrbll","Wed Mar 29 2023 13:15:56 GMT-0400 (Eastern Daylight Time)","624121","3","1","","null","","","","observe","","img/1to3/1.png","null","140","300","0.5","0.1","1","3","",""
"animation","175","375318","0.0-5.0-2.85","61650ba8e42101c561bf7335","bdp_cybrbll","Wed Mar 29 2023 13:15:56 GMT-0400 (Eastern Daylight Time)","624121","3","1","","","","","","","","","","140","","","","1","3","[{""stimulus"":""img/1to3/1.png"",""time"":101},{""stimulus"":""img/1to3/2.png"",""time"":199},{""stimulus"":""img/1to3/3.png"",""time"":298},{""stimulus"":""img/1to3/4.png"",""time"":398},{""stimulus"":""img/1to3/5.png"",""time"":497},{""stimulus"":""img/1to3/6.png"",""time"":596},{""stimulus"":""img/1to3/7.png"",""time"":694},{""stimulus"":""img/1to3/8.png"",""time"":793},{""stimulus"":""img/1to3/9.png"",""time"":893},{""stimulus"":""img/1to3/10.png"",""time"":1001},{""stimulus"":""img/1to3/11.png"",""time"":1090},{""stimulus"":""img/1to3/12.png"",""time"":1190}]","[]"
"image-keyboard-response","176","375866","0.0-5.0-1.86","61650ba8e42101c561bf7335","bdp_cybrbll","Wed Mar 29 2023 13:15:56 GMT-0400 (Eastern Daylight Time)","624121","3","1","","null","","","","observe","","img/3to2/1.png","null","139","546","0.5","0.1","3","2","",""
"animation","177","377154","0.0-5.0-2.86","61650ba8e42101c561bf7335","bdp_cybrbll","Wed Mar 29 2023 13:15:56 GMT-0400 (Eastern Daylight Time)","624121","3","1","","","","","","","","","","139","","","","3","2","[{""stimulus"":""img/3to2/1.png"",""time"":100},{""stimulus"":""img/3to2/2.png"",""time"":200},{""stimulus"":""img/3to2/3.png"",""time"":298},{""stimulus"":""img/3to2/4.png"",""time"":397},{""stimulus"":""img/3to2/5.png"",""time"":496},{""stimulus"":""img/3to2/6.png"",""time"":595},{""stimulus"":""img/3to2/7.png"",""time"":695},{""stimulus"":""img/3to2/8.png"",""time"":794},{""stimulus"":""img/3to2/9.png"",""time"":893},{""stimulus"":""img/3to2/10.png"",""time"":991},{""stimulus"":""img/3to2/11.png"",""time"":1091},{""stimulus"":""img/3to2/12.png"",""time"":1190}]","[]"
"image-keyboard-response","178","377509","0.0-5.0-1.87","61650ba8e42101c561bf7335","bdp_cybrbll","Wed Mar 29 2023 13:15:56 GMT-0400 (Eastern Daylight Time)","624121","3","1","","354","","","","choice","","img/2to1/1.png","2","138","1098","0.5","0.1","2","3","",""
"animation","179","378798","0.0-5.0-2.87","61650ba8e42101c561bf7335","bdp_cybrbll","Wed Mar 29 2023 13:15:56 GMT-0400 (Eastern Daylight Time)","624121","3","1","","","","","","","","","","138","","","","2","3","[{""stimulus"":""img/2to3/1.png"",""time"":100},{""stimulus"":""img/2to3/2.png"",""time"":199},{""stimulus"":""img/2to3/3.png"",""time"":298},{""stimulus"":""img/2to3/4.png"",""time"":397},{""stimulus"":""img/2to3/5.png"",""time"":497},{""stimulus"":""img/2to3/6.png"",""time"":596},{""stimulus"":""img/2to3/7.png"",""time"":693},{""stimulus"":""img/2to3/8.png"",""time"":793},{""stimulus"":""img/2to3/9.png"",""time"":892},{""stimulus"":""img/2to3/10.png"",""time"":991},{""stimulus"":""img/2to3/11.png"",""time"":1090},{""stimulus"":""img/2to3/12.png"",""time"":1189}]","[]"
"image-keyboard-response","180","379313","0.0-5.0-1.88","61650ba8e42101c561bf7335","bdp_cybrbll","Wed Mar 29 2023 13:15:56 GMT-0400 (Eastern Daylight Time)","624121","3","1","","null","","","","observe","","img/3to2/1.png","null","137","514","0.5","0.1","3","2","",""
"animation","181","380602","0.0-5.0-2.88","61650ba8e42101c561bf7335","bdp_cybrbll","Wed Mar 29 2023 13:15:56 GMT-0400 (Eastern Daylight Time)","624121","3","1","","","","","","","","","","137","","","","3","2","[{""stimulus"":""img/3to2/1.png"",""time"":100},{""stimulus"":""img/3to2/2.png"",""time"":199},{""stimulus"":""img/3to2/3.png"",""time"":298},{""stimulus"":""img/3to2/4.png"",""time"":398},{""stimulus"":""img/3to2/5.png"",""time"":496},{""stimulus"":""img/3to2/6.png"",""time"":594},{""stimulus"":""img/3to2/7.png"",""time"":694},{""stimulus"":""img/3to2/8.png"",""time"":793},{""stimulus"":""img/3to2/9.png"",""time"":892},{""stimulus"":""img/3to2/10.png"",""time"":991},{""stimulus"":""img/3to2/11.png"",""time"":1090},{""stimulus"":""img/3to2/12.png"",""time"":1189}]","[]"
"image-keyboard-response","182","380696","0.0-5.0-1.89","61650ba8e42101c561bf7335","bdp_cybrbll","Wed Mar 29 2023 13:15:56 GMT-0400 (Eastern Daylight Time)","624121","3","1","","93","","","","choice","","img/2to1/1.png","1","136","258","0.5","0.1","2","1","",""
"animation","183","381985","0.0-5.0-2.89","61650ba8e42101c561bf7335","bdp_cybrbll","Wed Mar 29 2023 13:15:56 GMT-0400 (Eastern Daylight Time)","624121","3","1","","","","","","","","","","136","","","","2","1","[{""stimulus"":""img/2to1/1.png"",""time"":99},{""stimulus"":""img/2to1/2.png"",""time"":199},{""stimulus"":""img/2to1/3.png"",""time"":298},{""stimulus"":""img/2to1/4.png"",""time"":398},{""stimulus"":""img/2to1/5.png"",""time"":495},{""stimulus"":""img/2to1/6.png"",""time"":594},{""stimulus"":""img/2to1/7.png"",""time"":694},{""stimulus"":""img/2to1/8.png"",""time"":793},{""stimulus"":""img/2to1/9.png"",""time"":892},{""stimulus"":""img/2to1/10.png"",""time"":991},{""stimulus"":""img/2to1/11.png"",""time"":1090},{""stimulus"":""img/2to1/12.png"",""time"":1189}]","[]"
"image-keyboard-response","184","382275","0.0-5.0-1.90","61650ba8e42101c561bf7335","bdp_cybrbll","Wed Mar 29 2023 13:15:56 GMT-0400 (Eastern Daylight Time)","624121","3","1","","null","","","","observe","","img/1to3/1.png","null","135","289","0.5","0.1","1","3","",""
"animation","185","383563","0.0-5.0-2.90","61650ba8e42101c561bf7335","bdp_cybrbll","Wed Mar 29 2023 13:15:56 GMT-0400 (Eastern Daylight Time)","624121","3","1","","","","","","","","","","135","","","","1","3","[{""stimulus"":""img/1to3/1.png"",""time"":100},{""stimulus"":""img/1to3/2.png"",""time"":200},{""stimulus"":""img/1to3/3.png"",""time"":298},{""stimulus"":""img/1to3/4.png"",""time"":397},{""stimulus"":""img/1to3/5.png"",""time"":495},{""stimulus"":""img/1to3/6.png"",""time"":595},{""stimulus"":""img/1to3/7.png"",""time"":694},{""stimulus"":""img/1to3/8.png"",""time"":793},{""stimulus"":""img/1to3/9.png"",""time"":892},{""stimulus"":""img/1to3/10.png"",""time"":991},{""stimulus"":""img/1to3/11.png"",""time"":1090},{""stimulus"":""img/1to3/12.png"",""time"":1189}]","[]"
"image-keyboard-response","186","384630","0.0-5.0-1.91","61650ba8e42101c561bf7335","bdp_cybrbll","Wed Mar 29 2023 13:15:56 GMT-0400 (Eastern Daylight Time)","624121","3","1","","null","","","","observe","","img/3to2/1.png","null","134","1066","0.5","0.1","3","2","",""
"animation","187","385919","0.0-5.0-2.91","61650ba8e42101c561bf7335","bdp_cybrbll","Wed Mar 29 2023 13:15:56 GMT-0400 (Eastern Daylight Time)","624121","3","1","","","","","","","","","","134","","","","3","2","[{""stimulus"":""img/3to2/1.png"",""time"":101},{""stimulus"":""img/3to2/2.png"",""time"":199},{""stimulus"":""img/3to2/3.png"",""time"":298},{""stimulus"":""img/3to2/4.png"",""time"":397},{""stimulus"":""img/3to2/5.png"",""time"":497},{""stimulus"":""img/3to2/6.png"",""time"":596},{""stimulus"":""img/3to2/7.png"",""time"":695},{""stimulus"":""img/3to2/8.png"",""time"":795},{""stimulus"":""img/3to2/9.png"",""time"":892},{""stimulus"":""img/3to2/10.png"",""time"":992},{""stimulus"":""img/3to2/11.png"",""time"":1090},{""stimulus"":""img/3to2/12.png"",""time"":1190}]","[]"
"image-keyboard-response","188","386105","0.0-5.0-1.92","61650ba8e42101c561bf7335","bdp_cybrbll","Wed Mar 29 2023 13:15:56 GMT-0400 (Eastern Daylight Time)","624121","3","1","","184","","","","choice","","img/2to1/1.png","2","133","242","0.5","0.1","2","3","",""
"animation","189","387393","0.0-5.0-2.92","61650ba8e42101c561bf7335","bdp_cybrbll","Wed Mar 29 2023 13:15:56 GMT-0400 (Eastern Daylight Time)","624121","3","1","","","","","","","","","","133","","","","2","3","[{""stimulus"":""img/2to3/1.png"",""time"":100},{""stimulus"":""img/2to3/2.png"",""time"":199},{""stimulus"":""img/2to3/3.png"",""time"":298},{""stimulus"":""img/2to3/4.png"",""time"":397},{""stimulus"":""img/2to3/5.png"",""time"":496},{""stimulus"":""img/2to3/6.png"",""time"":595},{""stimulus"":""img/2to3/7.png"",""time"":695},{""stimulus"":""img/2to3/8.png"",""time"":793},{""stimulus"":""img/2to3/9.png"",""time"":892},{""stimulus"":""img/2to3/10.png"",""time"":991},{""stimulus"":""img/2to3/11.png"",""time"":1091},{""stimulus"":""img/2to3/12.png"",""time"":1190}]","[]"
"image-keyboard-response","190","387897","0.0-5.0-1.93","61650ba8e42101c561bf7335","bdp_cybrbll","Wed Mar 29 2023 13:15:56 GMT-0400 (Eastern Daylight Time)","624121","3","1","","null","","","","observe","","img/3to2/1.png","null","132","503","0.5","0.1","3","1","",""
