"trial_type","trial_index","time_elapsed","internal_node_id","subject_id","task","startTime","totalTime","fairPartner","unfairPartner","view_history","rt","event","trial","time","trialtype","success","stimulus","key_press","throwsLeft","rtDur","pFair","pUnfair","holder","receiver","animation_sequence","responses"
"pavlovia","0","3","0.0-0.0","5c5f525806006e0001db95d2","bdp_cybrbll","Sun Apr 02 2023 18:52:58 GMT-0400 (Eastern Daylight Time)","452499","3","1","","","","","","","","","","","","","","","","",""
"instructions","1","1171","0.0-1.0","5c5f525806006e0001db95d2","bdp_cybrbll","Sun Apr 02 2023 18:52:58 GMT-0400 (Eastern Daylight Time)","452499","3","1","[{""page_index"":0,""viewing_time"":1167}]","1167","","","","","","","","","","","","","","",""
"","","","","5c5f525806006e0001db95d2","bdp_cybrbll","Sun Apr 02 2023 18:52:58 GMT-0400 (Eastern Daylight Time)","452499","3","1","","","fullscreenenter","2","2969","fullscreenenter","","","","","","","","","","",""
"fullscreen","2","3948","0.0-2.0","5c5f525806006e0001db95d2","bdp_cybrbll","Sun Apr 02 2023 18:52:58 GMT-0400 (Eastern Daylight Time)","452499","3","1","","","","","","","true","","","","","","","","","",""
"instructions","3","17958","0.0-4.0","5c5f525806006e0001db95d2","bdp_cybrbll","Sun Apr 02 2023 18:52:58 GMT-0400 (Eastern Daylight Time)","452499","3","1","[{""page_index"":0,""viewing_time"":14007}]","14008","","","","","","","","","","","","","","",""
"image-keyboard-response","4","19072","0.0-5.0-1.0","5c5f525806006e0001db95d2","bdp_cybrbll","Sun Apr 02 2023 18:52:58 GMT-0400 (Eastern Daylight Time)","452499","3","1","","1113","","","","choice","","img/2to1/1.png","2","225","252","0.5","0.5","2","3","",""
"animation","5","20369","0.0-5.0-2.0","5c5f525806006e0001db95d2","bdp_cybrbll","Sun Apr 02 2023 18:52:58 GMT-0400 (Eastern Daylight Time)","452499","3","1","","","","","","","","","","225","","","","2","3","[{""stimulus"":""img/2to3/1.png"",""time"":115},{""stimulus"":""img/2to3/2.png"",""time"":215},{""stimulus"":""img/2to3/3.png"",""time"":298},{""stimulus"":""img/2to3/4.png"",""time"":398},{""stimulus"":""img/2to3/5.png"",""time"":498},{""stimulus"":""img/2to3/6.png"",""time"":597},{""stimulus"":""img/2to3/7.png"",""time"":696},{""stimulus"":""img/2to3/8.png"",""time"":797},{""stimulus"":""img/2to3/9.png"",""time"":897},{""stimulus"":""img/2to3/10.png"",""time"":996},{""stimulus"":""img/2to3/11.png"",""time"":1096},{""stimulus"":""img/2to3/12.png"",""time"":1198}]","[]"
"image-keyboard-response","6","20521","0.0-5.0-1.1","5c5f525806006e0001db95d2","bdp_cybrbll","Sun Apr 02 2023 18:52:58 GMT-0400 (Eastern Daylight Time)","452499","3","1","","null","","","","observe","","img/3to2/1.png","null","224","144","0.5","0.5","3","1","",""
"animation","7","21818","0.0-5.0-2.1","5c5f525806006e0001db95d2","bdp_cybrbll","Sun Apr 02 2023 18:52:58 GMT-0400 (Eastern Daylight Time)","452499","3","1","","","","","","","","","","224","","","","3","1","[{""stimulus"":""img/3to1/1.png"",""time"":111},{""stimulus"":""img/3to1/2.png"",""time"":214},{""stimulus"":""img/3to1/3.png"",""time"":298},{""stimulus"":""img/3to1/4.png"",""time"":398},{""stimulus"":""img/3to1/5.png"",""time"":497},{""stimulus"":""img/3to1/6.png"",""time"":598},{""stimulus"":""img/3to1/7.png"",""time"":697},{""stimulus"":""img/3to1/8.png"",""time"":797},{""stimulus"":""img/3to1/9.png"",""time"":896},{""stimulus"":""img/3to1/10.png"",""time"":990},{""stimulus"":""img/3to1/11.png"",""time"":1095},{""stimulus"":""img/3to1/12.png"",""time"":1195}]","[]"
"image-keyboard-response","8","22745","0.0-5.0-1.2","5c5f525806006e0001db95d2","bdp_cybrbll","Sun Apr 02 2023 18:52:58 GMT-0400 (Eastern Daylight Time)","452499","3","1","","null","","","","observe","","img/1to3/1.png","null","223","909","0.5","0.5","1","3","",""
"animation","9","24033","0.0-5.0-2.2","5c5f525806006e0001db95d2","bdp_cybrbll","Sun Apr 02 2023 18:52:58 GMT-0400 (Eastern Daylight Time)","452499","3","1","","","","","","","","","","223","","","","1","3","[{""stimulus"":""img/1to3/1.png"",""time"":112},{""stimulus"":""img/1to3/2.png"",""time"":206},{""stimulus"":""img/1to3/3.png"",""time"":305},{""stimulus"":""img/1to3/4.png"",""time"":404},{""stimulus"":""img/1to3/5.png"",""time"":505},{""stimulus"":""img/1to3/6.png"",""time"":605},{""stimulus"":""img/1to3/7.png"",""time"":698},{""stimulus"":""img/1to3/8.png"",""time"":805},{""stimulus"":""img/1to3/9.png"",""time"":906},{""stimulus"":""img/1to3/10.png"",""time"":1006},{""stimulus"":""img/1to3/11.png"",""time"":1105},{""stimulus"":""img/1to3/12.png"",""time"":1205}]","[]"
"image-keyboard-response","10","24310","0.0-5.0-1.3","5c5f525806006e0001db95d2","bdp_cybrbll","Sun Apr 02 2023 18:52:58 GMT-0400 (Eastern Daylight Time)","452499","3","1","","null","","","","observe","","img/3to2/1.png","null","222","265","0.5","0.5","3","1","",""
"animation","11","25613","0.0-5.0-2.3","5c5f525806006e0001db95d2","bdp_cybrbll","Sun Apr 02 2023 18:52:58 GMT-0400 (Eastern Daylight Time)","452499","3","1","","","","","","","","","","222","","","","3","1","[{""stimulus"":""img/3to1/1.png"",""time"":113},{""stimulus"":""img/3to1/2.png"",""time"":205},{""stimulus"":""img/3to1/3.png"",""time"":304},{""stimulus"":""img/3to1/4.png"",""time"":404},{""stimulus"":""img/3to1/5.png"",""time"":505},{""stimulus"":""img/3to1/6.png"",""time"":604},{""stimulus"":""img/3to1/7.png"",""time"":704},{""stimulus"":""img/3to1/8.png"",""time"":804},{""stimulus"":""img/3to1/9.png"",""time"":905},{""stimulus"":""img/3to1/10.png"",""time"":1005},{""stimulus"":""img/3to1/11.png"",""time"":1103},{""stimulus"":""img/3to1/12.png"",""time"":1189}]","[]"
"image-keyboard-response","12","25890","0.0-5.0-1.4","5c5f525806006e0001db95d2","bdp_cybrbll","Sun Apr 02 2023 18:52:58 GMT-0400 (Eastern Daylight Time)","452499","3","1","","null","","","","observe","","img/1to3/1.png","null","221","268","0.5","0.5","1","2","",""
"animation","13","27179","0.0-5.0-2.4","5c5f525806006e0001db95d2","bdp_cybrbll","Sun Apr 02 2023 18:52:58 GMT-0400 (Eastern Daylight Time)","452499","3","1","","","","","","","","","","221","","","","1","2","[{""stimulus"":""img/1to2/1.png"",""time"":113},{""stimulus"":""img/1to2/2.png"",""time"":208},{""stimulus"":""img/1to2/3.png"",""time"":307},{""stimulus"":""img/1to2/4.png"",""time"":408},{""stimulus"":""img/1to2/5.png"",""time"":508},{""stimulus"":""img/1to2/6.png"",""time"":606},{""stimulus"":""img/1to2/7.png"",""time"":706},{""stimulus"":""img/1to2/8.png"",""time"":792},{""stimulus"":""img/1to2/9.png"",""time"":907},{""stimulus"":""img/1to2/10.png"",""time"":1006},{""stimulus"":""img/1to2/11.png"",""time"":1090},{""stimulus"":""img/1to2/12.png"",""time"":1191}]","[]"
"image-keyboard-response","14","27459","0.0-5.0-1.5","5c5f525806006e0001db95d2","bdp_cybrbll","Sun Apr 02 2023 18:52:58 GMT-0400 (Eastern Daylight Time)","452499","3","1","","279","","","","choice","","img/2to1/1.png","1","220","1175","0.5","0.5","2","1","",""
"animation","15","28759","0.0-5.0-2.5","5c5f525806006e0001db95d2","bdp_cybrbll","Sun Apr 02 2023 18:52:58 GMT-0400 (Eastern Daylight Time)","452499","3","1","","","","","","","","","","220","","","","2","1","[{""stimulus"":""img/2to1/1.png"",""time"":104},{""stimulus"":""img/2to1/2.png"",""time"":209},{""stimulus"":""img/2to1/3.png"",""time"":301},{""stimulus"":""img/2to1/4.png"",""time"":403},{""stimulus"":""img/2to1/5.png"",""time"":503},{""stimulus"":""img/2to1/6.png"",""time"":603},{""stimulus"":""img/2to1/7.png"",""time"":703},{""stimulus"":""img/2to1/8.png"",""time"":804},{""stimulus"":""img/2to1/9.png"",""time"":903},{""stimulus"":""img/2to1/10.png"",""time"":1004},{""stimulus"":""img/2to1/11.png"",""time"":1104},{""stimulus"":""img/2to1/12.png"",""time"":1204}]","[]"
"image-keyboard-response","16","29200","0.0-5.0-1.6","5c5f525806006e0001db95d2","bdp_cybrbll","Sun Apr 02 2023 18:52:58 GMT-0400 (Eastern Daylight Time)","452499","3","1","","null","","","","observe","","img/1to3/1.png","null","219","429","0.5","0.5","1","3","",""
"animation","17","30488","0.0-5.0-2.6","5c5f525806006e0001db95d2","bdp_cybrbll","Sun Apr 02 2023 18:52:58 GMT-0400 (Eastern Daylight Time)","452499","3","1","","","","","","","","","","219","","","","1","3","[{""stimulus"":""img/1to3/1.png"",""time"":102},{""stimulus"":""img/1to3/2.png"",""time"":200},{""stimulus"":""img/1to3/3.png"",""time"":298},{""stimulus"":""img/1to3/4.png"",""time"":397},{""stimulus"":""img/1to3/5.png"",""time"":496},{""stimulus"":""img/1to3/6.png"",""time"":595},{""stimulus"":""img/1to3/7.png"",""time"":695},{""stimulus"":""img/1to3/8.png"",""time"":793},{""stimulus"":""img/1to3/9.png"",""time"":892},{""stimulus"":""img/1to3/10.png"",""time"":991},{""stimulus"":""img/1to3/11.png"",""time"":1091},{""stimulus"":""img/1to3/12.png"",""time"":1190}]","[]"
"image-keyboard-response","18","31281","0.0-5.0-1.7","5c5f525806006e0001db95d2","bdp_cybrbll","Sun Apr 02 2023 18:52:58 GMT-0400 (Eastern Daylight Time)","452499","3","1","","null","","","","observe","","img/3to2/1.png","null","218","791","0.5","0.5","3","2","",""
"animation","19","32569","0.0-5.0-2.7","5c5f525806006e0001db95d2","bdp_cybrbll","Sun Apr 02 2023 18:52:58 GMT-0400 (Eastern Daylight Time)","452499","3","1","","","","","","","","","","218","","","","3","2","[{""stimulus"":""img/3to2/1.png"",""time"":101},{""stimulus"":""img/3to2/2.png"",""time"":201},{""stimulus"":""img/3to2/3.png"",""time"":299},{""stimulus"":""img/3to2/4.png"",""time"":397},{""stimulus"":""img/3to2/5.png"",""time"":497},{""stimulus"":""img/3to2/6.png"",""time"":596},{""stimulus"":""img/3to2/7.png"",""time"":694},{""stimulus"":""img/3to2/8.png"",""time"":794},{""stimulus"":""img/3to2/9.png"",""time"":893},{""stimulus"":""img/3to2/10.png"",""time"":992},{""stimulus"":""img/3to2/11.png"",""time"":1092},{""stimulus"":""img/3to2/12.png"",""time"":1189}]","[]"
"image-keyboard-response","20","33195","0.0-5.0-1.8","5c5f525806006e0001db95d2","bdp_cybrbll","Sun Apr 02 2023 18:52:58 GMT-0400 (Eastern Daylight Time)","452499","3","1","","625","","","","choice","","img/2to1/1.png","2","217","448","0.5","0.5","2","3","",""
"animation","21","34483","0.0-5.0-2.8","5c5f525806006e0001db95d2","bdp_cybrbll","Sun Apr 02 2023 18:52:58 GMT-0400 (Eastern Daylight Time)","452499","3","1","","","","","","","","","","217","","","","2","3","[{""stimulus"":""img/2to3/1.png"",""time"":100},{""stimulus"":""img/2to3/2.png"",""time"":199},{""stimulus"":""img/2to3/3.png"",""time"":298},{""stimulus"":""img/2to3/4.png"",""time"":397},{""stimulus"":""img/2to3/5.png"",""time"":496},{""stimulus"":""img/2to3/6.png"",""time"":595},{""stimulus"":""img/2to3/7.png"",""time"":694},{""stimulus"":""img/2to3/8.png"",""time"":794},{""stimulus"":""img/2to3/9.png"",""time"":893},{""stimulus"":""img/2to3/10.png"",""time"":991},{""stimulus"":""img/2to3/11.png"",""time"":1091},{""stimulus"":""img/2to3/12.png"",""time"":1190}]","[]"
"image-keyboard-response","22","34886","0.0-5.0-1.9","5c5f525806006e0001db95d2","bdp_cybrbll","Sun Apr 02 2023 18:52:58 GMT-0400 (Eastern Daylight Time)","452499","3","1","","null","","","","observe","","img/3to2/1.png","null","216","402","0.5","0.5","3","2","",""
"animation","23","36175","0.0-5.0-2.9","5c5f525806006e0001db95d2","bdp_cybrbll","Sun Apr 02 2023 18:52:58 GMT-0400 (Eastern Daylight Time)","452499","3","1","","","","","","","","","","216","","","","3","2","[{""stimulus"":""img/3to2/1.png"",""time"":101},{""stimulus"":""img/3to2/2.png"",""time"":200},{""stimulus"":""img/3to2/3.png"",""time"":299},{""stimulus"":""img/3to2/4.png"",""time"":398},{""stimulus"":""img/3to2/5.png"",""time"":497},{""stimulus"":""img/3to2/6.png"",""time"":595},{""stimulus"":""img/3to2/7.png"",""time"":694},{""stimulus"":""img/3to2/8.png"",""time"":794},{""stimulus"":""img/3to2/9.png"",""time"":892},{""stimulus"":""img/3to2/10.png"",""time"":992},{""stimulus"":""img/3to2/11.png"",""time"":1091},{""stimulus"":""img/3to2/12.png"",""time"":1189}]","[]"
"image-keyboard-response","24","36405","0.0-5.0-1.10","5c5f525806006e0001db95d2","bdp_cybrbll","Sun Apr 02 2023 18:52:58 GMT-0400 (Eastern Daylight Time)","452499","3","1","","230","","","","choice","","img/2to1/1.png","1","215","361","0.5","0.5","2","1","",""
"animation","25","37694","0.0-5.0-2.10","5c5f525806006e0001db95d2","bdp_cybrbll","Sun Apr 02 2023 18:52:58 GMT-0400 (Eastern Daylight Time)","452499","3","1","","","","","","","","","","215","","","","2","1","[{""stimulus"":""img/2to1/1.png"",""time"":100},{""stimulus"":""img/2to1/2.png"",""time"":199},{""stimulus"":""img/2to1/3.png"",""time"":298},{""stimulus"":""img/2to1/4.png"",""time"":397},{""stimulus"":""img/2to1/5.png"",""time"":495},{""stimulus"":""img/2to1/6.png"",""time"":595},{""stimulus"":""img/2to1/7.png"",""time"":694},{""stimulus"":""img/2to1/8.png"",""time"":793},{""stimulus"":""img/2to1/9.png"",""time"":893},{""stimulus"":""img/2to1/10.png"",""time"":991},{""stimulus"":""img/2to1/11.png"",""time"":1090},{""stimulus"":""img/2to1/12.png"",""time"":1189}]","[]"
"image-keyboard-response","26","37938","0.0-5.0-1.11","5c5f525806006e0001db95d2","bdp_cybrbll","Sun Apr 02 2023 18:52:58 GMT-0400 (Eastern Daylight Time)","452499","3","1","","null","","","","observe","","img/1to3/1.png","null","214","243","0.5","0.5","1","3","",""
"animation","27","39226","0.0-5.0-2.11","5c5f525806006e0001db95d2","bdp_cybrbll","Sun Apr 02 2023 18:52:58 GMT-0400 (Eastern Daylight Time)","452499","3","1","","","","","","","","","","214","","","","1","3","[{""stimulus"":""img/1to3/1.png"",""time"":101},{""stimulus"":""img/1to3/2.png"",""time"":200},{""stimulus"":""img/1to3/3.png"",""time"":298},{""stimulus"":""img/1to3/4.png"",""time"":398},{""stimulus"":""img/1to3/5.png"",""time"":497},{""stimulus"":""img/1to3/6.png"",""time"":595},{""stimulus"":""img/1to3/7.png"",""time"":694},{""stimulus"":""img/1to3/8.png"",""time"":794},{""stimulus"":""img/1to3/9.png"",""time"":893},{""stimulus"":""img/1to3/10.png"",""time"":992},{""stimulus"":""img/1to3/11.png"",""time"":1090},{""stimulus"":""img/1to3/12.png"",""time"":1190}]","[]"
"image-keyboard-response","28","39891","0.0-5.0-1.12","5c5f525806006e0001db95d2","bdp_cybrbll","Sun Apr 02 2023 18:52:58 GMT-0400 (Eastern Daylight Time)","452499","3","1","","null","","","","observe","","img/3to2/1.png","null","213","663","0.5","0.5","3","2","",""
"animation","29","41179","0.0-5.0-2.12","5c5f525806006e0001db95d2","bdp_cybrbll","Sun Apr 02 2023 18:52:58 GMT-0400 (Eastern Daylight Time)","452499","3","1","","","","","","","","","","213","","","","3","2","[{""stimulus"":""img/3to2/1.png"",""time"":100},{""stimulus"":""img/3to2/2.png"",""time"":200},{""stimulus"":""img/3to2/3.png"",""time"":298},{""stimulus"":""img/3to2/4.png"",""time"":397},{""stimulus"":""img/3to2/5.png"",""time"":510},{""stimulus"":""img/3to2/6.png"",""time"":595},{""stimulus"":""img/3to2/7.png"",""time"":694},{""stimulus"":""img/3to2/8.png"",""time"":794},{""stimulus"":""img/3to2/9.png"",""time"":892},{""stimulus"":""img/3to2/10.png"",""time"":991},{""stimulus"":""img/3to2/11.png"",""time"":1090},{""stimulus"":""img/3to2/12.png"",""time"":1189}]","[]"
"image-keyboard-response","30","42075","0.0-5.0-1.13","5c5f525806006e0001db95d2","bdp_cybrbll","Sun Apr 02 2023 18:52:58 GMT-0400 (Eastern Daylight Time)","452499","3","1","","895","","","","choice","","img/2to1/1.png","2","212","616","0.5","0.5","2","3","",""
"animation","31","43363","0.0-5.0-2.13","5c5f525806006e0001db95d2","bdp_cybrbll","Sun Apr 02 2023 18:52:58 GMT-0400 (Eastern Daylight Time)","452499","3","1","","","","","","","","","","212","","","","2","3","[{""stimulus"":""img/2to3/1.png"",""time"":100},{""stimulus"":""img/2to3/2.png"",""time"":199},{""stimulus"":""img/2to3/3.png"",""time"":298},{""stimulus"":""img/2to3/4.png"",""time"":397},{""stimulus"":""img/2to3/5.png"",""time"":496},{""stimulus"":""img/2to3/6.png"",""time"":594},{""stimulus"":""img/2to3/7.png"",""time"":694},{""stimulus"":""img/2to3/8.png"",""time"":792},{""stimulus"":""img/2to3/9.png"",""time"":891},{""stimulus"":""img/2to3/10.png"",""time"":991},{""stimulus"":""img/2to3/11.png"",""time"":1090},{""stimulus"":""img/2to3/12.png"",""time"":1188}]","[]"
"image-keyboard-response","32","43586","0.0-5.0-1.14","5c5f525806006e0001db95d2","bdp_cybrbll","Sun Apr 02 2023 18:52:58 GMT-0400 (Eastern Daylight Time)","452499","3","1","","null","","","","observe","","img/3to2/1.png","null","211","222","0.5","0.5","3","2","",""
"animation","33","44874","0.0-5.0-2.14","5c5f525806006e0001db95d2","bdp_cybrbll","Sun Apr 02 2023 18:52:58 GMT-0400 (Eastern Daylight Time)","452499","3","1","","","","","","","","","","211","","","","3","2","[{""stimulus"":""img/3to2/1.png"",""time"":100},{""stimulus"":""img/3to2/2.png"",""time"":199},{""stimulus"":""img/3to2/3.png"",""time"":298},{""stimulus"":""img/3to2/4.png"",""time"":398},{""stimulus"":""img/3to2/5.png"",""time"":496},{""stimulus"":""img/3to2/6.png"",""time"":595},{""stimulus"":""img/3to2/7.png"",""time"":694},{""stimulus"":""img/3to2/8.png"",""time"":794},{""stimulus"":""img/3to2/9.png"",""time"":892},{""stimulus"":""img/3to2/10.png"",""time"":991},{""stimulus"":""img/3to2/11.png"",""time"":1090},{""stimulus"":""img/3to2/12.png"",""time"":1189}]","[]"
"image-keyboard-response","34","44968","0.0-5.0-1.15","5c5f525806006e0001db95d2","bdp_cybrbll","Sun Apr 02 2023 18:52:58 GMT-0400 (Eastern Daylight Time)","452499","3","1","","92","","","","choice","","img/2to1/1.png","1","210","324","0.5","0.5","2","1","",""
"animation","35","46256","0.0-5.0-2.15","5c5f525806006e0001db95d2","bdp_cybrbll","Sun Apr 02 2023 18:52:58 GMT-0400 (Eastern Daylight Time)","452499","3","1","","","","","","","","","","210","","","","2","1","[{""stimulus"":""img/2to1/1.png"",""time"":99},{""stimulus"":""img/2to1/2.png"",""time"":199},{""stimulus"":""img/2to1/3.png"",""time"":298},{""stimulus"":""img/2to1/4.png"",""time"":397},{""stimulus"":""img/2to1/5.png"",""time"":496},{""stimulus"":""img/2to1/6.png"",""time"":594},{""stimulus"":""img/2to1/7.png"",""time"":694},{""stimulus"":""img/2to1/8.png"",""time"":793},{""stimulus"":""img/2to1/9.png"",""time"":892},{""stimulus"":""img/2to1/10.png"",""time"":991},{""stimulus"":""img/2to1/11.png"",""time"":1090},{""stimulus"":""img/2to1/12.png"",""time"":1189}]","[]"
"image-keyboard-response","36","46623","0.0-5.0-1.16","5c5f525806006e0001db95d2","bdp_cybrbll","Sun Apr 02 2023 18:52:58 GMT-0400 (Eastern Daylight Time)","452499","3","1","","null","","","","observe","","img/1to3/1.png","null","209","365","0.5","0.5","1","3","",""
"animation","37","47911","0.0-5.0-2.16","5c5f525806006e0001db95d2","bdp_cybrbll","Sun Apr 02 2023 18:52:58 GMT-0400 (Eastern Daylight Time)","452499","3","1","","","","","","","","","","209","","","","1","3","[{""stimulus"":""img/1to3/1.png"",""time"":99},{""stimulus"":""img/1to3/2.png"",""time"":199},{""stimulus"":""img/1to3/3.png"",""time"":297},{""stimulus"":""img/1to3/4.png"",""time"":397},{""stimulus"":""img/1to3/5.png"",""time"":496},{""stimulus"":""img/1to3/6.png"",""time"":595},{""stimulus"":""img/1to3/7.png"",""time"":695},{""stimulus"":""img/1to3/8.png"",""time"":802},{""stimulus"":""img/1to3/9.png"",""time"":892},{""stimulus"":""img/1to3/10.png"",""time"":990},{""stimulus"":""img/1to3/11.png"",""time"":1090},{""stimulus"":""img/1to3/12.png"",""time"":1189}]","[]"
"image-keyboard-response","38","48204","0.0-5.0-1.17","5c5f525806006e0001db95d2","bdp_cybrbll","Sun Apr 02 2023 18:52:58 GMT-0400 (Eastern Daylight Time)","452499","3","1","","null","","","","observe","","img/3to2/1.png","null","208","291","0.5","0.5","3","1","",""
"animation","39","49491","0.0-5.0-2.17","5c5f525806006e0001db95d2","bdp_cybrbll","Sun Apr 02 2023 18:52:58 GMT-0400 (Eastern Daylight Time)","452499","3","1","","","","","","","","","","208","","","","3","1","[{""stimulus"":""img/3to1/1.png"",""time"":100},{""stimulus"":""img/3to1/2.png"",""time"":200},{""stimulus"":""img/3to1/3.png"",""time"":297},{""stimulus"":""img/3to1/4.png"",""time"":397},{""stimulus"":""img/3to1/5.png"",""time"":496},{""stimulus"":""img/3to1/6.png"",""time"":600},{""stimulus"":""img/3to1/7.png"",""time"":694},{""stimulus"":""img/3to1/8.png"",""time"":793},{""stimulus"":""img/3to1/9.png"",""time"":891},{""stimulus"":""img/3to1/10.png"",""time"":990},{""stimulus"":""img/3to1/11.png"",""time"":1090},{""stimulus"":""img/3to1/12.png"",""time"":1190}]","[]"
"image-keyboard-response","40","50232","0.0-5.0-1.18","5c5f525806006e0001db95d2","bdp_cybrbll","Sun Apr 02 2023 18:52:58 GMT-0400 (Eastern Daylight Time)","452499","3","1","","null","","","","observe","","img/1to3/1.png","null","207","739","0.5","0.5","1","2","",""
"animation","41","51520","0.0-5.0-2.18","5c5f525806006e0001db95d2","bdp_cybrbll","Sun Apr 02 2023 18:52:58 GMT-0400 (Eastern Daylight Time)","452499","3","1","","","","","","","","","","207","","","","1","2","[{""stimulus"":""img/1to2/1.png"",""time"":101},{""stimulus"":""img/1to2/2.png"",""time"":199},{""stimulus"":""img/1to2/3.png"",""time"":298},{""stimulus"":""img/1to2/4.png"",""time"":396},{""stimulus"":""img/1to2/5.png"",""time"":497},{""stimulus"":""img/1to2/6.png"",""time"":596},{""stimulus"":""img/1to2/7.png"",""time"":694},{""stimulus"":""img/1to2/8.png"",""time"":792},{""stimulus"":""img/1to2/9.png"",""time"":892},{""stimulus"":""img/1to2/10.png"",""time"":991},{""stimulus"":""img/1to2/11.png"",""time"":1090},{""stimulus"":""img/1to2/12.png"",""time"":1189}]","[]"
"image-keyboard-response","42","51936","0.0-5.0-1.19","5c5f525806006e0001db95d2","bdp_cybrbll","Sun Apr 02 2023 18:52:58 GMT-0400 (Eastern Daylight Time)","452499","3","1","","415","","","","choice","","img/2to1/1.png","2","206","195","0.5","0.5","2","3","",""
"animation","43","53224","0.0-5.0-2.19","5c5f525806006e0001db95d2","bdp_cybrbll","Sun Apr 02 2023 18:52:58 GMT-0400 (Eastern Daylight Time)","452499","3","1","","","","","","","","","","206","","","","2","3","[{""stimulus"":""img/2to3/1.png"",""time"":100},{""stimulus"":""img/2to3/2.png"",""time"":199},{""stimulus"":""img/2to3/3.png"",""time"":298},{""stimulus"":""img/2to3/4.png"",""time"":397},{""stimulus"":""img/2to3/5.png"",""time"":495},{""stimulus"":""img/2to3/6.png"",""time"":595},{""stimulus"":""img/2to3/7.png"",""time"":694},{""stimulus"":""img/2to3/8.png"",""time"":792},{""stimulus"":""img/2to3/9.png"",""time"":892},{""stimulus"":""img/2to3/10.png"",""time"":991},{""stimulus"":""img/2to3/11.png"",""time"":1089},{""stimulus"":""img/2to3/12.png"",""time"":1189}]","[]"
"image-keyboard-response","44","53538","0.0-5.0-1.20","5c5f525806006e0001db95d2","bdp_cybrbll","Sun Apr 02 2023 18:52:58 GMT-0400 (Eastern Daylight Time)","452499","3","1","","null","","","","observe","","img/3to2/1.png","null","205","313","0.5","0.5","3","1","",""
"animation","45","54826","0.0-5.0-2.20","5c5f525806006e0001db95d2","bdp_cybrbll","Sun Apr 02 2023 18:52:58 GMT-0400 (Eastern Daylight Time)","452499","3","1","","","","","","","","","","205","","","","3","1","[{""stimulus"":""img/3to1/1.png"",""time"":101},{""stimulus"":""img/3to1/2.png"",""time"":199},{""stimulus"":""img/3to1/3.png"",""time"":298},{""stimulus"":""img/3to1/4.png"",""time"":397},{""stimulus"":""img/3to1/5.png"",""time"":511},{""stimulus"":""img/3to1/6.png"",""time"":603},{""stimulus"":""img/3to1/7.png"",""time"":694},{""stimulus"":""img/3to1/8.png"",""time"":794},{""stimulus"":""img/3to1/9.png"",""time"":892},{""stimulus"":""img/3to1/10.png"",""time"":991},{""stimulus"":""img/3to1/11.png"",""time"":1090},{""stimulus"":""img/3to1/12.png"",""time"":1190}]","[]"
"image-keyboard-response","46","55008","0.0-5.0-1.21","5c5f525806006e0001db95d2","bdp_cybrbll","Sun Apr 02 2023 18:52:58 GMT-0400 (Eastern Daylight Time)","452499","3","1","","null","","","","observe","","img/1to3/1.png","null","204","181","0.5","0.5","1","3","",""
"animation","47","56296","0.0-5.0-2.21","5c5f525806006e0001db95d2","bdp_cybrbll","Sun Apr 02 2023 18:52:58 GMT-0400 (Eastern Daylight Time)","452499","3","1","","","","","","","","","","204","","","","1","3","[{""stimulus"":""img/1to3/1.png"",""time"":110},{""stimulus"":""img/1to3/2.png"",""time"":199},{""stimulus"":""img/1to3/3.png"",""time"":298},{""stimulus"":""img/1to3/4.png"",""time"":397},{""stimulus"":""img/1to3/5.png"",""time"":496},{""stimulus"":""img/1to3/6.png"",""time"":596},{""stimulus"":""img/1to3/7.png"",""time"":694},{""stimulus"":""img/1to3/8.png"",""time"":793},{""stimulus"":""img/1to3/9.png"",""time"":893},{""stimulus"":""img/1to3/10.png"",""time"":992},{""stimulus"":""img/1to3/11.png"",""time"":1090},{""stimulus"":""img/1to3/12.png"",""time"":1189}]","[]"
"image-keyboard-response","48","56971","0.0-5.0-1.22","5c5f525806006e0001db95d2","bdp_cybrbll","Sun Apr 02 2023 18:52:58 GMT-0400 (Eastern Daylight Time)","452499","3","1","","null","","","","observe","","img/3to2/1.png","null","203","674","0.5","0.5","3","1","",""
"animation","49","58262","0.0-5.0-2.22","5c5f525806006e0001db95d2","bdp_cybrbll","Sun Apr 02 2023 18:52:58 GMT-0400 (Eastern Daylight Time)","452499","3","1","","","","","","","","","","203","","","","3","1","[{""stimulus"":""img/3to1/1.png"",""time"":102},{""stimulus"":""img/3to1/2.png"",""time"":201},{""stimulus"":""img/3to1/3.png"",""time"":301},{""stimulus"":""img/3to1/4.png"",""time"":399},{""stimulus"":""img/3to1/5.png"",""time"":499},{""stimulus"":""img/3to1/6.png"",""time"":597},{""stimulus"":""img/3to1/7.png"",""time"":695},{""stimulus"":""img/3to1/8.png"",""time"":794},{""stimulus"":""img/3to1/9.png"",""time"":895},{""stimulus"":""img/3to1/10.png"",""time"":994},{""stimulus"":""img/3to1/11.png"",""time"":1092},{""stimulus"":""img/3to1/12.png"",""time"":1191}]","[]"
"image-keyboard-response","50","58956","0.0-5.0-1.23","5c5f525806006e0001db95d2","bdp_cybrbll","Sun Apr 02 2023 18:52:58 GMT-0400 (Eastern Daylight Time)","452499","3","1","","null","","","","observe","","img/1to3/1.png","null","202","693","0.5","0.5","1","2","",""
"animation","51","60244","0.0-5.0-2.23","5c5f525806006e0001db95d2","bdp_cybrbll","Sun Apr 02 2023 18:52:58 GMT-0400 (Eastern Daylight Time)","452499","3","1","","","","","","","","","","202","","","","1","2","[{""stimulus"":""img/1to2/1.png"",""time"":99},{""stimulus"":""img/1to2/2.png"",""time"":199},{""stimulus"":""img/1to2/3.png"",""time"":299},{""stimulus"":""img/1to2/4.png"",""time"":396},{""stimulus"":""img/1to2/5.png"",""time"":497},{""stimulus"":""img/1to2/6.png"",""time"":594},{""stimulus"":""img/1to2/7.png"",""time"":694},{""stimulus"":""img/1to2/8.png"",""time"":793},{""stimulus"":""img/1to2/9.png"",""time"":892},{""stimulus"":""img/1to2/10.png"",""time"":991},{""stimulus"":""img/1to2/11.png"",""time"":1090},{""stimulus"":""img/1to2/12.png"",""time"":1189}]","[]"
"image-keyboard-response","52","60875","0.0-5.0-1.24","5c5f525806006e0001db95d2","bdp_cybrbll","Sun Apr 02 2023 18:52:58 GMT-0400 (Eastern Daylight Time)","452499","3","1","","630","","","","choice","","img/2to1/1.png","1","201","1161","0.5","0.5","2","1","",""
"animation","53","62164","0.0-5.0-2.24","5c5f525806006e0001db95d2","bdp_cybrbll","Sun Apr 02 2023 18:52:58 GMT-0400 (Eastern Daylight Time)","452499","3","1","","","","","","","","","","201","","","","2","1","[{""stimulus"":""img/2to1/1.png"",""time"":99},{""stimulus"":""img/2to1/2.png"",""time"":201},{""stimulus"":""img/2to1/3.png"",""time"":298},{""stimulus"":""img/2to1/4.png"",""time"":397},{""stimulus"":""img/2to1/5.png"",""time"":499},{""stimulus"":""img/2to1/6.png"",""time"":595},{""stimulus"":""img/2to1/7.png"",""time"":694},{""stimulus"":""img/2to1/8.png"",""time"":793},{""stimulus"":""img/2to1/9.png"",""time"":892},{""stimulus"":""img/2to1/10.png"",""time"":991},{""stimulus"":""img/2to1/11.png"",""time"":1090},{""stimulus"":""img/2to1/12.png"",""time"":1190}]","[]"
"image-keyboard-response","54","62755","0.0-5.0-1.25","5c5f525806006e0001db95d2","bdp_cybrbll","Sun Apr 02 2023 18:52:58 GMT-0400 (Eastern Daylight Time)","452499","3","1","","null","","","","observe","","img/1to3/1.png","null","200","589","0.5","0.5","1","2","",""
"animation","55","64043","0.0-5.0-2.25","5c5f525806006e0001db95d2","bdp_cybrbll","Sun Apr 02 2023 18:52:58 GMT-0400 (Eastern Daylight Time)","452499","3","1","","","","","","","","","","200","","","","1","2","[{""stimulus"":""img/1to2/1.png"",""time"":100},{""stimulus"":""img/1to2/2.png"",""time"":198},{""stimulus"":""img/1to2/3.png"",""time"":298},{""stimulus"":""img/1to2/4.png"",""time"":398},{""stimulus"":""img/1to2/5.png"",""time"":496},{""stimulus"":""img/1to2/6.png"",""time"":596},{""stimulus"":""img/1to2/7.png"",""time"":695},{""stimulus"":""img/1to2/8.png"",""time"":793},{""stimulus"":""img/1to2/9.png"",""time"":892},{""stimulus"":""img/1to2/10.png"",""time"":991},{""stimulus"":""img/1to2/11.png"",""time"":1090},{""stimulus"":""img/1to2/12.png"",""time"":1189}]","[]"
"image-keyboard-response","56","64330","0.0-5.0-1.26","5c5f525806006e0001db95d2","bdp_cybrbll","Sun Apr 02 2023 18:52:58 GMT-0400 (Eastern Daylight Time)","452499","3","1","","286","","","","choice","","img/2to1/1.png","2","199","799","0.5","0.5","2","3","",""
"animation","57","65618","0.0-5.0-2.26","5c5f525806006e0001db95d2","bdp_cybrbll","Sun Apr 02 2023 18:52:58 GMT-0400 (Eastern Daylight Time)","452499","3","1","","","","","","","","","","199","","","","2","3","[{""stimulus"":""img/2to3/1.png"",""time"":102},{""stimulus"":""img/2to3/2.png"",""time"":199},{""stimulus"":""img/2to3/3.png"",""time"":297},{""stimulus"":""img/2to3/4.png"",""time"":397},{""stimulus"":""img/2to3/5.png"",""time"":496},{""stimulus"":""img/2to3/6.png"",""time"":595},{""stimulus"":""img/2to3/7.png"",""time"":694},{""stimulus"":""img/2to3/8.png"",""time"":793},{""stimulus"":""img/2to3/9.png"",""time"":891},{""stimulus"":""img/2to3/10.png"",""time"":990},{""stimulus"":""img/2to3/11.png"",""time"":1090},{""stimulus"":""img/2to3/12.png"",""time"":1189}]","[]"
"image-keyboard-response","58","65764","0.0-5.0-1.27","5c5f525806006e0001db95d2","bdp_cybrbll","Sun Apr 02 2023 18:52:58 GMT-0400 (Eastern Daylight Time)","452499","3","1","","null","","","","observe","","img/3to2/1.png","null","198","144","0.5","0.5","3","2","",""
"animation","59","67052","0.0-5.0-2.27","5c5f525806006e0001db95d2","bdp_cybrbll","Sun Apr 02 2023 18:52:58 GMT-0400 (Eastern Daylight Time)","452499","3","1","","","","","","","","","","198","","","","3","2","[{""stimulus"":""img/3to2/1.png"",""time"":100},{""stimulus"":""img/3to2/2.png"",""time"":199},{""stimulus"":""img/3to2/3.png"",""time"":299},{""stimulus"":""img/3to2/4.png"",""time"":397},{""stimulus"":""img/3to2/5.png"",""time"":496},{""stimulus"":""img/3to2/6.png"",""time"":596},{""stimulus"":""img/3to2/7.png"",""time"":695},{""stimulus"":""img/3to2/8.png"",""time"":800},{""stimulus"":""img/3to2/9.png"",""time"":892},{""stimulus"":""img/3to2/10.png"",""time"":1000},{""stimulus"":""img/3to2/11.png"",""time"":1090},{""stimulus"":""img/3to2/12.png"",""time"":1189}]","[]"
"image-keyboard-response","60","67517","0.0-5.0-1.28","5c5f525806006e0001db95d2","bdp_cybrbll","Sun Apr 02 2023 18:52:58 GMT-0400 (Eastern Daylight Time)","452499","3","1","","465","","","","choice","","img/2to1/1.png","1","197","159","0.5","0.5","2","1","",""
"animation","61","68805","0.0-5.0-2.28","5c5f525806006e0001db95d2","bdp_cybrbll","Sun Apr 02 2023 18:52:58 GMT-0400 (Eastern Daylight Time)","452499","3","1","","","","","","","","","","197","","","","2","1","[{""stimulus"":""img/2to1/1.png"",""time"":100},{""stimulus"":""img/2to1/2.png"",""time"":199},{""stimulus"":""img/2to1/3.png"",""time"":298},{""stimulus"":""img/2to1/4.png"",""time"":397},{""stimulus"":""img/2to1/5.png"",""time"":496},{""stimulus"":""img/2to1/6.png"",""time"":595},{""stimulus"":""img/2to1/7.png"",""time"":693},{""stimulus"":""img/2to1/8.png"",""time"":793},{""stimulus"":""img/2to1/9.png"",""time"":892},{""stimulus"":""img/2to1/10.png"",""time"":991},{""stimulus"":""img/2to1/11.png"",""time"":1090},{""stimulus"":""img/2to1/12.png"",""time"":1189}]","[]"
"image-keyboard-response","62","69222","0.0-5.0-1.29","5c5f525806006e0001db95d2","bdp_cybrbll","Sun Apr 02 2023 18:52:58 GMT-0400 (Eastern Daylight Time)","452499","3","1","","null","","","","observe","","img/1to3/1.png","null","196","415","0.5","0.5","1","2","",""
"animation","63","70510","0.0-5.0-2.29","5c5f525806006e0001db95d2","bdp_cybrbll","Sun Apr 02 2023 18:52:58 GMT-0400 (Eastern Daylight Time)","452499","3","1","","","","","","","","","","196","","","","1","2","[{""stimulus"":""img/1to2/1.png"",""time"":101},{""stimulus"":""img/1to2/2.png"",""time"":200},{""stimulus"":""img/1to2/3.png"",""time"":298},{""stimulus"":""img/1to2/4.png"",""time"":397},{""stimulus"":""img/1to2/5.png"",""time"":497},{""stimulus"":""img/1to2/6.png"",""time"":595},{""stimulus"":""img/1to2/7.png"",""time"":694},{""stimulus"":""img/1to2/8.png"",""time"":794},{""stimulus"":""img/1to2/9.png"",""time"":894},{""stimulus"":""img/1to2/10.png"",""time"":992},{""stimulus"":""img/1to2/11.png"",""time"":1090},{""stimulus"":""img/1to2/12.png"",""time"":1190}]","[]"
"image-keyboard-response","64","70759","0.0-5.0-1.30","5c5f525806006e0001db95d2","bdp_cybrbll","Sun Apr 02 2023 18:52:58 GMT-0400 (Eastern Daylight Time)","452499","3","1","","248","","","","choice","","img/2to1/1.png","2","195","685","0.5","0.5","2","3","",""
"animation","65","72047","0.0-5.0-2.30","5c5f525806006e0001db95d2","bdp_cybrbll","Sun Apr 02 2023 18:52:58 GMT-0400 (Eastern Daylight Time)","452499","3","1","","","","","","","","","","195","","","","2","3","[{""stimulus"":""img/2to3/1.png"",""time"":100},{""stimulus"":""img/2to3/2.png"",""time"":199},{""stimulus"":""img/2to3/3.png"",""time"":298},{""stimulus"":""img/2to3/4.png"",""time"":397},{""stimulus"":""img/2to3/5.png"",""time"":497},{""stimulus"":""img/2to3/6.png"",""time"":595},{""stimulus"":""img/2to3/7.png"",""time"":694},{""stimulus"":""img/2to3/8.png"",""time"":793},{""stimulus"":""img/2to3/9.png"",""time"":892},{""stimulus"":""img/2to3/10.png"",""time"":991},{""stimulus"":""img/2to3/11.png"",""time"":1090},{""stimulus"":""img/2to3/12.png"",""time"":1189}]","[]"
"image-keyboard-response","66","72480","0.0-5.0-1.31","5c5f525806006e0001db95d2","bdp_cybrbll","Sun Apr 02 2023 18:52:58 GMT-0400 (Eastern Daylight Time)","452499","3","1","","null","","","","observe","","img/3to2/1.png","null","194","432","0.5","0.5","3","2","",""
"animation","67","73768","0.0-5.0-2.31","5c5f525806006e0001db95d2","bdp_cybrbll","Sun Apr 02 2023 18:52:58 GMT-0400 (Eastern Daylight Time)","452499","3","1","","","","","","","","","","194","","","","3","2","[{""stimulus"":""img/3to2/1.png"",""time"":100},{""stimulus"":""img/3to2/2.png"",""time"":199},{""stimulus"":""img/3to2/3.png"",""time"":298},{""stimulus"":""img/3to2/4.png"",""time"":397},{""stimulus"":""img/3to2/5.png"",""time"":496},{""stimulus"":""img/3to2/6.png"",""time"":610},{""stimulus"":""img/3to2/7.png"",""time"":695},{""stimulus"":""img/3to2/8.png"",""time"":793},{""stimulus"":""img/3to2/9.png"",""time"":903},{""stimulus"":""img/3to2/10.png"",""time"":991},{""stimulus"":""img/3to2/11.png"",""time"":1090},{""stimulus"":""img/3to2/12.png"",""time"":1190}]","[]"
"image-keyboard-response","68","74315","0.0-5.0-1.32","5c5f525806006e0001db95d2","bdp_cybrbll","Sun Apr 02 2023 18:52:58 GMT-0400 (Eastern Daylight Time)","452499","3","1","","547","","","","choice","","img/2to1/1.png","1","193","459","0.5","0.5","2","1","",""
"animation","69","75603","0.0-5.0-2.32","5c5f525806006e0001db95d2","bdp_cybrbll","Sun Apr 02 2023 18:52:58 GMT-0400 (Eastern Daylight Time)","452499","3","1","","","","","","","","","","193","","","","2","1","[{""stimulus"":""img/2to1/1.png"",""time"":106},{""stimulus"":""img/2to1/2.png"",""time"":199},{""stimulus"":""img/2to1/3.png"",""time"":298},{""stimulus"":""img/2to1/4.png"",""time"":397},{""stimulus"":""img/2to1/5.png"",""time"":497},{""stimulus"":""img/2to1/6.png"",""time"":596},{""stimulus"":""img/2to1/7.png"",""time"":694},{""stimulus"":""img/2to1/8.png"",""time"":794},{""stimulus"":""img/2to1/9.png"",""time"":892},{""stimulus"":""img/2to1/10.png"",""time"":992},{""stimulus"":""img/2to1/11.png"",""time"":1091},{""stimulus"":""img/2to1/12.png"",""time"":1189}]","[]"
"image-keyboard-response","70","76202","0.0-5.0-1.33","5c5f525806006e0001db95d2","bdp_cybrbll","Sun Apr 02 2023 18:52:58 GMT-0400 (Eastern Daylight Time)","452499","3","1","","null","","","","observe","","img/1to3/1.png","null","192","599","0.5","0.5","1","2","",""
"animation","71","77490","0.0-5.0-2.33","5c5f525806006e0001db95d2","bdp_cybrbll","Sun Apr 02 2023 18:52:58 GMT-0400 (Eastern Daylight Time)","452499","3","1","","","","","","","","","","192","","","","1","2","[{""stimulus"":""img/1to2/1.png"",""time"":101},{""stimulus"":""img/1to2/2.png"",""time"":200},{""stimulus"":""img/1to2/3.png"",""time"":299},{""stimulus"":""img/1to2/4.png"",""time"":397},{""stimulus"":""img/1to2/5.png"",""time"":496},{""stimulus"":""img/1to2/6.png"",""time"":596},{""stimulus"":""img/1to2/7.png"",""time"":694},{""stimulus"":""img/1to2/8.png"",""time"":794},{""stimulus"":""img/1to2/9.png"",""time"":893},{""stimulus"":""img/1to2/10.png"",""time"":991},{""stimulus"":""img/1to2/11.png"",""time"":1090},{""stimulus"":""img/1to2/12.png"",""time"":1202}]","[]"
"image-keyboard-response","72","77990","0.0-5.0-1.34","5c5f525806006e0001db95d2","bdp_cybrbll","Sun Apr 02 2023 18:52:58 GMT-0400 (Eastern Daylight Time)","452499","3","1","","499","","","","choice","","img/2to1/1.png","2","191","871","0.5","0.5","2","3","",""
"animation","73","79279","0.0-5.0-2.34","5c5f525806006e0001db95d2","bdp_cybrbll","Sun Apr 02 2023 18:52:58 GMT-0400 (Eastern Daylight Time)","452499","3","1","","","","","","","","","","191","","","","2","3","[{""stimulus"":""img/2to3/1.png"",""time"":107},{""stimulus"":""img/2to3/2.png"",""time"":200},{""stimulus"":""img/2to3/3.png"",""time"":298},{""stimulus"":""img/2to3/4.png"",""time"":401},{""stimulus"":""img/2to3/5.png"",""time"":496},{""stimulus"":""img/2to3/6.png"",""time"":596},{""stimulus"":""img/2to3/7.png"",""time"":694},{""stimulus"":""img/2to3/8.png"",""time"":793},{""stimulus"":""img/2to3/9.png"",""time"":892},{""stimulus"":""img/2to3/10.png"",""time"":991},{""stimulus"":""img/2to3/11.png"",""time"":1091},{""stimulus"":""img/2to3/12.png"",""time"":1190}]","[]"
"image-keyboard-response","74","80457","0.0-5.0-1.35","5c5f525806006e0001db95d2","bdp_cybrbll","Sun Apr 02 2023 18:52:58 GMT-0400 (Eastern Daylight Time)","452499","3","1","","null","","","","observe","","img/3to2/1.png","null","190","1177","0.5","0.5","3","2","",""
"animation","75","81745","0.0-5.0-2.35","5c5f525806006e0001db95d2","bdp_cybrbll","Sun Apr 02 2023 18:52:58 GMT-0400 (Eastern Daylight Time)","452499","3","1","","","","","","","","","","190","","","","3","2","[{""stimulus"":""img/3to2/1.png"",""time"":102},{""stimulus"":""img/3to2/2.png"",""time"":199},{""stimulus"":""img/3to2/3.png"",""time"":298},{""stimulus"":""img/3to2/4.png"",""time"":398},{""stimulus"":""img/3to2/5.png"",""time"":496},{""stimulus"":""img/3to2/6.png"",""time"":596},{""stimulus"":""img/3to2/7.png"",""time"":694},{""stimulus"":""img/3to2/8.png"",""time"":793},{""stimulus"":""img/3to2/9.png"",""time"":892},{""stimulus"":""img/3to2/10.png"",""time"":991},{""stimulus"":""img/3to2/11.png"",""time"":1091},{""stimulus"":""img/3to2/12.png"",""time"":1189}]","[]"
"image-keyboard-response","76","82140","0.0-5.0-1.36","5c5f525806006e0001db95d2","bdp_cybrbll","Sun Apr 02 2023 18:52:58 GMT-0400 (Eastern Daylight Time)","452499","3","1","","394","","","","choice","","img/2to1/1.png","1","189","724","0.5","0.5","2","1","",""
"animation","77","83429","0.0-5.0-2.36","5c5f525806006e0001db95d2","bdp_cybrbll","Sun Apr 02 2023 18:52:58 GMT-0400 (Eastern Daylight Time)","452499","3","1","","","","","","","","","","189","","","","2","1","[{""stimulus"":""img/2to1/1.png"",""time"":100},{""stimulus"":""img/2to1/2.png"",""time"":199},{""stimulus"":""img/2to1/3.png"",""time"":298},{""stimulus"":""img/2to1/4.png"",""time"":397},{""stimulus"":""img/2to1/5.png"",""time"":496},{""stimulus"":""img/2to1/6.png"",""time"":596},{""stimulus"":""img/2to1/7.png"",""time"":694},{""stimulus"":""img/2to1/8.png"",""time"":792},{""stimulus"":""img/2to1/9.png"",""time"":892},{""stimulus"":""img/2to1/10.png"",""time"":991},{""stimulus"":""img/2to1/11.png"",""time"":1090},{""stimulus"":""img/2to1/12.png"",""time"":1189}]","[]"
"image-keyboard-response","78","84693","0.0-5.0-1.37","5c5f525806006e0001db95d2","bdp_cybrbll","Sun Apr 02 2023 18:52:58 GMT-0400 (Eastern Daylight Time)","452499","3","1","","null","","","","observe","","img/1to3/1.png","null","188","1262","0.5","0.5","1","2","",""
"animation","79","85981","0.0-5.0-2.37","5c5f525806006e0001db95d2","bdp_cybrbll","Sun Apr 02 2023 18:52:58 GMT-0400 (Eastern Daylight Time)","452499","3","1","","","","","","","","","","188","","","","1","2","[{""stimulus"":""img/1to2/1.png"",""time"":100},{""stimulus"":""img/1to2/2.png"",""time"":198},{""stimulus"":""img/1to2/3.png"",""time"":298},{""stimulus"":""img/1to2/4.png"",""time"":397},{""stimulus"":""img/1to2/5.png"",""time"":495},{""stimulus"":""img/1to2/6.png"",""time"":595},{""stimulus"":""img/1to2/7.png"",""time"":699},{""stimulus"":""img/1to2/8.png"",""time"":792},{""stimulus"":""img/1to2/9.png"",""time"":892},{""stimulus"":""img/1to2/10.png"",""time"":991},{""stimulus"":""img/1to2/11.png"",""time"":1090},{""stimulus"":""img/1to2/12.png"",""time"":1190}]","[]"
"image-keyboard-response","80","86241","0.0-5.0-1.38","5c5f525806006e0001db95d2","bdp_cybrbll","Sun Apr 02 2023 18:52:58 GMT-0400 (Eastern Daylight Time)","452499","3","1","","259","","","","choice","","img/2to1/1.png","2","187","324","0.5","0.5","2","3","",""
"animation","81","87528","0.0-5.0-2.38","5c5f525806006e0001db95d2","bdp_cybrbll","Sun Apr 02 2023 18:52:58 GMT-0400 (Eastern Daylight Time)","452499","3","1","","","","","","","","","","187","","","","2","3","[{""stimulus"":""img/2to3/1.png"",""time"":100},{""stimulus"":""img/2to3/2.png"",""time"":198},{""stimulus"":""img/2to3/3.png"",""time"":297},{""stimulus"":""img/2to3/4.png"",""time"":397},{""stimulus"":""img/2to3/5.png"",""time"":496},{""stimulus"":""img/2to3/6.png"",""time"":595},{""stimulus"":""img/2to3/7.png"",""time"":695},{""stimulus"":""img/2to3/8.png"",""time"":794},{""stimulus"":""img/2to3/9.png"",""time"":893},{""stimulus"":""img/2to3/10.png"",""time"":991},{""stimulus"":""img/2to3/11.png"",""time"":1089},{""stimulus"":""img/2to3/12.png"",""time"":1189}]","[]"
"image-keyboard-response","82","87744","0.0-5.0-1.39","5c5f525806006e0001db95d2","bdp_cybrbll","Sun Apr 02 2023 18:52:58 GMT-0400 (Eastern Daylight Time)","452499","3","1","","null","","","","observe","","img/3to2/1.png","null","186","214","0.5","0.5","3","1","",""
"animation","83","89032","0.0-5.0-2.39","5c5f525806006e0001db95d2","bdp_cybrbll","Sun Apr 02 2023 18:52:58 GMT-0400 (Eastern Daylight Time)","452499","3","1","","","","","","","","","","186","","","","3","1","[{""stimulus"":""img/3to1/1.png"",""time"":100},{""stimulus"":""img/3to1/2.png"",""time"":199},{""stimulus"":""img/3to1/3.png"",""time"":298},{""stimulus"":""img/3to1/4.png"",""time"":397},{""stimulus"":""img/3to1/5.png"",""time"":496},{""stimulus"":""img/3to1/6.png"",""time"":607},{""stimulus"":""img/3to1/7.png"",""time"":694},{""stimulus"":""img/3to1/8.png"",""time"":793},{""stimulus"":""img/3to1/9.png"",""time"":903},{""stimulus"":""img/3to1/10.png"",""time"":992},{""stimulus"":""img/3to1/11.png"",""time"":1089},{""stimulus"":""img/3to1/12.png"",""time"":1189}]","[]"
"image-keyboard-response","84","89590","0.0-5.0-1.40","5c5f525806006e0001db95d2","bdp_cybrbll","Sun Apr 02 2023 18:52:58 GMT-0400 (Eastern Daylight Time)","452499","3","1","","null","","","","observe","","img/1to3/1.png","null","185","556","0.5","0.5","1","3","",""
"animation","85","90878","0.0-5.0-2.40","5c5f525806006e0001db95d2","bdp_cybrbll","Sun Apr 02 2023 18:52:58 GMT-0400 (Eastern Daylight Time)","452499","3","1","","","","","","","","","","185","","","","1","3","[{""stimulus"":""img/1to3/1.png"",""time"":99},{""stimulus"":""img/1to3/2.png"",""time"":199},{""stimulus"":""img/1to3/3.png"",""time"":298},{""stimulus"":""img/1to3/4.png"",""time"":398},{""stimulus"":""img/1to3/5.png"",""time"":497},{""stimulus"":""img/1to3/6.png"",""time"":595},{""stimulus"":""img/1to3/7.png"",""time"":695},{""stimulus"":""img/1to3/8.png"",""time"":799},{""stimulus"":""img/1to3/9.png"",""time"":892},{""stimulus"":""img/1to3/10.png"",""time"":991},{""stimulus"":""img/1to3/11.png"",""time"":1090},{""stimulus"":""img/1to3/12.png"",""time"":1189}]","[]"
"image-keyboard-response","86","91260","0.0-5.0-1.41","5c5f525806006e0001db95d2","bdp_cybrbll","Sun Apr 02 2023 18:52:58 GMT-0400 (Eastern Daylight Time)","452499","3","1","","null","","","","observe","","img/3to2/1.png","null","184","381","0.5","0.5","3","1","",""
"animation","87","92548","0.0-5.0-2.41","5c5f525806006e0001db95d2","bdp_cybrbll","Sun Apr 02 2023 18:52:58 GMT-0400 (Eastern Daylight Time)","452499","3","1","","","","","","","","","","184","","","","3","1","[{""stimulus"":""img/3to1/1.png"",""time"":99},{""stimulus"":""img/3to1/2.png"",""time"":198},{""stimulus"":""img/3to1/3.png"",""time"":298},{""stimulus"":""img/3to1/4.png"",""time"":396},{""stimulus"":""img/3to1/5.png"",""time"":496},{""stimulus"":""img/3to1/6.png"",""time"":594},{""stimulus"":""img/3to1/7.png"",""time"":694},{""stimulus"":""img/3to1/8.png"",""time"":793},{""stimulus"":""img/3to1/9.png"",""time"":892},{""stimulus"":""img/3to1/10.png"",""time"":991},{""stimulus"":""img/3to1/11.png"",""time"":1090},{""stimulus"":""img/3to1/12.png"",""time"":1189}]","[]"
"image-keyboard-response","88","93169","0.0-5.0-1.42","5c5f525806006e0001db95d2","bdp_cybrbll","Sun Apr 02 2023 18:52:58 GMT-0400 (Eastern Daylight Time)","452499","3","1","","null","","","","observe","","img/1to3/1.png","null","183","618","0.5","0.5","1","3","",""
"animation","89","94457","0.0-5.0-2.42","5c5f525806006e0001db95d2","bdp_cybrbll","Sun Apr 02 2023 18:52:58 GMT-0400 (Eastern Daylight Time)","452499","3","1","","","","","","","","","","183","","","","1","3","[{""stimulus"":""img/1to3/1.png"",""time"":99},{""stimulus"":""img/1to3/2.png"",""time"":200},{""stimulus"":""img/1to3/3.png"",""time"":298},{""stimulus"":""img/1to3/4.png"",""time"":397},{""stimulus"":""img/1to3/5.png"",""time"":496},{""stimulus"":""img/1to3/6.png"",""time"":595},{""stimulus"":""img/1to3/7.png"",""time"":694},{""stimulus"":""img/1to3/8.png"",""time"":793},{""stimulus"":""img/1to3/9.png"",""time"":892},{""stimulus"":""img/1to3/10.png"",""time"":991},{""stimulus"":""img/1to3/11.png"",""time"":1089},{""stimulus"":""img/1to3/12.png"",""time"":1189}]","[]"
"image-keyboard-response","90","94686","0.0-5.0-1.43","5c5f525806006e0001db95d2","bdp_cybrbll","Sun Apr 02 2023 18:52:58 GMT-0400 (Eastern Daylight Time)","452499","3","1","","null","","","","observe","","img/3to2/1.png","null","182","228","0.5","0.5","3","2","",""
"animation","91","95975","0.0-5.0-2.43","5c5f525806006e0001db95d2","bdp_cybrbll","Sun Apr 02 2023 18:52:58 GMT-0400 (Eastern Daylight Time)","452499","3","1","","","","","","","","","","182","","","","3","2","[{""stimulus"":""img/3to2/1.png"",""time"":99},{""stimulus"":""img/3to2/2.png"",""time"":198},{""stimulus"":""img/3to2/3.png"",""time"":297},{""stimulus"":""img/3to2/4.png"",""time"":397},{""stimulus"":""img/3to2/5.png"",""time"":496},{""stimulus"":""img/3to2/6.png"",""time"":596},{""stimulus"":""img/3to2/7.png"",""time"":693},{""stimulus"":""img/3to2/8.png"",""time"":793},{""stimulus"":""img/3to2/9.png"",""time"":892},{""stimulus"":""img/3to2/10.png"",""time"":991},{""stimulus"":""img/3to2/11.png"",""time"":1089},{""stimulus"":""img/3to2/12.png"",""time"":1189}]","[]"
"image-keyboard-response","92","96633","0.0-5.0-1.44","5c5f525806006e0001db95d2","bdp_cybrbll","Sun Apr 02 2023 18:52:58 GMT-0400 (Eastern Daylight Time)","452499","3","1","","657","","","","choice","","img/2to1/1.png","1","181","731","0.5","0.5","2","1","",""
"animation","93","97921","0.0-5.0-2.44","5c5f525806006e0001db95d2","bdp_cybrbll","Sun Apr 02 2023 18:52:58 GMT-0400 (Eastern Daylight Time)","452499","3","1","","","","","","","","","","181","","","","2","1","[{""stimulus"":""img/2to1/1.png"",""time"":100},{""stimulus"":""img/2to1/2.png"",""time"":200},{""stimulus"":""img/2to1/3.png"",""time"":298},{""stimulus"":""img/2to1/4.png"",""time"":398},{""stimulus"":""img/2to1/5.png"",""time"":496},{""stimulus"":""img/2to1/6.png"",""time"":596},{""stimulus"":""img/2to1/7.png"",""time"":694},{""stimulus"":""img/2to1/8.png"",""time"":794},{""stimulus"":""img/2to1/9.png"",""time"":892},{""stimulus"":""img/2to1/10.png"",""time"":992},{""stimulus"":""img/2to1/11.png"",""time"":1090},{""stimulus"":""img/2to1/12.png"",""time"":1189}]","[]"
"image-keyboard-response","94","98506","0.0-5.0-1.45","5c5f525806006e0001db95d2","bdp_cybrbll","Sun Apr 02 2023 18:52:58 GMT-0400 (Eastern Daylight Time)","452499","3","1","","null","","","","observe","","img/1to3/1.png","null","180","584","0.5","0.5","1","3","",""
"animation","95","99793","0.0-5.0-2.45","5c5f525806006e0001db95d2","bdp_cybrbll","Sun Apr 02 2023 18:52:58 GMT-0400 (Eastern Daylight Time)","452499","3","1","","","","","","","","","","180","","","","1","3","[{""stimulus"":""img/1to3/1.png"",""time"":100},{""stimulus"":""img/1to3/2.png"",""time"":200},{""stimulus"":""img/1to3/3.png"",""time"":297},{""stimulus"":""img/1to3/4.png"",""time"":397},{""stimulus"":""img/1to3/5.png"",""time"":495},{""stimulus"":""img/1to3/6.png"",""time"":595},{""stimulus"":""img/1to3/7.png"",""time"":694},{""stimulus"":""img/1to3/8.png"",""time"":792},{""stimulus"":""img/1to3/9.png"",""time"":891},{""stimulus"":""img/1to3/10.png"",""time"":990},{""stimulus"":""img/1to3/11.png"",""time"":1089},{""stimulus"":""img/1to3/12.png"",""time"":1189}]","[]"
"image-keyboard-response","96","100039","0.0-5.0-1.46","5c5f525806006e0001db95d2","bdp_cybrbll","Sun Apr 02 2023 18:52:58 GMT-0400 (Eastern Daylight Time)","452499","3","1","","null","","","","observe","","img/3to2/1.png","null","179","245","0.5","0.5","3","1","",""
"animation","97","101327","0.0-5.0-2.46","5c5f525806006e0001db95d2","bdp_cybrbll","Sun Apr 02 2023 18:52:58 GMT-0400 (Eastern Daylight Time)","452499","3","1","","","","","","","","","","179","","","","3","1","[{""stimulus"":""img/3to1/1.png"",""time"":101},{""stimulus"":""img/3to1/2.png"",""time"":199},{""stimulus"":""img/3to1/3.png"",""time"":298},{""stimulus"":""img/3to1/4.png"",""time"":398},{""stimulus"":""img/3to1/5.png"",""time"":496},{""stimulus"":""img/3to1/6.png"",""time"":595},{""stimulus"":""img/3to1/7.png"",""time"":694},{""stimulus"":""img/3to1/8.png"",""time"":793},{""stimulus"":""img/3to1/9.png"",""time"":892},{""stimulus"":""img/3to1/10.png"",""time"":992},{""stimulus"":""img/3to1/11.png"",""time"":1090},{""stimulus"":""img/3to1/12.png"",""time"":1189}]","[]"
"image-keyboard-response","98","101472","0.0-5.0-1.47","5c5f525806006e0001db95d2","bdp_cybrbll","Sun Apr 02 2023 18:52:58 GMT-0400 (Eastern Daylight Time)","452499","3","1","","null","","","","observe","","img/1to3/1.png","null","178","144","0.5","0.5","1","3","",""
"animation","99","102760","0.0-5.0-2.47","5c5f525806006e0001db95d2","bdp_cybrbll","Sun Apr 02 2023 18:52:58 GMT-0400 (Eastern Daylight Time)","452499","3","1","","","","","","","","","","178","","","","1","3","[{""stimulus"":""img/1to3/1.png"",""time"":101},{""stimulus"":""img/1to3/2.png"",""time"":199},{""stimulus"":""img/1to3/3.png"",""time"":298},{""stimulus"":""img/1to3/4.png"",""time"":397},{""stimulus"":""img/1to3/5.png"",""time"":496},{""stimulus"":""img/1to3/6.png"",""time"":595},{""stimulus"":""img/1to3/7.png"",""time"":694},{""stimulus"":""img/1to3/8.png"",""time"":793},{""stimulus"":""img/1to3/9.png"",""time"":893},{""stimulus"":""img/1to3/10.png"",""time"":991},{""stimulus"":""img/1to3/11.png"",""time"":1091},{""stimulus"":""img/1to3/12.png"",""time"":1189}]","[]"
"image-keyboard-response","100","103166","0.0-5.0-1.48","5c5f525806006e0001db95d2","bdp_cybrbll","Sun Apr 02 2023 18:52:58 GMT-0400 (Eastern Daylight Time)","452499","3","1","","null","","","","observe","","img/3to2/1.png","null","177","404","0.5","0.5","3","2","",""
"animation","101","104454","0.0-5.0-2.48","5c5f525806006e0001db95d2","bdp_cybrbll","Sun Apr 02 2023 18:52:58 GMT-0400 (Eastern Daylight Time)","452499","3","1","","","","","","","","","","177","","","","3","2","[{""stimulus"":""img/3to2/1.png"",""time"":100},{""stimulus"":""img/3to2/2.png"",""time"":199},{""stimulus"":""img/3to2/3.png"",""time"":299},{""stimulus"":""img/3to2/4.png"",""time"":397},{""stimulus"":""img/3to2/5.png"",""time"":495},{""stimulus"":""img/3to2/6.png"",""time"":595},{""stimulus"":""img/3to2/7.png"",""time"":694},{""stimulus"":""img/3to2/8.png"",""time"":793},{""stimulus"":""img/3to2/9.png"",""time"":893},{""stimulus"":""img/3to2/10.png"",""time"":992},{""stimulus"":""img/3to2/11.png"",""time"":1090},{""stimulus"":""img/3to2/12.png"",""time"":1190}]","[]"
"image-keyboard-response","102","105151","0.0-5.0-1.49","5c5f525806006e0001db95d2","bdp_cybrbll","Sun Apr 02 2023 18:52:58 GMT-0400 (Eastern Daylight Time)","452499","3","1","","696","","","","choice","","img/2to1/1.png","2","176","628","0.5","0.5","2","3","",""
"animation","103","106440","0.0-5.0-2.49","5c5f525806006e0001db95d2","bdp_cybrbll","Sun Apr 02 2023 18:52:58 GMT-0400 (Eastern Daylight Time)","452499","3","1","","","","","","","","","","176","","","","2","3","[{""stimulus"":""img/2to3/1.png"",""time"":101},{""stimulus"":""img/2to3/2.png"",""time"":198},{""stimulus"":""img/2to3/3.png"",""time"":297},{""stimulus"":""img/2to3/4.png"",""time"":396},{""stimulus"":""img/2to3/5.png"",""time"":497},{""stimulus"":""img/2to3/6.png"",""time"":595},{""stimulus"":""img/2to3/7.png"",""time"":693},{""stimulus"":""img/2to3/8.png"",""time"":793},{""stimulus"":""img/2to3/9.png"",""time"":891},{""stimulus"":""img/2to3/10.png"",""time"":990},{""stimulus"":""img/2to3/11.png"",""time"":1090},{""stimulus"":""img/2to3/12.png"",""time"":1188}]","[]"
"image-keyboard-response","104","106896","0.0-5.0-1.50","5c5f525806006e0001db95d2","bdp_cybrbll","Sun Apr 02 2023 18:52:58 GMT-0400 (Eastern Daylight Time)","452499","3","1","","null","","","","observe","","img/3to2/1.png","null","175","454","0.5","0.5","3","1","",""
"animation","105","108185","0.0-5.0-2.50","5c5f525806006e0001db95d2","bdp_cybrbll","Sun Apr 02 2023 18:52:58 GMT-0400 (Eastern Daylight Time)","452499","3","1","","","","","","","","","","175","","","","3","1","[{""stimulus"":""img/3to1/1.png"",""time"":100},{""stimulus"":""img/3to1/2.png"",""time"":200},{""stimulus"":""img/3to1/3.png"",""time"":299},{""stimulus"":""img/3to1/4.png"",""time"":397},{""stimulus"":""img/3to1/5.png"",""time"":497},{""stimulus"":""img/3to1/6.png"",""time"":596},{""stimulus"":""img/3to1/7.png"",""time"":694},{""stimulus"":""img/3to1/8.png"",""time"":794},{""stimulus"":""img/3to1/9.png"",""time"":894},{""stimulus"":""img/3to1/10.png"",""time"":991},{""stimulus"":""img/3to1/11.png"",""time"":1091},{""stimulus"":""img/3to1/12.png"",""time"":1190}]","[]"
"image-keyboard-response","106","110018","0.0-5.0-1.51","5c5f525806006e0001db95d2","bdp_cybrbll","Sun Apr 02 2023 18:52:58 GMT-0400 (Eastern Daylight Time)","452499","3","1","","null","","","","observe","","img/1to3/1.png","null","174","1832","0.5","0.5","1","2","",""
"animation","107","111306","0.0-5.0-2.51","5c5f525806006e0001db95d2","bdp_cybrbll","Sun Apr 02 2023 18:52:58 GMT-0400 (Eastern Daylight Time)","452499","3","1","","","","","","","","","","174","","","","1","2","[{""stimulus"":""img/1to2/1.png"",""time"":100},{""stimulus"":""img/1to2/2.png"",""time"":199},{""stimulus"":""img/1to2/3.png"",""time"":299},{""stimulus"":""img/1to2/4.png"",""time"":397},{""stimulus"":""img/1to2/5.png"",""time"":496},{""stimulus"":""img/1to2/6.png"",""time"":596},{""stimulus"":""img/1to2/7.png"",""time"":693},{""stimulus"":""img/1to2/8.png"",""time"":793},{""stimulus"":""img/1to2/9.png"",""time"":891},{""stimulus"":""img/1to2/10.png"",""time"":991},{""stimulus"":""img/1to2/11.png"",""time"":1090},{""stimulus"":""img/1to2/12.png"",""time"":1189}]","[]"
"image-keyboard-response","108","111612","0.0-5.0-1.52","5c5f525806006e0001db95d2","bdp_cybrbll","Sun Apr 02 2023 18:52:58 GMT-0400 (Eastern Daylight Time)","452499","3","1","","306","","","","choice","","img/2to1/1.png","1","173","351","0.5","0.5","2","1","",""
"animation","109","112901","0.0-5.0-2.52","5c5f525806006e0001db95d2","bdp_cybrbll","Sun Apr 02 2023 18:52:58 GMT-0400 (Eastern Daylight Time)","452499","3","1","","","","","","","","","","173","","","","2","1","[{""stimulus"":""img/2to1/1.png"",""time"":100},{""stimulus"":""img/2to1/2.png"",""time"":199},{""stimulus"":""img/2to1/3.png"",""time"":298},{""stimulus"":""img/2to1/4.png"",""time"":396},{""stimulus"":""img/2to1/5.png"",""time"":497},{""stimulus"":""img/2to1/6.png"",""time"":595},{""stimulus"":""img/2to1/7.png"",""time"":695},{""stimulus"":""img/2to1/8.png"",""time"":793},{""stimulus"":""img/2to1/9.png"",""time"":893},{""stimulus"":""img/2to1/10.png"",""time"":991},{""stimulus"":""img/2to1/11.png"",""time"":1090},{""stimulus"":""img/2to1/12.png"",""time"":1189}]","[]"
"image-keyboard-response","110","113093","0.0-5.0-1.53","5c5f525806006e0001db95d2","bdp_cybrbll","Sun Apr 02 2023 18:52:58 GMT-0400 (Eastern Daylight Time)","452499","3","1","","null","","","","observe","","img/1to3/1.png","null","172","191","0.5","0.5","1","2","",""
"animation","111","114382","0.0-5.0-2.53","5c5f525806006e0001db95d2","bdp_cybrbll","Sun Apr 02 2023 18:52:58 GMT-0400 (Eastern Daylight Time)","452499","3","1","","","","","","","","","","172","","","","1","2","[{""stimulus"":""img/1to2/1.png"",""time"":100},{""stimulus"":""img/1to2/2.png"",""time"":199},{""stimulus"":""img/1to2/3.png"",""time"":299},{""stimulus"":""img/1to2/4.png"",""time"":398},{""stimulus"":""img/1to2/5.png"",""time"":496},{""stimulus"":""img/1to2/6.png"",""time"":596},{""stimulus"":""img/1to2/7.png"",""time"":695},{""stimulus"":""img/1to2/8.png"",""time"":795},{""stimulus"":""img/1to2/9.png"",""time"":902},{""stimulus"":""img/1to2/10.png"",""time"":992},{""stimulus"":""img/1to2/11.png"",""time"":1090},{""stimulus"":""img/1to2/12.png"",""time"":1190}]","[]"
"image-keyboard-response","112","114658","0.0-5.0-1.54","5c5f525806006e0001db95d2","bdp_cybrbll","Sun Apr 02 2023 18:52:58 GMT-0400 (Eastern Daylight Time)","452499","3","1","","276","","","","choice","","img/2to1/1.png","2","171","249","0.5","0.5","2","3","",""
"animation","113","115946","0.0-5.0-2.54","5c5f525806006e0001db95d2","bdp_cybrbll","Sun Apr 02 2023 18:52:58 GMT-0400 (Eastern Daylight Time)","452499","3","1","","","","","","","","","","171","","","","2","3","[{""stimulus"":""img/2to3/1.png"",""time"":99},{""stimulus"":""img/2to3/2.png"",""time"":198},{""stimulus"":""img/2to3/3.png"",""time"":298},{""stimulus"":""img/2to3/4.png"",""time"":398},{""stimulus"":""img/2to3/5.png"",""time"":495},{""stimulus"":""img/2to3/6.png"",""time"":595},{""stimulus"":""img/2to3/7.png"",""time"":693},{""stimulus"":""img/2to3/8.png"",""time"":793},{""stimulus"":""img/2to3/9.png"",""time"":891},{""stimulus"":""img/2to3/10.png"",""time"":991},{""stimulus"":""img/2to3/11.png"",""time"":1089},{""stimulus"":""img/2to3/12.png"",""time"":1189}]","[]"
"image-keyboard-response","114","116789","0.0-5.0-1.55","5c5f525806006e0001db95d2","bdp_cybrbll","Sun Apr 02 2023 18:52:58 GMT-0400 (Eastern Daylight Time)","452499","3","1","","null","","","","observe","","img/3to2/1.png","null","170","842","0.5","0.5","3","2","",""
"animation","115","118076","0.0-5.0-2.55","5c5f525806006e0001db95d2","bdp_cybrbll","Sun Apr 02 2023 18:52:58 GMT-0400 (Eastern Daylight Time)","452499","3","1","","","","","","","","","","170","","","","3","2","[{""stimulus"":""img/3to2/1.png"",""time"":100},{""stimulus"":""img/3to2/2.png"",""time"":198},{""stimulus"":""img/3to2/3.png"",""time"":298},{""stimulus"":""img/3to2/4.png"",""time"":397},{""stimulus"":""img/3to2/5.png"",""time"":496},{""stimulus"":""img/3to2/6.png"",""time"":595},{""stimulus"":""img/3to2/7.png"",""time"":693},{""stimulus"":""img/3to2/8.png"",""time"":793},{""stimulus"":""img/3to2/9.png"",""time"":892},{""stimulus"":""img/3to2/10.png"",""time"":990},{""stimulus"":""img/3to2/11.png"",""time"":1090},{""stimulus"":""img/3to2/12.png"",""time"":1190}]","[]"
"image-keyboard-response","116","118418","0.0-5.0-1.56","5c5f525806006e0001db95d2","bdp_cybrbll","Sun Apr 02 2023 18:52:58 GMT-0400 (Eastern Daylight Time)","452499","3","1","","341","","","","choice","","img/2to1/1.png","1","169","533","0.5","0.5","2","1","",""
"animation","117","119707","0.0-5.0-2.56","5c5f525806006e0001db95d2","bdp_cybrbll","Sun Apr 02 2023 18:52:58 GMT-0400 (Eastern Daylight Time)","452499","3","1","","","","","","","","","","169","","","","2","1","[{""stimulus"":""img/2to1/1.png"",""time"":99},{""stimulus"":""img/2to1/2.png"",""time"":199},{""stimulus"":""img/2to1/3.png"",""time"":297},{""stimulus"":""img/2to1/4.png"",""time"":397},{""stimulus"":""img/2to1/5.png"",""time"":495},{""stimulus"":""img/2to1/6.png"",""time"":595},{""stimulus"":""img/2to1/7.png"",""time"":694},{""stimulus"":""img/2to1/8.png"",""time"":792},{""stimulus"":""img/2to1/9.png"",""time"":893},{""stimulus"":""img/2to1/10.png"",""time"":992},{""stimulus"":""img/2to1/11.png"",""time"":1090},{""stimulus"":""img/2to1/12.png"",""time"":1188}]","[]"
"image-keyboard-response","118","120228","0.0-5.0-1.57","5c5f525806006e0001db95d2","bdp_cybrbll","Sun Apr 02 2023 18:52:58 GMT-0400 (Eastern Daylight Time)","452499","3","1","","null","","","","observe","","img/1to3/1.png","null","168","520","0.5","0.5","1","3","",""
"animation","119","121516","0.0-5.0-2.57","5c5f525806006e0001db95d2","bdp_cybrbll","Sun Apr 02 2023 18:52:58 GMT-0400 (Eastern Daylight Time)","452499","3","1","","","","","","","","","","168","","","","1","3","[{""stimulus"":""img/1to3/1.png"",""time"":100},{""stimulus"":""img/1to3/2.png"",""time"":199},{""stimulus"":""img/1to3/3.png"",""time"":298},{""stimulus"":""img/1to3/4.png"",""time"":398},{""stimulus"":""img/1to3/5.png"",""time"":496},{""stimulus"":""img/1to3/6.png"",""time"":595},{""stimulus"":""img/1to3/7.png"",""time"":695},{""stimulus"":""img/1to3/8.png"",""time"":793},{""stimulus"":""img/1to3/9.png"",""time"":892},{""stimulus"":""img/1to3/10.png"",""time"":991},{""stimulus"":""img/1to3/11.png"",""time"":1090},{""stimulus"":""img/1to3/12.png"",""time"":1189}]","[]"
"image-keyboard-response","120","122138","0.0-5.0-1.58","5c5f525806006e0001db95d2","bdp_cybrbll","Sun Apr 02 2023 18:52:58 GMT-0400 (Eastern Daylight Time)","452499","3","1","","null","","","","observe","","img/3to2/1.png","null","167","620","0.5","0.5","3","2","",""
"animation","121","123426","0.0-5.0-2.58","5c5f525806006e0001db95d2","bdp_cybrbll","Sun Apr 02 2023 18:52:58 GMT-0400 (Eastern Daylight Time)","452499","3","1","","","","","","","","","","167","","","","3","2","[{""stimulus"":""img/3to2/1.png"",""time"":100},{""stimulus"":""img/3to2/2.png"",""time"":199},{""stimulus"":""img/3to2/3.png"",""time"":299},{""stimulus"":""img/3to2/4.png"",""time"":410},{""stimulus"":""img/3to2/5.png"",""time"":496},{""stimulus"":""img/3to2/6.png"",""time"":596},{""stimulus"":""img/3to2/7.png"",""time"":694},{""stimulus"":""img/3to2/8.png"",""time"":793},{""stimulus"":""img/3to2/9.png"",""time"":892},{""stimulus"":""img/3to2/10.png"",""time"":991},{""stimulus"":""img/3to2/11.png"",""time"":1091},{""stimulus"":""img/3to2/12.png"",""time"":1190}]","[]"
"image-keyboard-response","122","124943","0.0-5.0-1.59","5c5f525806006e0001db95d2","bdp_cybrbll","Sun Apr 02 2023 18:52:58 GMT-0400 (Eastern Daylight Time)","452499","3","1","","1516","","","","choice","","img/2to1/1.png","1","166","262","0.5","0.5","2","1","",""
"animation","123","126231","0.0-5.0-2.59","5c5f525806006e0001db95d2","bdp_cybrbll","Sun Apr 02 2023 18:52:58 GMT-0400 (Eastern Daylight Time)","452499","3","1","","","","","","","","","","166","","","","2","1","[{""stimulus"":""img/2to1/1.png"",""time"":99},{""stimulus"":""img/2to1/2.png"",""time"":199},{""stimulus"":""img/2to1/3.png"",""time"":303},{""stimulus"":""img/2to1/4.png"",""time"":397},{""stimulus"":""img/2to1/5.png"",""time"":496},{""stimulus"":""img/2to1/6.png"",""time"":595},{""stimulus"":""img/2to1/7.png"",""time"":694},{""stimulus"":""img/2to1/8.png"",""time"":793},{""stimulus"":""img/2to1/9.png"",""time"":892},{""stimulus"":""img/2to1/10.png"",""time"":1001},{""stimulus"":""img/2to1/11.png"",""time"":1090},{""stimulus"":""img/2to1/12.png"",""time"":1189}]","[]"
"image-keyboard-response","124","127068","0.0-5.0-1.60","5c5f525806006e0001db95d2","bdp_cybrbll","Sun Apr 02 2023 18:52:58 GMT-0400 (Eastern Daylight Time)","452499","3","1","","null","","","","observe","","img/1to3/1.png","null","165","835","0.5","0.5","1","3","",""
"animation","125","128356","0.0-5.0-2.60","5c5f525806006e0001db95d2","bdp_cybrbll","Sun Apr 02 2023 18:52:58 GMT-0400 (Eastern Daylight Time)","452499","3","1","","","","","","","","","","165","","","","1","3","[{""stimulus"":""img/1to3/1.png"",""time"":99},{""stimulus"":""img/1to3/2.png"",""time"":199},{""stimulus"":""img/1to3/3.png"",""time"":304},{""stimulus"":""img/1to3/4.png"",""time"":397},{""stimulus"":""img/1to3/5.png"",""time"":497},{""stimulus"":""img/1to3/6.png"",""time"":594},{""stimulus"":""img/1to3/7.png"",""time"":694},{""stimulus"":""img/1to3/8.png"",""time"":793},{""stimulus"":""img/1to3/9.png"",""time"":892},{""stimulus"":""img/1to3/10.png"",""time"":991},{""stimulus"":""img/1to3/11.png"",""time"":1090},{""stimulus"":""img/1to3/12.png"",""time"":1189}]","[]"
"image-keyboard-response","126","128546","0.0-5.0-1.61","5c5f525806006e0001db95d2","bdp_cybrbll","Sun Apr 02 2023 18:52:58 GMT-0400 (Eastern Daylight Time)","452499","3","1","","null","","","","observe","","img/3to2/1.png","null","164","189","0.5","0.5","3","2","",""
"animation","127","129835","0.0-5.0-2.61","5c5f525806006e0001db95d2","bdp_cybrbll","Sun Apr 02 2023 18:52:58 GMT-0400 (Eastern Daylight Time)","452499","3","1","","","","","","","","","","164","","","","3","2","[{""stimulus"":""img/3to2/1.png"",""time"":100},{""stimulus"":""img/3to2/2.png"",""time"":199},{""stimulus"":""img/3to2/3.png"",""time"":298},{""stimulus"":""img/3to2/4.png"",""time"":397},{""stimulus"":""img/3to2/5.png"",""time"":496},{""stimulus"":""img/3to2/6.png"",""time"":595},{""stimulus"":""img/3to2/7.png"",""time"":694},{""stimulus"":""img/3to2/8.png"",""time"":793},{""stimulus"":""img/3to2/9.png"",""time"":892},{""stimulus"":""img/3to2/10.png"",""time"":991},{""stimulus"":""img/3to2/11.png"",""time"":1089},{""stimulus"":""img/3to2/12.png"",""time"":1188}]","[]"
"image-keyboard-response","128","130089","0.0-5.0-1.62","5c5f525806006e0001db95d2","bdp_cybrbll","Sun Apr 02 2023 18:52:58 GMT-0400 (Eastern Daylight Time)","452499","3","1","","253","","","","choice","","img/2to1/1.png","2","163","499","0.5","0.5","2","3","",""
"animation","129","131384","0.0-5.0-2.62","5c5f525806006e0001db95d2","bdp_cybrbll","Sun Apr 02 2023 18:52:58 GMT-0400 (Eastern Daylight Time)","452499","3","1","","","","","","","","","","163","","","","2","3","[{""stimulus"":""img/2to3/1.png"",""time"":100},{""stimulus"":""img/2to3/2.png"",""time"":199},{""stimulus"":""img/2to3/3.png"",""time"":305},{""stimulus"":""img/2to3/4.png"",""time"":398},{""stimulus"":""img/2to3/5.png"",""time"":497},{""stimulus"":""img/2to3/6.png"",""time"":596},{""stimulus"":""img/2to3/7.png"",""time"":694},{""stimulus"":""img/2to3/8.png"",""time"":793},{""stimulus"":""img/2to3/9.png"",""time"":892},{""stimulus"":""img/2to3/10.png"",""time"":991},{""stimulus"":""img/2to3/11.png"",""time"":1091},{""stimulus"":""img/2to3/12.png"",""time"":1201}]","[]"
"image-keyboard-response","130","131888","0.0-5.0-1.63","5c5f525806006e0001db95d2","bdp_cybrbll","Sun Apr 02 2023 18:52:58 GMT-0400 (Eastern Daylight Time)","452499","3","1","","null","","","","observe","","img/3to2/1.png","null","162","503","0.5","0.5","3","1","",""
"animation","131","133176","0.0-5.0-2.63","5c5f525806006e0001db95d2","bdp_cybrbll","Sun Apr 02 2023 18:52:58 GMT-0400 (Eastern Daylight Time)","452499","3","1","","","","","","","","","","162","","","","3","1","[{""stimulus"":""img/3to1/1.png"",""time"":99},{""stimulus"":""img/3to1/2.png"",""time"":199},{""stimulus"":""img/3to1/3.png"",""time"":297},{""stimulus"":""img/3to1/4.png"",""time"":397},{""stimulus"":""img/3to1/5.png"",""time"":496},{""stimulus"":""img/3to1/6.png"",""time"":595},{""stimulus"":""img/3to1/7.png"",""time"":694},{""stimulus"":""img/3to1/8.png"",""time"":792},{""stimulus"":""img/3to1/9.png"",""time"":892},{""stimulus"":""img/3to1/10.png"",""time"":990},{""stimulus"":""img/3to1/11.png"",""time"":1089},{""stimulus"":""img/3to1/12.png"",""time"":1189}]","[]"
"image-keyboard-response","132","133386","0.0-5.0-1.64","5c5f525806006e0001db95d2","bdp_cybrbll","Sun Apr 02 2023 18:52:58 GMT-0400 (Eastern Daylight Time)","452499","3","1","","null","","","","observe","","img/1to3/1.png","null","161","208","0.5","0.5","1","2","",""
"animation","133","134675","0.0-5.0-2.64","5c5f525806006e0001db95d2","bdp_cybrbll","Sun Apr 02 2023 18:52:58 GMT-0400 (Eastern Daylight Time)","452499","3","1","","","","","","","","","","161","","","","1","2","[{""stimulus"":""img/1to2/1.png"",""time"":100},{""stimulus"":""img/1to2/2.png"",""time"":199},{""stimulus"":""img/1to2/3.png"",""time"":299},{""stimulus"":""img/1to2/4.png"",""time"":397},{""stimulus"":""img/1to2/5.png"",""time"":496},{""stimulus"":""img/1to2/6.png"",""time"":595},{""stimulus"":""img/1to2/7.png"",""time"":695},{""stimulus"":""img/1to2/8.png"",""time"":794},{""stimulus"":""img/1to2/9.png"",""time"":892},{""stimulus"":""img/1to2/10.png"",""time"":1002},{""stimulus"":""img/1to2/11.png"",""time"":1090},{""stimulus"":""img/1to2/12.png"",""time"":1189}]","[]"
"image-keyboard-response","134","135537","0.0-5.0-1.65","5c5f525806006e0001db95d2","bdp_cybrbll","Sun Apr 02 2023 18:52:58 GMT-0400 (Eastern Daylight Time)","452499","3","1","","862","","","","choice","","img/2to1/1.png","1","160","369","0.5","0.5","2","1","",""
"animation","135","136825","0.0-5.0-2.65","5c5f525806006e0001db95d2","bdp_cybrbll","Sun Apr 02 2023 18:52:58 GMT-0400 (Eastern Daylight Time)","452499","3","1","","","","","","","","","","160","","","","2","1","[{""stimulus"":""img/2to1/1.png"",""time"":101},{""stimulus"":""img/2to1/2.png"",""time"":199},{""stimulus"":""img/2to1/3.png"",""time"":299},{""stimulus"":""img/2to1/4.png"",""time"":397},{""stimulus"":""img/2to1/5.png"",""time"":498},{""stimulus"":""img/2to1/6.png"",""time"":597},{""stimulus"":""img/2to1/7.png"",""time"":695},{""stimulus"":""img/2to1/8.png"",""time"":794},{""stimulus"":""img/2to1/9.png"",""time"":893},{""stimulus"":""img/2to1/10.png"",""time"":991},{""stimulus"":""img/2to1/11.png"",""time"":1091},{""stimulus"":""img/2to1/12.png"",""time"":1189}]","[]"
"image-keyboard-response","136","137518","0.0-5.0-1.66","5c5f525806006e0001db95d2","bdp_cybrbll","Sun Apr 02 2023 18:52:58 GMT-0400 (Eastern Daylight Time)","452499","3","1","","null","","","","observe","","img/1to3/1.png","null","159","691","0.5","0.5","1","3","",""
"animation","137","138806","0.0-5.0-2.66","5c5f525806006e0001db95d2","bdp_cybrbll","Sun Apr 02 2023 18:52:58 GMT-0400 (Eastern Daylight Time)","452499","3","1","","","","","","","","","","159","","","","1","3","[{""stimulus"":""img/1to3/1.png"",""time"":100},{""stimulus"":""img/1to3/2.png"",""time"":199},{""stimulus"":""img/1to3/3.png"",""time"":298},{""stimulus"":""img/1to3/4.png"",""time"":396},{""stimulus"":""img/1to3/5.png"",""time"":496},{""stimulus"":""img/1to3/6.png"",""time"":595},{""stimulus"":""img/1to3/7.png"",""time"":694},{""stimulus"":""img/1to3/8.png"",""time"":793},{""stimulus"":""img/1to3/9.png"",""time"":892},{""stimulus"":""img/1to3/10.png"",""time"":992},{""stimulus"":""img/1to3/11.png"",""time"":1089},{""stimulus"":""img/1to3/12.png"",""time"":1190}]","[]"
"image-keyboard-response","138","140073","0.0-5.0-1.67","5c5f525806006e0001db95d2","bdp_cybrbll","Sun Apr 02 2023 18:52:58 GMT-0400 (Eastern Daylight Time)","452499","3","1","","null","","","","observe","","img/3to2/1.png","null","158","1265","0.5","0.5","3","2","",""
"animation","139","141360","0.0-5.0-2.67","5c5f525806006e0001db95d2","bdp_cybrbll","Sun Apr 02 2023 18:52:58 GMT-0400 (Eastern Daylight Time)","452499","3","1","","","","","","","","","","158","","","","3","2","[{""stimulus"":""img/3to2/1.png"",""time"":100},{""stimulus"":""img/3to2/2.png"",""time"":200},{""stimulus"":""img/3to2/3.png"",""time"":297},{""stimulus"":""img/3to2/4.png"",""time"":397},{""stimulus"":""img/3to2/5.png"",""time"":501},{""stimulus"":""img/3to2/6.png"",""time"":595},{""stimulus"":""img/3to2/7.png"",""time"":694},{""stimulus"":""img/3to2/8.png"",""time"":793},{""stimulus"":""img/3to2/9.png"",""time"":891},{""stimulus"":""img/3to2/10.png"",""time"":991},{""stimulus"":""img/3to2/11.png"",""time"":1089},{""stimulus"":""img/3to2/12.png"",""time"":1188}]","[]"
"image-keyboard-response","140","141403","0.0-5.0-1.68","5c5f525806006e0001db95d2","bdp_cybrbll","Sun Apr 02 2023 18:52:58 GMT-0400 (Eastern Daylight Time)","452499","3","1","","42","","","","choice","","img/2to1/1.png","2","157","1560","0.5","0.5","2","3","",""
"animation","141","142691","0.0-5.0-2.68","5c5f525806006e0001db95d2","bdp_cybrbll","Sun Apr 02 2023 18:52:58 GMT-0400 (Eastern Daylight Time)","452499","3","1","","","","","","","","","","157","","","","2","3","[{""stimulus"":""img/2to3/1.png"",""time"":99},{""stimulus"":""img/2to3/2.png"",""time"":199},{""stimulus"":""img/2to3/3.png"",""time"":297},{""stimulus"":""img/2to3/4.png"",""time"":396},{""stimulus"":""img/2to3/5.png"",""time"":496},{""stimulus"":""img/2to3/6.png"",""time"":595},{""stimulus"":""img/2to3/7.png"",""time"":694},{""stimulus"":""img/2to3/8.png"",""time"":793},{""stimulus"":""img/2to3/9.png"",""time"":892},{""stimulus"":""img/2to3/10.png"",""time"":990},{""stimulus"":""img/2to3/11.png"",""time"":1102},{""stimulus"":""img/2to3/12.png"",""time"":1189}]","[]"
"image-keyboard-response","142","142854","0.0-5.0-1.69","5c5f525806006e0001db95d2","bdp_cybrbll","Sun Apr 02 2023 18:52:58 GMT-0400 (Eastern Daylight Time)","452499","3","1","","null","","","","observe","","img/3to2/1.png","null","156","162","0.5","0.5","3","1","",""
"animation","143","144142","0.0-5.0-2.69","5c5f525806006e0001db95d2","bdp_cybrbll","Sun Apr 02 2023 18:52:58 GMT-0400 (Eastern Daylight Time)","452499","3","1","","","","","","","","","","156","","","","3","1","[{""stimulus"":""img/3to1/1.png"",""time"":100},{""stimulus"":""img/3to1/2.png"",""time"":199},{""stimulus"":""img/3to1/3.png"",""time"":297},{""stimulus"":""img/3to1/4.png"",""time"":397},{""stimulus"":""img/3to1/5.png"",""time"":496},{""stimulus"":""img/3to1/6.png"",""time"":595},{""stimulus"":""img/3to1/7.png"",""time"":694},{""stimulus"":""img/3to1/8.png"",""time"":794},{""stimulus"":""img/3to1/9.png"",""time"":892},{""stimulus"":""img/3to1/10.png"",""time"":992},{""stimulus"":""img/3to1/11.png"",""time"":1091},{""stimulus"":""img/3to1/12.png"",""time"":1189}]","[]"
"image-keyboard-response","144","144329","0.0-5.0-1.70","5c5f525806006e0001db95d2","bdp_cybrbll","Sun Apr 02 2023 18:52:58 GMT-0400 (Eastern Daylight Time)","452499","3","1","","null","","","","observe","","img/1to3/1.png","null","155","185","0.5","0.5","1","2","",""
"animation","145","145617","0.0-5.0-2.70","5c5f525806006e0001db95d2","bdp_cybrbll","Sun Apr 02 2023 18:52:58 GMT-0400 (Eastern Daylight Time)","452499","3","1","","","","","","","","","","155","","","","1","2","[{""stimulus"":""img/1to2/1.png"",""time"":110},{""stimulus"":""img/1to2/2.png"",""time"":199},{""stimulus"":""img/1to2/3.png"",""time"":299},{""stimulus"":""img/1to2/4.png"",""time"":397},{""stimulus"":""img/1to2/5.png"",""time"":497},{""stimulus"":""img/1to2/6.png"",""time"":595},{""stimulus"":""img/1to2/7.png"",""time"":695},{""stimulus"":""img/1to2/8.png"",""time"":793},{""stimulus"":""img/1to2/9.png"",""time"":893},{""stimulus"":""img/1to2/10.png"",""time"":992},{""stimulus"":""img/1to2/11.png"",""time"":1091},{""stimulus"":""img/1to2/12.png"",""time"":1204}]","[]"
"image-keyboard-response","146","146046","0.0-5.0-1.71","5c5f525806006e0001db95d2","bdp_cybrbll","Sun Apr 02 2023 18:52:58 GMT-0400 (Eastern Daylight Time)","452499","3","1","","429","","","","choice","","img/2to1/1.png","1","154","689","0.5","0.5","2","1","",""
"animation","147","147334","0.0-5.0-2.71","5c5f525806006e0001db95d2","bdp_cybrbll","Sun Apr 02 2023 18:52:58 GMT-0400 (Eastern Daylight Time)","452499","3","1","","","","","","","","","","154","","","","2","1","[{""stimulus"":""img/2to1/1.png"",""time"":100},{""stimulus"":""img/2to1/2.png"",""time"":199},{""stimulus"":""img/2to1/3.png"",""time"":298},{""stimulus"":""img/2to1/4.png"",""time"":397},{""stimulus"":""img/2to1/5.png"",""time"":497},{""stimulus"":""img/2to1/6.png"",""time"":595},{""stimulus"":""img/2to1/7.png"",""time"":694},{""stimulus"":""img/2to1/8.png"",""time"":793},{""stimulus"":""img/2to1/9.png"",""time"":892},{""stimulus"":""img/2to1/10.png"",""time"":991},{""stimulus"":""img/2to1/11.png"",""time"":1090},{""stimulus"":""img/2to1/12.png"",""time"":1190}]","[]"
"image-keyboard-response","148","147684","0.0-5.0-1.72","5c5f525806006e0001db95d2","bdp_cybrbll","Sun Apr 02 2023 18:52:58 GMT-0400 (Eastern Daylight Time)","452499","3","1","","null","","","","observe","","img/1to3/1.png","null","153","348","0.5","0.5","1","3","",""
"animation","149","148971","0.0-5.0-2.72","5c5f525806006e0001db95d2","bdp_cybrbll","Sun Apr 02 2023 18:52:58 GMT-0400 (Eastern Daylight Time)","452499","3","1","","","","","","","","","","153","","","","1","3","[{""stimulus"":""img/1to3/1.png"",""time"":100},{""stimulus"":""img/1to3/2.png"",""time"":199},{""stimulus"":""img/1to3/3.png"",""time"":299},{""stimulus"":""img/1to3/4.png"",""time"":397},{""stimulus"":""img/1to3/5.png"",""time"":495},{""stimulus"":""img/1to3/6.png"",""time"":596},{""stimulus"":""img/1to3/7.png"",""time"":709},{""stimulus"":""img/1to3/8.png"",""time"":793},{""stimulus"":""img/1to3/9.png"",""time"":892},{""stimulus"":""img/1to3/10.png"",""time"":991},{""stimulus"":""img/1to3/11.png"",""time"":1091},{""stimulus"":""img/1to3/12.png"",""time"":1189}]","[]"
"image-keyboard-response","150","149708","0.0-5.0-1.73","5c5f525806006e0001db95d2","bdp_cybrbll","Sun Apr 02 2023 18:52:58 GMT-0400 (Eastern Daylight Time)","452499","3","1","","null","","","","observe","","img/3to2/1.png","null","152","735","0.5","0.5","3","2","",""
"animation","151","150996","0.0-5.0-2.73","5c5f525806006e0001db95d2","bdp_cybrbll","Sun Apr 02 2023 18:52:58 GMT-0400 (Eastern Daylight Time)","452499","3","1","","","","","","","","","","152","","","","3","2","[{""stimulus"":""img/3to2/1.png"",""time"":99},{""stimulus"":""img/3to2/2.png"",""time"":199},{""stimulus"":""img/3to2/3.png"",""time"":298},{""stimulus"":""img/3to2/4.png"",""time"":396},{""stimulus"":""img/3to2/5.png"",""time"":496},{""stimulus"":""img/3to2/6.png"",""time"":595},{""stimulus"":""img/3to2/7.png"",""time"":693},{""stimulus"":""img/3to2/8.png"",""time"":793},{""stimulus"":""img/3to2/9.png"",""time"":892},{""stimulus"":""img/3to2/10.png"",""time"":991},{""stimulus"":""img/3to2/11.png"",""time"":1090},{""stimulus"":""img/3to2/12.png"",""time"":1189}]","[]"
"image-keyboard-response","152","151720","0.0-5.0-1.74","5c5f525806006e0001db95d2","bdp_cybrbll","Sun Apr 02 2023 18:52:58 GMT-0400 (Eastern Daylight Time)","452499","3","1","","724","","","","choice","","img/2to1/1.png","2","151","647","0.5","0.5","2","3","",""
"animation","153","153009","0.0-5.0-2.74","5c5f525806006e0001db95d2","bdp_cybrbll","Sun Apr 02 2023 18:52:58 GMT-0400 (Eastern Daylight Time)","452499","3","1","","","","","","","","","","151","","","","2","3","[{""stimulus"":""img/2to3/1.png"",""time"":101},{""stimulus"":""img/2to3/2.png"",""time"":199},{""stimulus"":""img/2to3/3.png"",""time"":299},{""stimulus"":""img/2to3/4.png"",""time"":398},{""stimulus"":""img/2to3/5.png"",""time"":497},{""stimulus"":""img/2to3/6.png"",""time"":596},{""stimulus"":""img/2to3/7.png"",""time"":695},{""stimulus"":""img/2to3/8.png"",""time"":794},{""stimulus"":""img/2to3/9.png"",""time"":892},{""stimulus"":""img/2to3/10.png"",""time"":992},{""stimulus"":""img/2to3/11.png"",""time"":1091},{""stimulus"":""img/2to3/12.png"",""time"":1190}]","[]"
"image-keyboard-response","154","154571","0.0-5.0-1.75","5c5f525806006e0001db95d2","bdp_cybrbll","Sun Apr 02 2023 18:52:58 GMT-0400 (Eastern Daylight Time)","452499","3","1","","null","","","","observe","","img/3to2/1.png","null","150","1562","0.5","0.5","3","1","",""
"animation","155","155859","0.0-5.0-2.75","5c5f525806006e0001db95d2","bdp_cybrbll","Sun Apr 02 2023 18:52:58 GMT-0400 (Eastern Daylight Time)","452499","3","1","","","","","","","","","","150","","","","3","1","[{""stimulus"":""img/3to1/1.png"",""time"":100},{""stimulus"":""img/3to1/2.png"",""time"":198},{""stimulus"":""img/3to1/3.png"",""time"":298},{""stimulus"":""img/3to1/4.png"",""time"":397},{""stimulus"":""img/3to1/5.png"",""time"":496},{""stimulus"":""img/3to1/6.png"",""time"":595},{""stimulus"":""img/3to1/7.png"",""time"":694},{""stimulus"":""img/3to1/8.png"",""time"":792},{""stimulus"":""img/3to1/9.png"",""time"":892},{""stimulus"":""img/3to1/10.png"",""time"":991},{""stimulus"":""img/3to1/11.png"",""time"":1089},{""stimulus"":""img/3to1/12.png"",""time"":1189}]","[]"
"image-keyboard-response","156","156825","0.0-5.0-1.76","5c5f525806006e0001db95d2","bdp_cybrbll","Sun Apr 02 2023 18:52:58 GMT-0400 (Eastern Daylight Time)","452499","3","1","","null","","","","observe","","img/1to3/1.png","null","149","965","0.5","0.1","1","3","",""
"animation","157","158114","0.0-5.0-2.76","5c5f525806006e0001db95d2","bdp_cybrbll","Sun Apr 02 2023 18:52:58 GMT-0400 (Eastern Daylight Time)","452499","3","1","","","","","","","","","","149","","","","1","3","[{""stimulus"":""img/1to3/1.png"",""time"":99},{""stimulus"":""img/1to3/2.png"",""time"":199},{""stimulus"":""img/1to3/3.png"",""time"":298},{""stimulus"":""img/1to3/4.png"",""time"":397},{""stimulus"":""img/1to3/5.png"",""time"":496},{""stimulus"":""img/1to3/6.png"",""time"":595},{""stimulus"":""img/1to3/7.png"",""time"":694},{""stimulus"":""img/1to3/8.png"",""time"":793},{""stimulus"":""img/1to3/9.png"",""time"":891},{""stimulus"":""img/1to3/10.png"",""time"":991},{""stimulus"":""img/1to3/11.png"",""time"":1090},{""stimulus"":""img/1to3/12.png"",""time"":1189}]","[]"
"image-keyboard-response","158","158467","0.0-5.0-1.77","5c5f525806006e0001db95d2","bdp_cybrbll","Sun Apr 02 2023 18:52:58 GMT-0400 (Eastern Daylight Time)","452499","3","1","","null","","","","observe","","img/3to2/1.png","null","148","341","0.5","0.1","3","2","",""
"animation","159","159756","0.0-5.0-2.77","5c5f525806006e0001db95d2","bdp_cybrbll","Sun Apr 02 2023 18:52:58 GMT-0400 (Eastern Daylight Time)","452499","3","1","","","","","","","","","","148","","","","3","2","[{""stimulus"":""img/3to2/1.png"",""time"":100},{""stimulus"":""img/3to2/2.png"",""time"":199},{""stimulus"":""img/3to2/3.png"",""time"":298},{""stimulus"":""img/3to2/4.png"",""time"":397},{""stimulus"":""img/3to2/5.png"",""time"":497},{""stimulus"":""img/3to2/6.png"",""time"":594},{""stimulus"":""img/3to2/7.png"",""time"":694},{""stimulus"":""img/3to2/8.png"",""time"":793},{""stimulus"":""img/3to2/9.png"",""time"":893},{""stimulus"":""img/3to2/10.png"",""time"":992},{""stimulus"":""img/3to2/11.png"",""time"":1091},{""stimulus"":""img/3to2/12.png"",""time"":1189}]","[]"
"image-keyboard-response","160","160778","0.0-5.0-1.78","5c5f525806006e0001db95d2","bdp_cybrbll","Sun Apr 02 2023 18:52:58 GMT-0400 (Eastern Daylight Time)","452499","3","1","","1022","","","","choice","","img/2to1/1.png","1","147","605","0.5","0.1","2","1","",""
"animation","161","162065","0.0-5.0-2.78","5c5f525806006e0001db95d2","bdp_cybrbll","Sun Apr 02 2023 18:52:58 GMT-0400 (Eastern Daylight Time)","452499","3","1","","","","","","","","","","147","","","","2","1","[{""stimulus"":""img/2to1/1.png"",""time"":100},{""stimulus"":""img/2to1/2.png"",""time"":199},{""stimulus"":""img/2to1/3.png"",""time"":298},{""stimulus"":""img/2to1/4.png"",""time"":398},{""stimulus"":""img/2to1/5.png"",""time"":496},{""stimulus"":""img/2to1/6.png"",""time"":595},{""stimulus"":""img/2to1/7.png"",""time"":694},{""stimulus"":""img/2to1/8.png"",""time"":804},{""stimulus"":""img/2to1/9.png"",""time"":892},{""stimulus"":""img/2to1/10.png"",""time"":991},{""stimulus"":""img/2to1/11.png"",""time"":1091},{""stimulus"":""img/2to1/12.png"",""time"":1189}]","[]"
"image-keyboard-response","162","163067","0.0-5.0-1.79","5c5f525806006e0001db95d2","bdp_cybrbll","Sun Apr 02 2023 18:52:58 GMT-0400 (Eastern Daylight Time)","452499","3","1","","null","","","","observe","","img/1to3/1.png","null","146","1001","0.5","0.1","1","3","",""
"animation","163","164355","0.0-5.0-2.79","5c5f525806006e0001db95d2","bdp_cybrbll","Sun Apr 02 2023 18:52:58 GMT-0400 (Eastern Daylight Time)","452499","3","1","","","","","","","","","","146","","","","1","3","[{""stimulus"":""img/1to3/1.png"",""time"":100},{""stimulus"":""img/1to3/2.png"",""time"":199},{""stimulus"":""img/1to3/3.png"",""time"":298},{""stimulus"":""img/1to3/4.png"",""time"":398},{""stimulus"":""img/1to3/5.png"",""time"":496},{""stimulus"":""img/1to3/6.png"",""time"":596},{""stimulus"":""img/1to3/7.png"",""time"":694},{""stimulus"":""img/1to3/8.png"",""time"":794},{""stimulus"":""img/1to3/9.png"",""time"":893},{""stimulus"":""img/1to3/10.png"",""time"":992},{""stimulus"":""img/1to3/11.png"",""time"":1091},{""stimulus"":""img/1to3/12.png"",""time"":1190}]","[]"
"image-keyboard-response","164","165216","0.0-5.0-1.80","5c5f525806006e0001db95d2","bdp_cybrbll","Sun Apr 02 2023 18:52:58 GMT-0400 (Eastern Daylight Time)","452499","3","1","","null","","","","observe","","img/3to2/1.png","null","145","859","0.5","0.1","3","2","",""
"animation","165","166504","0.0-5.0-2.80","5c5f525806006e0001db95d2","bdp_cybrbll","Sun Apr 02 2023 18:52:58 GMT-0400 (Eastern Daylight Time)","452499","3","1","","","","","","","","","","145","","","","3","2","[{""stimulus"":""img/3to2/1.png"",""time"":100},{""stimulus"":""img/3to2/2.png"",""time"":199},{""stimulus"":""img/3to2/3.png"",""time"":298},{""stimulus"":""img/3to2/4.png"",""time"":397},{""stimulus"":""img/3to2/5.png"",""time"":496},{""stimulus"":""img/3to2/6.png"",""time"":595},{""stimulus"":""img/3to2/7.png"",""time"":694},{""stimulus"":""img/3to2/8.png"",""time"":793},{""stimulus"":""img/3to2/9.png"",""time"":892},{""stimulus"":""img/3to2/10.png"",""time"":991},{""stimulus"":""img/3to2/11.png"",""time"":1091},{""stimulus"":""img/3to2/12.png"",""time"":1189}]","[]"
"image-keyboard-response","166","172802","0.0-5.0-1.81","5c5f525806006e0001db95d2","bdp_cybrbll","Sun Apr 02 2023 18:52:58 GMT-0400 (Eastern Daylight Time)","452499","3","1","","6298","","","","choice","","img/2to1/1.png","1","144","463","0.5","0.1","2","1","",""
"animation","167","174090","0.0-5.0-2.81","5c5f525806006e0001db95d2","bdp_cybrbll","Sun Apr 02 2023 18:52:58 GMT-0400 (Eastern Daylight Time)","452499","3","1","","","","","","","","","","144","","","","2","1","[{""stimulus"":""img/2to1/1.png"",""time"":100},{""stimulus"":""img/2to1/2.png"",""time"":199},{""stimulus"":""img/2to1/3.png"",""time"":298},{""stimulus"":""img/2to1/4.png"",""time"":398},{""stimulus"":""img/2to1/5.png"",""time"":496},{""stimulus"":""img/2to1/6.png"",""time"":602},{""stimulus"":""img/2to1/7.png"",""time"":695},{""stimulus"":""img/2to1/8.png"",""time"":793},{""stimulus"":""img/2to1/9.png"",""time"":894},{""stimulus"":""img/2to1/10.png"",""time"":991},{""stimulus"":""img/2to1/11.png"",""time"":1091},{""stimulus"":""img/2to1/12.png"",""time"":1189}]","[]"
"image-keyboard-response","168","174540","0.0-5.0-1.82","5c5f525806006e0001db95d2","bdp_cybrbll","Sun Apr 02 2023 18:52:58 GMT-0400 (Eastern Daylight Time)","452499","3","1","","null","","","","observe","","img/1to3/1.png","null","143","449","0.5","0.1","1","2","",""
"animation","169","175828","0.0-5.0-2.82","5c5f525806006e0001db95d2","bdp_cybrbll","Sun Apr 02 2023 18:52:58 GMT-0400 (Eastern Daylight Time)","452499","3","1","","","","","","","","","","143","","","","1","2","[{""stimulus"":""img/1to2/1.png"",""time"":100},{""stimulus"":""img/1to2/2.png"",""time"":200},{""stimulus"":""img/1to2/3.png"",""time"":299},{""stimulus"":""img/1to2/4.png"",""time"":398},{""stimulus"":""img/1to2/5.png"",""time"":497},{""stimulus"":""img/1to2/6.png"",""time"":595},{""stimulus"":""img/1to2/7.png"",""time"":695},{""stimulus"":""img/1to2/8.png"",""time"":794},{""stimulus"":""img/1to2/9.png"",""time"":893},{""stimulus"":""img/1to2/10.png"",""time"":991},{""stimulus"":""img/1to2/11.png"",""time"":1091},{""stimulus"":""img/1to2/12.png"",""time"":1189}]","[]"
"image-keyboard-response","170","186274","0.0-5.0-1.83","5c5f525806006e0001db95d2","bdp_cybrbll","Sun Apr 02 2023 18:52:58 GMT-0400 (Eastern Daylight Time)","452499","3","1","","10445","","","","choice","","img/2to1/1.png","1","142","800","0.5","0.1","2","1","",""
"animation","171","187562","0.0-5.0-2.83","5c5f525806006e0001db95d2","bdp_cybrbll","Sun Apr 02 2023 18:52:58 GMT-0400 (Eastern Daylight Time)","452499","3","1","","","","","","","","","","142","","","","2","1","[{""stimulus"":""img/2to1/1.png"",""time"":101},{""stimulus"":""img/2to1/2.png"",""time"":200},{""stimulus"":""img/2to1/3.png"",""time"":298},{""stimulus"":""img/2to1/4.png"",""time"":397},{""stimulus"":""img/2to1/5.png"",""time"":496},{""stimulus"":""img/2to1/6.png"",""time"":596},{""stimulus"":""img/2to1/7.png"",""time"":695},{""stimulus"":""img/2to1/8.png"",""time"":793},{""stimulus"":""img/2to1/9.png"",""time"":893},{""stimulus"":""img/2to1/10.png"",""time"":991},{""stimulus"":""img/2to1/11.png"",""time"":1090},{""stimulus"":""img/2to1/12.png"",""time"":1189}]","[]"
"image-keyboard-response","172","188413","0.0-5.0-1.84","5c5f525806006e0001db95d2","bdp_cybrbll","Sun Apr 02 2023 18:52:58 GMT-0400 (Eastern Daylight Time)","452499","3","1","","null","","","","observe","","img/1to3/1.png","null","141","849","0.5","0.1","1","2","",""
"animation","173","189700","0.0-5.0-2.84","5c5f525806006e0001db95d2","bdp_cybrbll","Sun Apr 02 2023 18:52:58 GMT-0400 (Eastern Daylight Time)","452499","3","1","","","","","","","","","","141","","","","1","2","[{""stimulus"":""img/1to2/1.png"",""time"":99},{""stimulus"":""img/1to2/2.png"",""time"":199},{""stimulus"":""img/1to2/3.png"",""time"":298},{""stimulus"":""img/1to2/4.png"",""time"":398},{""stimulus"":""img/1to2/5.png"",""time"":496},{""stimulus"":""img/1to2/6.png"",""time"":596},{""stimulus"":""img/1to2/7.png"",""time"":694},{""stimulus"":""img/1to2/8.png"",""time"":793},{""stimulus"":""img/1to2/9.png"",""time"":892},{""stimulus"":""img/1to2/10.png"",""time"":999},{""stimulus"":""img/1to2/11.png"",""time"":1089},{""stimulus"":""img/1to2/12.png"",""time"":1189}]","[]"
"image-keyboard-response","174","192403","0.0-5.0-1.85","5c5f525806006e0001db95d2","bdp_cybrbll","Sun Apr 02 2023 18:52:58 GMT-0400 (Eastern Daylight Time)","452499","3","1","","2702","","","","choice","","img/2to1/1.png","2","140","1232","0.5","0.1","2","3","",""
"animation","175","193691","0.0-5.0-2.85","5c5f525806006e0001db95d2","bdp_cybrbll","Sun Apr 02 2023 18:52:58 GMT-0400 (Eastern Daylight Time)","452499","3","1","","","","","","","","","","140","","","","2","3","[{""stimulus"":""img/2to3/1.png"",""time"":102},{""stimulus"":""img/2to3/2.png"",""time"":199},{""stimulus"":""img/2to3/3.png"",""time"":299},{""stimulus"":""img/2to3/4.png"",""time"":397},{""stimulus"":""img/2to3/5.png"",""time"":496},{""stimulus"":""img/2to3/6.png"",""time"":596},{""stimulus"":""img/2to3/7.png"",""time"":695},{""stimulus"":""img/2to3/8.png"",""time"":794},{""stimulus"":""img/2to3/9.png"",""time"":902},{""stimulus"":""img/2to3/10.png"",""time"":992},{""stimulus"":""img/2to3/11.png"",""time"":1090},{""stimulus"":""img/2to3/12.png"",""time"":1190}]","[]"
"image-keyboard-response","176","194041","0.0-5.0-1.86","5c5f525806006e0001db95d2","bdp_cybrbll","Sun Apr 02 2023 18:52:58 GMT-0400 (Eastern Daylight Time)","452499","3","1","","null","","","","observe","","img/3to2/1.png","null","139","348","0.5","0.1","3","2","",""
"animation","177","195329","0.0-5.0-2.86","5c5f525806006e0001db95d2","bdp_cybrbll","Sun Apr 02 2023 18:52:58 GMT-0400 (Eastern Daylight Time)","452499","3","1","","","","","","","","","","139","","","","3","2","[{""stimulus"":""img/3to2/1.png"",""time"":100},{""stimulus"":""img/3to2/2.png"",""time"":198},{""stimulus"":""img/3to2/3.png"",""time"":299},{""stimulus"":""img/3to2/4.png"",""time"":397},{""stimulus"":""img/3to2/5.png"",""time"":495},{""stimulus"":""img/3to2/6.png"",""time"":594},{""stimulus"":""img/3to2/7.png"",""time"":694},{""stimulus"":""img/3to2/8.png"",""time"":792},{""stimulus"":""img/3to2/9.png"",""time"":891},{""stimulus"":""img/3to2/10.png"",""time"":991},{""stimulus"":""img/3to2/11.png"",""time"":1089},{""stimulus"":""img/3to2/12.png"",""time"":1189}]","[]"
"image-keyboard-response","178","196682","0.0-5.0-1.87","5c5f525806006e0001db95d2","bdp_cybrbll","Sun Apr 02 2023 18:52:58 GMT-0400 (Eastern Daylight Time)","452499","3","1","","1352","","","","choice","","img/2to1/1.png","1","138","1132","0.5","0.1","2","1","",""
"animation","179","197969","0.0-5.0-2.87","5c5f525806006e0001db95d2","bdp_cybrbll","Sun Apr 02 2023 18:52:58 GMT-0400 (Eastern Daylight Time)","452499","3","1","","","","","","","","","","138","","","","2","1","[{""stimulus"":""img/2to1/1.png"",""time"":99},{""stimulus"":""img/2to1/2.png"",""time"":198},{""stimulus"":""img/2to1/3.png"",""time"":298},{""stimulus"":""img/2to1/4.png"",""time"":396},{""stimulus"":""img/2to1/5.png"",""time"":496},{""stimulus"":""img/2to1/6.png"",""time"":595},{""stimulus"":""img/2to1/7.png"",""time"":694},{""stimulus"":""img/2to1/8.png"",""time"":796},{""stimulus"":""img/2to1/9.png"",""time"":891},{""stimulus"":""img/2to1/10.png"",""time"":992},{""stimulus"":""img/2to1/11.png"",""time"":1090},{""stimulus"":""img/2to1/12.png"",""time"":1189}]","[]"
"image-keyboard-response","180","198293","0.0-5.0-1.88","5c5f525806006e0001db95d2","bdp_cybrbll","Sun Apr 02 2023 18:52:58 GMT-0400 (Eastern Daylight Time)","452499","3","1","","null","","","","observe","","img/1to3/1.png","null","137","322","0.5","0.1","1","3","",""
"animation","181","199580","0.0-5.0-2.88","5c5f525806006e0001db95d2","bdp_cybrbll","Sun Apr 02 2023 18:52:58 GMT-0400 (Eastern Daylight Time)","452499","3","1","","","","","","","","","","137","","","","1","3","[{""stimulus"":""img/1to3/1.png"",""time"":102},{""stimulus"":""img/1to3/2.png"",""time"":198},{""stimulus"":""img/1to3/3.png"",""time"":298},{""stimulus"":""img/1to3/4.png"",""time"":397},{""stimulus"":""img/1to3/5.png"",""time"":495},{""stimulus"":""img/1to3/6.png"",""time"":594},{""stimulus"":""img/1to3/7.png"",""time"":694},{""stimulus"":""img/1to3/8.png"",""time"":793},{""stimulus"":""img/1to3/9.png"",""time"":891},{""stimulus"":""img/1to3/10.png"",""time"":990},{""stimulus"":""img/1to3/11.png"",""time"":1090},{""stimulus"":""img/1to3/12.png"",""time"":1188}]","[]"
"image-keyboard-response","182","200121","0.0-5.0-1.89","5c5f525806006e0001db95d2","bdp_cybrbll","Sun Apr 02 2023 18:52:58 GMT-0400 (Eastern Daylight Time)","452499","3","1","","null","","","","observe","","img/3to2/1.png","null","136","539","0.5","0.1","3","2","",""
"animation","183","201410","0.0-5.0-2.89","5c5f525806006e0001db95d2","bdp_cybrbll","Sun Apr 02 2023 18:52:58 GMT-0400 (Eastern Daylight Time)","452499","3","1","","","","","","","","","","136","","","","3","2","[{""stimulus"":""img/3to2/1.png"",""time"":100},{""stimulus"":""img/3to2/2.png"",""time"":199},{""stimulus"":""img/3to2/3.png"",""time"":297},{""stimulus"":""img/3to2/4.png"",""time"":397},{""stimulus"":""img/3to2/5.png"",""time"":496},{""stimulus"":""img/3to2/6.png"",""time"":595},{""stimulus"":""img/3to2/7.png"",""time"":694},{""stimulus"":""img/3to2/8.png"",""time"":793},{""stimulus"":""img/3to2/9.png"",""time"":891},{""stimulus"":""img/3to2/10.png"",""time"":991},{""stimulus"":""img/3to2/11.png"",""time"":1089},{""stimulus"":""img/3to2/12.png"",""time"":1188}]","[]"
"image-keyboard-response","184","201756","0.0-5.0-1.90","5c5f525806006e0001db95d2","bdp_cybrbll","Sun Apr 02 2023 18:52:58 GMT-0400 (Eastern Daylight Time)","452499","3","1","","346","","","","choice","","img/2to1/1.png","2","135","369","0.5","0.1","2","3","",""
"animation","185","203044","0.0-5.0-2.90","5c5f525806006e0001db95d2","bdp_cybrbll","Sun Apr 02 2023 18:52:58 GMT-0400 (Eastern Daylight Time)","452499","3","1","","","","","","","","","","135","","","","2","3","[{""stimulus"":""img/2to3/1.png"",""time"":100},{""stimulus"":""img/2to3/2.png"",""time"":200},{""stimulus"":""img/2to3/3.png"",""time"":298},{""stimulus"":""img/2to3/4.png"",""time"":397},{""stimulus"":""img/2to3/5.png"",""time"":497},{""stimulus"":""img/2to3/6.png"",""time"":596},{""stimulus"":""img/2to3/7.png"",""time"":695},{""stimulus"":""img/2to3/8.png"",""time"":793},{""stimulus"":""img/2to3/9.png"",""time"":892},{""stimulus"":""img/2to3/10.png"",""time"":991},{""stimulus"":""img/2to3/11.png"",""time"":1091},{""stimulus"":""img/2to3/12.png"",""time"":1189}]","[]"
"image-keyboard-response","186","203249","0.0-5.0-1.91","5c5f525806006e0001db95d2","bdp_cybrbll","Sun Apr 02 2023 18:52:58 GMT-0400 (Eastern Daylight Time)","452499","3","1","","null","","","","observe","","img/3to2/1.png","null","134","202","0.5","0.1","3","2","",""
"animation","187","204537","0.0-5.0-2.91","5c5f525806006e0001db95d2","bdp_cybrbll","Sun Apr 02 2023 18:52:58 GMT-0400 (Eastern Daylight Time)","452499","3","1","","","","","","","","","","134","","","","3","2","[{""stimulus"":""img/3to2/1.png"",""time"":99},{""stimulus"":""img/3to2/2.png"",""time"":199},{""stimulus"":""img/3to2/3.png"",""time"":299},{""stimulus"":""img/3to2/4.png"",""time"":397},{""stimulus"":""img/3to2/5.png"",""time"":496},{""stimulus"":""img/3to2/6.png"",""time"":604},{""stimulus"":""img/3to2/7.png"",""time"":694},{""stimulus"":""img/3to2/8.png"",""time"":793},{""stimulus"":""img/3to2/9.png"",""time"":892},{""stimulus"":""img/3to2/10.png"",""time"":991},{""stimulus"":""img/3to2/11.png"",""time"":1090},{""stimulus"":""img/3to2/12.png"",""time"":1189}]","[]"
"image-keyboard-response","188","207143","0.0-5.0-1.92","5c5f525806006e0001db95d2","bdp_cybrbll","Sun Apr 02 2023 18:52:58 GMT-0400 (Eastern Daylight Time)","452499","3","1","","2605","","","","choice","","img/2to1/1.png","1","133","747","0.5","0.1","2","1","",""
"animation","189","208431","0.0-5.0-2.92","5c5f525806006e0001db95d2","bdp_cybrbll","Sun Apr 02 2023 18:52:58 GMT-0400 (Eastern Daylight Time)","452499","3","1","","","","","","","","","","133","","","","2","1","[{""stimulus"":""img/2to1/1.png"",""time"":100},{""stimulus"":""img/2to1/2.png"",""time"":210},{""stimulus"":""img/2to1/3.png"",""time"":304},{""stimulus"":""img/2to1/4.png"",""time"":398},{""stimulus"":""img/2to1/5.png"",""time"":496},{""stimulus"":""img/2to1/6.png"",""time"":595},{""stimulus"":""img/2to1/7.png"",""time"":694},{""stimulus"":""img/2to1/8.png"",""time"":793},{""stimulus"":""img/2to1/9.png"",""time"":893},{""stimulus"":""img/2to1/10.png"",""time"":991},{""stimulus"":""img/2to1/11.png"",""time"":1090},{""stimulus"":""img/2to1/12.png"",""time"":1189}]","[]"
"image-keyboard-response","190","209117","0.0-5.0-1.93","5c5f525806006e0001db95d2","bdp_cybrbll","Sun Apr 02 2023 18:52:58 GMT-0400 (Eastern Daylight Time)","452499","3","1","","null","","","","observe","","img/1to3/1.png","null","132","685","0.5","0.1","1","3","",""
