"trial_type","trial_index","time_elapsed","internal_node_id","subject_id","task","startTime","totalTime","labels","view_history","rt","event","trial","time","trialtype","success","stimulus","key_press","stimType","arraySize","arrayFaces","arrayOutcomes","matchType","corrResp","arrayDur","targFace","targCol","targOutcome","trialType","corr"
"pavlovia","0","2","0.0-0.0","5bfb5784a66aa500019dabef","bdp_wmem","Sat Apr 08 2023 10:48:15 GMT-0500 (Central Daylight Time)","618688","Match,No Match","","","","","","","","","","","","","","","","","","","","",""
"instructions","1","1529","0.0-1.0","5bfb5784a66aa500019dabef","bdp_wmem","Sat Apr 08 2023 10:48:15 GMT-0500 (Central Daylight Time)","618688","Match,No Match","[{""page_index"":0,""viewing_time"":1527}]","1527","","","","","","","","","","","","","","","","","","",""
"","","","","5bfb5784a66aa500019dabef","bdp_wmem","Sat Apr 08 2023 10:48:15 GMT-0500 (Central Daylight Time)","618688","Match,No Match","","","fullscreenenter","2","4161","fullscreenenter","","","","","","","","","","","","","","",""
"fullscreen","2","5148","0.0-2.0","5bfb5784a66aa500019dabef","bdp_wmem","Sat Apr 08 2023 10:48:15 GMT-0500 (Central Daylight Time)","618688","Match,No Match","","","","","","","true","","","","","","","","","","","","","",""
"instructions","3","116377","0.0-4.0","5bfb5784a66aa500019dabef","bdp_wmem","Sat Apr 08 2023 10:48:15 GMT-0500 (Central Daylight Time)","618688","Match,No Match","[{""page_index"":0,""viewing_time"":28972},{""page_index"":1,""viewing_time"":37544},{""page_index"":2,""viewing_time"":15784},{""page_index"":3,""viewing_time"":19513},{""page_index"":4,""viewing_time"":9416}]","111229","","","","","","","","","","","","","","","","","","",""
"html-keyboard-response","4","116880","0.0-5.0-1.0","5bfb5784a66aa500019dabef","bdp_wmem","Sat Apr 08 2023 10:48:15 GMT-0500 (Central Daylight Time)","618688","Match,No Match","","null","","","","","","<div class='trialBorder'><div class='vertical-center'><img src='img/fixation2_sml.jpg'</img></div></div>","null","FIX","","","","","","","","","","",""
"html-keyboard-response","5","121381","0.0-5.0-2.0","5bfb5784a66aa500019dabef","bdp_wmem","Sat Apr 08 2023 10:48:15 GMT-0500 (Central Daylight Time)","618688","Match,No Match","","null","","","","","","<div class='trialBorder'><div class='vertical-center'><img style='vertical-align:center; align:center' src='img/fixation2_sml.jpg'></div><div class='arrayDiv3'><div class='tl'><img class='introPic' src='trustrating_stim/white_mw013.bmp'><br><font color='red'><strong>Keep</strong></font></div><div class='tc'><img class='introPic' src='trustrating_stim/white_mw070.bmp'><br><font color='green'><strong>Share</strong></font></div><div class='tr'><img class='introPic' src='trustrating_stim/white_mw010.bmp'><br><font color='red'><strong>Keep</strong></font></div></div></div>","null","ARRAY","3","trustrating_stim/white_mw013.bmp,trustrating_stim/white_mw070.bmp,trustrating_stim/white_mw010.bmp","0,1,0","noMatchOutcome","i","4500","","","","",""
"html-keyboard-response","6","125383","0.0-5.0-3.0","5bfb5784a66aa500019dabef","bdp_wmem","Sat Apr 08 2023 10:48:15 GMT-0500 (Central Daylight Time)","618688","Match,No Match","","null","","","","","","<div class='trialBorder'><div class='vertical-center'><img src='img/fixation2_sml.jpg'</img></div></div>","null","DELAY","","","","","","","","","","",""
"html-keyboard-response","7","127681","0.0-5.0-4.0","5bfb5784a66aa500019dabef","bdp_wmem","Sat Apr 08 2023 10:48:15 GMT-0500 (Central Daylight Time)","618688","Match,No Match","","2297","","","","","","<div class='trialBorder'><div class='targDiv'><div class='tc'><img class='introPic' src='trustrating_stim/white_mw013.bmp'><br><font color='green'><strong>Share</strong></font></div></div><div class='respDiv'><div class='respDivL'>Match<br>(e)</div><div class='respDivR'>No Match<br>(i)</div></div></div>","i","TARGET","3","trustrating_stim/white_mw013.bmp,trustrating_stim/white_mw070.bmp,trustrating_stim/white_mw010.bmp","0,1,0","noMatchOutcome","i","4500","trustrating_stim/white_mw013.bmp","green","Share","PRACTICE","1"
"html-keyboard-response","8","128182","0.0-5.0-5.0","5bfb5784a66aa500019dabef","bdp_wmem","Sat Apr 08 2023 10:48:15 GMT-0500 (Central Daylight Time)","618688","Match,No Match","","null","","","","","","<div class='trialBorder'><div class='vertical-center'><img src='img/correct.jpg'></div><div class='respDiv'><div class='respDivL'>Match<br>(e)</div><div class='respDivR'><font style='color:orange'>No Match<br>(i)</font></div></div></div>","null","FEEDBACK","","","","","","","","","","",""
"html-keyboard-response","9","128684","0.0-5.0-1.1","5bfb5784a66aa500019dabef","bdp_wmem","Sat Apr 08 2023 10:48:15 GMT-0500 (Central Daylight Time)","618688","Match,No Match","","null","","","","","","<div class='trialBorder'><div class='vertical-center'><img src='img/fixation2_sml.jpg'</img></div></div>","null","FIX","","","","","","","","","","",""
"html-keyboard-response","10","131686","0.0-5.0-2.1","5bfb5784a66aa500019dabef","bdp_wmem","Sat Apr 08 2023 10:48:15 GMT-0500 (Central Daylight Time)","618688","Match,No Match","","null","","","","","","<div class='trialBorder'><div class='vertical-center'><img style='vertical-align:center; align:center' src='img/fixation2_sml.jpg'></div><div class='arrayDiv2'><div class='tl'><img class='introPic' src='trustrating_stim/white_mw003.bmp'><br><font color='red'><strong>Keep</strong></font></div><div class='tr'><img class='introPic' src='trustrating_stim/white_mw010.bmp'><br><font color='green'><strong>Share</strong></font></div></div></div>","null","ARRAY","2","trustrating_stim/white_mw003.bmp,trustrating_stim/white_mw010.bmp","0,1","Match","e","3000","","","","",""
"html-keyboard-response","11","135687","0.0-5.0-3.1","5bfb5784a66aa500019dabef","bdp_wmem","Sat Apr 08 2023 10:48:15 GMT-0500 (Central Daylight Time)","618688","Match,No Match","","null","","","","","","<div class='trialBorder'><div class='vertical-center'><img src='img/fixation2_sml.jpg'</img></div></div>","null","DELAY","","","","","","","","","","",""
"html-keyboard-response","12","137913","0.0-5.0-4.1","5bfb5784a66aa500019dabef","bdp_wmem","Sat Apr 08 2023 10:48:15 GMT-0500 (Central Daylight Time)","618688","Match,No Match","","2225","","","","","","<div class='trialBorder'><div class='targDiv'><div class='tc'><img class='introPic' src='trustrating_stim/white_mw010.bmp'><br><font color='green'><strong>Share</strong></font></div></div><div class='respDiv'><div class='respDivL'>Match<br>(e)</div><div class='respDivR'>No Match<br>(i)</div></div></div>","e","TARGET","2","trustrating_stim/white_mw003.bmp,trustrating_stim/white_mw010.bmp","0,1","Match","e","3000","trustrating_stim/white_mw010.bmp","green","Share","PRACTICE","1"
"html-keyboard-response","13","138414","0.0-5.0-5.1","5bfb5784a66aa500019dabef","bdp_wmem","Sat Apr 08 2023 10:48:15 GMT-0500 (Central Daylight Time)","618688","Match,No Match","","null","","","","","","<div class='trialBorder'><div class='vertical-center'><img src='img/correct.jpg'></div><div class='respDiv'><div class='respDivL'><font style='color:orange'>Match<br>(e)</font></div><div class='respDivR'>No Match<br>(i)</div></div></div>","null","FEEDBACK","","","","","","","","","","",""
"html-keyboard-response","14","138915","0.0-5.0-1.2","5bfb5784a66aa500019dabef","bdp_wmem","Sat Apr 08 2023 10:48:15 GMT-0500 (Central Daylight Time)","618688","Match,No Match","","null","","","","","","<div class='trialBorder'><div class='vertical-center'><img src='img/fixation2_sml.jpg'</img></div></div>","null","FIX","","","","","","","","","","",""
"html-keyboard-response","15","140416","0.0-5.0-2.2","5bfb5784a66aa500019dabef","bdp_wmem","Sat Apr 08 2023 10:48:15 GMT-0500 (Central Daylight Time)","618688","Match,No Match","","null","","","","","","<div class='trialBorder'><div class='vertical-center'><img style='vertical-align:center; align:center' src='img/fixation2_sml.jpg'></div><div class='arrayDiv1'><div class='tc'><img class='introPic' src='trustrating_stim/white_mw042.bmp'><br><font color='green'><strong>Share</strong></font></div></div></div>","null","ARRAY","1","trustrating_stim/white_mw042.bmp","1","noMatchFace","i","1500","","","","",""
"html-keyboard-response","16","144417","0.0-5.0-3.2","5bfb5784a66aa500019dabef","bdp_wmem","Sat Apr 08 2023 10:48:15 GMT-0500 (Central Daylight Time)","618688","Match,No Match","","null","","","","","","<div class='trialBorder'><div class='vertical-center'><img src='img/fixation2_sml.jpg'</img></div></div>","null","DELAY","","","","","","","","","","",""
"html-keyboard-response","17","145777","0.0-5.0-4.2","5bfb5784a66aa500019dabef","bdp_wmem","Sat Apr 08 2023 10:48:15 GMT-0500 (Central Daylight Time)","618688","Match,No Match","","1359","","","","","","<div class='trialBorder'><div class='targDiv'><div class='tc'><img class='introPic' src='trustrating_stim/white_mw070.bmp'><br><font color='green'><strong>Share</strong></font></div></div><div class='respDiv'><div class='respDivL'>Match<br>(e)</div><div class='respDivR'>No Match<br>(i)</div></div></div>","i","TARGET","1","trustrating_stim/white_mw042.bmp","1","noMatchFace","i","1500","trustrating_stim/white_mw070.bmp","green","Share","PRACTICE","1"
"html-keyboard-response","18","146278","0.0-5.0-5.2","5bfb5784a66aa500019dabef","bdp_wmem","Sat Apr 08 2023 10:48:15 GMT-0500 (Central Daylight Time)","618688","Match,No Match","","null","","","","","","<div class='trialBorder'><div class='vertical-center'><img src='img/correct.jpg'></div><div class='respDiv'><div class='respDivL'>Match<br>(e)</div><div class='respDivR'><font style='color:orange'>No Match<br>(i)</font></div></div></div>","null","FEEDBACK","","","","","","","","","","",""
"html-keyboard-response","19","146779","0.0-5.0-1.3","5bfb5784a66aa500019dabef","bdp_wmem","Sat Apr 08 2023 10:48:15 GMT-0500 (Central Daylight Time)","618688","Match,No Match","","null","","","","","","<div class='trialBorder'><div class='vertical-center'><img src='img/fixation2_sml.jpg'</img></div></div>","null","FIX","","","","","","","","","","",""
"html-keyboard-response","20","151280","0.0-5.0-2.3","5bfb5784a66aa500019dabef","bdp_wmem","Sat Apr 08 2023 10:48:15 GMT-0500 (Central Daylight Time)","618688","Match,No Match","","null","","","","","","<div class='trialBorder'><div class='vertical-center'><img style='vertical-align:center; align:center' src='img/fixation2_sml.jpg'></div><div class='arrayDiv3'><div class='tl'><img class='introPic' src='trustrating_stim/white_mw038.bmp'><br><font color='red'><strong>Keep</strong></font></div><div class='tc'><img class='introPic' src='trustrating_stim/white_mw040.bmp'><br><font color='green'><strong>Share</strong></font></div><div class='tr'><img class='introPic' src='trustrating_stim/white_mw042.bmp'><br><font color='green'><strong>Share</strong></font></div></div></div>","null","ARRAY","3","trustrating_stim/white_mw038.bmp,trustrating_stim/white_mw040.bmp,trustrating_stim/white_mw042.bmp","0,1,1","Match","e","4500","","","","",""
"html-keyboard-response","21","155280","0.0-5.0-3.3","5bfb5784a66aa500019dabef","bdp_wmem","Sat Apr 08 2023 10:48:15 GMT-0500 (Central Daylight Time)","618688","Match,No Match","","null","","","","","","<div class='trialBorder'><div class='vertical-center'><img src='img/fixation2_sml.jpg'</img></div></div>","null","DELAY","","","","","","","","","","",""
"html-keyboard-response","22","156889","0.0-5.0-4.3","5bfb5784a66aa500019dabef","bdp_wmem","Sat Apr 08 2023 10:48:15 GMT-0500 (Central Daylight Time)","618688","Match,No Match","","1608","","","","","","<div class='trialBorder'><div class='targDiv'><div class='tc'><img class='introPic' src='trustrating_stim/white_mw040.bmp'><br><font color='green'><strong>Share</strong></font></div></div><div class='respDiv'><div class='respDivL'>Match<br>(e)</div><div class='respDivR'>No Match<br>(i)</div></div></div>","e","TARGET","3","trustrating_stim/white_mw038.bmp,trustrating_stim/white_mw040.bmp,trustrating_stim/white_mw042.bmp","0,1,1","Match","e","4500","trustrating_stim/white_mw040.bmp","green","Share","PRACTICE","1"
"html-keyboard-response","23","157390","0.0-5.0-5.3","5bfb5784a66aa500019dabef","bdp_wmem","Sat Apr 08 2023 10:48:15 GMT-0500 (Central Daylight Time)","618688","Match,No Match","","null","","","","","","<div class='trialBorder'><div class='vertical-center'><img src='img/correct.jpg'></div><div class='respDiv'><div class='respDivL'><font style='color:orange'>Match<br>(e)</font></div><div class='respDivR'>No Match<br>(i)</div></div></div>","null","FEEDBACK","","","","","","","","","","",""
"html-keyboard-response","24","157891","0.0-5.0-1.4","5bfb5784a66aa500019dabef","bdp_wmem","Sat Apr 08 2023 10:48:15 GMT-0500 (Central Daylight Time)","618688","Match,No Match","","null","","","","","","<div class='trialBorder'><div class='vertical-center'><img src='img/fixation2_sml.jpg'</img></div></div>","null","FIX","","","","","","","","","","",""
"html-keyboard-response","25","159392","0.0-5.0-2.4","5bfb5784a66aa500019dabef","bdp_wmem","Sat Apr 08 2023 10:48:15 GMT-0500 (Central Daylight Time)","618688","Match,No Match","","null","","","","","","<div class='trialBorder'><div class='vertical-center'><img style='vertical-align:center; align:center' src='img/fixation2_sml.jpg'></div><div class='arrayDiv1'><div class='tc'><img class='introPic' src='trustrating_stim/white_mw085.bmp'><br><font color='green'><strong>Share</strong></font></div></div></div>","null","ARRAY","1","trustrating_stim/white_mw085.bmp","1","Match","e","1500","","","","",""
"html-keyboard-response","26","163393","0.0-5.0-3.4","5bfb5784a66aa500019dabef","bdp_wmem","Sat Apr 08 2023 10:48:15 GMT-0500 (Central Daylight Time)","618688","Match,No Match","","null","","","","","","<div class='trialBorder'><div class='vertical-center'><img src='img/fixation2_sml.jpg'</img></div></div>","null","DELAY","","","","","","","","","","",""
"html-keyboard-response","27","164809","0.0-5.0-4.4","5bfb5784a66aa500019dabef","bdp_wmem","Sat Apr 08 2023 10:48:15 GMT-0500 (Central Daylight Time)","618688","Match,No Match","","1416","","","","","","<div class='trialBorder'><div class='targDiv'><div class='tc'><img class='introPic' src='trustrating_stim/white_mw085.bmp'><br><font color='green'><strong>Share</strong></font></div></div><div class='respDiv'><div class='respDivL'>Match<br>(e)</div><div class='respDivR'>No Match<br>(i)</div></div></div>","e","TARGET","1","trustrating_stim/white_mw085.bmp","1","Match","e","1500","trustrating_stim/white_mw085.bmp","green","Share","PRACTICE","1"
"html-keyboard-response","28","165310","0.0-5.0-5.4","5bfb5784a66aa500019dabef","bdp_wmem","Sat Apr 08 2023 10:48:15 GMT-0500 (Central Daylight Time)","618688","Match,No Match","","null","","","","","","<div class='trialBorder'><div class='vertical-center'><img src='img/correct.jpg'></div><div class='respDiv'><div class='respDivL'><font style='color:orange'>Match<br>(e)</font></div><div class='respDivR'>No Match<br>(i)</div></div></div>","null","FEEDBACK","","","","","","","","","","",""
"html-keyboard-response","29","165812","0.0-5.0-1.5","5bfb5784a66aa500019dabef","bdp_wmem","Sat Apr 08 2023 10:48:15 GMT-0500 (Central Daylight Time)","618688","Match,No Match","","null","","","","","","<div class='trialBorder'><div class='vertical-center'><img src='img/fixation2_sml.jpg'</img></div></div>","null","FIX","","","","","","","","","","",""
"html-keyboard-response","30","168813","0.0-5.0-2.5","5bfb5784a66aa500019dabef","bdp_wmem","Sat Apr 08 2023 10:48:15 GMT-0500 (Central Daylight Time)","618688","Match,No Match","","null","","","","","","<div class='trialBorder'><div class='vertical-center'><img style='vertical-align:center; align:center' src='img/fixation2_sml.jpg'></div><div class='arrayDiv2'><div class='tl'><img class='introPic' src='trustrating_stim/white_mw092.bmp'><br><font color='red'><strong>Keep</strong></font></div><div class='tr'><img class='introPic' src='trustrating_stim/white_mw012.bmp'><br><font color='green'><strong>Share</strong></font></div></div></div>","null","ARRAY","2","trustrating_stim/white_mw092.bmp,trustrating_stim/white_mw012.bmp","0,1","noMatchFace","i","3000","","","","",""
"html-keyboard-response","31","172814","0.0-5.0-3.5","5bfb5784a66aa500019dabef","bdp_wmem","Sat Apr 08 2023 10:48:15 GMT-0500 (Central Daylight Time)","618688","Match,No Match","","null","","","","","","<div class='trialBorder'><div class='vertical-center'><img src='img/fixation2_sml.jpg'</img></div></div>","null","DELAY","","","","","","","","","","",""
"html-keyboard-response","32","174137","0.0-5.0-4.5","5bfb5784a66aa500019dabef","bdp_wmem","Sat Apr 08 2023 10:48:15 GMT-0500 (Central Daylight Time)","618688","Match,No Match","","1323","","","","","","<div class='trialBorder'><div class='targDiv'><div class='tc'><img class='introPic' src='trustrating_stim/white_mw085.bmp'><br><font color='red'><strong>Keep</strong></font></div></div><div class='respDiv'><div class='respDivL'>Match<br>(e)</div><div class='respDivR'>No Match<br>(i)</div></div></div>","i","TARGET","2","trustrating_stim/white_mw092.bmp,trustrating_stim/white_mw012.bmp","0,1","noMatchFace","i","3000","trustrating_stim/white_mw085.bmp","red","Keep","PRACTICE","1"
"html-keyboard-response","33","174639","0.0-5.0-5.5","5bfb5784a66aa500019dabef","bdp_wmem","Sat Apr 08 2023 10:48:15 GMT-0500 (Central Daylight Time)","618688","Match,No Match","","null","","","","","","<div class='trialBorder'><div class='vertical-center'><img src='img/correct.jpg'></div><div class='respDiv'><div class='respDivL'>Match<br>(e)</div><div class='respDivR'><font style='color:orange'>No Match<br>(i)</font></div></div></div>","null","FEEDBACK","","","","","","","","","","",""
"instructions","34","179065","0.0-6.0","5bfb5784a66aa500019dabef","bdp_wmem","Sat Apr 08 2023 10:48:15 GMT-0500 (Central Daylight Time)","618688","Match,No Match","[{""page_index"":0,""viewing_time"":4426}]","4426","","","","","","","","","","","","","","","","","","",""
"html-keyboard-response","35","179567","0.0-7.0-1.0","5bfb5784a66aa500019dabef","bdp_wmem","Sat Apr 08 2023 10:48:15 GMT-0500 (Central Daylight Time)","618688","Match,No Match","","null","","","","","","<div class='trialBorder'><div class='vertical-center'><img src='img/fixation2_sml.jpg'</img></div></div>","null","FIX","","","","","","","","","","",""
"html-keyboard-response","36","181069","0.0-7.0-2.0","5bfb5784a66aa500019dabef","bdp_wmem","Sat Apr 08 2023 10:48:15 GMT-0500 (Central Daylight Time)","618688","Match,No Match","","null","","","","","","<div class='trialBorder'><div class='vertical-center'><img style='vertical-align:center; align:center' src='img/fixation2_sml.jpg'></div><div class='arrayDiv1'><div class='tc'><img class='introPic' src='trustrating_stim/white_mw078.bmp'><br><font color='green'><strong>Share</strong></font></div></div></div>","null","ARRAY","1","trustrating_stim/white_mw078.bmp","1","noMatchFace","i","1500","","","","",""
"html-keyboard-response","37","185071","0.0-7.0-3.0","5bfb5784a66aa500019dabef","bdp_wmem","Sat Apr 08 2023 10:48:15 GMT-0500 (Central Daylight Time)","618688","Match,No Match","","null","","","","","","<div class='trialBorder'><div class='vertical-center'><img src='img/fixation2_sml.jpg'</img></div></div>","null","DELAY","","","","","","","","","","",""
"html-keyboard-response","38","186417","0.0-7.0-4.0","5bfb5784a66aa500019dabef","bdp_wmem","Sat Apr 08 2023 10:48:15 GMT-0500 (Central Daylight Time)","618688","Match,No Match","","1346","","","","","","<div class='trialBorder'><div class='targDiv'><div class='tc'><img class='introPic' src='trustrating_stim/white_mw012.bmp'><br><font color='green'><strong>Share</strong></font></div></div><div class='respDiv'><div class='respDivL'>Match<br>(e)</div><div class='respDivR'>No Match<br>(i)</div></div></div>","i","TARGET","1","trustrating_stim/white_mw078.bmp","1","noMatchFace","i","1500","trustrating_stim/white_mw012.bmp","green","Share","REAL","1"
"html-keyboard-response","39","186918","0.0-7.0-5.0","5bfb5784a66aa500019dabef","bdp_wmem","Sat Apr 08 2023 10:48:15 GMT-0500 (Central Daylight Time)","618688","Match,No Match","","null","","","","","","<div class='trialBorder'><div class='vertical-center'><img src='img/correct.jpg'></div><div class='respDiv'><div class='respDivL'>Match<br>(e)</div><div class='respDivR'><font style='color:orange'>No Match<br>(i)</font></div></div></div>","null","FEEDBACK","","","","","","","","","","",""
"html-keyboard-response","40","187419","0.0-7.0-1.1","5bfb5784a66aa500019dabef","bdp_wmem","Sat Apr 08 2023 10:48:15 GMT-0500 (Central Daylight Time)","618688","Match,No Match","","null","","","","","","<div class='trialBorder'><div class='vertical-center'><img src='img/fixation2_sml.jpg'</img></div></div>","null","FIX","","","","","","","","","","",""
"html-keyboard-response","41","191921","0.0-7.0-2.1","5bfb5784a66aa500019dabef","bdp_wmem","Sat Apr 08 2023 10:48:15 GMT-0500 (Central Daylight Time)","618688","Match,No Match","","null","","","","","","<div class='trialBorder'><div class='vertical-center'><img style='vertical-align:center; align:center' src='img/fixation2_sml.jpg'></div><div class='arrayDiv3'><div class='tl'><img class='introPic' src='trustrating_stim/white_mw091.bmp'><br><font color='red'><strong>Keep</strong></font></div><div class='tc'><img class='introPic' src='trustrating_stim/white_mw040.bmp'><br><font color='red'><strong>Keep</strong></font></div><div class='tr'><img class='introPic' src='trustrating_stim/white_mw042.bmp'><br><font color='green'><strong>Share</strong></font></div></div></div>","null","ARRAY","3","trustrating_stim/white_mw091.bmp,trustrating_stim/white_mw040.bmp,trustrating_stim/white_mw042.bmp","0,0,1","Match","e","4500","","","","",""
"html-keyboard-response","42","195923","0.0-7.0-3.1","5bfb5784a66aa500019dabef","bdp_wmem","Sat Apr 08 2023 10:48:15 GMT-0500 (Central Daylight Time)","618688","Match,No Match","","null","","","","","","<div class='trialBorder'><div class='vertical-center'><img src='img/fixation2_sml.jpg'</img></div></div>","null","DELAY","","","","","","","","","","",""
"html-keyboard-response","43","197081","0.0-7.0-4.1","5bfb5784a66aa500019dabef","bdp_wmem","Sat Apr 08 2023 10:48:15 GMT-0500 (Central Daylight Time)","618688","Match,No Match","","1158","","","","","","<div class='trialBorder'><div class='targDiv'><div class='tc'><img class='introPic' src='trustrating_stim/white_mw091.bmp'><br><font color='red'><strong>Keep</strong></font></div></div><div class='respDiv'><div class='respDivL'>Match<br>(e)</div><div class='respDivR'>No Match<br>(i)</div></div></div>","i","TARGET","3","trustrating_stim/white_mw091.bmp,trustrating_stim/white_mw040.bmp,trustrating_stim/white_mw042.bmp","0,0,1","Match","e","4500","trustrating_stim/white_mw091.bmp","red","Keep","REAL","0"
"html-keyboard-response","44","197582","0.0-7.0-5.1","5bfb5784a66aa500019dabef","bdp_wmem","Sat Apr 08 2023 10:48:15 GMT-0500 (Central Daylight Time)","618688","Match,No Match","","null","","","","","","<div class='trialBorder'><div class='vertical-center'><img src='img/error.jpg'></div><div class='respDiv'><div class='respDivL'>Match<br>(e)</div><div class='respDivR'><font style='color:orange'>No Match<br>(i)</font></div></div></div>","null","FEEDBACK","","","","","","","","","","",""
"html-keyboard-response","45","198083","0.0-7.0-1.2","5bfb5784a66aa500019dabef","bdp_wmem","Sat Apr 08 2023 10:48:15 GMT-0500 (Central Daylight Time)","618688","Match,No Match","","null","","","","","","<div class='trialBorder'><div class='vertical-center'><img src='img/fixation2_sml.jpg'</img></div></div>","null","FIX","","","","","","","","","","",""
"html-keyboard-response","46","199585","0.0-7.0-2.2","5bfb5784a66aa500019dabef","bdp_wmem","Sat Apr 08 2023 10:48:15 GMT-0500 (Central Daylight Time)","618688","Match,No Match","","null","","","","","","<div class='trialBorder'><div class='vertical-center'><img style='vertical-align:center; align:center' src='img/fixation2_sml.jpg'></div><div class='arrayDiv1'><div class='tc'><img class='introPic' src='trustrating_stim/white_mw042.bmp'><br><font color='green'><strong>Share</strong></font></div></div></div>","null","ARRAY","1","trustrating_stim/white_mw042.bmp","1","Match","e","1500","","","","",""
"html-keyboard-response","47","203586","0.0-7.0-3.2","5bfb5784a66aa500019dabef","bdp_wmem","Sat Apr 08 2023 10:48:15 GMT-0500 (Central Daylight Time)","618688","Match,No Match","","null","","","","","","<div class='trialBorder'><div class='vertical-center'><img src='img/fixation2_sml.jpg'</img></div></div>","null","DELAY","","","","","","","","","","",""
"html-keyboard-response","48","204185","0.0-7.0-4.2","5bfb5784a66aa500019dabef","bdp_wmem","Sat Apr 08 2023 10:48:15 GMT-0500 (Central Daylight Time)","618688","Match,No Match","","598","","","","","","<div class='trialBorder'><div class='targDiv'><div class='tc'><img class='introPic' src='trustrating_stim/white_mw042.bmp'><br><font color='green'><strong>Share</strong></font></div></div><div class='respDiv'><div class='respDivL'>Match<br>(e)</div><div class='respDivR'>No Match<br>(i)</div></div></div>","e","TARGET","1","trustrating_stim/white_mw042.bmp","1","Match","e","1500","trustrating_stim/white_mw042.bmp","green","Share","REAL","1"
"html-keyboard-response","49","204686","0.0-7.0-5.2","5bfb5784a66aa500019dabef","bdp_wmem","Sat Apr 08 2023 10:48:15 GMT-0500 (Central Daylight Time)","618688","Match,No Match","","null","","","","","","<div class='trialBorder'><div class='vertical-center'><img src='img/correct.jpg'></div><div class='respDiv'><div class='respDivL'><font style='color:orange'>Match<br>(e)</font></div><div class='respDivR'>No Match<br>(i)</div></div></div>","null","FEEDBACK","","","","","","","","","","",""
"html-keyboard-response","50","205187","0.0-7.0-1.3","5bfb5784a66aa500019dabef","bdp_wmem","Sat Apr 08 2023 10:48:15 GMT-0500 (Central Daylight Time)","618688","Match,No Match","","null","","","","","","<div class='trialBorder'><div class='vertical-center'><img src='img/fixation2_sml.jpg'</img></div></div>","null","FIX","","","","","","","","","","",""
"html-keyboard-response","51","206688","0.0-7.0-2.3","5bfb5784a66aa500019dabef","bdp_wmem","Sat Apr 08 2023 10:48:15 GMT-0500 (Central Daylight Time)","618688","Match,No Match","","null","","","","","","<div class='trialBorder'><div class='vertical-center'><img style='vertical-align:center; align:center' src='img/fixation2_sml.jpg'></div><div class='arrayDiv1'><div class='tc'><img class='introPic' src='trustrating_stim/white_mw003.bmp'><br><font color='red'><strong>Keep</strong></font></div></div></div>","null","ARRAY","1","trustrating_stim/white_mw003.bmp","0","noMatchOutcome","i","1500","","","","",""
"html-keyboard-response","52","210688","0.0-7.0-3.3","5bfb5784a66aa500019dabef","bdp_wmem","Sat Apr 08 2023 10:48:15 GMT-0500 (Central Daylight Time)","618688","Match,No Match","","null","","","","","","<div class='trialBorder'><div class='vertical-center'><img src='img/fixation2_sml.jpg'</img></div></div>","null","DELAY","","","","","","","","","","",""
"html-keyboard-response","53","211617","0.0-7.0-4.3","5bfb5784a66aa500019dabef","bdp_wmem","Sat Apr 08 2023 10:48:15 GMT-0500 (Central Daylight Time)","618688","Match,No Match","","928","","","","","","<div class='trialBorder'><div class='targDiv'><div class='tc'><img class='introPic' src='trustrating_stim/white_mw003.bmp'><br><font color='green'><strong>Share</strong></font></div></div><div class='respDiv'><div class='respDivL'>Match<br>(e)</div><div class='respDivR'>No Match<br>(i)</div></div></div>","e","TARGET","1","trustrating_stim/white_mw003.bmp","0","noMatchOutcome","i","1500","trustrating_stim/white_mw003.bmp","green","Share","REAL","0"
"html-keyboard-response","54","212119","0.0-7.0-5.3","5bfb5784a66aa500019dabef","bdp_wmem","Sat Apr 08 2023 10:48:15 GMT-0500 (Central Daylight Time)","618688","Match,No Match","","null","","","","","","<div class='trialBorder'><div class='vertical-center'><img src='img/error.jpg'></div><div class='respDiv'><div class='respDivL'><font style='color:orange'>Match<br>(e)</font></div><div class='respDivR'>No Match<br>(i)</div></div></div>","null","FEEDBACK","","","","","","","","","","",""
"html-keyboard-response","55","212620","0.0-7.0-1.4","5bfb5784a66aa500019dabef","bdp_wmem","Sat Apr 08 2023 10:48:15 GMT-0500 (Central Daylight Time)","618688","Match,No Match","","null","","","","","","<div class='trialBorder'><div class='vertical-center'><img src='img/fixation2_sml.jpg'</img></div></div>","null","FIX","","","","","","","","","","",""
"html-keyboard-response","56","217122","0.0-7.0-2.4","5bfb5784a66aa500019dabef","bdp_wmem","Sat Apr 08 2023 10:48:15 GMT-0500 (Central Daylight Time)","618688","Match,No Match","","null","","","","","","<div class='trialBorder'><div class='vertical-center'><img style='vertical-align:center; align:center' src='img/fixation2_sml.jpg'></div><div class='arrayDiv3'><div class='tl'><img class='introPic' src='trustrating_stim/white_mw012.bmp'><br><font color='green'><strong>Share</strong></font></div><div class='tc'><img class='introPic' src='trustrating_stim/white_mw013.bmp'><br><font color='red'><strong>Keep</strong></font></div><div class='tr'><img class='introPic' src='trustrating_stim/white_mw042.bmp'><br><font color='green'><strong>Share</strong></font></div></div></div>","null","ARRAY","3","trustrating_stim/white_mw012.bmp,trustrating_stim/white_mw013.bmp,trustrating_stim/white_mw042.bmp","1,0,1","Match","e","4500","","","","",""
"html-keyboard-response","57","221124","0.0-7.0-3.4","5bfb5784a66aa500019dabef","bdp_wmem","Sat Apr 08 2023 10:48:15 GMT-0500 (Central Daylight Time)","618688","Match,No Match","","null","","","","","","<div class='trialBorder'><div class='vertical-center'><img src='img/fixation2_sml.jpg'</img></div></div>","null","DELAY","","","","","","","","","","",""
"html-keyboard-response","58","222401","0.0-7.0-4.4","5bfb5784a66aa500019dabef","bdp_wmem","Sat Apr 08 2023 10:48:15 GMT-0500 (Central Daylight Time)","618688","Match,No Match","","1277","","","","","","<div class='trialBorder'><div class='targDiv'><div class='tc'><img class='introPic' src='trustrating_stim/white_mw042.bmp'><br><font color='green'><strong>Share</strong></font></div></div><div class='respDiv'><div class='respDivL'>Match<br>(e)</div><div class='respDivR'>No Match<br>(i)</div></div></div>","e","TARGET","3","trustrating_stim/white_mw012.bmp,trustrating_stim/white_mw013.bmp,trustrating_stim/white_mw042.bmp","1,0,1","Match","e","4500","trustrating_stim/white_mw042.bmp","green","Share","REAL","1"
"html-keyboard-response","59","222902","0.0-7.0-5.4","5bfb5784a66aa500019dabef","bdp_wmem","Sat Apr 08 2023 10:48:15 GMT-0500 (Central Daylight Time)","618688","Match,No Match","","null","","","","","","<div class='trialBorder'><div class='vertical-center'><img src='img/correct.jpg'></div><div class='respDiv'><div class='respDivL'><font style='color:orange'>Match<br>(e)</font></div><div class='respDivR'>No Match<br>(i)</div></div></div>","null","FEEDBACK","","","","","","","","","","",""
"html-keyboard-response","60","223404","0.0-7.0-1.5","5bfb5784a66aa500019dabef","bdp_wmem","Sat Apr 08 2023 10:48:15 GMT-0500 (Central Daylight Time)","618688","Match,No Match","","null","","","","","","<div class='trialBorder'><div class='vertical-center'><img src='img/fixation2_sml.jpg'</img></div></div>","null","FIX","","","","","","","","","","",""
"html-keyboard-response","61","226406","0.0-7.0-2.5","5bfb5784a66aa500019dabef","bdp_wmem","Sat Apr 08 2023 10:48:15 GMT-0500 (Central Daylight Time)","618688","Match,No Match","","null","","","","","","<div class='trialBorder'><div class='vertical-center'><img style='vertical-align:center; align:center' src='img/fixation2_sml.jpg'></div><div class='arrayDiv2'><div class='tl'><img class='introPic' src='trustrating_stim/white_mw040.bmp'><br><font color='red'><strong>Keep</strong></font></div><div class='tr'><img class='introPic' src='trustrating_stim/white_mw013.bmp'><br><font color='green'><strong>Share</strong></font></div></div></div>","null","ARRAY","2","trustrating_stim/white_mw040.bmp,trustrating_stim/white_mw013.bmp","0,1","Match","e","3000","","","","",""
"html-keyboard-response","62","230407","0.0-7.0-3.5","5bfb5784a66aa500019dabef","bdp_wmem","Sat Apr 08 2023 10:48:15 GMT-0500 (Central Daylight Time)","618688","Match,No Match","","null","","","","","","<div class='trialBorder'><div class='vertical-center'><img src='img/fixation2_sml.jpg'</img></div></div>","null","DELAY","","","","","","","","","","",""
"html-keyboard-response","63","231185","0.0-7.0-4.5","5bfb5784a66aa500019dabef","bdp_wmem","Sat Apr 08 2023 10:48:15 GMT-0500 (Central Daylight Time)","618688","Match,No Match","","778","","","","","","<div class='trialBorder'><div class='targDiv'><div class='tc'><img class='introPic' src='trustrating_stim/white_mw040.bmp'><br><font color='red'><strong>Keep</strong></font></div></div><div class='respDiv'><div class='respDivL'>Match<br>(e)</div><div class='respDivR'>No Match<br>(i)</div></div></div>","e","TARGET","2","trustrating_stim/white_mw040.bmp,trustrating_stim/white_mw013.bmp","0,1","Match","e","3000","trustrating_stim/white_mw040.bmp","red","Keep","REAL","1"
"html-keyboard-response","64","231687","0.0-7.0-5.5","5bfb5784a66aa500019dabef","bdp_wmem","Sat Apr 08 2023 10:48:15 GMT-0500 (Central Daylight Time)","618688","Match,No Match","","null","","","","","","<div class='trialBorder'><div class='vertical-center'><img src='img/correct.jpg'></div><div class='respDiv'><div class='respDivL'><font style='color:orange'>Match<br>(e)</font></div><div class='respDivR'>No Match<br>(i)</div></div></div>","null","FEEDBACK","","","","","","","","","","",""
"html-keyboard-response","65","232189","0.0-7.0-1.6","5bfb5784a66aa500019dabef","bdp_wmem","Sat Apr 08 2023 10:48:15 GMT-0500 (Central Daylight Time)","618688","Match,No Match","","null","","","","","","<div class='trialBorder'><div class='vertical-center'><img src='img/fixation2_sml.jpg'</img></div></div>","null","FIX","","","","","","","","","","",""
"html-keyboard-response","66","235191","0.0-7.0-2.6","5bfb5784a66aa500019dabef","bdp_wmem","Sat Apr 08 2023 10:48:15 GMT-0500 (Central Daylight Time)","618688","Match,No Match","","null","","","","","","<div class='trialBorder'><div class='vertical-center'><img style='vertical-align:center; align:center' src='img/fixation2_sml.jpg'></div><div class='arrayDiv2'><div class='tl'><img class='introPic' src='trustrating_stim/white_mw003.bmp'><br><font color='red'><strong>Keep</strong></font></div><div class='tr'><img class='introPic' src='trustrating_stim/white_mw012.bmp'><br><font color='green'><strong>Share</strong></font></div></div></div>","null","ARRAY","2","trustrating_stim/white_mw003.bmp,trustrating_stim/white_mw012.bmp","0,1","noMatchOutcome","i","3000","","","","",""
"html-keyboard-response","67","239192","0.0-7.0-3.6","5bfb5784a66aa500019dabef","bdp_wmem","Sat Apr 08 2023 10:48:15 GMT-0500 (Central Daylight Time)","618688","Match,No Match","","null","","","","","","<div class='trialBorder'><div class='vertical-center'><img src='img/fixation2_sml.jpg'</img></div></div>","null","DELAY","","","","","","","","","","",""
"html-keyboard-response","68","240113","0.0-7.0-4.6","5bfb5784a66aa500019dabef","bdp_wmem","Sat Apr 08 2023 10:48:15 GMT-0500 (Central Daylight Time)","618688","Match,No Match","","921","","","","","","<div class='trialBorder'><div class='targDiv'><div class='tc'><img class='introPic' src='trustrating_stim/white_mw003.bmp'><br><font color='green'><strong>Share</strong></font></div></div><div class='respDiv'><div class='respDivL'>Match<br>(e)</div><div class='respDivR'>No Match<br>(i)</div></div></div>","i","TARGET","2","trustrating_stim/white_mw003.bmp,trustrating_stim/white_mw012.bmp","0,1","noMatchOutcome","i","3000","trustrating_stim/white_mw003.bmp","green","Share","REAL","1"
"html-keyboard-response","69","240614","0.0-7.0-5.6","5bfb5784a66aa500019dabef","bdp_wmem","Sat Apr 08 2023 10:48:15 GMT-0500 (Central Daylight Time)","618688","Match,No Match","","null","","","","","","<div class='trialBorder'><div class='vertical-center'><img src='img/correct.jpg'></div><div class='respDiv'><div class='respDivL'>Match<br>(e)</div><div class='respDivR'><font style='color:orange'>No Match<br>(i)</font></div></div></div>","null","FEEDBACK","","","","","","","","","","",""
"html-keyboard-response","70","241115","0.0-7.0-1.7","5bfb5784a66aa500019dabef","bdp_wmem","Sat Apr 08 2023 10:48:15 GMT-0500 (Central Daylight Time)","618688","Match,No Match","","null","","","","","","<div class='trialBorder'><div class='vertical-center'><img src='img/fixation2_sml.jpg'</img></div></div>","null","FIX","","","","","","","","","","",""
"html-keyboard-response","71","242615","0.0-7.0-2.7","5bfb5784a66aa500019dabef","bdp_wmem","Sat Apr 08 2023 10:48:15 GMT-0500 (Central Daylight Time)","618688","Match,No Match","","null","","","","","","<div class='trialBorder'><div class='vertical-center'><img style='vertical-align:center; align:center' src='img/fixation2_sml.jpg'></div><div class='arrayDiv1'><div class='tc'><img class='introPic' src='trustrating_stim/white_mw038.bmp'><br><font color='red'><strong>Keep</strong></font></div></div></div>","null","ARRAY","1","trustrating_stim/white_mw038.bmp","0","noMatchFace","i","1500","","","","",""
"html-keyboard-response","72","246617","0.0-7.0-3.7","5bfb5784a66aa500019dabef","bdp_wmem","Sat Apr 08 2023 10:48:15 GMT-0500 (Central Daylight Time)","618688","Match,No Match","","null","","","","","","<div class='trialBorder'><div class='vertical-center'><img src='img/fixation2_sml.jpg'</img></div></div>","null","DELAY","","","","","","","","","","",""
"html-keyboard-response","73","247513","0.0-7.0-4.7","5bfb5784a66aa500019dabef","bdp_wmem","Sat Apr 08 2023 10:48:15 GMT-0500 (Central Daylight Time)","618688","Match,No Match","","895","","","","","","<div class='trialBorder'><div class='targDiv'><div class='tc'><img class='introPic' src='trustrating_stim/white_mw092.bmp'><br><font color='red'><strong>Keep</strong></font></div></div><div class='respDiv'><div class='respDivL'>Match<br>(e)</div><div class='respDivR'>No Match<br>(i)</div></div></div>","i","TARGET","1","trustrating_stim/white_mw038.bmp","0","noMatchFace","i","1500","trustrating_stim/white_mw092.bmp","red","Keep","REAL","1"
"html-keyboard-response","74","248014","0.0-7.0-5.7","5bfb5784a66aa500019dabef","bdp_wmem","Sat Apr 08 2023 10:48:15 GMT-0500 (Central Daylight Time)","618688","Match,No Match","","null","","","","","","<div class='trialBorder'><div class='vertical-center'><img src='img/correct.jpg'></div><div class='respDiv'><div class='respDivL'>Match<br>(e)</div><div class='respDivR'><font style='color:orange'>No Match<br>(i)</font></div></div></div>","null","FEEDBACK","","","","","","","","","","",""
"html-keyboard-response","75","248515","0.0-7.0-1.8","5bfb5784a66aa500019dabef","bdp_wmem","Sat Apr 08 2023 10:48:15 GMT-0500 (Central Daylight Time)","618688","Match,No Match","","null","","","","","","<div class='trialBorder'><div class='vertical-center'><img src='img/fixation2_sml.jpg'</img></div></div>","null","FIX","","","","","","","","","","",""
"html-keyboard-response","76","253015","0.0-7.0-2.8","5bfb5784a66aa500019dabef","bdp_wmem","Sat Apr 08 2023 10:48:15 GMT-0500 (Central Daylight Time)","618688","Match,No Match","","null","","","","","","<div class='trialBorder'><div class='vertical-center'><img style='vertical-align:center; align:center' src='img/fixation2_sml.jpg'></div><div class='arrayDiv3'><div class='tl'><img class='introPic' src='trustrating_stim/white_mw010.bmp'><br><font color='green'><strong>Share</strong></font></div><div class='tc'><img class='introPic' src='trustrating_stim/white_mw091.bmp'><br><font color='red'><strong>Keep</strong></font></div><div class='tr'><img class='introPic' src='trustrating_stim/white_mw042.bmp'><br><font color='red'><strong>Keep</strong></font></div></div></div>","null","ARRAY","3","trustrating_stim/white_mw010.bmp,trustrating_stim/white_mw091.bmp,trustrating_stim/white_mw042.bmp","1,0,0","noMatchFace","i","4500","","","","",""
"html-keyboard-response","77","257017","0.0-7.0-3.8","5bfb5784a66aa500019dabef","bdp_wmem","Sat Apr 08 2023 10:48:15 GMT-0500 (Central Daylight Time)","618688","Match,No Match","","null","","","","","","<div class='trialBorder'><div class='vertical-center'><img src='img/fixation2_sml.jpg'</img></div></div>","null","DELAY","","","","","","","","","","",""
"html-keyboard-response","78","257873","0.0-7.0-4.8","5bfb5784a66aa500019dabef","bdp_wmem","Sat Apr 08 2023 10:48:15 GMT-0500 (Central Daylight Time)","618688","Match,No Match","","856","","","","","","<div class='trialBorder'><div class='targDiv'><div class='tc'><img class='introPic' src='trustrating_stim/white_mw013.bmp'><br><font color='green'><strong>Share</strong></font></div></div><div class='respDiv'><div class='respDivL'>Match<br>(e)</div><div class='respDivR'>No Match<br>(i)</div></div></div>","i","TARGET","3","trustrating_stim/white_mw010.bmp,trustrating_stim/white_mw091.bmp,trustrating_stim/white_mw042.bmp","1,0,0","noMatchFace","i","4500","trustrating_stim/white_mw013.bmp","green","Share","REAL","1"
"html-keyboard-response","79","258375","0.0-7.0-5.8","5bfb5784a66aa500019dabef","bdp_wmem","Sat Apr 08 2023 10:48:15 GMT-0500 (Central Daylight Time)","618688","Match,No Match","","null","","","","","","<div class='trialBorder'><div class='vertical-center'><img src='img/correct.jpg'></div><div class='respDiv'><div class='respDivL'>Match<br>(e)</div><div class='respDivR'><font style='color:orange'>No Match<br>(i)</font></div></div></div>","null","FEEDBACK","","","","","","","","","","",""
"html-keyboard-response","80","258877","0.0-7.0-1.9","5bfb5784a66aa500019dabef","bdp_wmem","Sat Apr 08 2023 10:48:15 GMT-0500 (Central Daylight Time)","618688","Match,No Match","","null","","","","","","<div class='trialBorder'><div class='vertical-center'><img src='img/fixation2_sml.jpg'</img></div></div>","null","FIX","","","","","","","","","","",""
"html-keyboard-response","81","261878","0.0-7.0-2.9","5bfb5784a66aa500019dabef","bdp_wmem","Sat Apr 08 2023 10:48:15 GMT-0500 (Central Daylight Time)","618688","Match,No Match","","null","","","","","","<div class='trialBorder'><div class='vertical-center'><img style='vertical-align:center; align:center' src='img/fixation2_sml.jpg'></div><div class='arrayDiv2'><div class='tl'><img class='introPic' src='trustrating_stim/white_mw003.bmp'><br><font color='green'><strong>Share</strong></font></div><div class='tr'><img class='introPic' src='trustrating_stim/white_mw038.bmp'><br><font color='red'><strong>Keep</strong></font></div></div></div>","null","ARRAY","2","trustrating_stim/white_mw003.bmp,trustrating_stim/white_mw038.bmp","1,0","Match","e","3000","","","","",""
"html-keyboard-response","82","265879","0.0-7.0-3.9","5bfb5784a66aa500019dabef","bdp_wmem","Sat Apr 08 2023 10:48:15 GMT-0500 (Central Daylight Time)","618688","Match,No Match","","null","","","","","","<div class='trialBorder'><div class='vertical-center'><img src='img/fixation2_sml.jpg'</img></div></div>","null","DELAY","","","","","","","","","","",""
"html-keyboard-response","83","267153","0.0-7.0-4.9","5bfb5784a66aa500019dabef","bdp_wmem","Sat Apr 08 2023 10:48:15 GMT-0500 (Central Daylight Time)","618688","Match,No Match","","1273","","","","","","<div class='trialBorder'><div class='targDiv'><div class='tc'><img class='introPic' src='trustrating_stim/white_mw038.bmp'><br><font color='red'><strong>Keep</strong></font></div></div><div class='respDiv'><div class='respDivL'>Match<br>(e)</div><div class='respDivR'>No Match<br>(i)</div></div></div>","e","TARGET","2","trustrating_stim/white_mw003.bmp,trustrating_stim/white_mw038.bmp","1,0","Match","e","3000","trustrating_stim/white_mw038.bmp","red","Keep","REAL","1"
"html-keyboard-response","84","267654","0.0-7.0-5.9","5bfb5784a66aa500019dabef","bdp_wmem","Sat Apr 08 2023 10:48:15 GMT-0500 (Central Daylight Time)","618688","Match,No Match","","null","","","","","","<div class='trialBorder'><div class='vertical-center'><img src='img/correct.jpg'></div><div class='respDiv'><div class='respDivL'><font style='color:orange'>Match<br>(e)</font></div><div class='respDivR'>No Match<br>(i)</div></div></div>","null","FEEDBACK","","","","","","","","","","",""
"html-keyboard-response","85","268156","0.0-7.0-1.10","5bfb5784a66aa500019dabef","bdp_wmem","Sat Apr 08 2023 10:48:15 GMT-0500 (Central Daylight Time)","618688","Match,No Match","","null","","","","","","<div class='trialBorder'><div class='vertical-center'><img src='img/fixation2_sml.jpg'</img></div></div>","null","FIX","","","","","","","","","","",""
"html-keyboard-response","86","272657","0.0-7.0-2.10","5bfb5784a66aa500019dabef","bdp_wmem","Sat Apr 08 2023 10:48:15 GMT-0500 (Central Daylight Time)","618688","Match,No Match","","null","","","","","","<div class='trialBorder'><div class='vertical-center'><img style='vertical-align:center; align:center' src='img/fixation2_sml.jpg'></div><div class='arrayDiv3'><div class='tl'><img class='introPic' src='trustrating_stim/white_mw078.bmp'><br><font color='green'><strong>Share</strong></font></div><div class='tc'><img class='introPic' src='trustrating_stim/white_mw091.bmp'><br><font color='red'><strong>Keep</strong></font></div><div class='tr'><img class='introPic' src='trustrating_stim/white_mw040.bmp'><br><font color='red'><strong>Keep</strong></font></div></div></div>","null","ARRAY","3","trustrating_stim/white_mw078.bmp,trustrating_stim/white_mw091.bmp,trustrating_stim/white_mw040.bmp","1,0,0","Match","e","4500","","","","",""
"html-keyboard-response","87","276657","0.0-7.0-3.10","5bfb5784a66aa500019dabef","bdp_wmem","Sat Apr 08 2023 10:48:15 GMT-0500 (Central Daylight Time)","618688","Match,No Match","","null","","","","","","<div class='trialBorder'><div class='vertical-center'><img src='img/fixation2_sml.jpg'</img></div></div>","null","DELAY","","","","","","","","","","",""
"html-keyboard-response","88","278153","0.0-7.0-4.10","5bfb5784a66aa500019dabef","bdp_wmem","Sat Apr 08 2023 10:48:15 GMT-0500 (Central Daylight Time)","618688","Match,No Match","","1495","","","","","","<div class='trialBorder'><div class='targDiv'><div class='tc'><img class='introPic' src='trustrating_stim/white_mw040.bmp'><br><font color='red'><strong>Keep</strong></font></div></div><div class='respDiv'><div class='respDivL'>Match<br>(e)</div><div class='respDivR'>No Match<br>(i)</div></div></div>","e","TARGET","3","trustrating_stim/white_mw078.bmp,trustrating_stim/white_mw091.bmp,trustrating_stim/white_mw040.bmp","1,0,0","Match","e","4500","trustrating_stim/white_mw040.bmp","red","Keep","REAL","1"
"html-keyboard-response","89","278654","0.0-7.0-5.10","5bfb5784a66aa500019dabef","bdp_wmem","Sat Apr 08 2023 10:48:15 GMT-0500 (Central Daylight Time)","618688","Match,No Match","","null","","","","","","<div class='trialBorder'><div class='vertical-center'><img src='img/correct.jpg'></div><div class='respDiv'><div class='respDivL'><font style='color:orange'>Match<br>(e)</font></div><div class='respDivR'>No Match<br>(i)</div></div></div>","null","FEEDBACK","","","","","","","","","","",""
"html-keyboard-response","90","279155","0.0-7.0-1.11","5bfb5784a66aa500019dabef","bdp_wmem","Sat Apr 08 2023 10:48:15 GMT-0500 (Central Daylight Time)","618688","Match,No Match","","null","","","","","","<div class='trialBorder'><div class='vertical-center'><img src='img/fixation2_sml.jpg'</img></div></div>","null","FIX","","","","","","","","","","",""
"html-keyboard-response","91","283657","0.0-7.0-2.11","5bfb5784a66aa500019dabef","bdp_wmem","Sat Apr 08 2023 10:48:15 GMT-0500 (Central Daylight Time)","618688","Match,No Match","","null","","","","","","<div class='trialBorder'><div class='vertical-center'><img style='vertical-align:center; align:center' src='img/fixation2_sml.jpg'></div><div class='arrayDiv3'><div class='tl'><img class='introPic' src='trustrating_stim/white_mw078.bmp'><br><font color='red'><strong>Keep</strong></font></div><div class='tc'><img class='introPic' src='trustrating_stim/white_mw012.bmp'><br><font color='red'><strong>Keep</strong></font></div><div class='tr'><img class='introPic' src='trustrating_stim/white_mw003.bmp'><br><font color='green'><strong>Share</strong></font></div></div></div>","null","ARRAY","3","trustrating_stim/white_mw078.bmp,trustrating_stim/white_mw012.bmp,trustrating_stim/white_mw003.bmp","0,0,1","noMatchFace","i","4500","","","","",""
"html-keyboard-response","92","287658","0.0-7.0-3.11","5bfb5784a66aa500019dabef","bdp_wmem","Sat Apr 08 2023 10:48:15 GMT-0500 (Central Daylight Time)","618688","Match,No Match","","null","","","","","","<div class='trialBorder'><div class='vertical-center'><img src='img/fixation2_sml.jpg'</img></div></div>","null","DELAY","","","","","","","","","","",""
"html-keyboard-response","93","288993","0.0-7.0-4.11","5bfb5784a66aa500019dabef","bdp_wmem","Sat Apr 08 2023 10:48:15 GMT-0500 (Central Daylight Time)","618688","Match,No Match","","1335","","","","","","<div class='trialBorder'><div class='targDiv'><div class='tc'><img class='introPic' src='trustrating_stim/white_mw070.bmp'><br><font color='red'><strong>Keep</strong></font></div></div><div class='respDiv'><div class='respDivL'>Match<br>(e)</div><div class='respDivR'>No Match<br>(i)</div></div></div>","e","TARGET","3","trustrating_stim/white_mw078.bmp,trustrating_stim/white_mw012.bmp,trustrating_stim/white_mw003.bmp","0,0,1","noMatchFace","i","4500","trustrating_stim/white_mw070.bmp","red","Keep","REAL","0"
"html-keyboard-response","94","289494","0.0-7.0-5.11","5bfb5784a66aa500019dabef","bdp_wmem","Sat Apr 08 2023 10:48:15 GMT-0500 (Central Daylight Time)","618688","Match,No Match","","null","","","","","","<div class='trialBorder'><div class='vertical-center'><img src='img/error.jpg'></div><div class='respDiv'><div class='respDivL'><font style='color:orange'>Match<br>(e)</font></div><div class='respDivR'>No Match<br>(i)</div></div></div>","null","FEEDBACK","","","","","","","","","","",""
"html-keyboard-response","95","289995","0.0-7.0-1.12","5bfb5784a66aa500019dabef","bdp_wmem","Sat Apr 08 2023 10:48:15 GMT-0500 (Central Daylight Time)","618688","Match,No Match","","null","","","","","","<div class='trialBorder'><div class='vertical-center'><img src='img/fixation2_sml.jpg'</img></div></div>","null","FIX","","","","","","","","","","",""
"html-keyboard-response","96","294495","0.0-7.0-2.12","5bfb5784a66aa500019dabef","bdp_wmem","Sat Apr 08 2023 10:48:15 GMT-0500 (Central Daylight Time)","618688","Match,No Match","","null","","","","","","<div class='trialBorder'><div class='vertical-center'><img style='vertical-align:center; align:center' src='img/fixation2_sml.jpg'></div><div class='arrayDiv3'><div class='tl'><img class='introPic' src='trustrating_stim/white_mw038.bmp'><br><font color='red'><strong>Keep</strong></font></div><div class='tc'><img class='introPic' src='trustrating_stim/white_mw092.bmp'><br><font color='red'><strong>Keep</strong></font></div><div class='tr'><img class='introPic' src='trustrating_stim/white_mw091.bmp'><br><font color='green'><strong>Share</strong></font></div></div></div>","null","ARRAY","3","trustrating_stim/white_mw038.bmp,trustrating_stim/white_mw092.bmp,trustrating_stim/white_mw091.bmp","0,0,1","Match","e","4500","","","","",""
"html-keyboard-response","97","298497","0.0-7.0-3.12","5bfb5784a66aa500019dabef","bdp_wmem","Sat Apr 08 2023 10:48:15 GMT-0500 (Central Daylight Time)","618688","Match,No Match","","null","","","","","","<div class='trialBorder'><div class='vertical-center'><img src='img/fixation2_sml.jpg'</img></div></div>","null","DELAY","","","","","","","","","","",""
"html-keyboard-response","98","299553","0.0-7.0-4.12","5bfb5784a66aa500019dabef","bdp_wmem","Sat Apr 08 2023 10:48:15 GMT-0500 (Central Daylight Time)","618688","Match,No Match","","1056","","","","","","<div class='trialBorder'><div class='targDiv'><div class='tc'><img class='introPic' src='trustrating_stim/white_mw091.bmp'><br><font color='green'><strong>Share</strong></font></div></div><div class='respDiv'><div class='respDivL'>Match<br>(e)</div><div class='respDivR'>No Match<br>(i)</div></div></div>","e","TARGET","3","trustrating_stim/white_mw038.bmp,trustrating_stim/white_mw092.bmp,trustrating_stim/white_mw091.bmp","0,0,1","Match","e","4500","trustrating_stim/white_mw091.bmp","green","Share","REAL","1"
"html-keyboard-response","99","300055","0.0-7.0-5.12","5bfb5784a66aa500019dabef","bdp_wmem","Sat Apr 08 2023 10:48:15 GMT-0500 (Central Daylight Time)","618688","Match,No Match","","null","","","","","","<div class='trialBorder'><div class='vertical-center'><img src='img/correct.jpg'></div><div class='respDiv'><div class='respDivL'><font style='color:orange'>Match<br>(e)</font></div><div class='respDivR'>No Match<br>(i)</div></div></div>","null","FEEDBACK","","","","","","","","","","",""
"html-keyboard-response","100","300556","0.0-7.0-1.13","5bfb5784a66aa500019dabef","bdp_wmem","Sat Apr 08 2023 10:48:15 GMT-0500 (Central Daylight Time)","618688","Match,No Match","","null","","","","","","<div class='trialBorder'><div class='vertical-center'><img src='img/fixation2_sml.jpg'</img></div></div>","null","FIX","","","","","","","","","","",""
"html-keyboard-response","101","305057","0.0-7.0-2.13","5bfb5784a66aa500019dabef","bdp_wmem","Sat Apr 08 2023 10:48:15 GMT-0500 (Central Daylight Time)","618688","Match,No Match","","null","","","","","","<div class='trialBorder'><div class='vertical-center'><img style='vertical-align:center; align:center' src='img/fixation2_sml.jpg'></div><div class='arrayDiv3'><div class='tl'><img class='introPic' src='trustrating_stim/white_mw092.bmp'><br><font color='green'><strong>Share</strong></font></div><div class='tc'><img class='introPic' src='trustrating_stim/white_mw070.bmp'><br><font color='red'><strong>Keep</strong></font></div><div class='tr'><img class='introPic' src='trustrating_stim/white_mw003.bmp'><br><font color='green'><strong>Share</strong></font></div></div></div>","null","ARRAY","3","trustrating_stim/white_mw092.bmp,trustrating_stim/white_mw070.bmp,trustrating_stim/white_mw003.bmp","1,0,1","noMatchOutcome","i","4500","","","","",""
"html-keyboard-response","102","309059","0.0-7.0-3.13","5bfb5784a66aa500019dabef","bdp_wmem","Sat Apr 08 2023 10:48:15 GMT-0500 (Central Daylight Time)","618688","Match,No Match","","null","","","","","","<div class='trialBorder'><div class='vertical-center'><img src='img/fixation2_sml.jpg'</img></div></div>","null","DELAY","","","","","","","","","","",""
"html-keyboard-response","103","310545","0.0-7.0-4.13","5bfb5784a66aa500019dabef","bdp_wmem","Sat Apr 08 2023 10:48:15 GMT-0500 (Central Daylight Time)","618688","Match,No Match","","1486","","","","","","<div class='trialBorder'><div class='targDiv'><div class='tc'><img class='introPic' src='trustrating_stim/white_mw092.bmp'><br><font color='red'><strong>Keep</strong></font></div></div><div class='respDiv'><div class='respDivL'>Match<br>(e)</div><div class='respDivR'>No Match<br>(i)</div></div></div>","i","TARGET","3","trustrating_stim/white_mw092.bmp,trustrating_stim/white_mw070.bmp,trustrating_stim/white_mw003.bmp","1,0,1","noMatchOutcome","i","4500","trustrating_stim/white_mw092.bmp","red","Keep","REAL","1"
"html-keyboard-response","104","311046","0.0-7.0-5.13","5bfb5784a66aa500019dabef","bdp_wmem","Sat Apr 08 2023 10:48:15 GMT-0500 (Central Daylight Time)","618688","Match,No Match","","null","","","","","","<div class='trialBorder'><div class='vertical-center'><img src='img/correct.jpg'></div><div class='respDiv'><div class='respDivL'>Match<br>(e)</div><div class='respDivR'><font style='color:orange'>No Match<br>(i)</font></div></div></div>","null","FEEDBACK","","","","","","","","","","",""
"html-keyboard-response","105","311547","0.0-7.0-1.14","5bfb5784a66aa500019dabef","bdp_wmem","Sat Apr 08 2023 10:48:15 GMT-0500 (Central Daylight Time)","618688","Match,No Match","","null","","","","","","<div class='trialBorder'><div class='vertical-center'><img src='img/fixation2_sml.jpg'</img></div></div>","null","FIX","","","","","","","","","","",""
"html-keyboard-response","106","314548","0.0-7.0-2.14","5bfb5784a66aa500019dabef","bdp_wmem","Sat Apr 08 2023 10:48:15 GMT-0500 (Central Daylight Time)","618688","Match,No Match","","null","","","","","","<div class='trialBorder'><div class='vertical-center'><img style='vertical-align:center; align:center' src='img/fixation2_sml.jpg'></div><div class='arrayDiv2'><div class='tl'><img class='introPic' src='trustrating_stim/white_mw042.bmp'><br><font color='red'><strong>Keep</strong></font></div><div class='tr'><img class='introPic' src='trustrating_stim/white_mw078.bmp'><br><font color='green'><strong>Share</strong></font></div></div></div>","null","ARRAY","2","trustrating_stim/white_mw042.bmp,trustrating_stim/white_mw078.bmp","0,1","noMatchFace","i","3000","","","","",""
"html-keyboard-response","107","318549","0.0-7.0-3.14","5bfb5784a66aa500019dabef","bdp_wmem","Sat Apr 08 2023 10:48:15 GMT-0500 (Central Daylight Time)","618688","Match,No Match","","null","","","","","","<div class='trialBorder'><div class='vertical-center'><img src='img/fixation2_sml.jpg'</img></div></div>","null","DELAY","","","","","","","","","","",""
"html-keyboard-response","108","320097","0.0-7.0-4.14","5bfb5784a66aa500019dabef","bdp_wmem","Sat Apr 08 2023 10:48:15 GMT-0500 (Central Daylight Time)","618688","Match,No Match","","1548","","","","","","<div class='trialBorder'><div class='targDiv'><div class='tc'><img class='introPic' src='trustrating_stim/white_mw012.bmp'><br><font color='red'><strong>Keep</strong></font></div></div><div class='respDiv'><div class='respDivL'>Match<br>(e)</div><div class='respDivR'>No Match<br>(i)</div></div></div>","e","TARGET","2","trustrating_stim/white_mw042.bmp,trustrating_stim/white_mw078.bmp","0,1","noMatchFace","i","3000","trustrating_stim/white_mw012.bmp","red","Keep","REAL","0"
"html-keyboard-response","109","320598","0.0-7.0-5.14","5bfb5784a66aa500019dabef","bdp_wmem","Sat Apr 08 2023 10:48:15 GMT-0500 (Central Daylight Time)","618688","Match,No Match","","null","","","","","","<div class='trialBorder'><div class='vertical-center'><img src='img/error.jpg'></div><div class='respDiv'><div class='respDivL'><font style='color:orange'>Match<br>(e)</font></div><div class='respDivR'>No Match<br>(i)</div></div></div>","null","FEEDBACK","","","","","","","","","","",""
"html-keyboard-response","110","321098","0.0-7.0-1.15","5bfb5784a66aa500019dabef","bdp_wmem","Sat Apr 08 2023 10:48:15 GMT-0500 (Central Daylight Time)","618688","Match,No Match","","null","","","","","","<div class='trialBorder'><div class='vertical-center'><img src='img/fixation2_sml.jpg'</img></div></div>","null","FIX","","","","","","","","","","",""
"html-keyboard-response","111","325599","0.0-7.0-2.15","5bfb5784a66aa500019dabef","bdp_wmem","Sat Apr 08 2023 10:48:15 GMT-0500 (Central Daylight Time)","618688","Match,No Match","","null","","","","","","<div class='trialBorder'><div class='vertical-center'><img style='vertical-align:center; align:center' src='img/fixation2_sml.jpg'></div><div class='arrayDiv3'><div class='tl'><img class='introPic' src='trustrating_stim/white_mw092.bmp'><br><font color='red'><strong>Keep</strong></font></div><div class='tc'><img class='introPic' src='trustrating_stim/white_mw010.bmp'><br><font color='green'><strong>Share</strong></font></div><div class='tr'><img class='introPic' src='trustrating_stim/white_mw012.bmp'><br><font color='green'><strong>Share</strong></font></div></div></div>","null","ARRAY","3","trustrating_stim/white_mw092.bmp,trustrating_stim/white_mw010.bmp,trustrating_stim/white_mw012.bmp","0,1,1","noMatchFace","i","4500","","","","",""
"html-keyboard-response","112","329599","0.0-7.0-3.15","5bfb5784a66aa500019dabef","bdp_wmem","Sat Apr 08 2023 10:48:15 GMT-0500 (Central Daylight Time)","618688","Match,No Match","","null","","","","","","<div class='trialBorder'><div class='vertical-center'><img src='img/fixation2_sml.jpg'</img></div></div>","null","DELAY","","","","","","","","","","",""
"html-keyboard-response","113","331297","0.0-7.0-4.15","5bfb5784a66aa500019dabef","bdp_wmem","Sat Apr 08 2023 10:48:15 GMT-0500 (Central Daylight Time)","618688","Match,No Match","","1697","","","","","","<div class='trialBorder'><div class='targDiv'><div class='tc'><img class='introPic' src='trustrating_stim/white_mw042.bmp'><br><font color='red'><strong>Keep</strong></font></div></div><div class='respDiv'><div class='respDivL'>Match<br>(e)</div><div class='respDivR'>No Match<br>(i)</div></div></div>","e","TARGET","3","trustrating_stim/white_mw092.bmp,trustrating_stim/white_mw010.bmp,trustrating_stim/white_mw012.bmp","0,1,1","noMatchFace","i","4500","trustrating_stim/white_mw042.bmp","red","Keep","REAL","0"
"html-keyboard-response","114","331799","0.0-7.0-5.15","5bfb5784a66aa500019dabef","bdp_wmem","Sat Apr 08 2023 10:48:15 GMT-0500 (Central Daylight Time)","618688","Match,No Match","","null","","","","","","<div class='trialBorder'><div class='vertical-center'><img src='img/error.jpg'></div><div class='respDiv'><div class='respDivL'><font style='color:orange'>Match<br>(e)</font></div><div class='respDivR'>No Match<br>(i)</div></div></div>","null","FEEDBACK","","","","","","","","","","",""
"html-keyboard-response","115","332300","0.0-7.0-1.16","5bfb5784a66aa500019dabef","bdp_wmem","Sat Apr 08 2023 10:48:15 GMT-0500 (Central Daylight Time)","618688","Match,No Match","","null","","","","","","<div class='trialBorder'><div class='vertical-center'><img src='img/fixation2_sml.jpg'</img></div></div>","null","FIX","","","","","","","","","","",""
"html-keyboard-response","116","335301","0.0-7.0-2.16","5bfb5784a66aa500019dabef","bdp_wmem","Sat Apr 08 2023 10:48:15 GMT-0500 (Central Daylight Time)","618688","Match,No Match","","null","","","","","","<div class='trialBorder'><div class='vertical-center'><img style='vertical-align:center; align:center' src='img/fixation2_sml.jpg'></div><div class='arrayDiv2'><div class='tl'><img class='introPic' src='trustrating_stim/white_mw010.bmp'><br><font color='red'><strong>Keep</strong></font></div><div class='tr'><img class='introPic' src='trustrating_stim/white_mw070.bmp'><br><font color='green'><strong>Share</strong></font></div></div></div>","null","ARRAY","2","trustrating_stim/white_mw010.bmp,trustrating_stim/white_mw070.bmp","0,1","Match","e","3000","","","","",""
"html-keyboard-response","117","339302","0.0-7.0-3.16","5bfb5784a66aa500019dabef","bdp_wmem","Sat Apr 08 2023 10:48:15 GMT-0500 (Central Daylight Time)","618688","Match,No Match","","null","","","","","","<div class='trialBorder'><div class='vertical-center'><img src='img/fixation2_sml.jpg'</img></div></div>","null","DELAY","","","","","","","","","","",""
"html-keyboard-response","118","340609","0.0-7.0-4.16","5bfb5784a66aa500019dabef","bdp_wmem","Sat Apr 08 2023 10:48:15 GMT-0500 (Central Daylight Time)","618688","Match,No Match","","1306","","","","","","<div class='trialBorder'><div class='targDiv'><div class='tc'><img class='introPic' src='trustrating_stim/white_mw010.bmp'><br><font color='red'><strong>Keep</strong></font></div></div><div class='respDiv'><div class='respDivL'>Match<br>(e)</div><div class='respDivR'>No Match<br>(i)</div></div></div>","e","TARGET","2","trustrating_stim/white_mw010.bmp,trustrating_stim/white_mw070.bmp","0,1","Match","e","3000","trustrating_stim/white_mw010.bmp","red","Keep","REAL","1"
"html-keyboard-response","119","341110","0.0-7.0-5.16","5bfb5784a66aa500019dabef","bdp_wmem","Sat Apr 08 2023 10:48:15 GMT-0500 (Central Daylight Time)","618688","Match,No Match","","null","","","","","","<div class='trialBorder'><div class='vertical-center'><img src='img/correct.jpg'></div><div class='respDiv'><div class='respDivL'><font style='color:orange'>Match<br>(e)</font></div><div class='respDivR'>No Match<br>(i)</div></div></div>","null","FEEDBACK","","","","","","","","","","",""
"html-keyboard-response","120","341611","0.0-7.0-1.17","5bfb5784a66aa500019dabef","bdp_wmem","Sat Apr 08 2023 10:48:15 GMT-0500 (Central Daylight Time)","618688","Match,No Match","","null","","","","","","<div class='trialBorder'><div class='vertical-center'><img src='img/fixation2_sml.jpg'</img></div></div>","null","FIX","","","","","","","","","","",""
"html-keyboard-response","121","343112","0.0-7.0-2.17","5bfb5784a66aa500019dabef","bdp_wmem","Sat Apr 08 2023 10:48:15 GMT-0500 (Central Daylight Time)","618688","Match,No Match","","null","","","","","","<div class='trialBorder'><div class='vertical-center'><img style='vertical-align:center; align:center' src='img/fixation2_sml.jpg'></div><div class='arrayDiv1'><div class='tc'><img class='introPic' src='trustrating_stim/white_mw013.bmp'><br><font color='green'><strong>Share</strong></font></div></div></div>","null","ARRAY","1","trustrating_stim/white_mw013.bmp","1","Match","e","1500","","","","",""
"html-keyboard-response","122","347114","0.0-7.0-3.17","5bfb5784a66aa500019dabef","bdp_wmem","Sat Apr 08 2023 10:48:15 GMT-0500 (Central Daylight Time)","618688","Match,No Match","","null","","","","","","<div class='trialBorder'><div class='vertical-center'><img src='img/fixation2_sml.jpg'</img></div></div>","null","DELAY","","","","","","","","","","",""
"html-keyboard-response","123","348041","0.0-7.0-4.17","5bfb5784a66aa500019dabef","bdp_wmem","Sat Apr 08 2023 10:48:15 GMT-0500 (Central Daylight Time)","618688","Match,No Match","","927","","","","","","<div class='trialBorder'><div class='targDiv'><div class='tc'><img class='introPic' src='trustrating_stim/white_mw013.bmp'><br><font color='green'><strong>Share</strong></font></div></div><div class='respDiv'><div class='respDivL'>Match<br>(e)</div><div class='respDivR'>No Match<br>(i)</div></div></div>","e","TARGET","1","trustrating_stim/white_mw013.bmp","1","Match","e","1500","trustrating_stim/white_mw013.bmp","green","Share","REAL","1"
"html-keyboard-response","124","348542","0.0-7.0-5.17","5bfb5784a66aa500019dabef","bdp_wmem","Sat Apr 08 2023 10:48:15 GMT-0500 (Central Daylight Time)","618688","Match,No Match","","null","","","","","","<div class='trialBorder'><div class='vertical-center'><img src='img/correct.jpg'></div><div class='respDiv'><div class='respDivL'><font style='color:orange'>Match<br>(e)</font></div><div class='respDivR'>No Match<br>(i)</div></div></div>","null","FEEDBACK","","","","","","","","","","",""
"html-keyboard-response","125","349042","0.0-7.0-1.18","5bfb5784a66aa500019dabef","bdp_wmem","Sat Apr 08 2023 10:48:15 GMT-0500 (Central Daylight Time)","618688","Match,No Match","","null","","","","","","<div class='trialBorder'><div class='vertical-center'><img src='img/fixation2_sml.jpg'</img></div></div>","null","FIX","","","","","","","","","","",""
"html-keyboard-response","126","353544","0.0-7.0-2.18","5bfb5784a66aa500019dabef","bdp_wmem","Sat Apr 08 2023 10:48:15 GMT-0500 (Central Daylight Time)","618688","Match,No Match","","null","","","","","","<div class='trialBorder'><div class='vertical-center'><img style='vertical-align:center; align:center' src='img/fixation2_sml.jpg'></div><div class='arrayDiv3'><div class='tl'><img class='introPic' src='trustrating_stim/white_mw091.bmp'><br><font color='red'><strong>Keep</strong></font></div><div class='tc'><img class='introPic' src='trustrating_stim/white_mw070.bmp'><br><font color='green'><strong>Share</strong></font></div><div class='tr'><img class='introPic' src='trustrating_stim/white_mw013.bmp'><br><font color='red'><strong>Keep</strong></font></div></div></div>","null","ARRAY","3","trustrating_stim/white_mw091.bmp,trustrating_stim/white_mw070.bmp,trustrating_stim/white_mw013.bmp","0,1,0","Match","e","4500","","","","",""
"html-keyboard-response","127","357545","0.0-7.0-3.18","5bfb5784a66aa500019dabef","bdp_wmem","Sat Apr 08 2023 10:48:15 GMT-0500 (Central Daylight Time)","618688","Match,No Match","","null","","","","","","<div class='trialBorder'><div class='vertical-center'><img src='img/fixation2_sml.jpg'</img></div></div>","null","DELAY","","","","","","","","","","",""
"html-keyboard-response","128","359113","0.0-7.0-4.18","5bfb5784a66aa500019dabef","bdp_wmem","Sat Apr 08 2023 10:48:15 GMT-0500 (Central Daylight Time)","618688","Match,No Match","","1568","","","","","","<div class='trialBorder'><div class='targDiv'><div class='tc'><img class='introPic' src='trustrating_stim/white_mw013.bmp'><br><font color='red'><strong>Keep</strong></font></div></div><div class='respDiv'><div class='respDivL'>Match<br>(e)</div><div class='respDivR'>No Match<br>(i)</div></div></div>","e","TARGET","3","trustrating_stim/white_mw091.bmp,trustrating_stim/white_mw070.bmp,trustrating_stim/white_mw013.bmp","0,1,0","Match","e","4500","trustrating_stim/white_mw013.bmp","red","Keep","REAL","1"
"html-keyboard-response","129","359615","0.0-7.0-5.18","5bfb5784a66aa500019dabef","bdp_wmem","Sat Apr 08 2023 10:48:15 GMT-0500 (Central Daylight Time)","618688","Match,No Match","","null","","","","","","<div class='trialBorder'><div class='vertical-center'><img src='img/correct.jpg'></div><div class='respDiv'><div class='respDivL'><font style='color:orange'>Match<br>(e)</font></div><div class='respDivR'>No Match<br>(i)</div></div></div>","null","FEEDBACK","","","","","","","","","","",""
"html-keyboard-response","130","360116","0.0-7.0-1.19","5bfb5784a66aa500019dabef","bdp_wmem","Sat Apr 08 2023 10:48:15 GMT-0500 (Central Daylight Time)","618688","Match,No Match","","null","","","","","","<div class='trialBorder'><div class='vertical-center'><img src='img/fixation2_sml.jpg'</img></div></div>","null","FIX","","","","","","","","","","",""
"html-keyboard-response","131","364617","0.0-7.0-2.19","5bfb5784a66aa500019dabef","bdp_wmem","Sat Apr 08 2023 10:48:15 GMT-0500 (Central Daylight Time)","618688","Match,No Match","","null","","","","","","<div class='trialBorder'><div class='vertical-center'><img style='vertical-align:center; align:center' src='img/fixation2_sml.jpg'></div><div class='arrayDiv3'><div class='tl'><img class='introPic' src='trustrating_stim/white_mw012.bmp'><br><font color='green'><strong>Share</strong></font></div><div class='tc'><img class='introPic' src='trustrating_stim/white_mw010.bmp'><br><font color='green'><strong>Share</strong></font></div><div class='tr'><img class='introPic' src='trustrating_stim/white_mw092.bmp'><br><font color='red'><strong>Keep</strong></font></div></div></div>","null","ARRAY","3","trustrating_stim/white_mw012.bmp,trustrating_stim/white_mw010.bmp,trustrating_stim/white_mw092.bmp","1,1,0","Match","e","4500","","","","",""
"html-keyboard-response","132","368618","0.0-7.0-3.19","5bfb5784a66aa500019dabef","bdp_wmem","Sat Apr 08 2023 10:48:15 GMT-0500 (Central Daylight Time)","618688","Match,No Match","","null","","","","","","<div class='trialBorder'><div class='vertical-center'><img src='img/fixation2_sml.jpg'</img></div></div>","null","DELAY","","","","","","","","","","",""
"html-keyboard-response","133","369585","0.0-7.0-4.19","5bfb5784a66aa500019dabef","bdp_wmem","Sat Apr 08 2023 10:48:15 GMT-0500 (Central Daylight Time)","618688","Match,No Match","","966","","","","","","<div class='trialBorder'><div class='targDiv'><div class='tc'><img class='introPic' src='trustrating_stim/white_mw010.bmp'><br><font color='green'><strong>Share</strong></font></div></div><div class='respDiv'><div class='respDivL'>Match<br>(e)</div><div class='respDivR'>No Match<br>(i)</div></div></div>","e","TARGET","3","trustrating_stim/white_mw012.bmp,trustrating_stim/white_mw010.bmp,trustrating_stim/white_mw092.bmp","1,1,0","Match","e","4500","trustrating_stim/white_mw010.bmp","green","Share","REAL","1"
"html-keyboard-response","134","370087","0.0-7.0-5.19","5bfb5784a66aa500019dabef","bdp_wmem","Sat Apr 08 2023 10:48:15 GMT-0500 (Central Daylight Time)","618688","Match,No Match","","null","","","","","","<div class='trialBorder'><div class='vertical-center'><img src='img/correct.jpg'></div><div class='respDiv'><div class='respDivL'><font style='color:orange'>Match<br>(e)</font></div><div class='respDivR'>No Match<br>(i)</div></div></div>","null","FEEDBACK","","","","","","","","","","",""
"html-keyboard-response","135","370588","0.0-7.0-1.20","5bfb5784a66aa500019dabef","bdp_wmem","Sat Apr 08 2023 10:48:15 GMT-0500 (Central Daylight Time)","618688","Match,No Match","","null","","","","","","<div class='trialBorder'><div class='vertical-center'><img src='img/fixation2_sml.jpg'</img></div></div>","null","FIX","","","","","","","","","","",""
"html-keyboard-response","136","373589","0.0-7.0-2.20","5bfb5784a66aa500019dabef","bdp_wmem","Sat Apr 08 2023 10:48:15 GMT-0500 (Central Daylight Time)","618688","Match,No Match","","null","","","","","","<div class='trialBorder'><div class='vertical-center'><img style='vertical-align:center; align:center' src='img/fixation2_sml.jpg'></div><div class='arrayDiv2'><div class='tl'><img class='introPic' src='trustrating_stim/white_mw010.bmp'><br><font color='green'><strong>Share</strong></font></div><div class='tr'><img class='introPic' src='trustrating_stim/white_mw003.bmp'><br><font color='red'><strong>Keep</strong></font></div></div></div>","null","ARRAY","2","trustrating_stim/white_mw010.bmp,trustrating_stim/white_mw003.bmp","1,0","noMatchOutcome","i","3000","","","","",""
"html-keyboard-response","137","377592","0.0-7.0-3.20","5bfb5784a66aa500019dabef","bdp_wmem","Sat Apr 08 2023 10:48:15 GMT-0500 (Central Daylight Time)","618688","Match,No Match","","null","","","","","","<div class='trialBorder'><div class='vertical-center'><img src='img/fixation2_sml.jpg'</img></div></div>","null","DELAY","","","","","","","","","","",""
"html-keyboard-response","138","378761","0.0-7.0-4.20","5bfb5784a66aa500019dabef","bdp_wmem","Sat Apr 08 2023 10:48:15 GMT-0500 (Central Daylight Time)","618688","Match,No Match","","1169","","","","","","<div class='trialBorder'><div class='targDiv'><div class='tc'><img class='introPic' src='trustrating_stim/white_mw003.bmp'><br><font color='green'><strong>Share</strong></font></div></div><div class='respDiv'><div class='respDivL'>Match<br>(e)</div><div class='respDivR'>No Match<br>(i)</div></div></div>","i","TARGET","2","trustrating_stim/white_mw010.bmp,trustrating_stim/white_mw003.bmp","1,0","noMatchOutcome","i","3000","trustrating_stim/white_mw003.bmp","green","Share","REAL","1"
"html-keyboard-response","139","379263","0.0-7.0-5.20","5bfb5784a66aa500019dabef","bdp_wmem","Sat Apr 08 2023 10:48:15 GMT-0500 (Central Daylight Time)","618688","Match,No Match","","null","","","","","","<div class='trialBorder'><div class='vertical-center'><img src='img/correct.jpg'></div><div class='respDiv'><div class='respDivL'>Match<br>(e)</div><div class='respDivR'><font style='color:orange'>No Match<br>(i)</font></div></div></div>","null","FEEDBACK","","","","","","","","","","",""
"html-keyboard-response","140","379764","0.0-7.0-1.21","5bfb5784a66aa500019dabef","bdp_wmem","Sat Apr 08 2023 10:48:15 GMT-0500 (Central Daylight Time)","618688","Match,No Match","","null","","","","","","<div class='trialBorder'><div class='vertical-center'><img src='img/fixation2_sml.jpg'</img></div></div>","null","FIX","","","","","","","","","","",""
"html-keyboard-response","141","384265","0.0-7.0-2.21","5bfb5784a66aa500019dabef","bdp_wmem","Sat Apr 08 2023 10:48:15 GMT-0500 (Central Daylight Time)","618688","Match,No Match","","null","","","","","","<div class='trialBorder'><div class='vertical-center'><img style='vertical-align:center; align:center' src='img/fixation2_sml.jpg'></div><div class='arrayDiv3'><div class='tl'><img class='introPic' src='trustrating_stim/white_mw092.bmp'><br><font color='green'><strong>Share</strong></font></div><div class='tc'><img class='introPic' src='trustrating_stim/white_mw038.bmp'><br><font color='red'><strong>Keep</strong></font></div><div class='tr'><img class='introPic' src='trustrating_stim/white_mw013.bmp'><br><font color='red'><strong>Keep</strong></font></div></div></div>","null","ARRAY","3","trustrating_stim/white_mw092.bmp,trustrating_stim/white_mw038.bmp,trustrating_stim/white_mw013.bmp","1,0,0","noMatchOutcome","i","4500","","","","",""
"html-keyboard-response","142","388266","0.0-7.0-3.21","5bfb5784a66aa500019dabef","bdp_wmem","Sat Apr 08 2023 10:48:15 GMT-0500 (Central Daylight Time)","618688","Match,No Match","","null","","","","","","<div class='trialBorder'><div class='vertical-center'><img src='img/fixation2_sml.jpg'</img></div></div>","null","DELAY","","","","","","","","","","",""
"html-keyboard-response","143","389529","0.0-7.0-4.21","5bfb5784a66aa500019dabef","bdp_wmem","Sat Apr 08 2023 10:48:15 GMT-0500 (Central Daylight Time)","618688","Match,No Match","","1262","","","","","","<div class='trialBorder'><div class='targDiv'><div class='tc'><img class='introPic' src='trustrating_stim/white_mw013.bmp'><br><font color='green'><strong>Share</strong></font></div></div><div class='respDiv'><div class='respDivL'>Match<br>(e)</div><div class='respDivR'>No Match<br>(i)</div></div></div>","i","TARGET","3","trustrating_stim/white_mw092.bmp,trustrating_stim/white_mw038.bmp,trustrating_stim/white_mw013.bmp","1,0,0","noMatchOutcome","i","4500","trustrating_stim/white_mw013.bmp","green","Share","REAL","1"
"html-keyboard-response","144","390031","0.0-7.0-5.21","5bfb5784a66aa500019dabef","bdp_wmem","Sat Apr 08 2023 10:48:15 GMT-0500 (Central Daylight Time)","618688","Match,No Match","","null","","","","","","<div class='trialBorder'><div class='vertical-center'><img src='img/correct.jpg'></div><div class='respDiv'><div class='respDivL'>Match<br>(e)</div><div class='respDivR'><font style='color:orange'>No Match<br>(i)</font></div></div></div>","null","FEEDBACK","","","","","","","","","","",""
"html-keyboard-response","145","390533","0.0-7.0-1.22","5bfb5784a66aa500019dabef","bdp_wmem","Sat Apr 08 2023 10:48:15 GMT-0500 (Central Daylight Time)","618688","Match,No Match","","null","","","","","","<div class='trialBorder'><div class='vertical-center'><img src='img/fixation2_sml.jpg'</img></div></div>","null","FIX","","","","","","","","","","",""
"html-keyboard-response","146","393534","0.0-7.0-2.22","5bfb5784a66aa500019dabef","bdp_wmem","Sat Apr 08 2023 10:48:15 GMT-0500 (Central Daylight Time)","618688","Match,No Match","","null","","","","","","<div class='trialBorder'><div class='vertical-center'><img style='vertical-align:center; align:center' src='img/fixation2_sml.jpg'></div><div class='arrayDiv2'><div class='tl'><img class='introPic' src='trustrating_stim/white_mw070.bmp'><br><font color='red'><strong>Keep</strong></font></div><div class='tr'><img class='introPic' src='trustrating_stim/white_mw013.bmp'><br><font color='green'><strong>Share</strong></font></div></div></div>","null","ARRAY","2","trustrating_stim/white_mw070.bmp,trustrating_stim/white_mw013.bmp","0,1","noMatchFace","i","3000","","","","",""
"html-keyboard-response","147","397534","0.0-7.0-3.22","5bfb5784a66aa500019dabef","bdp_wmem","Sat Apr 08 2023 10:48:15 GMT-0500 (Central Daylight Time)","618688","Match,No Match","","null","","","","","","<div class='trialBorder'><div class='vertical-center'><img src='img/fixation2_sml.jpg'</img></div></div>","null","DELAY","","","","","","","","","","",""
"html-keyboard-response","148","399081","0.0-7.0-4.22","5bfb5784a66aa500019dabef","bdp_wmem","Sat Apr 08 2023 10:48:15 GMT-0500 (Central Daylight Time)","618688","Match,No Match","","1546","","","","","","<div class='trialBorder'><div class='targDiv'><div class='tc'><img class='introPic' src='trustrating_stim/white_mw038.bmp'><br><font color='red'><strong>Keep</strong></font></div></div><div class='respDiv'><div class='respDivL'>Match<br>(e)</div><div class='respDivR'>No Match<br>(i)</div></div></div>","i","TARGET","2","trustrating_stim/white_mw070.bmp,trustrating_stim/white_mw013.bmp","0,1","noMatchFace","i","3000","trustrating_stim/white_mw038.bmp","red","Keep","REAL","1"
"html-keyboard-response","149","399582","0.0-7.0-5.22","5bfb5784a66aa500019dabef","bdp_wmem","Sat Apr 08 2023 10:48:15 GMT-0500 (Central Daylight Time)","618688","Match,No Match","","null","","","","","","<div class='trialBorder'><div class='vertical-center'><img src='img/correct.jpg'></div><div class='respDiv'><div class='respDivL'>Match<br>(e)</div><div class='respDivR'><font style='color:orange'>No Match<br>(i)</font></div></div></div>","null","FEEDBACK","","","","","","","","","","",""
"html-keyboard-response","150","400084","0.0-7.0-1.23","5bfb5784a66aa500019dabef","bdp_wmem","Sat Apr 08 2023 10:48:15 GMT-0500 (Central Daylight Time)","618688","Match,No Match","","null","","","","","","<div class='trialBorder'><div class='vertical-center'><img src='img/fixation2_sml.jpg'</img></div></div>","null","FIX","","","","","","","","","","",""
"html-keyboard-response","151","401586","0.0-7.0-2.23","5bfb5784a66aa500019dabef","bdp_wmem","Sat Apr 08 2023 10:48:15 GMT-0500 (Central Daylight Time)","618688","Match,No Match","","null","","","","","","<div class='trialBorder'><div class='vertical-center'><img style='vertical-align:center; align:center' src='img/fixation2_sml.jpg'></div><div class='arrayDiv1'><div class='tc'><img class='introPic' src='trustrating_stim/white_mw070.bmp'><br><font color='red'><strong>Keep</strong></font></div></div></div>","null","ARRAY","1","trustrating_stim/white_mw070.bmp","0","noMatchFace","i","1500","","","","",""
"html-keyboard-response","152","405586","0.0-7.0-3.23","5bfb5784a66aa500019dabef","bdp_wmem","Sat Apr 08 2023 10:48:15 GMT-0500 (Central Daylight Time)","618688","Match,No Match","","null","","","","","","<div class='trialBorder'><div class='vertical-center'><img src='img/fixation2_sml.jpg'</img></div></div>","null","DELAY","","","","","","","","","","",""
"html-keyboard-response","153","407129","0.0-7.0-4.23","5bfb5784a66aa500019dabef","bdp_wmem","Sat Apr 08 2023 10:48:15 GMT-0500 (Central Daylight Time)","618688","Match,No Match","","1542","","","","","","<div class='trialBorder'><div class='targDiv'><div class='tc'><img class='introPic' src='trustrating_stim/white_mw078.bmp'><br><font color='red'><strong>Keep</strong></font></div></div><div class='respDiv'><div class='respDivL'>Match<br>(e)</div><div class='respDivR'>No Match<br>(i)</div></div></div>","i","TARGET","1","trustrating_stim/white_mw070.bmp","0","noMatchFace","i","1500","trustrating_stim/white_mw078.bmp","red","Keep","REAL","1"
"html-keyboard-response","154","407630","0.0-7.0-5.23","5bfb5784a66aa500019dabef","bdp_wmem","Sat Apr 08 2023 10:48:15 GMT-0500 (Central Daylight Time)","618688","Match,No Match","","null","","","","","","<div class='trialBorder'><div class='vertical-center'><img src='img/correct.jpg'></div><div class='respDiv'><div class='respDivL'>Match<br>(e)</div><div class='respDivR'><font style='color:orange'>No Match<br>(i)</font></div></div></div>","null","FEEDBACK","","","","","","","","","","",""
"html-keyboard-response","155","408132","0.0-7.0-1.24","5bfb5784a66aa500019dabef","bdp_wmem","Sat Apr 08 2023 10:48:15 GMT-0500 (Central Daylight Time)","618688","Match,No Match","","null","","","","","","<div class='trialBorder'><div class='vertical-center'><img src='img/fixation2_sml.jpg'</img></div></div>","null","FIX","","","","","","","","","","",""
"html-keyboard-response","156","412634","0.0-7.0-2.24","5bfb5784a66aa500019dabef","bdp_wmem","Sat Apr 08 2023 10:48:15 GMT-0500 (Central Daylight Time)","618688","Match,No Match","","null","","","","","","<div class='trialBorder'><div class='vertical-center'><img style='vertical-align:center; align:center' src='img/fixation2_sml.jpg'></div><div class='arrayDiv3'><div class='tl'><img class='introPic' src='trustrating_stim/white_mw092.bmp'><br><font color='green'><strong>Share</strong></font></div><div class='tc'><img class='introPic' src='trustrating_stim/white_mw070.bmp'><br><font color='red'><strong>Keep</strong></font></div><div class='tr'><img class='introPic' src='trustrating_stim/white_mw091.bmp'><br><font color='green'><strong>Share</strong></font></div></div></div>","null","ARRAY","3","trustrating_stim/white_mw092.bmp,trustrating_stim/white_mw070.bmp,trustrating_stim/white_mw091.bmp","1,0,1","Match","e","4500","","","","",""
"html-keyboard-response","157","416635","0.0-7.0-3.24","5bfb5784a66aa500019dabef","bdp_wmem","Sat Apr 08 2023 10:48:15 GMT-0500 (Central Daylight Time)","618688","Match,No Match","","null","","","","","","<div class='trialBorder'><div class='vertical-center'><img src='img/fixation2_sml.jpg'</img></div></div>","null","DELAY","","","","","","","","","","",""
"html-keyboard-response","158","417881","0.0-7.0-4.24","5bfb5784a66aa500019dabef","bdp_wmem","Sat Apr 08 2023 10:48:15 GMT-0500 (Central Daylight Time)","618688","Match,No Match","","1246","","","","","","<div class='trialBorder'><div class='targDiv'><div class='tc'><img class='introPic' src='trustrating_stim/white_mw091.bmp'><br><font color='green'><strong>Share</strong></font></div></div><div class='respDiv'><div class='respDivL'>Match<br>(e)</div><div class='respDivR'>No Match<br>(i)</div></div></div>","e","TARGET","3","trustrating_stim/white_mw092.bmp,trustrating_stim/white_mw070.bmp,trustrating_stim/white_mw091.bmp","1,0,1","Match","e","4500","trustrating_stim/white_mw091.bmp","green","Share","REAL","1"
"html-keyboard-response","159","418382","0.0-7.0-5.24","5bfb5784a66aa500019dabef","bdp_wmem","Sat Apr 08 2023 10:48:15 GMT-0500 (Central Daylight Time)","618688","Match,No Match","","null","","","","","","<div class='trialBorder'><div class='vertical-center'><img src='img/correct.jpg'></div><div class='respDiv'><div class='respDivL'><font style='color:orange'>Match<br>(e)</font></div><div class='respDivR'>No Match<br>(i)</div></div></div>","null","FEEDBACK","","","","","","","","","","",""
"html-keyboard-response","160","418884","0.0-7.0-1.25","5bfb5784a66aa500019dabef","bdp_wmem","Sat Apr 08 2023 10:48:15 GMT-0500 (Central Daylight Time)","618688","Match,No Match","","null","","","","","","<div class='trialBorder'><div class='vertical-center'><img src='img/fixation2_sml.jpg'</img></div></div>","null","FIX","","","","","","","","","","",""
"html-keyboard-response","161","421886","0.0-7.0-2.25","5bfb5784a66aa500019dabef","bdp_wmem","Sat Apr 08 2023 10:48:15 GMT-0500 (Central Daylight Time)","618688","Match,No Match","","null","","","","","","<div class='trialBorder'><div class='vertical-center'><img style='vertical-align:center; align:center' src='img/fixation2_sml.jpg'></div><div class='arrayDiv2'><div class='tl'><img class='introPic' src='trustrating_stim/white_mw070.bmp'><br><font color='green'><strong>Share</strong></font></div><div class='tr'><img class='introPic' src='trustrating_stim/white_mw003.bmp'><br><font color='red'><strong>Keep</strong></font></div></div></div>","null","ARRAY","2","trustrating_stim/white_mw070.bmp,trustrating_stim/white_mw003.bmp","1,0","noMatchFace","i","3000","","","","",""
"html-keyboard-response","162","425887","0.0-7.0-3.25","5bfb5784a66aa500019dabef","bdp_wmem","Sat Apr 08 2023 10:48:15 GMT-0500 (Central Daylight Time)","618688","Match,No Match","","null","","","","","","<div class='trialBorder'><div class='vertical-center'><img src='img/fixation2_sml.jpg'</img></div></div>","null","DELAY","","","","","","","","","","",""
"html-keyboard-response","163","427248","0.0-7.0-4.25","5bfb5784a66aa500019dabef","bdp_wmem","Sat Apr 08 2023 10:48:15 GMT-0500 (Central Daylight Time)","618688","Match,No Match","","1361","","","","","","<div class='trialBorder'><div class='targDiv'><div class='tc'><img class='introPic' src='trustrating_stim/white_mw092.bmp'><br><font color='red'><strong>Keep</strong></font></div></div><div class='respDiv'><div class='respDivL'>Match<br>(e)</div><div class='respDivR'>No Match<br>(i)</div></div></div>","i","TARGET","2","trustrating_stim/white_mw070.bmp,trustrating_stim/white_mw003.bmp","1,0","noMatchFace","i","3000","trustrating_stim/white_mw092.bmp","red","Keep","REAL","1"
"html-keyboard-response","164","427750","0.0-7.0-5.25","5bfb5784a66aa500019dabef","bdp_wmem","Sat Apr 08 2023 10:48:15 GMT-0500 (Central Daylight Time)","618688","Match,No Match","","null","","","","","","<div class='trialBorder'><div class='vertical-center'><img src='img/correct.jpg'></div><div class='respDiv'><div class='respDivL'>Match<br>(e)</div><div class='respDivR'><font style='color:orange'>No Match<br>(i)</font></div></div></div>","null","FEEDBACK","","","","","","","","","","",""
"html-keyboard-response","165","428250","0.0-7.0-1.26","5bfb5784a66aa500019dabef","bdp_wmem","Sat Apr 08 2023 10:48:15 GMT-0500 (Central Daylight Time)","618688","Match,No Match","","null","","","","","","<div class='trialBorder'><div class='vertical-center'><img src='img/fixation2_sml.jpg'</img></div></div>","null","FIX","","","","","","","","","","",""
"html-keyboard-response","166","432751","0.0-7.0-2.26","5bfb5784a66aa500019dabef","bdp_wmem","Sat Apr 08 2023 10:48:15 GMT-0500 (Central Daylight Time)","618688","Match,No Match","","null","","","","","","<div class='trialBorder'><div class='vertical-center'><img style='vertical-align:center; align:center' src='img/fixation2_sml.jpg'></div><div class='arrayDiv3'><div class='tl'><img class='introPic' src='trustrating_stim/white_mw013.bmp'><br><font color='green'><strong>Share</strong></font></div><div class='tc'><img class='introPic' src='trustrating_stim/white_mw038.bmp'><br><font color='red'><strong>Keep</strong></font></div><div class='tr'><img class='introPic' src='trustrating_stim/white_mw003.bmp'><br><font color='green'><strong>Share</strong></font></div></div></div>","null","ARRAY","3","trustrating_stim/white_mw013.bmp,trustrating_stim/white_mw038.bmp,trustrating_stim/white_mw003.bmp","1,0,1","Match","e","4500","","","","",""
"html-keyboard-response","167","436753","0.0-7.0-3.26","5bfb5784a66aa500019dabef","bdp_wmem","Sat Apr 08 2023 10:48:15 GMT-0500 (Central Daylight Time)","618688","Match,No Match","","null","","","","","","<div class='trialBorder'><div class='vertical-center'><img src='img/fixation2_sml.jpg'</img></div></div>","null","DELAY","","","","","","","","","","",""
"html-keyboard-response","168","437793","0.0-7.0-4.26","5bfb5784a66aa500019dabef","bdp_wmem","Sat Apr 08 2023 10:48:15 GMT-0500 (Central Daylight Time)","618688","Match,No Match","","1039","","","","","","<div class='trialBorder'><div class='targDiv'><div class='tc'><img class='introPic' src='trustrating_stim/white_mw013.bmp'><br><font color='green'><strong>Share</strong></font></div></div><div class='respDiv'><div class='respDivL'>Match<br>(e)</div><div class='respDivR'>No Match<br>(i)</div></div></div>","i","TARGET","3","trustrating_stim/white_mw013.bmp,trustrating_stim/white_mw038.bmp,trustrating_stim/white_mw003.bmp","1,0,1","Match","e","4500","trustrating_stim/white_mw013.bmp","green","Share","REAL","0"
"html-keyboard-response","169","438293","0.0-7.0-5.26","5bfb5784a66aa500019dabef","bdp_wmem","Sat Apr 08 2023 10:48:15 GMT-0500 (Central Daylight Time)","618688","Match,No Match","","null","","","","","","<div class='trialBorder'><div class='vertical-center'><img src='img/error.jpg'></div><div class='respDiv'><div class='respDivL'>Match<br>(e)</div><div class='respDivR'><font style='color:orange'>No Match<br>(i)</font></div></div></div>","null","FEEDBACK","","","","","","","","","","",""
"html-keyboard-response","170","438794","0.0-7.0-1.27","5bfb5784a66aa500019dabef","bdp_wmem","Sat Apr 08 2023 10:48:15 GMT-0500 (Central Daylight Time)","618688","Match,No Match","","null","","","","","","<div class='trialBorder'><div class='vertical-center'><img src='img/fixation2_sml.jpg'</img></div></div>","null","FIX","","","","","","","","","","",""
"html-keyboard-response","171","440296","0.0-7.0-2.27","5bfb5784a66aa500019dabef","bdp_wmem","Sat Apr 08 2023 10:48:15 GMT-0500 (Central Daylight Time)","618688","Match,No Match","","null","","","","","","<div class='trialBorder'><div class='vertical-center'><img style='vertical-align:center; align:center' src='img/fixation2_sml.jpg'></div><div class='arrayDiv1'><div class='tc'><img class='introPic' src='trustrating_stim/white_mw010.bmp'><br><font color='red'><strong>Keep</strong></font></div></div></div>","null","ARRAY","1","trustrating_stim/white_mw010.bmp","0","Match","e","1500","","","","",""
"html-keyboard-response","172","444297","0.0-7.0-3.27","5bfb5784a66aa500019dabef","bdp_wmem","Sat Apr 08 2023 10:48:15 GMT-0500 (Central Daylight Time)","618688","Match,No Match","","null","","","","","","<div class='trialBorder'><div class='vertical-center'><img src='img/fixation2_sml.jpg'</img></div></div>","null","DELAY","","","","","","","","","","",""
"html-keyboard-response","173","445321","0.0-7.0-4.27","5bfb5784a66aa500019dabef","bdp_wmem","Sat Apr 08 2023 10:48:15 GMT-0500 (Central Daylight Time)","618688","Match,No Match","","1024","","","","","","<div class='trialBorder'><div class='targDiv'><div class='tc'><img class='introPic' src='trustrating_stim/white_mw010.bmp'><br><font color='red'><strong>Keep</strong></font></div></div><div class='respDiv'><div class='respDivL'>Match<br>(e)</div><div class='respDivR'>No Match<br>(i)</div></div></div>","e","TARGET","1","trustrating_stim/white_mw010.bmp","0","Match","e","1500","trustrating_stim/white_mw010.bmp","red","Keep","REAL","1"
"html-keyboard-response","174","445821","0.0-7.0-5.27","5bfb5784a66aa500019dabef","bdp_wmem","Sat Apr 08 2023 10:48:15 GMT-0500 (Central Daylight Time)","618688","Match,No Match","","null","","","","","","<div class='trialBorder'><div class='vertical-center'><img src='img/correct.jpg'></div><div class='respDiv'><div class='respDivL'><font style='color:orange'>Match<br>(e)</font></div><div class='respDivR'>No Match<br>(i)</div></div></div>","null","FEEDBACK","","","","","","","","","","",""
"html-keyboard-response","175","446323","0.0-7.0-1.28","5bfb5784a66aa500019dabef","bdp_wmem","Sat Apr 08 2023 10:48:15 GMT-0500 (Central Daylight Time)","618688","Match,No Match","","null","","","","","","<div class='trialBorder'><div class='vertical-center'><img src='img/fixation2_sml.jpg'</img></div></div>","null","FIX","","","","","","","","","","",""
"html-keyboard-response","176","447824","0.0-7.0-2.28","5bfb5784a66aa500019dabef","bdp_wmem","Sat Apr 08 2023 10:48:15 GMT-0500 (Central Daylight Time)","618688","Match,No Match","","null","","","","","","<div class='trialBorder'><div class='vertical-center'><img style='vertical-align:center; align:center' src='img/fixation2_sml.jpg'></div><div class='arrayDiv1'><div class='tc'><img class='introPic' src='trustrating_stim/white_mw013.bmp'><br><font color='red'><strong>Keep</strong></font></div></div></div>","null","ARRAY","1","trustrating_stim/white_mw013.bmp","0","Match","e","1500","","","","",""
"html-keyboard-response","177","451824","0.0-7.0-3.28","5bfb5784a66aa500019dabef","bdp_wmem","Sat Apr 08 2023 10:48:15 GMT-0500 (Central Daylight Time)","618688","Match,No Match","","null","","","","","","<div class='trialBorder'><div class='vertical-center'><img src='img/fixation2_sml.jpg'</img></div></div>","null","DELAY","","","","","","","","","","",""
"html-keyboard-response","178","452585","0.0-7.0-4.28","5bfb5784a66aa500019dabef","bdp_wmem","Sat Apr 08 2023 10:48:15 GMT-0500 (Central Daylight Time)","618688","Match,No Match","","761","","","","","","<div class='trialBorder'><div class='targDiv'><div class='tc'><img class='introPic' src='trustrating_stim/white_mw013.bmp'><br><font color='red'><strong>Keep</strong></font></div></div><div class='respDiv'><div class='respDivL'>Match<br>(e)</div><div class='respDivR'>No Match<br>(i)</div></div></div>","e","TARGET","1","trustrating_stim/white_mw013.bmp","0","Match","e","1500","trustrating_stim/white_mw013.bmp","red","Keep","REAL","1"
"html-keyboard-response","179","453086","0.0-7.0-5.28","5bfb5784a66aa500019dabef","bdp_wmem","Sat Apr 08 2023 10:48:15 GMT-0500 (Central Daylight Time)","618688","Match,No Match","","null","","","","","","<div class='trialBorder'><div class='vertical-center'><img src='img/correct.jpg'></div><div class='respDiv'><div class='respDivL'><font style='color:orange'>Match<br>(e)</font></div><div class='respDivR'>No Match<br>(i)</div></div></div>","null","FEEDBACK","","","","","","","","","","",""
"html-keyboard-response","180","453587","0.0-7.0-1.29","5bfb5784a66aa500019dabef","bdp_wmem","Sat Apr 08 2023 10:48:15 GMT-0500 (Central Daylight Time)","618688","Match,No Match","","null","","","","","","<div class='trialBorder'><div class='vertical-center'><img src='img/fixation2_sml.jpg'</img></div></div>","null","FIX","","","","","","","","","","",""
"html-keyboard-response","181","456587","0.0-7.0-2.29","5bfb5784a66aa500019dabef","bdp_wmem","Sat Apr 08 2023 10:48:15 GMT-0500 (Central Daylight Time)","618688","Match,No Match","","null","","","","","","<div class='trialBorder'><div class='vertical-center'><img style='vertical-align:center; align:center' src='img/fixation2_sml.jpg'></div><div class='arrayDiv2'><div class='tl'><img class='introPic' src='trustrating_stim/white_mw070.bmp'><br><font color='green'><strong>Share</strong></font></div><div class='tr'><img class='introPic' src='trustrating_stim/white_mw078.bmp'><br><font color='red'><strong>Keep</strong></font></div></div></div>","null","ARRAY","2","trustrating_stim/white_mw070.bmp,trustrating_stim/white_mw078.bmp","1,0","noMatchOutcome","i","3000","","","","",""
"html-keyboard-response","182","460588","0.0-7.0-3.29","5bfb5784a66aa500019dabef","bdp_wmem","Sat Apr 08 2023 10:48:15 GMT-0500 (Central Daylight Time)","618688","Match,No Match","","null","","","","","","<div class='trialBorder'><div class='vertical-center'><img src='img/fixation2_sml.jpg'</img></div></div>","null","DELAY","","","","","","","","","","",""
"html-keyboard-response","183","462121","0.0-7.0-4.29","5bfb5784a66aa500019dabef","bdp_wmem","Sat Apr 08 2023 10:48:15 GMT-0500 (Central Daylight Time)","618688","Match,No Match","","1531","","","","","","<div class='trialBorder'><div class='targDiv'><div class='tc'><img class='introPic' src='trustrating_stim/white_mw070.bmp'><br><font color='red'><strong>Keep</strong></font></div></div><div class='respDiv'><div class='respDivL'>Match<br>(e)</div><div class='respDivR'>No Match<br>(i)</div></div></div>","i","TARGET","2","trustrating_stim/white_mw070.bmp,trustrating_stim/white_mw078.bmp","1,0","noMatchOutcome","i","3000","trustrating_stim/white_mw070.bmp","red","Keep","REAL","1"
"html-keyboard-response","184","462622","0.0-7.0-5.29","5bfb5784a66aa500019dabef","bdp_wmem","Sat Apr 08 2023 10:48:15 GMT-0500 (Central Daylight Time)","618688","Match,No Match","","null","","","","","","<div class='trialBorder'><div class='vertical-center'><img src='img/correct.jpg'></div><div class='respDiv'><div class='respDivL'>Match<br>(e)</div><div class='respDivR'><font style='color:orange'>No Match<br>(i)</font></div></div></div>","null","FEEDBACK","","","","","","","","","","",""
"html-keyboard-response","185","463122","0.0-7.0-1.30","5bfb5784a66aa500019dabef","bdp_wmem","Sat Apr 08 2023 10:48:15 GMT-0500 (Central Daylight Time)","618688","Match,No Match","","null","","","","","","<div class='trialBorder'><div class='vertical-center'><img src='img/fixation2_sml.jpg'</img></div></div>","null","FIX","","","","","","","","","","",""
