"event","trial","time","trialtype","subject_id","task","startTime","totalTime","labels","trial_type","trial_index","time_elapsed","internal_node_id","view_history","rt","success","stimulus","key_press","stimType","arraySize","arrayFaces","arrayOutcomes","matchType","corrResp","arrayDur","targFace","targCol","targOutcome","trialType","corr"
"focus","0","0","focusevent","5de7fd8df31ad27743f8d19f","bdp_wmem","Thu Jul 28 2022 12:09:20 GMT-0400 (Eastern Daylight Time)","577837","Match,No Match","","","","","","","","","","","","","","","","","","","","",""
"","","","","5de7fd8df31ad27743f8d19f","bdp_wmem","Thu Jul 28 2022 12:09:20 GMT-0400 (Eastern Daylight Time)","577837","Match,No Match","pavlovia","0","2","0.0-0.0","","","","","","","","","","","","","","","","",""
"","","","","5de7fd8df31ad27743f8d19f","bdp_wmem","Thu Jul 28 2022 12:09:20 GMT-0400 (Eastern Daylight Time)","577837","Match,No Match","instructions","1","2866","0.0-1.0","[{""page_index"":0,""viewing_time"":2862}]","2862","","","","","","","","","","","","","","",""
"fullscreenexit","2","6115","fullscreenexit","5de7fd8df31ad27743f8d19f","bdp_wmem","Thu Jul 28 2022 12:09:20 GMT-0400 (Eastern Daylight Time)","577837","Match,No Match","","","","","","","","","","","","","","","","","","","","",""
"","","","","5de7fd8df31ad27743f8d19f","bdp_wmem","Thu Jul 28 2022 12:09:20 GMT-0400 (Eastern Daylight Time)","577837","Match,No Match","fullscreen","2","7106","0.0-2.0","","","true","","","","","","","","","","","","","",""
"","","","fullscreenfail","5de7fd8df31ad27743f8d19f","bdp_wmem","Thu Jul 28 2022 12:09:20 GMT-0400 (Eastern Daylight Time)","577837","Match,No Match","image-keyboard-response","3","10328","0.0-3.0-0.0","","3219","","","32","","","","","","","","","","","",""
"","","","","5de7fd8df31ad27743f8d19f","bdp_wmem","Thu Jul 28 2022 12:09:20 GMT-0400 (Eastern Daylight Time)","577837","Match,No Match","instructions","4","57416","0.0-4.0","[{""page_index"":0,""viewing_time"":25633},{""page_index"":1,""viewing_time"":5890},{""page_index"":2,""viewing_time"":5099},{""page_index"":3,""viewing_time"":3765},{""page_index"":4,""viewing_time"":6447}]","46834","","","","","","","","","","","","","","",""
"","","","","5de7fd8df31ad27743f8d19f","bdp_wmem","Thu Jul 28 2022 12:09:20 GMT-0400 (Eastern Daylight Time)","577837","Match,No Match","html-keyboard-response","5","57918","0.0-5.0-1.0","","null","","<div class='trialBorder'><div class='vertical-center'><img src='img/fixation2_sml.jpg'</img></div></div>","null","FIX","","","","","","","","","","",""
"","","","","5de7fd8df31ad27743f8d19f","bdp_wmem","Thu Jul 28 2022 12:09:20 GMT-0400 (Eastern Daylight Time)","577837","Match,No Match","html-keyboard-response","6","60921","0.0-5.0-2.0","","null","","<div class='trialBorder'><div class='vertical-center'><img style='vertical-align:center; align:center' src='img/fixation2_sml.jpg'></div><div class='arrayDiv2'><div class='tl'><img class='introPic' src='trustrating_stim/white_mw042.bmp'><br><font color='red'><strong>Keep</strong></font></div><div class='tr'><img class='introPic' src='trustrating_stim/white_mw078.bmp'><br><font color='green'><strong>Share</strong></font></div></div></div>","null","ARRAY","2","trustrating_stim/white_mw042.bmp,trustrating_stim/white_mw078.bmp","0,1","Match","e","3000","","","","",""
"","","","","5de7fd8df31ad27743f8d19f","bdp_wmem","Thu Jul 28 2022 12:09:20 GMT-0400 (Eastern Daylight Time)","577837","Match,No Match","html-keyboard-response","7","64924","0.0-5.0-3.0","","null","","<div class='trialBorder'><div class='vertical-center'><img src='img/fixation2_sml.jpg'</img></div></div>","null","DELAY","","","","","","","","","","",""
"","","","","5de7fd8df31ad27743f8d19f","bdp_wmem","Thu Jul 28 2022 12:09:20 GMT-0400 (Eastern Daylight Time)","577837","Match,No Match","html-keyboard-response","8","66053","0.0-5.0-4.0","","1128","","<div class='trialBorder'><div class='targDiv'><div class='tc'><img class='introPic' src='trustrating_stim/white_mw042.bmp'><br><font color='red'><strong>Keep</strong></font></div></div><div class='respDiv'><div class='respDivL'>Match<br>(e)</div><div class='respDivR'>No Match<br>(i)</div></div></div>","e","TARGET","2","trustrating_stim/white_mw042.bmp,trustrating_stim/white_mw078.bmp","0,1","Match","e","3000","trustrating_stim/white_mw042.bmp","red","Keep","PRACTICE","1"
"","","","","5de7fd8df31ad27743f8d19f","bdp_wmem","Thu Jul 28 2022 12:09:20 GMT-0400 (Eastern Daylight Time)","577837","Match,No Match","html-keyboard-response","9","66555","0.0-5.0-5.0","","null","","<div class='trialBorder'><div class='vertical-center'><img src='img/correct.jpg'></div><div class='respDiv'><div class='respDivL'><font style='color:orange'>Match<br>(e)</font></div><div class='respDivR'>No Match<br>(i)</div></div></div>","null","FEEDBACK","","","","","","","","","","",""
"","","","","5de7fd8df31ad27743f8d19f","bdp_wmem","Thu Jul 28 2022 12:09:20 GMT-0400 (Eastern Daylight Time)","577837","Match,No Match","html-keyboard-response","10","67059","0.0-5.0-1.1","","null","","<div class='trialBorder'><div class='vertical-center'><img src='img/fixation2_sml.jpg'</img></div></div>","null","FIX","","","","","","","","","","",""
"","","","","5de7fd8df31ad27743f8d19f","bdp_wmem","Thu Jul 28 2022 12:09:20 GMT-0400 (Eastern Daylight Time)","577837","Match,No Match","html-keyboard-response","11","71561","0.0-5.0-2.1","","null","","<div class='trialBorder'><div class='vertical-center'><img style='vertical-align:center; align:center' src='img/fixation2_sml.jpg'></div><div class='arrayDiv3'><div class='tl'><img class='introPic' src='trustrating_stim/white_mw010.bmp'><br><font color='red'><strong>Keep</strong></font></div><div class='tc'><img class='introPic' src='trustrating_stim/white_mw085.bmp'><br><font color='green'><strong>Share</strong></font></div><div class='tr'><img class='introPic' src='trustrating_stim/white_mw042.bmp'><br><font color='green'><strong>Share</strong></font></div></div></div>","null","ARRAY","3","trustrating_stim/white_mw010.bmp,trustrating_stim/white_mw085.bmp,trustrating_stim/white_mw042.bmp","0,1,1","noMatchOutcome","i","4500","","","","",""
"","","","","5de7fd8df31ad27743f8d19f","bdp_wmem","Thu Jul 28 2022 12:09:20 GMT-0400 (Eastern Daylight Time)","577837","Match,No Match","html-keyboard-response","12","75564","0.0-5.0-3.1","","null","","<div class='trialBorder'><div class='vertical-center'><img src='img/fixation2_sml.jpg'</img></div></div>","null","DELAY","","","","","","","","","","",""
"","","","","5de7fd8df31ad27743f8d19f","bdp_wmem","Thu Jul 28 2022 12:09:20 GMT-0400 (Eastern Daylight Time)","577837","Match,No Match","html-keyboard-response","13","80555","0.0-5.0-4.1","","4990","","<div class='trialBorder'><div class='targDiv'><div class='tc'><img class='introPic' src='trustrating_stim/white_mw085.bmp'><br><font color='red'><strong>Keep</strong></font></div></div><div class='respDiv'><div class='respDivL'>Match<br>(e)</div><div class='respDivR'>No Match<br>(i)</div></div></div>","i","TARGET","3","trustrating_stim/white_mw010.bmp,trustrating_stim/white_mw085.bmp,trustrating_stim/white_mw042.bmp","0,1,1","noMatchOutcome","i","4500","trustrating_stim/white_mw085.bmp","red","Keep","PRACTICE","1"
"","","","","5de7fd8df31ad27743f8d19f","bdp_wmem","Thu Jul 28 2022 12:09:20 GMT-0400 (Eastern Daylight Time)","577837","Match,No Match","html-keyboard-response","14","81057","0.0-5.0-5.1","","null","","<div class='trialBorder'><div class='vertical-center'><img src='img/correct.jpg'></div><div class='respDiv'><div class='respDivL'>Match<br>(e)</div><div class='respDivR'><font style='color:orange'>No Match<br>(i)</font></div></div></div>","null","FEEDBACK","","","","","","","","","","",""
"","","","","5de7fd8df31ad27743f8d19f","bdp_wmem","Thu Jul 28 2022 12:09:20 GMT-0400 (Eastern Daylight Time)","577837","Match,No Match","html-keyboard-response","15","81558","0.0-5.0-1.2","","null","","<div class='trialBorder'><div class='vertical-center'><img src='img/fixation2_sml.jpg'</img></div></div>","null","FIX","","","","","","","","","","",""
"","","","","5de7fd8df31ad27743f8d19f","bdp_wmem","Thu Jul 28 2022 12:09:20 GMT-0400 (Eastern Daylight Time)","577837","Match,No Match","html-keyboard-response","16","83059","0.0-5.0-2.2","","null","","<div class='trialBorder'><div class='vertical-center'><img style='vertical-align:center; align:center' src='img/fixation2_sml.jpg'></div><div class='arrayDiv1'><div class='tc'><img class='introPic' src='trustrating_stim/white_mw012.bmp'><br><font color='green'><strong>Share</strong></font></div></div></div>","null","ARRAY","1","trustrating_stim/white_mw012.bmp","1","noMatchFace","i","1500","","","","",""
"","","","","5de7fd8df31ad27743f8d19f","bdp_wmem","Thu Jul 28 2022 12:09:20 GMT-0400 (Eastern Daylight Time)","577837","Match,No Match","html-keyboard-response","17","87064","0.0-5.0-3.2","","null","","<div class='trialBorder'><div class='vertical-center'><img src='img/fixation2_sml.jpg'</img></div></div>","null","DELAY","","","","","","","","","","",""
"","","","","5de7fd8df31ad27743f8d19f","bdp_wmem","Thu Jul 28 2022 12:09:20 GMT-0400 (Eastern Daylight Time)","577837","Match,No Match","html-keyboard-response","18","88292","0.0-5.0-4.2","","1226","","<div class='trialBorder'><div class='targDiv'><div class='tc'><img class='introPic' src='trustrating_stim/white_mw040.bmp'><br><font color='green'><strong>Share</strong></font></div></div><div class='respDiv'><div class='respDivL'>Match<br>(e)</div><div class='respDivR'>No Match<br>(i)</div></div></div>","i","TARGET","1","trustrating_stim/white_mw012.bmp","1","noMatchFace","i","1500","trustrating_stim/white_mw040.bmp","green","Share","PRACTICE","1"
"","","","","5de7fd8df31ad27743f8d19f","bdp_wmem","Thu Jul 28 2022 12:09:20 GMT-0400 (Eastern Daylight Time)","577837","Match,No Match","html-keyboard-response","19","88793","0.0-5.0-5.2","","null","","<div class='trialBorder'><div class='vertical-center'><img src='img/correct.jpg'></div><div class='respDiv'><div class='respDivL'>Match<br>(e)</div><div class='respDivR'><font style='color:orange'>No Match<br>(i)</font></div></div></div>","null","FEEDBACK","","","","","","","","","","",""
"","","","","5de7fd8df31ad27743f8d19f","bdp_wmem","Thu Jul 28 2022 12:09:20 GMT-0400 (Eastern Daylight Time)","577837","Match,No Match","html-keyboard-response","20","89298","0.0-5.0-1.3","","null","","<div class='trialBorder'><div class='vertical-center'><img src='img/fixation2_sml.jpg'</img></div></div>","null","FIX","","","","","","","","","","",""
"","","","","5de7fd8df31ad27743f8d19f","bdp_wmem","Thu Jul 28 2022 12:09:20 GMT-0400 (Eastern Daylight Time)","577837","Match,No Match","html-keyboard-response","21","93801","0.0-5.0-2.3","","null","","<div class='trialBorder'><div class='vertical-center'><img style='vertical-align:center; align:center' src='img/fixation2_sml.jpg'></div><div class='arrayDiv3'><div class='tl'><img class='introPic' src='trustrating_stim/white_mw091.bmp'><br><font color='red'><strong>Keep</strong></font></div><div class='tc'><img class='introPic' src='trustrating_stim/white_mw010.bmp'><br><font color='green'><strong>Share</strong></font></div><div class='tr'><img class='introPic' src='trustrating_stim/white_mw038.bmp'><br><font color='green'><strong>Share</strong></font></div></div></div>","null","ARRAY","3","trustrating_stim/white_mw091.bmp,trustrating_stim/white_mw010.bmp,trustrating_stim/white_mw038.bmp","0,1,1","Match","e","4500","","","","",""
"","","","","5de7fd8df31ad27743f8d19f","bdp_wmem","Thu Jul 28 2022 12:09:20 GMT-0400 (Eastern Daylight Time)","577837","Match,No Match","html-keyboard-response","22","97803","0.0-5.0-3.3","","null","","<div class='trialBorder'><div class='vertical-center'><img src='img/fixation2_sml.jpg'</img></div></div>","null","DELAY","","","","","","","","","","",""
"","","","","5de7fd8df31ad27743f8d19f","bdp_wmem","Thu Jul 28 2022 12:09:20 GMT-0400 (Eastern Daylight Time)","577837","Match,No Match","html-keyboard-response","23","101304","0.0-5.0-4.3","","3500","","<div class='trialBorder'><div class='targDiv'><div class='tc'><img class='introPic' src='trustrating_stim/white_mw010.bmp'><br><font color='green'><strong>Share</strong></font></div></div><div class='respDiv'><div class='respDivL'>Match<br>(e)</div><div class='respDivR'>No Match<br>(i)</div></div></div>","e","TARGET","3","trustrating_stim/white_mw091.bmp,trustrating_stim/white_mw010.bmp,trustrating_stim/white_mw038.bmp","0,1,1","Match","e","4500","trustrating_stim/white_mw010.bmp","green","Share","PRACTICE","1"
"","","","","5de7fd8df31ad27743f8d19f","bdp_wmem","Thu Jul 28 2022 12:09:20 GMT-0400 (Eastern Daylight Time)","577837","Match,No Match","html-keyboard-response","24","101806","0.0-5.0-5.3","","null","","<div class='trialBorder'><div class='vertical-center'><img src='img/correct.jpg'></div><div class='respDiv'><div class='respDivL'><font style='color:orange'>Match<br>(e)</font></div><div class='respDivR'>No Match<br>(i)</div></div></div>","null","FEEDBACK","","","","","","","","","","",""
"","","","","5de7fd8df31ad27743f8d19f","bdp_wmem","Thu Jul 28 2022 12:09:20 GMT-0400 (Eastern Daylight Time)","577837","Match,No Match","html-keyboard-response","25","102312","0.0-5.0-1.4","","null","","<div class='trialBorder'><div class='vertical-center'><img src='img/fixation2_sml.jpg'</img></div></div>","null","FIX","","","","","","","","","","",""
"","","","","5de7fd8df31ad27743f8d19f","bdp_wmem","Thu Jul 28 2022 12:09:20 GMT-0400 (Eastern Daylight Time)","577837","Match,No Match","html-keyboard-response","26","105313","0.0-5.0-2.4","","null","","<div class='trialBorder'><div class='vertical-center'><img style='vertical-align:center; align:center' src='img/fixation2_sml.jpg'></div><div class='arrayDiv2'><div class='tl'><img class='introPic' src='trustrating_stim/white_mw091.bmp'><br><font color='green'><strong>Share</strong></font></div><div class='tr'><img class='introPic' src='trustrating_stim/white_mw003.bmp'><br><font color='red'><strong>Keep</strong></font></div></div></div>","null","ARRAY","2","trustrating_stim/white_mw091.bmp,trustrating_stim/white_mw003.bmp","1,0","noMatchFace","i","3000","","","","",""
"","","","","5de7fd8df31ad27743f8d19f","bdp_wmem","Thu Jul 28 2022 12:09:20 GMT-0400 (Eastern Daylight Time)","577837","Match,No Match","html-keyboard-response","27","109315","0.0-5.0-3.4","","null","","<div class='trialBorder'><div class='vertical-center'><img src='img/fixation2_sml.jpg'</img></div></div>","null","DELAY","","","","","","","","","","",""
"","","","","5de7fd8df31ad27743f8d19f","bdp_wmem","Thu Jul 28 2022 12:09:20 GMT-0400 (Eastern Daylight Time)","577837","Match,No Match","html-keyboard-response","28","110680","0.0-5.0-4.4","","1365","","<div class='trialBorder'><div class='targDiv'><div class='tc'><img class='introPic' src='trustrating_stim/white_mw010.bmp'><br><font color='green'><strong>Share</strong></font></div></div><div class='respDiv'><div class='respDivL'>Match<br>(e)</div><div class='respDivR'>No Match<br>(i)</div></div></div>","i","TARGET","2","trustrating_stim/white_mw091.bmp,trustrating_stim/white_mw003.bmp","1,0","noMatchFace","i","3000","trustrating_stim/white_mw010.bmp","green","Share","PRACTICE","1"
"","","","","5de7fd8df31ad27743f8d19f","bdp_wmem","Thu Jul 28 2022 12:09:20 GMT-0400 (Eastern Daylight Time)","577837","Match,No Match","html-keyboard-response","29","111183","0.0-5.0-5.4","","null","","<div class='trialBorder'><div class='vertical-center'><img src='img/correct.jpg'></div><div class='respDiv'><div class='respDivL'>Match<br>(e)</div><div class='respDivR'><font style='color:orange'>No Match<br>(i)</font></div></div></div>","null","FEEDBACK","","","","","","","","","","",""
"","","","","5de7fd8df31ad27743f8d19f","bdp_wmem","Thu Jul 28 2022 12:09:20 GMT-0400 (Eastern Daylight Time)","577837","Match,No Match","html-keyboard-response","30","111684","0.0-5.0-1.5","","null","","<div class='trialBorder'><div class='vertical-center'><img src='img/fixation2_sml.jpg'</img></div></div>","null","FIX","","","","","","","","","","",""
"","","","","5de7fd8df31ad27743f8d19f","bdp_wmem","Thu Jul 28 2022 12:09:20 GMT-0400 (Eastern Daylight Time)","577837","Match,No Match","html-keyboard-response","31","113186","0.0-5.0-2.5","","null","","<div class='trialBorder'><div class='vertical-center'><img style='vertical-align:center; align:center' src='img/fixation2_sml.jpg'></div><div class='arrayDiv1'><div class='tc'><img class='introPic' src='trustrating_stim/white_mw038.bmp'><br><font color='green'><strong>Share</strong></font></div></div></div>","null","ARRAY","1","trustrating_stim/white_mw038.bmp","1","Match","e","1500","","","","",""
"","","","","5de7fd8df31ad27743f8d19f","bdp_wmem","Thu Jul 28 2022 12:09:20 GMT-0400 (Eastern Daylight Time)","577837","Match,No Match","html-keyboard-response","32","117189","0.0-5.0-3.5","","null","","<div class='trialBorder'><div class='vertical-center'><img src='img/fixation2_sml.jpg'</img></div></div>","null","DELAY","","","","","","","","","","",""
"","","","","5de7fd8df31ad27743f8d19f","bdp_wmem","Thu Jul 28 2022 12:09:20 GMT-0400 (Eastern Daylight Time)","577837","Match,No Match","html-keyboard-response","33","118555","0.0-5.0-4.5","","1366","","<div class='trialBorder'><div class='targDiv'><div class='tc'><img class='introPic' src='trustrating_stim/white_mw038.bmp'><br><font color='green'><strong>Share</strong></font></div></div><div class='respDiv'><div class='respDivL'>Match<br>(e)</div><div class='respDivR'>No Match<br>(i)</div></div></div>","e","TARGET","1","trustrating_stim/white_mw038.bmp","1","Match","e","1500","trustrating_stim/white_mw038.bmp","green","Share","PRACTICE","1"
"","","","","5de7fd8df31ad27743f8d19f","bdp_wmem","Thu Jul 28 2022 12:09:20 GMT-0400 (Eastern Daylight Time)","577837","Match,No Match","html-keyboard-response","34","119056","0.0-5.0-5.5","","null","","<div class='trialBorder'><div class='vertical-center'><img src='img/correct.jpg'></div><div class='respDiv'><div class='respDivL'><font style='color:orange'>Match<br>(e)</font></div><div class='respDivR'>No Match<br>(i)</div></div></div>","null","FEEDBACK","","","","","","","","","","",""
"","","","","5de7fd8df31ad27743f8d19f","bdp_wmem","Thu Jul 28 2022 12:09:20 GMT-0400 (Eastern Daylight Time)","577837","Match,No Match","instructions","35","124005","0.0-6.0","[{""page_index"":0,""viewing_time"":4949}]","4949","","","","","","","","","","","","","","",""
"","","","","5de7fd8df31ad27743f8d19f","bdp_wmem","Thu Jul 28 2022 12:09:20 GMT-0400 (Eastern Daylight Time)","577837","Match,No Match","html-keyboard-response","36","124506","0.0-7.0-1.0","","null","","<div class='trialBorder'><div class='vertical-center'><img src='img/fixation2_sml.jpg'</img></div></div>","null","FIX","","","","","","","","","","",""
"","","","","5de7fd8df31ad27743f8d19f","bdp_wmem","Thu Jul 28 2022 12:09:20 GMT-0400 (Eastern Daylight Time)","577837","Match,No Match","html-keyboard-response","37","129008","0.0-7.0-2.0","","null","","<div class='trialBorder'><div class='vertical-center'><img style='vertical-align:center; align:center' src='img/fixation2_sml.jpg'></div><div class='arrayDiv3'><div class='tl'><img class='introPic' src='trustrating_stim/white_mw012.bmp'><br><font color='red'><strong>Keep</strong></font></div><div class='tc'><img class='introPic' src='trustrating_stim/white_mw013.bmp'><br><font color='green'><strong>Share</strong></font></div><div class='tr'><img class='introPic' src='trustrating_stim/white_mw038.bmp'><br><font color='red'><strong>Keep</strong></font></div></div></div>","null","ARRAY","3","trustrating_stim/white_mw012.bmp,trustrating_stim/white_mw013.bmp,trustrating_stim/white_mw038.bmp","0,1,0","noMatchOutcome","i","4500","","","","",""
"","","","","5de7fd8df31ad27743f8d19f","bdp_wmem","Thu Jul 28 2022 12:09:20 GMT-0400 (Eastern Daylight Time)","577837","Match,No Match","html-keyboard-response","38","133010","0.0-7.0-3.0","","null","","<div class='trialBorder'><div class='vertical-center'><img src='img/fixation2_sml.jpg'</img></div></div>","null","DELAY","","","","","","","","","","",""
"","","","","5de7fd8df31ad27743f8d19f","bdp_wmem","Thu Jul 28 2022 12:09:20 GMT-0400 (Eastern Daylight Time)","577837","Match,No Match","html-keyboard-response","39","135805","0.0-7.0-4.0","","2793","","<div class='trialBorder'><div class='targDiv'><div class='tc'><img class='introPic' src='trustrating_stim/white_mw013.bmp'><br><font color='red'><strong>Keep</strong></font></div></div><div class='respDiv'><div class='respDivL'>Match<br>(e)</div><div class='respDivR'>No Match<br>(i)</div></div></div>","i","TARGET","3","trustrating_stim/white_mw012.bmp,trustrating_stim/white_mw013.bmp,trustrating_stim/white_mw038.bmp","0,1,0","noMatchOutcome","i","4500","trustrating_stim/white_mw013.bmp","red","Keep","REAL","1"
"","","","","5de7fd8df31ad27743f8d19f","bdp_wmem","Thu Jul 28 2022 12:09:20 GMT-0400 (Eastern Daylight Time)","577837","Match,No Match","html-keyboard-response","40","136310","0.0-7.0-5.0","","null","","<div class='trialBorder'><div class='vertical-center'><img src='img/correct.jpg'></div><div class='respDiv'><div class='respDivL'>Match<br>(e)</div><div class='respDivR'><font style='color:orange'>No Match<br>(i)</font></div></div></div>","null","FEEDBACK","","","","","","","","","","",""
"","","","","5de7fd8df31ad27743f8d19f","bdp_wmem","Thu Jul 28 2022 12:09:20 GMT-0400 (Eastern Daylight Time)","577837","Match,No Match","html-keyboard-response","41","136813","0.0-7.0-1.1","","null","","<div class='trialBorder'><div class='vertical-center'><img src='img/fixation2_sml.jpg'</img></div></div>","null","FIX","","","","","","","","","","",""
"","","","","5de7fd8df31ad27743f8d19f","bdp_wmem","Thu Jul 28 2022 12:09:20 GMT-0400 (Eastern Daylight Time)","577837","Match,No Match","html-keyboard-response","42","139815","0.0-7.0-2.1","","null","","<div class='trialBorder'><div class='vertical-center'><img style='vertical-align:center; align:center' src='img/fixation2_sml.jpg'></div><div class='arrayDiv2'><div class='tl'><img class='introPic' src='trustrating_stim/white_mw040.bmp'><br><font color='green'><strong>Share</strong></font></div><div class='tr'><img class='introPic' src='trustrating_stim/white_mw092.bmp'><br><font color='red'><strong>Keep</strong></font></div></div></div>","null","ARRAY","2","trustrating_stim/white_mw040.bmp,trustrating_stim/white_mw092.bmp","1,0","Match","e","3000","","","","",""
"","","","","5de7fd8df31ad27743f8d19f","bdp_wmem","Thu Jul 28 2022 12:09:20 GMT-0400 (Eastern Daylight Time)","577837","Match,No Match","html-keyboard-response","43","143816","0.0-7.0-3.1","","null","","<div class='trialBorder'><div class='vertical-center'><img src='img/fixation2_sml.jpg'</img></div></div>","null","DELAY","","","","","","","","","","",""
"","","","","5de7fd8df31ad27743f8d19f","bdp_wmem","Thu Jul 28 2022 12:09:20 GMT-0400 (Eastern Daylight Time)","577837","Match,No Match","html-keyboard-response","44","146692","0.0-7.0-4.1","","2876","","<div class='trialBorder'><div class='targDiv'><div class='tc'><img class='introPic' src='trustrating_stim/white_mw092.bmp'><br><font color='red'><strong>Keep</strong></font></div></div><div class='respDiv'><div class='respDivL'>Match<br>(e)</div><div class='respDivR'>No Match<br>(i)</div></div></div>","e","TARGET","2","trustrating_stim/white_mw040.bmp,trustrating_stim/white_mw092.bmp","1,0","Match","e","3000","trustrating_stim/white_mw092.bmp","red","Keep","REAL","1"
"","","","","5de7fd8df31ad27743f8d19f","bdp_wmem","Thu Jul 28 2022 12:09:20 GMT-0400 (Eastern Daylight Time)","577837","Match,No Match","html-keyboard-response","45","147195","0.0-7.0-5.1","","null","","<div class='trialBorder'><div class='vertical-center'><img src='img/correct.jpg'></div><div class='respDiv'><div class='respDivL'><font style='color:orange'>Match<br>(e)</font></div><div class='respDivR'>No Match<br>(i)</div></div></div>","null","FEEDBACK","","","","","","","","","","",""
"","","","","5de7fd8df31ad27743f8d19f","bdp_wmem","Thu Jul 28 2022 12:09:20 GMT-0400 (Eastern Daylight Time)","577837","Match,No Match","html-keyboard-response","46","147695","0.0-7.0-1.2","","null","","<div class='trialBorder'><div class='vertical-center'><img src='img/fixation2_sml.jpg'</img></div></div>","null","FIX","","","","","","","","","","",""
"","","","","5de7fd8df31ad27743f8d19f","bdp_wmem","Thu Jul 28 2022 12:09:20 GMT-0400 (Eastern Daylight Time)","577837","Match,No Match","html-keyboard-response","47","150696","0.0-7.0-2.2","","null","","<div class='trialBorder'><div class='vertical-center'><img style='vertical-align:center; align:center' src='img/fixation2_sml.jpg'></div><div class='arrayDiv2'><div class='tl'><img class='introPic' src='trustrating_stim/white_mw012.bmp'><br><font color='red'><strong>Keep</strong></font></div><div class='tr'><img class='introPic' src='trustrating_stim/white_mw003.bmp'><br><font color='green'><strong>Share</strong></font></div></div></div>","null","ARRAY","2","trustrating_stim/white_mw012.bmp,trustrating_stim/white_mw003.bmp","0,1","Match","e","3000","","","","",""
"","","","","5de7fd8df31ad27743f8d19f","bdp_wmem","Thu Jul 28 2022 12:09:20 GMT-0400 (Eastern Daylight Time)","577837","Match,No Match","html-keyboard-response","48","154699","0.0-7.0-3.2","","null","","<div class='trialBorder'><div class='vertical-center'><img src='img/fixation2_sml.jpg'</img></div></div>","null","DELAY","","","","","","","","","","",""
"","","","","5de7fd8df31ad27743f8d19f","bdp_wmem","Thu Jul 28 2022 12:09:20 GMT-0400 (Eastern Daylight Time)","577837","Match,No Match","html-keyboard-response","49","155692","0.0-7.0-4.2","","993","","<div class='trialBorder'><div class='targDiv'><div class='tc'><img class='introPic' src='trustrating_stim/white_mw012.bmp'><br><font color='red'><strong>Keep</strong></font></div></div><div class='respDiv'><div class='respDivL'>Match<br>(e)</div><div class='respDivR'>No Match<br>(i)</div></div></div>","e","TARGET","2","trustrating_stim/white_mw012.bmp,trustrating_stim/white_mw003.bmp","0,1","Match","e","3000","trustrating_stim/white_mw012.bmp","red","Keep","REAL","1"
"","","","","5de7fd8df31ad27743f8d19f","bdp_wmem","Thu Jul 28 2022 12:09:20 GMT-0400 (Eastern Daylight Time)","577837","Match,No Match","html-keyboard-response","50","156192","0.0-7.0-5.2","","null","","<div class='trialBorder'><div class='vertical-center'><img src='img/correct.jpg'></div><div class='respDiv'><div class='respDivL'><font style='color:orange'>Match<br>(e)</font></div><div class='respDivR'>No Match<br>(i)</div></div></div>","null","FEEDBACK","","","","","","","","","","",""
"","","","","5de7fd8df31ad27743f8d19f","bdp_wmem","Thu Jul 28 2022 12:09:20 GMT-0400 (Eastern Daylight Time)","577837","Match,No Match","html-keyboard-response","51","156693","0.0-7.0-1.3","","null","","<div class='trialBorder'><div class='vertical-center'><img src='img/fixation2_sml.jpg'</img></div></div>","null","FIX","","","","","","","","","","",""
"","","","","5de7fd8df31ad27743f8d19f","bdp_wmem","Thu Jul 28 2022 12:09:20 GMT-0400 (Eastern Daylight Time)","577837","Match,No Match","html-keyboard-response","52","161197","0.0-7.0-2.3","","null","","<div class='trialBorder'><div class='vertical-center'><img style='vertical-align:center; align:center' src='img/fixation2_sml.jpg'></div><div class='arrayDiv3'><div class='tl'><img class='introPic' src='trustrating_stim/white_mw091.bmp'><br><font color='green'><strong>Share</strong></font></div><div class='tc'><img class='introPic' src='trustrating_stim/white_mw013.bmp'><br><font color='red'><strong>Keep</strong></font></div><div class='tr'><img class='introPic' src='trustrating_stim/white_mw078.bmp'><br><font color='red'><strong>Keep</strong></font></div></div></div>","null","ARRAY","3","trustrating_stim/white_mw091.bmp,trustrating_stim/white_mw013.bmp,trustrating_stim/white_mw078.bmp","1,0,0","noMatchFace","i","4500","","","","",""
"","","","","5de7fd8df31ad27743f8d19f","bdp_wmem","Thu Jul 28 2022 12:09:20 GMT-0400 (Eastern Daylight Time)","577837","Match,No Match","html-keyboard-response","53","165200","0.0-7.0-3.3","","null","","<div class='trialBorder'><div class='vertical-center'><img src='img/fixation2_sml.jpg'</img></div></div>","null","DELAY","","","","","","","","","","",""
"","","","","5de7fd8df31ad27743f8d19f","bdp_wmem","Thu Jul 28 2022 12:09:20 GMT-0400 (Eastern Daylight Time)","577837","Match,No Match","html-keyboard-response","54","166556","0.0-7.0-4.3","","1355","","<div class='trialBorder'><div class='targDiv'><div class='tc'><img class='introPic' src='trustrating_stim/white_mw010.bmp'><br><font color='red'><strong>Keep</strong></font></div></div><div class='respDiv'><div class='respDivL'>Match<br>(e)</div><div class='respDivR'>No Match<br>(i)</div></div></div>","i","TARGET","3","trustrating_stim/white_mw091.bmp,trustrating_stim/white_mw013.bmp,trustrating_stim/white_mw078.bmp","1,0,0","noMatchFace","i","4500","trustrating_stim/white_mw010.bmp","red","Keep","REAL","1"
"","","","","5de7fd8df31ad27743f8d19f","bdp_wmem","Thu Jul 28 2022 12:09:20 GMT-0400 (Eastern Daylight Time)","577837","Match,No Match","html-keyboard-response","55","167056","0.0-7.0-5.3","","null","","<div class='trialBorder'><div class='vertical-center'><img src='img/correct.jpg'></div><div class='respDiv'><div class='respDivL'>Match<br>(e)</div><div class='respDivR'><font style='color:orange'>No Match<br>(i)</font></div></div></div>","null","FEEDBACK","","","","","","","","","","",""
"","","","","5de7fd8df31ad27743f8d19f","bdp_wmem","Thu Jul 28 2022 12:09:20 GMT-0400 (Eastern Daylight Time)","577837","Match,No Match","html-keyboard-response","56","167557","0.0-7.0-1.4","","null","","<div class='trialBorder'><div class='vertical-center'><img src='img/fixation2_sml.jpg'</img></div></div>","null","FIX","","","","","","","","","","",""
"","","","","5de7fd8df31ad27743f8d19f","bdp_wmem","Thu Jul 28 2022 12:09:20 GMT-0400 (Eastern Daylight Time)","577837","Match,No Match","html-keyboard-response","57","169060","0.0-7.0-2.4","","null","","<div class='trialBorder'><div class='vertical-center'><img style='vertical-align:center; align:center' src='img/fixation2_sml.jpg'></div><div class='arrayDiv1'><div class='tc'><img class='introPic' src='trustrating_stim/white_mw010.bmp'><br><font color='green'><strong>Share</strong></font></div></div></div>","null","ARRAY","1","trustrating_stim/white_mw010.bmp","1","Match","e","1500","","","","",""
"","","","","5de7fd8df31ad27743f8d19f","bdp_wmem","Thu Jul 28 2022 12:09:20 GMT-0400 (Eastern Daylight Time)","577837","Match,No Match","html-keyboard-response","58","173064","0.0-7.0-3.4","","null","","<div class='trialBorder'><div class='vertical-center'><img src='img/fixation2_sml.jpg'</img></div></div>","null","DELAY","","","","","","","","","","",""
"","","","","5de7fd8df31ad27743f8d19f","bdp_wmem","Thu Jul 28 2022 12:09:20 GMT-0400 (Eastern Daylight Time)","577837","Match,No Match","html-keyboard-response","59","174056","0.0-7.0-4.4","","991","","<div class='trialBorder'><div class='targDiv'><div class='tc'><img class='introPic' src='trustrating_stim/white_mw010.bmp'><br><font color='green'><strong>Share</strong></font></div></div><div class='respDiv'><div class='respDivL'>Match<br>(e)</div><div class='respDivR'>No Match<br>(i)</div></div></div>","e","TARGET","1","trustrating_stim/white_mw010.bmp","1","Match","e","1500","trustrating_stim/white_mw010.bmp","green","Share","REAL","1"
"","","","","5de7fd8df31ad27743f8d19f","bdp_wmem","Thu Jul 28 2022 12:09:20 GMT-0400 (Eastern Daylight Time)","577837","Match,No Match","html-keyboard-response","60","174558","0.0-7.0-5.4","","null","","<div class='trialBorder'><div class='vertical-center'><img src='img/correct.jpg'></div><div class='respDiv'><div class='respDivL'><font style='color:orange'>Match<br>(e)</font></div><div class='respDivR'>No Match<br>(i)</div></div></div>","null","FEEDBACK","","","","","","","","","","",""
"","","","","5de7fd8df31ad27743f8d19f","bdp_wmem","Thu Jul 28 2022 12:09:20 GMT-0400 (Eastern Daylight Time)","577837","Match,No Match","html-keyboard-response","61","175059","0.0-7.0-1.5","","null","","<div class='trialBorder'><div class='vertical-center'><img src='img/fixation2_sml.jpg'</img></div></div>","null","FIX","","","","","","","","","","",""
"","","","","5de7fd8df31ad27743f8d19f","bdp_wmem","Thu Jul 28 2022 12:09:20 GMT-0400 (Eastern Daylight Time)","577837","Match,No Match","html-keyboard-response","62","178060","0.0-7.0-2.5","","null","","<div class='trialBorder'><div class='vertical-center'><img style='vertical-align:center; align:center' src='img/fixation2_sml.jpg'></div><div class='arrayDiv2'><div class='tl'><img class='introPic' src='trustrating_stim/white_mw070.bmp'><br><font color='red'><strong>Keep</strong></font></div><div class='tr'><img class='introPic' src='trustrating_stim/white_mw085.bmp'><br><font color='green'><strong>Share</strong></font></div></div></div>","null","ARRAY","2","trustrating_stim/white_mw070.bmp,trustrating_stim/white_mw085.bmp","0,1","Match","e","3000","","","","",""
"","","","","5de7fd8df31ad27743f8d19f","bdp_wmem","Thu Jul 28 2022 12:09:20 GMT-0400 (Eastern Daylight Time)","577837","Match,No Match","html-keyboard-response","63","182062","0.0-7.0-3.5","","null","","<div class='trialBorder'><div class='vertical-center'><img src='img/fixation2_sml.jpg'</img></div></div>","null","DELAY","","","","","","","","","","",""
"","","","","5de7fd8df31ad27743f8d19f","bdp_wmem","Thu Jul 28 2022 12:09:20 GMT-0400 (Eastern Daylight Time)","577837","Match,No Match","html-keyboard-response","64","183104","0.0-7.0-4.5","","1042","","<div class='trialBorder'><div class='targDiv'><div class='tc'><img class='introPic' src='trustrating_stim/white_mw070.bmp'><br><font color='red'><strong>Keep</strong></font></div></div><div class='respDiv'><div class='respDivL'>Match<br>(e)</div><div class='respDivR'>No Match<br>(i)</div></div></div>","e","TARGET","2","trustrating_stim/white_mw070.bmp,trustrating_stim/white_mw085.bmp","0,1","Match","e","3000","trustrating_stim/white_mw070.bmp","red","Keep","REAL","1"
"","","","","5de7fd8df31ad27743f8d19f","bdp_wmem","Thu Jul 28 2022 12:09:20 GMT-0400 (Eastern Daylight Time)","577837","Match,No Match","html-keyboard-response","65","183606","0.0-7.0-5.5","","null","","<div class='trialBorder'><div class='vertical-center'><img src='img/correct.jpg'></div><div class='respDiv'><div class='respDivL'><font style='color:orange'>Match<br>(e)</font></div><div class='respDivR'>No Match<br>(i)</div></div></div>","null","FEEDBACK","","","","","","","","","","",""
"","","","","5de7fd8df31ad27743f8d19f","bdp_wmem","Thu Jul 28 2022 12:09:20 GMT-0400 (Eastern Daylight Time)","577837","Match,No Match","html-keyboard-response","66","184107","0.0-7.0-1.6","","null","","<div class='trialBorder'><div class='vertical-center'><img src='img/fixation2_sml.jpg'</img></div></div>","null","FIX","","","","","","","","","","",""
"","","","","5de7fd8df31ad27743f8d19f","bdp_wmem","Thu Jul 28 2022 12:09:20 GMT-0400 (Eastern Daylight Time)","577837","Match,No Match","html-keyboard-response","67","187110","0.0-7.0-2.6","","null","","<div class='trialBorder'><div class='vertical-center'><img style='vertical-align:center; align:center' src='img/fixation2_sml.jpg'></div><div class='arrayDiv2'><div class='tl'><img class='introPic' src='trustrating_stim/white_mw003.bmp'><br><font color='red'><strong>Keep</strong></font></div><div class='tr'><img class='introPic' src='trustrating_stim/white_mw092.bmp'><br><font color='green'><strong>Share</strong></font></div></div></div>","null","ARRAY","2","trustrating_stim/white_mw003.bmp,trustrating_stim/white_mw092.bmp","0,1","Match","e","3000","","","","",""
"","","","","5de7fd8df31ad27743f8d19f","bdp_wmem","Thu Jul 28 2022 12:09:20 GMT-0400 (Eastern Daylight Time)","577837","Match,No Match","html-keyboard-response","68","191113","0.0-7.0-3.6","","null","","<div class='trialBorder'><div class='vertical-center'><img src='img/fixation2_sml.jpg'</img></div></div>","null","DELAY","","","","","","","","","","",""
"","","","","5de7fd8df31ad27743f8d19f","bdp_wmem","Thu Jul 28 2022 12:09:20 GMT-0400 (Eastern Daylight Time)","577837","Match,No Match","html-keyboard-response","69","191906","0.0-7.0-4.6","","793","","<div class='trialBorder'><div class='targDiv'><div class='tc'><img class='introPic' src='trustrating_stim/white_mw003.bmp'><br><font color='red'><strong>Keep</strong></font></div></div><div class='respDiv'><div class='respDivL'>Match<br>(e)</div><div class='respDivR'>No Match<br>(i)</div></div></div>","e","TARGET","2","trustrating_stim/white_mw003.bmp,trustrating_stim/white_mw092.bmp","0,1","Match","e","3000","trustrating_stim/white_mw003.bmp","red","Keep","REAL","1"
"","","","","5de7fd8df31ad27743f8d19f","bdp_wmem","Thu Jul 28 2022 12:09:20 GMT-0400 (Eastern Daylight Time)","577837","Match,No Match","html-keyboard-response","70","192411","0.0-7.0-5.6","","null","","<div class='trialBorder'><div class='vertical-center'><img src='img/correct.jpg'></div><div class='respDiv'><div class='respDivL'><font style='color:orange'>Match<br>(e)</font></div><div class='respDivR'>No Match<br>(i)</div></div></div>","null","FEEDBACK","","","","","","","","","","",""
"","","","","5de7fd8df31ad27743f8d19f","bdp_wmem","Thu Jul 28 2022 12:09:20 GMT-0400 (Eastern Daylight Time)","577837","Match,No Match","html-keyboard-response","71","192913","0.0-7.0-1.7","","null","","<div class='trialBorder'><div class='vertical-center'><img src='img/fixation2_sml.jpg'</img></div></div>","null","FIX","","","","","","","","","","",""
"","","","","5de7fd8df31ad27743f8d19f","bdp_wmem","Thu Jul 28 2022 12:09:20 GMT-0400 (Eastern Daylight Time)","577837","Match,No Match","html-keyboard-response","72","194417","0.0-7.0-2.7","","null","","<div class='trialBorder'><div class='vertical-center'><img style='vertical-align:center; align:center' src='img/fixation2_sml.jpg'></div><div class='arrayDiv1'><div class='tc'><img class='introPic' src='trustrating_stim/white_mw085.bmp'><br><font color='green'><strong>Share</strong></font></div></div></div>","null","ARRAY","1","trustrating_stim/white_mw085.bmp","1","Match","e","1500","","","","",""
"","","","","5de7fd8df31ad27743f8d19f","bdp_wmem","Thu Jul 28 2022 12:09:20 GMT-0400 (Eastern Daylight Time)","577837","Match,No Match","html-keyboard-response","73","198418","0.0-7.0-3.7","","null","","<div class='trialBorder'><div class='vertical-center'><img src='img/fixation2_sml.jpg'</img></div></div>","null","DELAY","","","","","","","","","","",""
"","","","","5de7fd8df31ad27743f8d19f","bdp_wmem","Thu Jul 28 2022 12:09:20 GMT-0400 (Eastern Daylight Time)","577837","Match,No Match","html-keyboard-response","74","199793","0.0-7.0-4.7","","1374","","<div class='trialBorder'><div class='targDiv'><div class='tc'><img class='introPic' src='trustrating_stim/white_mw085.bmp'><br><font color='green'><strong>Share</strong></font></div></div><div class='respDiv'><div class='respDivL'>Match<br>(e)</div><div class='respDivR'>No Match<br>(i)</div></div></div>","e","TARGET","1","trustrating_stim/white_mw085.bmp","1","Match","e","1500","trustrating_stim/white_mw085.bmp","green","Share","REAL","1"
"","","","","5de7fd8df31ad27743f8d19f","bdp_wmem","Thu Jul 28 2022 12:09:20 GMT-0400 (Eastern Daylight Time)","577837","Match,No Match","html-keyboard-response","75","200295","0.0-7.0-5.7","","null","","<div class='trialBorder'><div class='vertical-center'><img src='img/correct.jpg'></div><div class='respDiv'><div class='respDivL'><font style='color:orange'>Match<br>(e)</font></div><div class='respDivR'>No Match<br>(i)</div></div></div>","null","FEEDBACK","","","","","","","","","","",""
"","","","","5de7fd8df31ad27743f8d19f","bdp_wmem","Thu Jul 28 2022 12:09:20 GMT-0400 (Eastern Daylight Time)","577837","Match,No Match","html-keyboard-response","76","200795","0.0-7.0-1.8","","null","","<div class='trialBorder'><div class='vertical-center'><img src='img/fixation2_sml.jpg'</img></div></div>","null","FIX","","","","","","","","","","",""
"","","","","5de7fd8df31ad27743f8d19f","bdp_wmem","Thu Jul 28 2022 12:09:20 GMT-0400 (Eastern Daylight Time)","577837","Match,No Match","html-keyboard-response","77","203798","0.0-7.0-2.8","","null","","<div class='trialBorder'><div class='vertical-center'><img style='vertical-align:center; align:center' src='img/fixation2_sml.jpg'></div><div class='arrayDiv2'><div class='tl'><img class='introPic' src='trustrating_stim/white_mw085.bmp'><br><font color='red'><strong>Keep</strong></font></div><div class='tr'><img class='introPic' src='trustrating_stim/white_mw013.bmp'><br><font color='green'><strong>Share</strong></font></div></div></div>","null","ARRAY","2","trustrating_stim/white_mw085.bmp,trustrating_stim/white_mw013.bmp","0,1","noMatchOutcome","i","3000","","","","",""
"","","","","5de7fd8df31ad27743f8d19f","bdp_wmem","Thu Jul 28 2022 12:09:20 GMT-0400 (Eastern Daylight Time)","577837","Match,No Match","html-keyboard-response","78","207803","0.0-7.0-3.8","","null","","<div class='trialBorder'><div class='vertical-center'><img src='img/fixation2_sml.jpg'</img></div></div>","null","DELAY","","","","","","","","","","",""
"","","","","5de7fd8df31ad27743f8d19f","bdp_wmem","Thu Jul 28 2022 12:09:20 GMT-0400 (Eastern Daylight Time)","577837","Match,No Match","html-keyboard-response","79","209442","0.0-7.0-4.8","","1638","","<div class='trialBorder'><div class='targDiv'><div class='tc'><img class='introPic' src='trustrating_stim/white_mw013.bmp'><br><font color='red'><strong>Keep</strong></font></div></div><div class='respDiv'><div class='respDivL'>Match<br>(e)</div><div class='respDivR'>No Match<br>(i)</div></div></div>","i","TARGET","2","trustrating_stim/white_mw085.bmp,trustrating_stim/white_mw013.bmp","0,1","noMatchOutcome","i","3000","trustrating_stim/white_mw013.bmp","red","Keep","REAL","1"
"","","","","5de7fd8df31ad27743f8d19f","bdp_wmem","Thu Jul 28 2022 12:09:20 GMT-0400 (Eastern Daylight Time)","577837","Match,No Match","html-keyboard-response","80","209945","0.0-7.0-5.8","","null","","<div class='trialBorder'><div class='vertical-center'><img src='img/correct.jpg'></div><div class='respDiv'><div class='respDivL'>Match<br>(e)</div><div class='respDivR'><font style='color:orange'>No Match<br>(i)</font></div></div></div>","null","FEEDBACK","","","","","","","","","","",""
"","","","","5de7fd8df31ad27743f8d19f","bdp_wmem","Thu Jul 28 2022 12:09:20 GMT-0400 (Eastern Daylight Time)","577837","Match,No Match","html-keyboard-response","81","210447","0.0-7.0-1.9","","null","","<div class='trialBorder'><div class='vertical-center'><img src='img/fixation2_sml.jpg'</img></div></div>","null","FIX","","","","","","","","","","",""
"","","","","5de7fd8df31ad27743f8d19f","bdp_wmem","Thu Jul 28 2022 12:09:20 GMT-0400 (Eastern Daylight Time)","577837","Match,No Match","html-keyboard-response","82","211947","0.0-7.0-2.9","","null","","<div class='trialBorder'><div class='vertical-center'><img style='vertical-align:center; align:center' src='img/fixation2_sml.jpg'></div><div class='arrayDiv1'><div class='tc'><img class='introPic' src='trustrating_stim/white_mw070.bmp'><br><font color='green'><strong>Share</strong></font></div></div></div>","null","ARRAY","1","trustrating_stim/white_mw070.bmp","1","Match","e","1500","","","","",""
"","","","","5de7fd8df31ad27743f8d19f","bdp_wmem","Thu Jul 28 2022 12:09:20 GMT-0400 (Eastern Daylight Time)","577837","Match,No Match","html-keyboard-response","83","215949","0.0-7.0-3.9","","null","","<div class='trialBorder'><div class='vertical-center'><img src='img/fixation2_sml.jpg'</img></div></div>","null","DELAY","","","","","","","","","","",""
"","","","","5de7fd8df31ad27743f8d19f","bdp_wmem","Thu Jul 28 2022 12:09:20 GMT-0400 (Eastern Daylight Time)","577837","Match,No Match","html-keyboard-response","84","217143","0.0-7.0-4.9","","1192","","<div class='trialBorder'><div class='targDiv'><div class='tc'><img class='introPic' src='trustrating_stim/white_mw070.bmp'><br><font color='green'><strong>Share</strong></font></div></div><div class='respDiv'><div class='respDivL'>Match<br>(e)</div><div class='respDivR'>No Match<br>(i)</div></div></div>","e","TARGET","1","trustrating_stim/white_mw070.bmp","1","Match","e","1500","trustrating_stim/white_mw070.bmp","green","Share","REAL","1"
"","","","","5de7fd8df31ad27743f8d19f","bdp_wmem","Thu Jul 28 2022 12:09:20 GMT-0400 (Eastern Daylight Time)","577837","Match,No Match","html-keyboard-response","85","217643","0.0-7.0-5.9","","null","","<div class='trialBorder'><div class='vertical-center'><img src='img/correct.jpg'></div><div class='respDiv'><div class='respDivL'><font style='color:orange'>Match<br>(e)</font></div><div class='respDivR'>No Match<br>(i)</div></div></div>","null","FEEDBACK","","","","","","","","","","",""
"","","","","5de7fd8df31ad27743f8d19f","bdp_wmem","Thu Jul 28 2022 12:09:20 GMT-0400 (Eastern Daylight Time)","577837","Match,No Match","html-keyboard-response","86","218144","0.0-7.0-1.10","","null","","<div class='trialBorder'><div class='vertical-center'><img src='img/fixation2_sml.jpg'</img></div></div>","null","FIX","","","","","","","","","","",""
"","","","","5de7fd8df31ad27743f8d19f","bdp_wmem","Thu Jul 28 2022 12:09:20 GMT-0400 (Eastern Daylight Time)","577837","Match,No Match","html-keyboard-response","87","222646","0.0-7.0-2.10","","null","","<div class='trialBorder'><div class='vertical-center'><img style='vertical-align:center; align:center' src='img/fixation2_sml.jpg'></div><div class='arrayDiv3'><div class='tl'><img class='introPic' src='trustrating_stim/white_mw013.bmp'><br><font color='green'><strong>Share</strong></font></div><div class='tc'><img class='introPic' src='trustrating_stim/white_mw092.bmp'><br><font color='green'><strong>Share</strong></font></div><div class='tr'><img class='introPic' src='trustrating_stim/white_mw091.bmp'><br><font color='red'><strong>Keep</strong></font></div></div></div>","null","ARRAY","3","trustrating_stim/white_mw013.bmp,trustrating_stim/white_mw092.bmp,trustrating_stim/white_mw091.bmp","1,1,0","noMatchOutcome","i","4500","","","","",""
"","","","","5de7fd8df31ad27743f8d19f","bdp_wmem","Thu Jul 28 2022 12:09:20 GMT-0400 (Eastern Daylight Time)","577837","Match,No Match","html-keyboard-response","88","226649","0.0-7.0-3.10","","null","","<div class='trialBorder'><div class='vertical-center'><img src='img/fixation2_sml.jpg'</img></div></div>","null","DELAY","","","","","","","","","","",""
"","","","","5de7fd8df31ad27743f8d19f","bdp_wmem","Thu Jul 28 2022 12:09:20 GMT-0400 (Eastern Daylight Time)","577837","Match,No Match","html-keyboard-response","89","228556","0.0-7.0-4.10","","1905","","<div class='trialBorder'><div class='targDiv'><div class='tc'><img class='introPic' src='trustrating_stim/white_mw013.bmp'><br><font color='red'><strong>Keep</strong></font></div></div><div class='respDiv'><div class='respDivL'>Match<br>(e)</div><div class='respDivR'>No Match<br>(i)</div></div></div>","i","TARGET","3","trustrating_stim/white_mw013.bmp,trustrating_stim/white_mw092.bmp,trustrating_stim/white_mw091.bmp","1,1,0","noMatchOutcome","i","4500","trustrating_stim/white_mw013.bmp","red","Keep","REAL","1"
"","","","","5de7fd8df31ad27743f8d19f","bdp_wmem","Thu Jul 28 2022 12:09:20 GMT-0400 (Eastern Daylight Time)","577837","Match,No Match","html-keyboard-response","90","229058","0.0-7.0-5.10","","null","","<div class='trialBorder'><div class='vertical-center'><img src='img/correct.jpg'></div><div class='respDiv'><div class='respDivL'>Match<br>(e)</div><div class='respDivR'><font style='color:orange'>No Match<br>(i)</font></div></div></div>","null","FEEDBACK","","","","","","","","","","",""
"","","","","5de7fd8df31ad27743f8d19f","bdp_wmem","Thu Jul 28 2022 12:09:20 GMT-0400 (Eastern Daylight Time)","577837","Match,No Match","html-keyboard-response","91","229558","0.0-7.0-1.11","","null","","<div class='trialBorder'><div class='vertical-center'><img src='img/fixation2_sml.jpg'</img></div></div>","null","FIX","","","","","","","","","","",""
"","","","","5de7fd8df31ad27743f8d19f","bdp_wmem","Thu Jul 28 2022 12:09:20 GMT-0400 (Eastern Daylight Time)","577837","Match,No Match","html-keyboard-response","92","231060","0.0-7.0-2.11","","null","","<div class='trialBorder'><div class='vertical-center'><img style='vertical-align:center; align:center' src='img/fixation2_sml.jpg'></div><div class='arrayDiv1'><div class='tc'><img class='introPic' src='trustrating_stim/white_mw040.bmp'><br><font color='green'><strong>Share</strong></font></div></div></div>","null","ARRAY","1","trustrating_stim/white_mw040.bmp","1","Match","e","1500","","","","",""
"","","","","5de7fd8df31ad27743f8d19f","bdp_wmem","Thu Jul 28 2022 12:09:20 GMT-0400 (Eastern Daylight Time)","577837","Match,No Match","html-keyboard-response","93","235061","0.0-7.0-3.11","","null","","<div class='trialBorder'><div class='vertical-center'><img src='img/fixation2_sml.jpg'</img></div></div>","null","DELAY","","","","","","","","","","",""
"","","","","5de7fd8df31ad27743f8d19f","bdp_wmem","Thu Jul 28 2022 12:09:20 GMT-0400 (Eastern Daylight Time)","577837","Match,No Match","html-keyboard-response","94","236194","0.0-7.0-4.11","","1133","","<div class='trialBorder'><div class='targDiv'><div class='tc'><img class='introPic' src='trustrating_stim/white_mw040.bmp'><br><font color='green'><strong>Share</strong></font></div></div><div class='respDiv'><div class='respDivL'>Match<br>(e)</div><div class='respDivR'>No Match<br>(i)</div></div></div>","e","TARGET","1","trustrating_stim/white_mw040.bmp","1","Match","e","1500","trustrating_stim/white_mw040.bmp","green","Share","REAL","1"
"","","","","5de7fd8df31ad27743f8d19f","bdp_wmem","Thu Jul 28 2022 12:09:20 GMT-0400 (Eastern Daylight Time)","577837","Match,No Match","html-keyboard-response","95","236695","0.0-7.0-5.11","","null","","<div class='trialBorder'><div class='vertical-center'><img src='img/correct.jpg'></div><div class='respDiv'><div class='respDivL'><font style='color:orange'>Match<br>(e)</font></div><div class='respDivR'>No Match<br>(i)</div></div></div>","null","FEEDBACK","","","","","","","","","","",""
"","","","","5de7fd8df31ad27743f8d19f","bdp_wmem","Thu Jul 28 2022 12:09:20 GMT-0400 (Eastern Daylight Time)","577837","Match,No Match","html-keyboard-response","96","237199","0.0-7.0-1.12","","null","","<div class='trialBorder'><div class='vertical-center'><img src='img/fixation2_sml.jpg'</img></div></div>","null","FIX","","","","","","","","","","",""
"","","","","5de7fd8df31ad27743f8d19f","bdp_wmem","Thu Jul 28 2022 12:09:20 GMT-0400 (Eastern Daylight Time)","577837","Match,No Match","html-keyboard-response","97","240204","0.0-7.0-2.12","","null","","<div class='trialBorder'><div class='vertical-center'><img style='vertical-align:center; align:center' src='img/fixation2_sml.jpg'></div><div class='arrayDiv2'><div class='tl'><img class='introPic' src='trustrating_stim/white_mw013.bmp'><br><font color='green'><strong>Share</strong></font></div><div class='tr'><img class='introPic' src='trustrating_stim/white_mw010.bmp'><br><font color='red'><strong>Keep</strong></font></div></div></div>","null","ARRAY","2","trustrating_stim/white_mw013.bmp,trustrating_stim/white_mw010.bmp","1,0","noMatchFace","i","3000","","","","",""
"","","","","5de7fd8df31ad27743f8d19f","bdp_wmem","Thu Jul 28 2022 12:09:20 GMT-0400 (Eastern Daylight Time)","577837","Match,No Match","html-keyboard-response","98","244205","0.0-7.0-3.12","","null","","<div class='trialBorder'><div class='vertical-center'><img src='img/fixation2_sml.jpg'</img></div></div>","null","DELAY","","","","","","","","","","",""
"","","","","5de7fd8df31ad27743f8d19f","bdp_wmem","Thu Jul 28 2022 12:09:20 GMT-0400 (Eastern Daylight Time)","577837","Match,No Match","html-keyboard-response","99","246181","0.0-7.0-4.12","","1976","","<div class='trialBorder'><div class='targDiv'><div class='tc'><img class='introPic' src='trustrating_stim/white_mw042.bmp'><br><font color='green'><strong>Share</strong></font></div></div><div class='respDiv'><div class='respDivL'>Match<br>(e)</div><div class='respDivR'>No Match<br>(i)</div></div></div>","i","TARGET","2","trustrating_stim/white_mw013.bmp,trustrating_stim/white_mw010.bmp","1,0","noMatchFace","i","3000","trustrating_stim/white_mw042.bmp","green","Share","REAL","1"
"","","","","5de7fd8df31ad27743f8d19f","bdp_wmem","Thu Jul 28 2022 12:09:20 GMT-0400 (Eastern Daylight Time)","577837","Match,No Match","html-keyboard-response","100","246684","0.0-7.0-5.12","","null","","<div class='trialBorder'><div class='vertical-center'><img src='img/correct.jpg'></div><div class='respDiv'><div class='respDivL'>Match<br>(e)</div><div class='respDivR'><font style='color:orange'>No Match<br>(i)</font></div></div></div>","null","FEEDBACK","","","","","","","","","","",""
"","","","","5de7fd8df31ad27743f8d19f","bdp_wmem","Thu Jul 28 2022 12:09:20 GMT-0400 (Eastern Daylight Time)","577837","Match,No Match","html-keyboard-response","101","247187","0.0-7.0-1.13","","null","","<div class='trialBorder'><div class='vertical-center'><img src='img/fixation2_sml.jpg'</img></div></div>","null","FIX","","","","","","","","","","",""
"","","","","5de7fd8df31ad27743f8d19f","bdp_wmem","Thu Jul 28 2022 12:09:20 GMT-0400 (Eastern Daylight Time)","577837","Match,No Match","html-keyboard-response","102","251688","0.0-7.0-2.13","","null","","<div class='trialBorder'><div class='vertical-center'><img style='vertical-align:center; align:center' src='img/fixation2_sml.jpg'></div><div class='arrayDiv3'><div class='tl'><img class='introPic' src='trustrating_stim/white_mw003.bmp'><br><font color='green'><strong>Share</strong></font></div><div class='tc'><img class='introPic' src='trustrating_stim/white_mw091.bmp'><br><font color='green'><strong>Share</strong></font></div><div class='tr'><img class='introPic' src='trustrating_stim/white_mw038.bmp'><br><font color='red'><strong>Keep</strong></font></div></div></div>","null","ARRAY","3","trustrating_stim/white_mw003.bmp,trustrating_stim/white_mw091.bmp,trustrating_stim/white_mw038.bmp","1,1,0","noMatchFace","i","4500","","","","",""
"","","","","5de7fd8df31ad27743f8d19f","bdp_wmem","Thu Jul 28 2022 12:09:20 GMT-0400 (Eastern Daylight Time)","577837","Match,No Match","html-keyboard-response","103","255690","0.0-7.0-3.13","","null","","<div class='trialBorder'><div class='vertical-center'><img src='img/fixation2_sml.jpg'</img></div></div>","null","DELAY","","","","","","","","","","",""
"","","","","5de7fd8df31ad27743f8d19f","bdp_wmem","Thu Jul 28 2022 12:09:20 GMT-0400 (Eastern Daylight Time)","577837","Match,No Match","html-keyboard-response","104","257193","0.0-7.0-4.13","","1503","","<div class='trialBorder'><div class='targDiv'><div class='tc'><img class='introPic' src='trustrating_stim/white_mw085.bmp'><br><font color='green'><strong>Share</strong></font></div></div><div class='respDiv'><div class='respDivL'>Match<br>(e)</div><div class='respDivR'>No Match<br>(i)</div></div></div>","i","TARGET","3","trustrating_stim/white_mw003.bmp,trustrating_stim/white_mw091.bmp,trustrating_stim/white_mw038.bmp","1,1,0","noMatchFace","i","4500","trustrating_stim/white_mw085.bmp","green","Share","REAL","1"
"","","","","5de7fd8df31ad27743f8d19f","bdp_wmem","Thu Jul 28 2022 12:09:20 GMT-0400 (Eastern Daylight Time)","577837","Match,No Match","html-keyboard-response","105","257695","0.0-7.0-5.13","","null","","<div class='trialBorder'><div class='vertical-center'><img src='img/correct.jpg'></div><div class='respDiv'><div class='respDivL'>Match<br>(e)</div><div class='respDivR'><font style='color:orange'>No Match<br>(i)</font></div></div></div>","null","FEEDBACK","","","","","","","","","","",""
"","","","","5de7fd8df31ad27743f8d19f","bdp_wmem","Thu Jul 28 2022 12:09:20 GMT-0400 (Eastern Daylight Time)","577837","Match,No Match","html-keyboard-response","106","258197","0.0-7.0-1.14","","null","","<div class='trialBorder'><div class='vertical-center'><img src='img/fixation2_sml.jpg'</img></div></div>","null","FIX","","","","","","","","","","",""
"","","","","5de7fd8df31ad27743f8d19f","bdp_wmem","Thu Jul 28 2022 12:09:20 GMT-0400 (Eastern Daylight Time)","577837","Match,No Match","html-keyboard-response","107","259698","0.0-7.0-2.14","","null","","<div class='trialBorder'><div class='vertical-center'><img style='vertical-align:center; align:center' src='img/fixation2_sml.jpg'></div><div class='arrayDiv1'><div class='tc'><img class='introPic' src='trustrating_stim/white_mw070.bmp'><br><font color='green'><strong>Share</strong></font></div></div></div>","null","ARRAY","1","trustrating_stim/white_mw070.bmp","1","Match","e","1500","","","","",""
"","","","","5de7fd8df31ad27743f8d19f","bdp_wmem","Thu Jul 28 2022 12:09:20 GMT-0400 (Eastern Daylight Time)","577837","Match,No Match","html-keyboard-response","108","263699","0.0-7.0-3.14","","null","","<div class='trialBorder'><div class='vertical-center'><img src='img/fixation2_sml.jpg'</img></div></div>","null","DELAY","","","","","","","","","","",""
"","","","","5de7fd8df31ad27743f8d19f","bdp_wmem","Thu Jul 28 2022 12:09:20 GMT-0400 (Eastern Daylight Time)","577837","Match,No Match","html-keyboard-response","109","264931","0.0-7.0-4.14","","1231","","<div class='trialBorder'><div class='targDiv'><div class='tc'><img class='introPic' src='trustrating_stim/white_mw070.bmp'><br><font color='green'><strong>Share</strong></font></div></div><div class='respDiv'><div class='respDivL'>Match<br>(e)</div><div class='respDivR'>No Match<br>(i)</div></div></div>","e","TARGET","1","trustrating_stim/white_mw070.bmp","1","Match","e","1500","trustrating_stim/white_mw070.bmp","green","Share","REAL","1"
"","","","","5de7fd8df31ad27743f8d19f","bdp_wmem","Thu Jul 28 2022 12:09:20 GMT-0400 (Eastern Daylight Time)","577837","Match,No Match","html-keyboard-response","110","265434","0.0-7.0-5.14","","null","","<div class='trialBorder'><div class='vertical-center'><img src='img/correct.jpg'></div><div class='respDiv'><div class='respDivL'><font style='color:orange'>Match<br>(e)</font></div><div class='respDivR'>No Match<br>(i)</div></div></div>","null","FEEDBACK","","","","","","","","","","",""
"","","","","5de7fd8df31ad27743f8d19f","bdp_wmem","Thu Jul 28 2022 12:09:20 GMT-0400 (Eastern Daylight Time)","577837","Match,No Match","html-keyboard-response","111","265935","0.0-7.0-1.15","","null","","<div class='trialBorder'><div class='vertical-center'><img src='img/fixation2_sml.jpg'</img></div></div>","null","FIX","","","","","","","","","","",""
"","","","","5de7fd8df31ad27743f8d19f","bdp_wmem","Thu Jul 28 2022 12:09:20 GMT-0400 (Eastern Daylight Time)","577837","Match,No Match","html-keyboard-response","112","267440","0.0-7.0-2.15","","null","","<div class='trialBorder'><div class='vertical-center'><img style='vertical-align:center; align:center' src='img/fixation2_sml.jpg'></div><div class='arrayDiv1'><div class='tc'><img class='introPic' src='trustrating_stim/white_mw003.bmp'><br><font color='red'><strong>Keep</strong></font></div></div></div>","null","ARRAY","1","trustrating_stim/white_mw003.bmp","0","noMatchOutcome","i","1500","","","","",""
"","","","","5de7fd8df31ad27743f8d19f","bdp_wmem","Thu Jul 28 2022 12:09:20 GMT-0400 (Eastern Daylight Time)","577837","Match,No Match","html-keyboard-response","113","271440","0.0-7.0-3.15","","null","","<div class='trialBorder'><div class='vertical-center'><img src='img/fixation2_sml.jpg'</img></div></div>","null","DELAY","","","","","","","","","","",""
"","","","","5de7fd8df31ad27743f8d19f","bdp_wmem","Thu Jul 28 2022 12:09:20 GMT-0400 (Eastern Daylight Time)","577837","Match,No Match","html-keyboard-response","114","273318","0.0-7.0-4.15","","1877","","<div class='trialBorder'><div class='targDiv'><div class='tc'><img class='introPic' src='trustrating_stim/white_mw003.bmp'><br><font color='green'><strong>Share</strong></font></div></div><div class='respDiv'><div class='respDivL'>Match<br>(e)</div><div class='respDivR'>No Match<br>(i)</div></div></div>","i","TARGET","1","trustrating_stim/white_mw003.bmp","0","noMatchOutcome","i","1500","trustrating_stim/white_mw003.bmp","green","Share","REAL","1"
"","","","","5de7fd8df31ad27743f8d19f","bdp_wmem","Thu Jul 28 2022 12:09:20 GMT-0400 (Eastern Daylight Time)","577837","Match,No Match","html-keyboard-response","115","273820","0.0-7.0-5.15","","null","","<div class='trialBorder'><div class='vertical-center'><img src='img/correct.jpg'></div><div class='respDiv'><div class='respDivL'>Match<br>(e)</div><div class='respDivR'><font style='color:orange'>No Match<br>(i)</font></div></div></div>","null","FEEDBACK","","","","","","","","","","",""
"","","","","5de7fd8df31ad27743f8d19f","bdp_wmem","Thu Jul 28 2022 12:09:20 GMT-0400 (Eastern Daylight Time)","577837","Match,No Match","html-keyboard-response","116","274322","0.0-7.0-1.16","","null","","<div class='trialBorder'><div class='vertical-center'><img src='img/fixation2_sml.jpg'</img></div></div>","null","FIX","","","","","","","","","","",""
"","","","","5de7fd8df31ad27743f8d19f","bdp_wmem","Thu Jul 28 2022 12:09:20 GMT-0400 (Eastern Daylight Time)","577837","Match,No Match","html-keyboard-response","117","277324","0.0-7.0-2.16","","null","","<div class='trialBorder'><div class='vertical-center'><img style='vertical-align:center; align:center' src='img/fixation2_sml.jpg'></div><div class='arrayDiv2'><div class='tl'><img class='introPic' src='trustrating_stim/white_mw013.bmp'><br><font color='red'><strong>Keep</strong></font></div><div class='tr'><img class='introPic' src='trustrating_stim/white_mw010.bmp'><br><font color='green'><strong>Share</strong></font></div></div></div>","null","ARRAY","2","trustrating_stim/white_mw013.bmp,trustrating_stim/white_mw010.bmp","0,1","noMatchFace","i","3000","","","","",""
"","","","","5de7fd8df31ad27743f8d19f","bdp_wmem","Thu Jul 28 2022 12:09:20 GMT-0400 (Eastern Daylight Time)","577837","Match,No Match","html-keyboard-response","118","281325","0.0-7.0-3.16","","null","","<div class='trialBorder'><div class='vertical-center'><img src='img/fixation2_sml.jpg'</img></div></div>","null","DELAY","","","","","","","","","","",""
"","","","","5de7fd8df31ad27743f8d19f","bdp_wmem","Thu Jul 28 2022 12:09:20 GMT-0400 (Eastern Daylight Time)","577837","Match,No Match","html-keyboard-response","119","282418","0.0-7.0-4.16","","1092","","<div class='trialBorder'><div class='targDiv'><div class='tc'><img class='introPic' src='trustrating_stim/white_mw070.bmp'><br><font color='green'><strong>Share</strong></font></div></div><div class='respDiv'><div class='respDivL'>Match<br>(e)</div><div class='respDivR'>No Match<br>(i)</div></div></div>","i","TARGET","2","trustrating_stim/white_mw013.bmp,trustrating_stim/white_mw010.bmp","0,1","noMatchFace","i","3000","trustrating_stim/white_mw070.bmp","green","Share","REAL","1"
"","","","","5de7fd8df31ad27743f8d19f","bdp_wmem","Thu Jul 28 2022 12:09:20 GMT-0400 (Eastern Daylight Time)","577837","Match,No Match","html-keyboard-response","120","282919","0.0-7.0-5.16","","null","","<div class='trialBorder'><div class='vertical-center'><img src='img/correct.jpg'></div><div class='respDiv'><div class='respDivL'>Match<br>(e)</div><div class='respDivR'><font style='color:orange'>No Match<br>(i)</font></div></div></div>","null","FEEDBACK","","","","","","","","","","",""
"","","","","5de7fd8df31ad27743f8d19f","bdp_wmem","Thu Jul 28 2022 12:09:20 GMT-0400 (Eastern Daylight Time)","577837","Match,No Match","html-keyboard-response","121","283421","0.0-7.0-1.17","","null","","<div class='trialBorder'><div class='vertical-center'><img src='img/fixation2_sml.jpg'</img></div></div>","null","FIX","","","","","","","","","","",""
"","","","","5de7fd8df31ad27743f8d19f","bdp_wmem","Thu Jul 28 2022 12:09:20 GMT-0400 (Eastern Daylight Time)","577837","Match,No Match","html-keyboard-response","122","284922","0.0-7.0-2.17","","null","","<div class='trialBorder'><div class='vertical-center'><img style='vertical-align:center; align:center' src='img/fixation2_sml.jpg'></div><div class='arrayDiv1'><div class='tc'><img class='introPic' src='trustrating_stim/white_mw092.bmp'><br><font color='green'><strong>Share</strong></font></div></div></div>","null","ARRAY","1","trustrating_stim/white_mw092.bmp","1","noMatchFace","i","1500","","","","",""
"","","","","5de7fd8df31ad27743f8d19f","bdp_wmem","Thu Jul 28 2022 12:09:20 GMT-0400 (Eastern Daylight Time)","577837","Match,No Match","html-keyboard-response","123","288923","0.0-7.0-3.17","","null","","<div class='trialBorder'><div class='vertical-center'><img src='img/fixation2_sml.jpg'</img></div></div>","null","DELAY","","","","","","","","","","",""
"","","","","5de7fd8df31ad27743f8d19f","bdp_wmem","Thu Jul 28 2022 12:09:20 GMT-0400 (Eastern Daylight Time)","577837","Match,No Match","html-keyboard-response","124","290480","0.0-7.0-4.17","","1557","","<div class='trialBorder'><div class='targDiv'><div class='tc'><img class='introPic' src='trustrating_stim/white_mw078.bmp'><br><font color='green'><strong>Share</strong></font></div></div><div class='respDiv'><div class='respDivL'>Match<br>(e)</div><div class='respDivR'>No Match<br>(i)</div></div></div>","i","TARGET","1","trustrating_stim/white_mw092.bmp","1","noMatchFace","i","1500","trustrating_stim/white_mw078.bmp","green","Share","REAL","1"
"","","","","5de7fd8df31ad27743f8d19f","bdp_wmem","Thu Jul 28 2022 12:09:20 GMT-0400 (Eastern Daylight Time)","577837","Match,No Match","html-keyboard-response","125","290987","0.0-7.0-5.17","","null","","<div class='trialBorder'><div class='vertical-center'><img src='img/correct.jpg'></div><div class='respDiv'><div class='respDivL'>Match<br>(e)</div><div class='respDivR'><font style='color:orange'>No Match<br>(i)</font></div></div></div>","null","FEEDBACK","","","","","","","","","","",""
"","","","","5de7fd8df31ad27743f8d19f","bdp_wmem","Thu Jul 28 2022 12:09:20 GMT-0400 (Eastern Daylight Time)","577837","Match,No Match","html-keyboard-response","126","291487","0.0-7.0-1.18","","null","","<div class='trialBorder'><div class='vertical-center'><img src='img/fixation2_sml.jpg'</img></div></div>","null","FIX","","","","","","","","","","",""
"","","","","5de7fd8df31ad27743f8d19f","bdp_wmem","Thu Jul 28 2022 12:09:20 GMT-0400 (Eastern Daylight Time)","577837","Match,No Match","html-keyboard-response","127","294491","0.0-7.0-2.18","","null","","<div class='trialBorder'><div class='vertical-center'><img style='vertical-align:center; align:center' src='img/fixation2_sml.jpg'></div><div class='arrayDiv2'><div class='tl'><img class='introPic' src='trustrating_stim/white_mw070.bmp'><br><font color='red'><strong>Keep</strong></font></div><div class='tr'><img class='introPic' src='trustrating_stim/white_mw091.bmp'><br><font color='green'><strong>Share</strong></font></div></div></div>","null","ARRAY","2","trustrating_stim/white_mw070.bmp,trustrating_stim/white_mw091.bmp","0,1","noMatchFace","i","3000","","","","",""
"","","","","5de7fd8df31ad27743f8d19f","bdp_wmem","Thu Jul 28 2022 12:09:20 GMT-0400 (Eastern Daylight Time)","577837","Match,No Match","html-keyboard-response","128","298491","0.0-7.0-3.18","","null","","<div class='trialBorder'><div class='vertical-center'><img src='img/fixation2_sml.jpg'</img></div></div>","null","DELAY","","","","","","","","","","",""
"","","","","5de7fd8df31ad27743f8d19f","bdp_wmem","Thu Jul 28 2022 12:09:20 GMT-0400 (Eastern Daylight Time)","577837","Match,No Match","html-keyboard-response","129","299718","0.0-7.0-4.18","","1227","","<div class='trialBorder'><div class='targDiv'><div class='tc'><img class='introPic' src='trustrating_stim/white_mw038.bmp'><br><font color='red'><strong>Keep</strong></font></div></div><div class='respDiv'><div class='respDivL'>Match<br>(e)</div><div class='respDivR'>No Match<br>(i)</div></div></div>","i","TARGET","2","trustrating_stim/white_mw070.bmp,trustrating_stim/white_mw091.bmp","0,1","noMatchFace","i","3000","trustrating_stim/white_mw038.bmp","red","Keep","REAL","1"
"","","","","5de7fd8df31ad27743f8d19f","bdp_wmem","Thu Jul 28 2022 12:09:20 GMT-0400 (Eastern Daylight Time)","577837","Match,No Match","html-keyboard-response","130","300220","0.0-7.0-5.18","","null","","<div class='trialBorder'><div class='vertical-center'><img src='img/correct.jpg'></div><div class='respDiv'><div class='respDivL'>Match<br>(e)</div><div class='respDivR'><font style='color:orange'>No Match<br>(i)</font></div></div></div>","null","FEEDBACK","","","","","","","","","","",""
"","","","","5de7fd8df31ad27743f8d19f","bdp_wmem","Thu Jul 28 2022 12:09:20 GMT-0400 (Eastern Daylight Time)","577837","Match,No Match","html-keyboard-response","131","300723","0.0-7.0-1.19","","null","","<div class='trialBorder'><div class='vertical-center'><img src='img/fixation2_sml.jpg'</img></div></div>","null","FIX","","","","","","","","","","",""
"","","","","5de7fd8df31ad27743f8d19f","bdp_wmem","Thu Jul 28 2022 12:09:20 GMT-0400 (Eastern Daylight Time)","577837","Match,No Match","html-keyboard-response","132","303723","0.0-7.0-2.19","","null","","<div class='trialBorder'><div class='vertical-center'><img style='vertical-align:center; align:center' src='img/fixation2_sml.jpg'></div><div class='arrayDiv2'><div class='tl'><img class='introPic' src='trustrating_stim/white_mw010.bmp'><br><font color='green'><strong>Share</strong></font></div><div class='tr'><img class='introPic' src='trustrating_stim/white_mw040.bmp'><br><font color='red'><strong>Keep</strong></font></div></div></div>","null","ARRAY","2","trustrating_stim/white_mw010.bmp,trustrating_stim/white_mw040.bmp","1,0","Match","e","3000","","","","",""
"","","","","5de7fd8df31ad27743f8d19f","bdp_wmem","Thu Jul 28 2022 12:09:20 GMT-0400 (Eastern Daylight Time)","577837","Match,No Match","html-keyboard-response","133","307725","0.0-7.0-3.19","","null","","<div class='trialBorder'><div class='vertical-center'><img src='img/fixation2_sml.jpg'</img></div></div>","null","DELAY","","","","","","","","","","",""
"","","","","5de7fd8df31ad27743f8d19f","bdp_wmem","Thu Jul 28 2022 12:09:20 GMT-0400 (Eastern Daylight Time)","577837","Match,No Match","html-keyboard-response","134","309194","0.0-7.0-4.19","","1469","","<div class='trialBorder'><div class='targDiv'><div class='tc'><img class='introPic' src='trustrating_stim/white_mw040.bmp'><br><font color='red'><strong>Keep</strong></font></div></div><div class='respDiv'><div class='respDivL'>Match<br>(e)</div><div class='respDivR'>No Match<br>(i)</div></div></div>","e","TARGET","2","trustrating_stim/white_mw010.bmp,trustrating_stim/white_mw040.bmp","1,0","Match","e","3000","trustrating_stim/white_mw040.bmp","red","Keep","REAL","1"
"","","","","5de7fd8df31ad27743f8d19f","bdp_wmem","Thu Jul 28 2022 12:09:20 GMT-0400 (Eastern Daylight Time)","577837","Match,No Match","html-keyboard-response","135","309696","0.0-7.0-5.19","","null","","<div class='trialBorder'><div class='vertical-center'><img src='img/correct.jpg'></div><div class='respDiv'><div class='respDivL'><font style='color:orange'>Match<br>(e)</font></div><div class='respDivR'>No Match<br>(i)</div></div></div>","null","FEEDBACK","","","","","","","","","","",""
"","","","","5de7fd8df31ad27743f8d19f","bdp_wmem","Thu Jul 28 2022 12:09:20 GMT-0400 (Eastern Daylight Time)","577837","Match,No Match","html-keyboard-response","136","310197","0.0-7.0-1.20","","null","","<div class='trialBorder'><div class='vertical-center'><img src='img/fixation2_sml.jpg'</img></div></div>","null","FIX","","","","","","","","","","",""
"","","","","5de7fd8df31ad27743f8d19f","bdp_wmem","Thu Jul 28 2022 12:09:20 GMT-0400 (Eastern Daylight Time)","577837","Match,No Match","html-keyboard-response","137","313200","0.0-7.0-2.20","","null","","<div class='trialBorder'><div class='vertical-center'><img style='vertical-align:center; align:center' src='img/fixation2_sml.jpg'></div><div class='arrayDiv2'><div class='tl'><img class='introPic' src='trustrating_stim/white_mw040.bmp'><br><font color='green'><strong>Share</strong></font></div><div class='tr'><img class='introPic' src='trustrating_stim/white_mw012.bmp'><br><font color='red'><strong>Keep</strong></font></div></div></div>","null","ARRAY","2","trustrating_stim/white_mw040.bmp,trustrating_stim/white_mw012.bmp","1,0","noMatchOutcome","i","3000","","","","",""
"","","","","5de7fd8df31ad27743f8d19f","bdp_wmem","Thu Jul 28 2022 12:09:20 GMT-0400 (Eastern Daylight Time)","577837","Match,No Match","html-keyboard-response","138","317201","0.0-7.0-3.20","","null","","<div class='trialBorder'><div class='vertical-center'><img src='img/fixation2_sml.jpg'</img></div></div>","null","DELAY","","","","","","","","","","",""
"","","","","5de7fd8df31ad27743f8d19f","bdp_wmem","Thu Jul 28 2022 12:09:20 GMT-0400 (Eastern Daylight Time)","577837","Match,No Match","html-keyboard-response","139","318757","0.0-7.0-4.20","","1555","","<div class='trialBorder'><div class='targDiv'><div class='tc'><img class='introPic' src='trustrating_stim/white_mw012.bmp'><br><font color='green'><strong>Share</strong></font></div></div><div class='respDiv'><div class='respDivL'>Match<br>(e)</div><div class='respDivR'>No Match<br>(i)</div></div></div>","i","TARGET","2","trustrating_stim/white_mw040.bmp,trustrating_stim/white_mw012.bmp","1,0","noMatchOutcome","i","3000","trustrating_stim/white_mw012.bmp","green","Share","REAL","1"
"","","","","5de7fd8df31ad27743f8d19f","bdp_wmem","Thu Jul 28 2022 12:09:20 GMT-0400 (Eastern Daylight Time)","577837","Match,No Match","html-keyboard-response","140","319261","0.0-7.0-5.20","","null","","<div class='trialBorder'><div class='vertical-center'><img src='img/correct.jpg'></div><div class='respDiv'><div class='respDivL'>Match<br>(e)</div><div class='respDivR'><font style='color:orange'>No Match<br>(i)</font></div></div></div>","null","FEEDBACK","","","","","","","","","","",""
"","","","","5de7fd8df31ad27743f8d19f","bdp_wmem","Thu Jul 28 2022 12:09:20 GMT-0400 (Eastern Daylight Time)","577837","Match,No Match","html-keyboard-response","141","319763","0.0-7.0-1.21","","null","","<div class='trialBorder'><div class='vertical-center'><img src='img/fixation2_sml.jpg'</img></div></div>","null","FIX","","","","","","","","","","",""
"","","","","5de7fd8df31ad27743f8d19f","bdp_wmem","Thu Jul 28 2022 12:09:20 GMT-0400 (Eastern Daylight Time)","577837","Match,No Match","html-keyboard-response","142","321267","0.0-7.0-2.21","","null","","<div class='trialBorder'><div class='vertical-center'><img style='vertical-align:center; align:center' src='img/fixation2_sml.jpg'></div><div class='arrayDiv1'><div class='tc'><img class='introPic' src='trustrating_stim/white_mw042.bmp'><br><font color='green'><strong>Share</strong></font></div></div></div>","null","ARRAY","1","trustrating_stim/white_mw042.bmp","1","noMatchOutcome","i","1500","","","","",""
"","","","","5de7fd8df31ad27743f8d19f","bdp_wmem","Thu Jul 28 2022 12:09:20 GMT-0400 (Eastern Daylight Time)","577837","Match,No Match","html-keyboard-response","143","325268","0.0-7.0-3.21","","null","","<div class='trialBorder'><div class='vertical-center'><img src='img/fixation2_sml.jpg'</img></div></div>","null","DELAY","","","","","","","","","","",""
"","","","","5de7fd8df31ad27743f8d19f","bdp_wmem","Thu Jul 28 2022 12:09:20 GMT-0400 (Eastern Daylight Time)","577837","Match,No Match","html-keyboard-response","144","327270","0.0-7.0-4.21","","2002","","<div class='trialBorder'><div class='targDiv'><div class='tc'><img class='introPic' src='trustrating_stim/white_mw042.bmp'><br><font color='red'><strong>Keep</strong></font></div></div><div class='respDiv'><div class='respDivL'>Match<br>(e)</div><div class='respDivR'>No Match<br>(i)</div></div></div>","e","TARGET","1","trustrating_stim/white_mw042.bmp","1","noMatchOutcome","i","1500","trustrating_stim/white_mw042.bmp","red","Keep","REAL","0"
"","","","","5de7fd8df31ad27743f8d19f","bdp_wmem","Thu Jul 28 2022 12:09:20 GMT-0400 (Eastern Daylight Time)","577837","Match,No Match","html-keyboard-response","145","327774","0.0-7.0-5.21","","null","","<div class='trialBorder'><div class='vertical-center'><img src='img/error.jpg'></div><div class='respDiv'><div class='respDivL'><font style='color:orange'>Match<br>(e)</font></div><div class='respDivR'>No Match<br>(i)</div></div></div>","null","FEEDBACK","","","","","","","","","","",""
"","","","","5de7fd8df31ad27743f8d19f","bdp_wmem","Thu Jul 28 2022 12:09:20 GMT-0400 (Eastern Daylight Time)","577837","Match,No Match","html-keyboard-response","146","328274","0.0-7.0-1.22","","null","","<div class='trialBorder'><div class='vertical-center'><img src='img/fixation2_sml.jpg'</img></div></div>","null","FIX","","","","","","","","","","",""
"","","","","5de7fd8df31ad27743f8d19f","bdp_wmem","Thu Jul 28 2022 12:09:20 GMT-0400 (Eastern Daylight Time)","577837","Match,No Match","html-keyboard-response","147","332781","0.0-7.0-2.22","","null","","<div class='trialBorder'><div class='vertical-center'><img style='vertical-align:center; align:center' src='img/fixation2_sml.jpg'></div><div class='arrayDiv3'><div class='tl'><img class='introPic' src='trustrating_stim/white_mw070.bmp'><br><font color='green'><strong>Share</strong></font></div><div class='tc'><img class='introPic' src='trustrating_stim/white_mw085.bmp'><br><font color='green'><strong>Share</strong></font></div><div class='tr'><img class='introPic' src='trustrating_stim/white_mw040.bmp'><br><font color='red'><strong>Keep</strong></font></div></div></div>","null","ARRAY","3","trustrating_stim/white_mw070.bmp,trustrating_stim/white_mw085.bmp,trustrating_stim/white_mw040.bmp","1,1,0","Match","e","4500","","","","",""
"","","","","5de7fd8df31ad27743f8d19f","bdp_wmem","Thu Jul 28 2022 12:09:20 GMT-0400 (Eastern Daylight Time)","577837","Match,No Match","html-keyboard-response","148","336784","0.0-7.0-3.22","","null","","<div class='trialBorder'><div class='vertical-center'><img src='img/fixation2_sml.jpg'</img></div></div>","null","DELAY","","","","","","","","","","",""
"","","","","5de7fd8df31ad27743f8d19f","bdp_wmem","Thu Jul 28 2022 12:09:20 GMT-0400 (Eastern Daylight Time)","577837","Match,No Match","html-keyboard-response","149","338257","0.0-7.0-4.22","","1473","","<div class='trialBorder'><div class='targDiv'><div class='tc'><img class='introPic' src='trustrating_stim/white_mw040.bmp'><br><font color='red'><strong>Keep</strong></font></div></div><div class='respDiv'><div class='respDivL'>Match<br>(e)</div><div class='respDivR'>No Match<br>(i)</div></div></div>","e","TARGET","3","trustrating_stim/white_mw070.bmp,trustrating_stim/white_mw085.bmp,trustrating_stim/white_mw040.bmp","1,1,0","Match","e","4500","trustrating_stim/white_mw040.bmp","red","Keep","REAL","1"
"","","","","5de7fd8df31ad27743f8d19f","bdp_wmem","Thu Jul 28 2022 12:09:20 GMT-0400 (Eastern Daylight Time)","577837","Match,No Match","html-keyboard-response","150","338758","0.0-7.0-5.22","","null","","<div class='trialBorder'><div class='vertical-center'><img src='img/correct.jpg'></div><div class='respDiv'><div class='respDivL'><font style='color:orange'>Match<br>(e)</font></div><div class='respDivR'>No Match<br>(i)</div></div></div>","null","FEEDBACK","","","","","","","","","","",""
"","","","","5de7fd8df31ad27743f8d19f","bdp_wmem","Thu Jul 28 2022 12:09:20 GMT-0400 (Eastern Daylight Time)","577837","Match,No Match","html-keyboard-response","151","339262","0.0-7.0-1.23","","null","","<div class='trialBorder'><div class='vertical-center'><img src='img/fixation2_sml.jpg'</img></div></div>","null","FIX","","","","","","","","","","",""
"","","","","5de7fd8df31ad27743f8d19f","bdp_wmem","Thu Jul 28 2022 12:09:20 GMT-0400 (Eastern Daylight Time)","577837","Match,No Match","html-keyboard-response","152","342264","0.0-7.0-2.23","","null","","<div class='trialBorder'><div class='vertical-center'><img style='vertical-align:center; align:center' src='img/fixation2_sml.jpg'></div><div class='arrayDiv2'><div class='tl'><img class='introPic' src='trustrating_stim/white_mw092.bmp'><br><font color='red'><strong>Keep</strong></font></div><div class='tr'><img class='introPic' src='trustrating_stim/white_mw042.bmp'><br><font color='green'><strong>Share</strong></font></div></div></div>","null","ARRAY","2","trustrating_stim/white_mw092.bmp,trustrating_stim/white_mw042.bmp","0,1","noMatchFace","i","3000","","","","",""
"","","","","5de7fd8df31ad27743f8d19f","bdp_wmem","Thu Jul 28 2022 12:09:20 GMT-0400 (Eastern Daylight Time)","577837","Match,No Match","html-keyboard-response","153","346265","0.0-7.0-3.23","","null","","<div class='trialBorder'><div class='vertical-center'><img src='img/fixation2_sml.jpg'</img></div></div>","null","DELAY","","","","","","","","","","",""
"","","","","5de7fd8df31ad27743f8d19f","bdp_wmem","Thu Jul 28 2022 12:09:20 GMT-0400 (Eastern Daylight Time)","577837","Match,No Match","html-keyboard-response","154","347595","0.0-7.0-4.23","","1329","","<div class='trialBorder'><div class='targDiv'><div class='tc'><img class='introPic' src='trustrating_stim/white_mw038.bmp'><br><font color='red'><strong>Keep</strong></font></div></div><div class='respDiv'><div class='respDivL'>Match<br>(e)</div><div class='respDivR'>No Match<br>(i)</div></div></div>","i","TARGET","2","trustrating_stim/white_mw092.bmp,trustrating_stim/white_mw042.bmp","0,1","noMatchFace","i","3000","trustrating_stim/white_mw038.bmp","red","Keep","REAL","1"
"","","","","5de7fd8df31ad27743f8d19f","bdp_wmem","Thu Jul 28 2022 12:09:20 GMT-0400 (Eastern Daylight Time)","577837","Match,No Match","html-keyboard-response","155","348099","0.0-7.0-5.23","","null","","<div class='trialBorder'><div class='vertical-center'><img src='img/correct.jpg'></div><div class='respDiv'><div class='respDivL'>Match<br>(e)</div><div class='respDivR'><font style='color:orange'>No Match<br>(i)</font></div></div></div>","null","FEEDBACK","","","","","","","","","","",""
"","","","","5de7fd8df31ad27743f8d19f","bdp_wmem","Thu Jul 28 2022 12:09:20 GMT-0400 (Eastern Daylight Time)","577837","Match,No Match","html-keyboard-response","156","348604","0.0-7.0-1.24","","null","","<div class='trialBorder'><div class='vertical-center'><img src='img/fixation2_sml.jpg'</img></div></div>","null","FIX","","","","","","","","","","",""
"","","","","5de7fd8df31ad27743f8d19f","bdp_wmem","Thu Jul 28 2022 12:09:20 GMT-0400 (Eastern Daylight Time)","577837","Match,No Match","html-keyboard-response","157","353107","0.0-7.0-2.24","","null","","<div class='trialBorder'><div class='vertical-center'><img style='vertical-align:center; align:center' src='img/fixation2_sml.jpg'></div><div class='arrayDiv3'><div class='tl'><img class='introPic' src='trustrating_stim/white_mw091.bmp'><br><font color='red'><strong>Keep</strong></font></div><div class='tc'><img class='introPic' src='trustrating_stim/white_mw013.bmp'><br><font color='red'><strong>Keep</strong></font></div><div class='tr'><img class='introPic' src='trustrating_stim/white_mw003.bmp'><br><font color='green'><strong>Share</strong></font></div></div></div>","null","ARRAY","3","trustrating_stim/white_mw091.bmp,trustrating_stim/white_mw013.bmp,trustrating_stim/white_mw003.bmp","0,0,1","Match","e","4500","","","","",""
"","","","","5de7fd8df31ad27743f8d19f","bdp_wmem","Thu Jul 28 2022 12:09:20 GMT-0400 (Eastern Daylight Time)","577837","Match,No Match","html-keyboard-response","158","357110","0.0-7.0-3.24","","null","","<div class='trialBorder'><div class='vertical-center'><img src='img/fixation2_sml.jpg'</img></div></div>","null","DELAY","","","","","","","","","","",""
"","","","","5de7fd8df31ad27743f8d19f","bdp_wmem","Thu Jul 28 2022 12:09:20 GMT-0400 (Eastern Daylight Time)","577837","Match,No Match","html-keyboard-response","159","358694","0.0-7.0-4.24","","1584","","<div class='trialBorder'><div class='targDiv'><div class='tc'><img class='introPic' src='trustrating_stim/white_mw091.bmp'><br><font color='red'><strong>Keep</strong></font></div></div><div class='respDiv'><div class='respDivL'>Match<br>(e)</div><div class='respDivR'>No Match<br>(i)</div></div></div>","e","TARGET","3","trustrating_stim/white_mw091.bmp,trustrating_stim/white_mw013.bmp,trustrating_stim/white_mw003.bmp","0,0,1","Match","e","4500","trustrating_stim/white_mw091.bmp","red","Keep","REAL","1"
"","","","","5de7fd8df31ad27743f8d19f","bdp_wmem","Thu Jul 28 2022 12:09:20 GMT-0400 (Eastern Daylight Time)","577837","Match,No Match","html-keyboard-response","160","359198","0.0-7.0-5.24","","null","","<div class='trialBorder'><div class='vertical-center'><img src='img/correct.jpg'></div><div class='respDiv'><div class='respDivL'><font style='color:orange'>Match<br>(e)</font></div><div class='respDivR'>No Match<br>(i)</div></div></div>","null","FEEDBACK","","","","","","","","","","",""
"","","","","5de7fd8df31ad27743f8d19f","bdp_wmem","Thu Jul 28 2022 12:09:20 GMT-0400 (Eastern Daylight Time)","577837","Match,No Match","html-keyboard-response","161","359699","0.0-7.0-1.25","","null","","<div class='trialBorder'><div class='vertical-center'><img src='img/fixation2_sml.jpg'</img></div></div>","null","FIX","","","","","","","","","","",""
"","","","","5de7fd8df31ad27743f8d19f","bdp_wmem","Thu Jul 28 2022 12:09:20 GMT-0400 (Eastern Daylight Time)","577837","Match,No Match","html-keyboard-response","162","364205","0.0-7.0-2.25","","null","","<div class='trialBorder'><div class='vertical-center'><img style='vertical-align:center; align:center' src='img/fixation2_sml.jpg'></div><div class='arrayDiv3'><div class='tl'><img class='introPic' src='trustrating_stim/white_mw085.bmp'><br><font color='red'><strong>Keep</strong></font></div><div class='tc'><img class='introPic' src='trustrating_stim/white_mw012.bmp'><br><font color='green'><strong>Share</strong></font></div><div class='tr'><img class='introPic' src='trustrating_stim/white_mw070.bmp'><br><font color='red'><strong>Keep</strong></font></div></div></div>","null","ARRAY","3","trustrating_stim/white_mw085.bmp,trustrating_stim/white_mw012.bmp,trustrating_stim/white_mw070.bmp","0,1,0","Match","e","4500","","","","",""
"","","","","5de7fd8df31ad27743f8d19f","bdp_wmem","Thu Jul 28 2022 12:09:20 GMT-0400 (Eastern Daylight Time)","577837","Match,No Match","html-keyboard-response","163","368205","0.0-7.0-3.25","","null","","<div class='trialBorder'><div class='vertical-center'><img src='img/fixation2_sml.jpg'</img></div></div>","null","DELAY","","","","","","","","","","",""
"","","","","5de7fd8df31ad27743f8d19f","bdp_wmem","Thu Jul 28 2022 12:09:20 GMT-0400 (Eastern Daylight Time)","577837","Match,No Match","html-keyboard-response","164","370071","0.0-7.0-4.25","","1865","","<div class='trialBorder'><div class='targDiv'><div class='tc'><img class='introPic' src='trustrating_stim/white_mw085.bmp'><br><font color='red'><strong>Keep</strong></font></div></div><div class='respDiv'><div class='respDivL'>Match<br>(e)</div><div class='respDivR'>No Match<br>(i)</div></div></div>","i","TARGET","3","trustrating_stim/white_mw085.bmp,trustrating_stim/white_mw012.bmp,trustrating_stim/white_mw070.bmp","0,1,0","Match","e","4500","trustrating_stim/white_mw085.bmp","red","Keep","REAL","0"
"","","","","5de7fd8df31ad27743f8d19f","bdp_wmem","Thu Jul 28 2022 12:09:20 GMT-0400 (Eastern Daylight Time)","577837","Match,No Match","html-keyboard-response","165","370573","0.0-7.0-5.25","","null","","<div class='trialBorder'><div class='vertical-center'><img src='img/error.jpg'></div><div class='respDiv'><div class='respDivL'>Match<br>(e)</div><div class='respDivR'><font style='color:orange'>No Match<br>(i)</font></div></div></div>","null","FEEDBACK","","","","","","","","","","",""
"","","","","5de7fd8df31ad27743f8d19f","bdp_wmem","Thu Jul 28 2022 12:09:20 GMT-0400 (Eastern Daylight Time)","577837","Match,No Match","html-keyboard-response","166","371075","0.0-7.0-1.26","","null","","<div class='trialBorder'><div class='vertical-center'><img src='img/fixation2_sml.jpg'</img></div></div>","null","FIX","","","","","","","","","","",""
"","","","","5de7fd8df31ad27743f8d19f","bdp_wmem","Thu Jul 28 2022 12:09:20 GMT-0400 (Eastern Daylight Time)","577837","Match,No Match","html-keyboard-response","167","375576","0.0-7.0-2.26","","null","","<div class='trialBorder'><div class='vertical-center'><img style='vertical-align:center; align:center' src='img/fixation2_sml.jpg'></div><div class='arrayDiv3'><div class='tl'><img class='introPic' src='trustrating_stim/white_mw070.bmp'><br><font color='green'><strong>Share</strong></font></div><div class='tc'><img class='introPic' src='trustrating_stim/white_mw085.bmp'><br><font color='red'><strong>Keep</strong></font></div><div class='tr'><img class='introPic' src='trustrating_stim/white_mw092.bmp'><br><font color='green'><strong>Share</strong></font></div></div></div>","null","ARRAY","3","trustrating_stim/white_mw070.bmp,trustrating_stim/white_mw085.bmp,trustrating_stim/white_mw092.bmp","1,0,1","Match","e","4500","","","","",""
"","","","","5de7fd8df31ad27743f8d19f","bdp_wmem","Thu Jul 28 2022 12:09:20 GMT-0400 (Eastern Daylight Time)","577837","Match,No Match","html-keyboard-response","168","379577","0.0-7.0-3.26","","null","","<div class='trialBorder'><div class='vertical-center'><img src='img/fixation2_sml.jpg'</img></div></div>","null","DELAY","","","","","","","","","","",""
"","","","","5de7fd8df31ad27743f8d19f","bdp_wmem","Thu Jul 28 2022 12:09:20 GMT-0400 (Eastern Daylight Time)","577837","Match,No Match","html-keyboard-response","169","381095","0.0-7.0-4.26","","1517","","<div class='trialBorder'><div class='targDiv'><div class='tc'><img class='introPic' src='trustrating_stim/white_mw070.bmp'><br><font color='green'><strong>Share</strong></font></div></div><div class='respDiv'><div class='respDivL'>Match<br>(e)</div><div class='respDivR'>No Match<br>(i)</div></div></div>","e","TARGET","3","trustrating_stim/white_mw070.bmp,trustrating_stim/white_mw085.bmp,trustrating_stim/white_mw092.bmp","1,0,1","Match","e","4500","trustrating_stim/white_mw070.bmp","green","Share","REAL","1"
"","","","","5de7fd8df31ad27743f8d19f","bdp_wmem","Thu Jul 28 2022 12:09:20 GMT-0400 (Eastern Daylight Time)","577837","Match,No Match","html-keyboard-response","170","381596","0.0-7.0-5.26","","null","","<div class='trialBorder'><div class='vertical-center'><img src='img/correct.jpg'></div><div class='respDiv'><div class='respDivL'><font style='color:orange'>Match<br>(e)</font></div><div class='respDivR'>No Match<br>(i)</div></div></div>","null","FEEDBACK","","","","","","","","","","",""
"","","","","5de7fd8df31ad27743f8d19f","bdp_wmem","Thu Jul 28 2022 12:09:20 GMT-0400 (Eastern Daylight Time)","577837","Match,No Match","html-keyboard-response","171","382097","0.0-7.0-1.27","","null","","<div class='trialBorder'><div class='vertical-center'><img src='img/fixation2_sml.jpg'</img></div></div>","null","FIX","","","","","","","","","","",""
"","","","","5de7fd8df31ad27743f8d19f","bdp_wmem","Thu Jul 28 2022 12:09:20 GMT-0400 (Eastern Daylight Time)","577837","Match,No Match","html-keyboard-response","172","383598","0.0-7.0-2.27","","null","","<div class='trialBorder'><div class='vertical-center'><img style='vertical-align:center; align:center' src='img/fixation2_sml.jpg'></div><div class='arrayDiv1'><div class='tc'><img class='introPic' src='trustrating_stim/white_mw010.bmp'><br><font color='green'><strong>Share</strong></font></div></div></div>","null","ARRAY","1","trustrating_stim/white_mw010.bmp","1","noMatchOutcome","i","1500","","","","",""
"","","","","5de7fd8df31ad27743f8d19f","bdp_wmem","Thu Jul 28 2022 12:09:20 GMT-0400 (Eastern Daylight Time)","577837","Match,No Match","html-keyboard-response","173","387604","0.0-7.0-3.27","","null","","<div class='trialBorder'><div class='vertical-center'><img src='img/fixation2_sml.jpg'</img></div></div>","null","DELAY","","","","","","","","","","",""
"","","","","5de7fd8df31ad27743f8d19f","bdp_wmem","Thu Jul 28 2022 12:09:20 GMT-0400 (Eastern Daylight Time)","577837","Match,No Match","html-keyboard-response","174","389095","0.0-7.0-4.27","","1490","","<div class='trialBorder'><div class='targDiv'><div class='tc'><img class='introPic' src='trustrating_stim/white_mw010.bmp'><br><font color='red'><strong>Keep</strong></font></div></div><div class='respDiv'><div class='respDivL'>Match<br>(e)</div><div class='respDivR'>No Match<br>(i)</div></div></div>","i","TARGET","1","trustrating_stim/white_mw010.bmp","1","noMatchOutcome","i","1500","trustrating_stim/white_mw010.bmp","red","Keep","REAL","1"
"","","","","5de7fd8df31ad27743f8d19f","bdp_wmem","Thu Jul 28 2022 12:09:20 GMT-0400 (Eastern Daylight Time)","577837","Match,No Match","html-keyboard-response","175","389596","0.0-7.0-5.27","","null","","<div class='trialBorder'><div class='vertical-center'><img src='img/correct.jpg'></div><div class='respDiv'><div class='respDivL'>Match<br>(e)</div><div class='respDivR'><font style='color:orange'>No Match<br>(i)</font></div></div></div>","null","FEEDBACK","","","","","","","","","","",""
"","","","","5de7fd8df31ad27743f8d19f","bdp_wmem","Thu Jul 28 2022 12:09:20 GMT-0400 (Eastern Daylight Time)","577837","Match,No Match","html-keyboard-response","176","390096","0.0-7.0-1.28","","null","","<div class='trialBorder'><div class='vertical-center'><img src='img/fixation2_sml.jpg'</img></div></div>","null","FIX","","","","","","","","","","",""
"","","","","5de7fd8df31ad27743f8d19f","bdp_wmem","Thu Jul 28 2022 12:09:20 GMT-0400 (Eastern Daylight Time)","577837","Match,No Match","html-keyboard-response","177","393098","0.0-7.0-2.28","","null","","<div class='trialBorder'><div class='vertical-center'><img style='vertical-align:center; align:center' src='img/fixation2_sml.jpg'></div><div class='arrayDiv2'><div class='tl'><img class='introPic' src='trustrating_stim/white_mw003.bmp'><br><font color='red'><strong>Keep</strong></font></div><div class='tr'><img class='introPic' src='trustrating_stim/white_mw040.bmp'><br><font color='green'><strong>Share</strong></font></div></div></div>","null","ARRAY","2","trustrating_stim/white_mw003.bmp,trustrating_stim/white_mw040.bmp","0,1","noMatchOutcome","i","3000","","","","",""
"","","","","5de7fd8df31ad27743f8d19f","bdp_wmem","Thu Jul 28 2022 12:09:20 GMT-0400 (Eastern Daylight Time)","577837","Match,No Match","html-keyboard-response","178","397102","0.0-7.0-3.28","","null","","<div class='trialBorder'><div class='vertical-center'><img src='img/fixation2_sml.jpg'</img></div></div>","null","DELAY","","","","","","","","","","",""
"","","","","5de7fd8df31ad27743f8d19f","bdp_wmem","Thu Jul 28 2022 12:09:20 GMT-0400 (Eastern Daylight Time)","577837","Match,No Match","html-keyboard-response","179","398107","0.0-7.0-4.28","","1003","","<div class='trialBorder'><div class='targDiv'><div class='tc'><img class='introPic' src='trustrating_stim/white_mw003.bmp'><br><font color='green'><strong>Share</strong></font></div></div><div class='respDiv'><div class='respDivL'>Match<br>(e)</div><div class='respDivR'>No Match<br>(i)</div></div></div>","i","TARGET","2","trustrating_stim/white_mw003.bmp,trustrating_stim/white_mw040.bmp","0,1","noMatchOutcome","i","3000","trustrating_stim/white_mw003.bmp","green","Share","REAL","1"
"","","","","5de7fd8df31ad27743f8d19f","bdp_wmem","Thu Jul 28 2022 12:09:20 GMT-0400 (Eastern Daylight Time)","577837","Match,No Match","html-keyboard-response","180","398610","0.0-7.0-5.28","","null","","<div class='trialBorder'><div class='vertical-center'><img src='img/correct.jpg'></div><div class='respDiv'><div class='respDivL'>Match<br>(e)</div><div class='respDivR'><font style='color:orange'>No Match<br>(i)</font></div></div></div>","null","FEEDBACK","","","","","","","","","","",""
"","","","","5de7fd8df31ad27743f8d19f","bdp_wmem","Thu Jul 28 2022 12:09:20 GMT-0400 (Eastern Daylight Time)","577837","Match,No Match","html-keyboard-response","181","399111","0.0-7.0-1.29","","null","","<div class='trialBorder'><div class='vertical-center'><img src='img/fixation2_sml.jpg'</img></div></div>","null","FIX","","","","","","","","","","",""
"","","","","5de7fd8df31ad27743f8d19f","bdp_wmem","Thu Jul 28 2022 12:09:20 GMT-0400 (Eastern Daylight Time)","577837","Match,No Match","html-keyboard-response","182","400611","0.0-7.0-2.29","","null","","<div class='trialBorder'><div class='vertical-center'><img style='vertical-align:center; align:center' src='img/fixation2_sml.jpg'></div><div class='arrayDiv1'><div class='tc'><img class='introPic' src='trustrating_stim/white_mw003.bmp'><br><font color='red'><strong>Keep</strong></font></div></div></div>","null","ARRAY","1","trustrating_stim/white_mw003.bmp","0","Match","e","1500","","","","",""
"","","","","5de7fd8df31ad27743f8d19f","bdp_wmem","Thu Jul 28 2022 12:09:20 GMT-0400 (Eastern Daylight Time)","577837","Match,No Match","html-keyboard-response","183","404612","0.0-7.0-3.29","","null","","<div class='trialBorder'><div class='vertical-center'><img src='img/fixation2_sml.jpg'</img></div></div>","null","DELAY","","","","","","","","","","",""
"","","","","5de7fd8df31ad27743f8d19f","bdp_wmem","Thu Jul 28 2022 12:09:20 GMT-0400 (Eastern Daylight Time)","577837","Match,No Match","html-keyboard-response","184","405433","0.0-7.0-4.29","","821","","<div class='trialBorder'><div class='targDiv'><div class='tc'><img class='introPic' src='trustrating_stim/white_mw003.bmp'><br><font color='red'><strong>Keep</strong></font></div></div><div class='respDiv'><div class='respDivL'>Match<br>(e)</div><div class='respDivR'>No Match<br>(i)</div></div></div>","e","TARGET","1","trustrating_stim/white_mw003.bmp","0","Match","e","1500","trustrating_stim/white_mw003.bmp","red","Keep","REAL","1"
"","","","","5de7fd8df31ad27743f8d19f","bdp_wmem","Thu Jul 28 2022 12:09:20 GMT-0400 (Eastern Daylight Time)","577837","Match,No Match","html-keyboard-response","185","405934","0.0-7.0-5.29","","null","","<div class='trialBorder'><div class='vertical-center'><img src='img/correct.jpg'></div><div class='respDiv'><div class='respDivL'><font style='color:orange'>Match<br>(e)</font></div><div class='respDivR'>No Match<br>(i)</div></div></div>","null","FEEDBACK","","","","","","","","","","",""
"","","","","5de7fd8df31ad27743f8d19f","bdp_wmem","Thu Jul 28 2022 12:09:20 GMT-0400 (Eastern Daylight Time)","577837","Match,No Match","html-keyboard-response","186","406436","0.0-7.0-1.30","","null","","<div class='trialBorder'><div class='vertical-center'><img src='img/fixation2_sml.jpg'</img></div></div>","null","FIX","","","","","","","","","","",""
"","","","","5de7fd8df31ad27743f8d19f","bdp_wmem","Thu Jul 28 2022 12:09:20 GMT-0400 (Eastern Daylight Time)","577837","Match,No Match","html-keyboard-response","187","410937","0.0-7.0-2.30","","null","","<div class='trialBorder'><div class='vertical-center'><img style='vertical-align:center; align:center' src='img/fixation2_sml.jpg'></div><div class='arrayDiv3'><div class='tl'><img class='introPic' src='trustrating_stim/white_mw070.bmp'><br><font color='red'><strong>Keep</strong></font></div><div class='tc'><img class='introPic' src='trustrating_stim/white_mw092.bmp'><br><font color='green'><strong>Share</strong></font></div><div class='tr'><img class='introPic' src='trustrating_stim/white_mw091.bmp'><br><font color='green'><strong>Share</strong></font></div></div></div>","null","ARRAY","3","trustrating_stim/white_mw070.bmp,trustrating_stim/white_mw092.bmp,trustrating_stim/white_mw091.bmp","0,1,1","noMatchOutcome","i","4500","","","","",""
"","","","","5de7fd8df31ad27743f8d19f","bdp_wmem","Thu Jul 28 2022 12:09:20 GMT-0400 (Eastern Daylight Time)","577837","Match,No Match","html-keyboard-response","188","414939","0.0-7.0-3.30","","null","","<div class='trialBorder'><div class='vertical-center'><img src='img/fixation2_sml.jpg'</img></div></div>","null","DELAY","","","","","","","","","","",""
