"trial_type","trial_index","time_elapsed","internal_node_id","subject_id","task","startTime","totalTime","labels","view_history","rt","event","trial","time","trialtype","success","stimulus","key_press","stimType","arraySize","arrayFaces","arrayOutcomes","matchType","corrResp","arrayDur","targFace","targCol","targOutcome","trialType","corr"
"pavlovia","0","3","0.0-0.0","5de8887aa2db898017debf1a","bdp_wmem","Mon Mar 13 2023 21:27:36 GMT-0700 (Pacific Daylight Time)","643992","Match,No Match","","","","","","","","","","","","","","","","","","","","",""
"instructions","1","1989","0.0-1.0","5de8887aa2db898017debf1a","bdp_wmem","Mon Mar 13 2023 21:27:36 GMT-0700 (Pacific Daylight Time)","643992","Match,No Match","[{""page_index"":0,""viewing_time"":1986}]","1986","","","","","","","","","","","","","","","","","","",""
"","","","","5de8887aa2db898017debf1a","bdp_wmem","Mon Mar 13 2023 21:27:36 GMT-0700 (Pacific Daylight Time)","643992","Match,No Match","","","fullscreenenter","2","3931","fullscreenenter","","","","","","","","","","","","","","",""
"fullscreen","2","4927","0.0-2.0","5de8887aa2db898017debf1a","bdp_wmem","Mon Mar 13 2023 21:27:36 GMT-0700 (Pacific Daylight Time)","643992","Match,No Match","","","","","","","true","","","","","","","","","","","","","",""
"instructions","3","127140","0.0-4.0","5de8887aa2db898017debf1a","bdp_wmem","Mon Mar 13 2023 21:27:36 GMT-0700 (Pacific Daylight Time)","643992","Match,No Match","[{""page_index"":0,""viewing_time"":28949},{""page_index"":1,""viewing_time"":45069},{""page_index"":2,""viewing_time"":13704},{""page_index"":3,""viewing_time"":5428},{""page_index"":4,""viewing_time"":29062}]","122212","","","","","","","","","","","","","","","","","","",""
"html-keyboard-response","4","127651","0.0-5.0-1.0","5de8887aa2db898017debf1a","bdp_wmem","Mon Mar 13 2023 21:27:36 GMT-0700 (Pacific Daylight Time)","643992","Match,No Match","","null","","","","","","<div class='trialBorder'><div class='vertical-center'><img src='img/fixation2_sml.jpg'</img></div></div>","null","FIX","","","","","","","","","","",""
"html-keyboard-response","5","130660","0.0-5.0-2.0","5de8887aa2db898017debf1a","bdp_wmem","Mon Mar 13 2023 21:27:36 GMT-0700 (Pacific Daylight Time)","643992","Match,No Match","","null","","","","","","<div class='trialBorder'><div class='vertical-center'><img style='vertical-align:center; align:center' src='img/fixation2_sml.jpg'></div><div class='arrayDiv2'><div class='tl'><img class='introPic' src='trustrating_stim/white_mw010.bmp'><br><font color='green'><strong>Share</strong></font></div><div class='tr'><img class='introPic' src='trustrating_stim/white_mw085.bmp'><br><font color='red'><strong>Keep</strong></font></div></div></div>","null","ARRAY","2","trustrating_stim/white_mw010.bmp,trustrating_stim/white_mw085.bmp","1,0","noMatchFace","i","3000","","","","",""
"html-keyboard-response","6","134664","0.0-5.0-3.0","5de8887aa2db898017debf1a","bdp_wmem","Mon Mar 13 2023 21:27:36 GMT-0700 (Pacific Daylight Time)","643992","Match,No Match","","null","","","","","","<div class='trialBorder'><div class='vertical-center'><img src='img/fixation2_sml.jpg'</img></div></div>","null","DELAY","","","","","","","","","","",""
"html-keyboard-response","7","137781","0.0-5.0-4.0","5de8887aa2db898017debf1a","bdp_wmem","Mon Mar 13 2023 21:27:36 GMT-0700 (Pacific Daylight Time)","643992","Match,No Match","","3115","","","","","","<div class='trialBorder'><div class='targDiv'><div class='tc'><img class='introPic' src='trustrating_stim/white_mw091.bmp'><br><font color='green'><strong>Share</strong></font></div></div><div class='respDiv'><div class='respDivL'>Match<br>(e)</div><div class='respDivR'>No Match<br>(i)</div></div></div>","i","TARGET","2","trustrating_stim/white_mw010.bmp,trustrating_stim/white_mw085.bmp","1,0","noMatchFace","i","3000","trustrating_stim/white_mw091.bmp","green","Share","PRACTICE","1"
"html-keyboard-response","8","138291","0.0-5.0-5.0","5de8887aa2db898017debf1a","bdp_wmem","Mon Mar 13 2023 21:27:36 GMT-0700 (Pacific Daylight Time)","643992","Match,No Match","","null","","","","","","<div class='trialBorder'><div class='vertical-center'><img src='img/correct.jpg'></div><div class='respDiv'><div class='respDivL'>Match<br>(e)</div><div class='respDivR'><font style='color:orange'>No Match<br>(i)</font></div></div></div>","null","FEEDBACK","","","","","","","","","","",""
"html-keyboard-response","9","138795","0.0-5.0-1.1","5de8887aa2db898017debf1a","bdp_wmem","Mon Mar 13 2023 21:27:36 GMT-0700 (Pacific Daylight Time)","643992","Match,No Match","","null","","","","","","<div class='trialBorder'><div class='vertical-center'><img src='img/fixation2_sml.jpg'</img></div></div>","null","FIX","","","","","","","","","","",""
"html-keyboard-response","10","143304","0.0-5.0-2.1","5de8887aa2db898017debf1a","bdp_wmem","Mon Mar 13 2023 21:27:36 GMT-0700 (Pacific Daylight Time)","643992","Match,No Match","","null","","","","","","<div class='trialBorder'><div class='vertical-center'><img style='vertical-align:center; align:center' src='img/fixation2_sml.jpg'></div><div class='arrayDiv3'><div class='tl'><img class='introPic' src='trustrating_stim/white_mw038.bmp'><br><font color='green'><strong>Share</strong></font></div><div class='tc'><img class='introPic' src='trustrating_stim/white_mw070.bmp'><br><font color='red'><strong>Keep</strong></font></div><div class='tr'><img class='introPic' src='trustrating_stim/white_mw042.bmp'><br><font color='green'><strong>Share</strong></font></div></div></div>","null","ARRAY","3","trustrating_stim/white_mw038.bmp,trustrating_stim/white_mw070.bmp,trustrating_stim/white_mw042.bmp","1,0,1","Match","e","4500","","","","",""
"html-keyboard-response","11","147314","0.0-5.0-3.1","5de8887aa2db898017debf1a","bdp_wmem","Mon Mar 13 2023 21:27:36 GMT-0700 (Pacific Daylight Time)","643992","Match,No Match","","null","","","","","","<div class='trialBorder'><div class='vertical-center'><img src='img/fixation2_sml.jpg'</img></div></div>","null","DELAY","","","","","","","","","","",""
"html-keyboard-response","12","148943","0.0-5.0-4.1","5de8887aa2db898017debf1a","bdp_wmem","Mon Mar 13 2023 21:27:36 GMT-0700 (Pacific Daylight Time)","643992","Match,No Match","","1626","","","","","","<div class='trialBorder'><div class='targDiv'><div class='tc'><img class='introPic' src='trustrating_stim/white_mw042.bmp'><br><font color='green'><strong>Share</strong></font></div></div><div class='respDiv'><div class='respDivL'>Match<br>(e)</div><div class='respDivR'>No Match<br>(i)</div></div></div>","e","TARGET","3","trustrating_stim/white_mw038.bmp,trustrating_stim/white_mw070.bmp,trustrating_stim/white_mw042.bmp","1,0,1","Match","e","4500","trustrating_stim/white_mw042.bmp","green","Share","PRACTICE","1"
"html-keyboard-response","13","149447","0.0-5.0-5.1","5de8887aa2db898017debf1a","bdp_wmem","Mon Mar 13 2023 21:27:36 GMT-0700 (Pacific Daylight Time)","643992","Match,No Match","","null","","","","","","<div class='trialBorder'><div class='vertical-center'><img src='img/correct.jpg'></div><div class='respDiv'><div class='respDivL'><font style='color:orange'>Match<br>(e)</font></div><div class='respDivR'>No Match<br>(i)</div></div></div>","null","FEEDBACK","","","","","","","","","","",""
"html-keyboard-response","14","149955","0.0-5.0-1.2","5de8887aa2db898017debf1a","bdp_wmem","Mon Mar 13 2023 21:27:36 GMT-0700 (Pacific Daylight Time)","643992","Match,No Match","","null","","","","","","<div class='trialBorder'><div class='vertical-center'><img src='img/fixation2_sml.jpg'</img></div></div>","null","FIX","","","","","","","","","","",""
"html-keyboard-response","15","151463","0.0-5.0-2.2","5de8887aa2db898017debf1a","bdp_wmem","Mon Mar 13 2023 21:27:36 GMT-0700 (Pacific Daylight Time)","643992","Match,No Match","","null","","","","","","<div class='trialBorder'><div class='vertical-center'><img style='vertical-align:center; align:center' src='img/fixation2_sml.jpg'></div><div class='arrayDiv1'><div class='tc'><img class='introPic' src='trustrating_stim/white_mw040.bmp'><br><font color='green'><strong>Share</strong></font></div></div></div>","null","ARRAY","1","trustrating_stim/white_mw040.bmp","1","noMatchFace","i","1500","","","","",""
"html-keyboard-response","16","155474","0.0-5.0-3.2","5de8887aa2db898017debf1a","bdp_wmem","Mon Mar 13 2023 21:27:36 GMT-0700 (Pacific Daylight Time)","643992","Match,No Match","","null","","","","","","<div class='trialBorder'><div class='vertical-center'><img src='img/fixation2_sml.jpg'</img></div></div>","null","DELAY","","","","","","","","","","",""
"html-keyboard-response","17","156381","0.0-5.0-4.2","5de8887aa2db898017debf1a","bdp_wmem","Mon Mar 13 2023 21:27:36 GMT-0700 (Pacific Daylight Time)","643992","Match,No Match","","904","","","","","","<div class='trialBorder'><div class='targDiv'><div class='tc'><img class='introPic' src='trustrating_stim/white_mw091.bmp'><br><font color='green'><strong>Share</strong></font></div></div><div class='respDiv'><div class='respDivL'>Match<br>(e)</div><div class='respDivR'>No Match<br>(i)</div></div></div>","i","TARGET","1","trustrating_stim/white_mw040.bmp","1","noMatchFace","i","1500","trustrating_stim/white_mw091.bmp","green","Share","PRACTICE","1"
"html-keyboard-response","18","156888","0.0-5.0-5.2","5de8887aa2db898017debf1a","bdp_wmem","Mon Mar 13 2023 21:27:36 GMT-0700 (Pacific Daylight Time)","643992","Match,No Match","","null","","","","","","<div class='trialBorder'><div class='vertical-center'><img src='img/correct.jpg'></div><div class='respDiv'><div class='respDivL'>Match<br>(e)</div><div class='respDivR'><font style='color:orange'>No Match<br>(i)</font></div></div></div>","null","FEEDBACK","","","","","","","","","","",""
"html-keyboard-response","19","157394","0.0-5.0-1.3","5de8887aa2db898017debf1a","bdp_wmem","Mon Mar 13 2023 21:27:36 GMT-0700 (Pacific Daylight Time)","643992","Match,No Match","","null","","","","","","<div class='trialBorder'><div class='vertical-center'><img src='img/fixation2_sml.jpg'</img></div></div>","null","FIX","","","","","","","","","","",""
"html-keyboard-response","20","161906","0.0-5.0-2.3","5de8887aa2db898017debf1a","bdp_wmem","Mon Mar 13 2023 21:27:36 GMT-0700 (Pacific Daylight Time)","643992","Match,No Match","","null","","","","","","<div class='trialBorder'><div class='vertical-center'><img style='vertical-align:center; align:center' src='img/fixation2_sml.jpg'></div><div class='arrayDiv3'><div class='tl'><img class='introPic' src='trustrating_stim/white_mw040.bmp'><br><font color='green'><strong>Share</strong></font></div><div class='tc'><img class='introPic' src='trustrating_stim/white_mw078.bmp'><br><font color='red'><strong>Keep</strong></font></div><div class='tr'><img class='introPic' src='trustrating_stim/white_mw042.bmp'><br><font color='green'><strong>Share</strong></font></div></div></div>","null","ARRAY","3","trustrating_stim/white_mw040.bmp,trustrating_stim/white_mw078.bmp,trustrating_stim/white_mw042.bmp","1,0,1","noMatchOutcome","i","4500","","","","",""
"html-keyboard-response","21","165912","0.0-5.0-3.3","5de8887aa2db898017debf1a","bdp_wmem","Mon Mar 13 2023 21:27:36 GMT-0700 (Pacific Daylight Time)","643992","Match,No Match","","null","","","","","","<div class='trialBorder'><div class='vertical-center'><img src='img/fixation2_sml.jpg'</img></div></div>","null","DELAY","","","","","","","","","","",""
"html-keyboard-response","22","168371","0.0-5.0-4.3","5de8887aa2db898017debf1a","bdp_wmem","Mon Mar 13 2023 21:27:36 GMT-0700 (Pacific Daylight Time)","643992","Match,No Match","","2457","","","","","","<div class='trialBorder'><div class='targDiv'><div class='tc'><img class='introPic' src='trustrating_stim/white_mw042.bmp'><br><font color='red'><strong>Keep</strong></font></div></div><div class='respDiv'><div class='respDivL'>Match<br>(e)</div><div class='respDivR'>No Match<br>(i)</div></div></div>","i","TARGET","3","trustrating_stim/white_mw040.bmp,trustrating_stim/white_mw078.bmp,trustrating_stim/white_mw042.bmp","1,0,1","noMatchOutcome","i","4500","trustrating_stim/white_mw042.bmp","red","Keep","PRACTICE","1"
"html-keyboard-response","23","168881","0.0-5.0-5.3","5de8887aa2db898017debf1a","bdp_wmem","Mon Mar 13 2023 21:27:36 GMT-0700 (Pacific Daylight Time)","643992","Match,No Match","","null","","","","","","<div class='trialBorder'><div class='vertical-center'><img src='img/correct.jpg'></div><div class='respDiv'><div class='respDivL'>Match<br>(e)</div><div class='respDivR'><font style='color:orange'>No Match<br>(i)</font></div></div></div>","null","FEEDBACK","","","","","","","","","","",""
"html-keyboard-response","24","169393","0.0-5.0-1.4","5de8887aa2db898017debf1a","bdp_wmem","Mon Mar 13 2023 21:27:36 GMT-0700 (Pacific Daylight Time)","643992","Match,No Match","","null","","","","","","<div class='trialBorder'><div class='vertical-center'><img src='img/fixation2_sml.jpg'</img></div></div>","null","FIX","","","","","","","","","","",""
"html-keyboard-response","25","170907","0.0-5.0-2.4","5de8887aa2db898017debf1a","bdp_wmem","Mon Mar 13 2023 21:27:36 GMT-0700 (Pacific Daylight Time)","643992","Match,No Match","","null","","","","","","<div class='trialBorder'><div class='vertical-center'><img style='vertical-align:center; align:center' src='img/fixation2_sml.jpg'></div><div class='arrayDiv1'><div class='tc'><img class='introPic' src='trustrating_stim/white_mw013.bmp'><br><font color='red'><strong>Keep</strong></font></div></div></div>","null","ARRAY","1","trustrating_stim/white_mw013.bmp","0","Match","e","1500","","","","",""
"html-keyboard-response","26","174914","0.0-5.0-3.4","5de8887aa2db898017debf1a","bdp_wmem","Mon Mar 13 2023 21:27:36 GMT-0700 (Pacific Daylight Time)","643992","Match,No Match","","null","","","","","","<div class='trialBorder'><div class='vertical-center'><img src='img/fixation2_sml.jpg'</img></div></div>","null","DELAY","","","","","","","","","","",""
"html-keyboard-response","27","175719","0.0-5.0-4.4","5de8887aa2db898017debf1a","bdp_wmem","Mon Mar 13 2023 21:27:36 GMT-0700 (Pacific Daylight Time)","643992","Match,No Match","","803","","","","","","<div class='trialBorder'><div class='targDiv'><div class='tc'><img class='introPic' src='trustrating_stim/white_mw013.bmp'><br><font color='red'><strong>Keep</strong></font></div></div><div class='respDiv'><div class='respDivL'>Match<br>(e)</div><div class='respDivR'>No Match<br>(i)</div></div></div>","i","TARGET","1","trustrating_stim/white_mw013.bmp","0","Match","e","1500","trustrating_stim/white_mw013.bmp","red","Keep","PRACTICE","0"
"html-keyboard-response","28","176226","0.0-5.0-5.4","5de8887aa2db898017debf1a","bdp_wmem","Mon Mar 13 2023 21:27:36 GMT-0700 (Pacific Daylight Time)","643992","Match,No Match","","null","","","","","","<div class='trialBorder'><div class='vertical-center'><img src='img/error.jpg'></div><div class='respDiv'><div class='respDivL'>Match<br>(e)</div><div class='respDivR'><font style='color:orange'>No Match<br>(i)</font></div></div></div>","null","FEEDBACK","","","","","","","","","","",""
"html-keyboard-response","29","176737","0.0-5.0-1.5","5de8887aa2db898017debf1a","bdp_wmem","Mon Mar 13 2023 21:27:36 GMT-0700 (Pacific Daylight Time)","643992","Match,No Match","","null","","","","","","<div class='trialBorder'><div class='vertical-center'><img src='img/fixation2_sml.jpg'</img></div></div>","null","FIX","","","","","","","","","","",""
"html-keyboard-response","30","179745","0.0-5.0-2.5","5de8887aa2db898017debf1a","bdp_wmem","Mon Mar 13 2023 21:27:36 GMT-0700 (Pacific Daylight Time)","643992","Match,No Match","","null","","","","","","<div class='trialBorder'><div class='vertical-center'><img style='vertical-align:center; align:center' src='img/fixation2_sml.jpg'></div><div class='arrayDiv2'><div class='tl'><img class='introPic' src='trustrating_stim/white_mw038.bmp'><br><font color='red'><strong>Keep</strong></font></div><div class='tr'><img class='introPic' src='trustrating_stim/white_mw042.bmp'><br><font color='green'><strong>Share</strong></font></div></div></div>","null","ARRAY","2","trustrating_stim/white_mw038.bmp,trustrating_stim/white_mw042.bmp","0,1","Match","e","3000","","","","",""
"html-keyboard-response","31","183752","0.0-5.0-3.5","5de8887aa2db898017debf1a","bdp_wmem","Mon Mar 13 2023 21:27:36 GMT-0700 (Pacific Daylight Time)","643992","Match,No Match","","null","","","","","","<div class='trialBorder'><div class='vertical-center'><img src='img/fixation2_sml.jpg'</img></div></div>","null","DELAY","","","","","","","","","","",""
"html-keyboard-response","32","185465","0.0-5.0-4.5","5de8887aa2db898017debf1a","bdp_wmem","Mon Mar 13 2023 21:27:36 GMT-0700 (Pacific Daylight Time)","643992","Match,No Match","","1711","","","","","","<div class='trialBorder'><div class='targDiv'><div class='tc'><img class='introPic' src='trustrating_stim/white_mw042.bmp'><br><font color='green'><strong>Share</strong></font></div></div><div class='respDiv'><div class='respDivL'>Match<br>(e)</div><div class='respDivR'>No Match<br>(i)</div></div></div>","e","TARGET","2","trustrating_stim/white_mw038.bmp,trustrating_stim/white_mw042.bmp","0,1","Match","e","3000","trustrating_stim/white_mw042.bmp","green","Share","PRACTICE","1"
"html-keyboard-response","33","185970","0.0-5.0-5.5","5de8887aa2db898017debf1a","bdp_wmem","Mon Mar 13 2023 21:27:36 GMT-0700 (Pacific Daylight Time)","643992","Match,No Match","","null","","","","","","<div class='trialBorder'><div class='vertical-center'><img src='img/correct.jpg'></div><div class='respDiv'><div class='respDivL'><font style='color:orange'>Match<br>(e)</font></div><div class='respDivR'>No Match<br>(i)</div></div></div>","null","FEEDBACK","","","","","","","","","","",""
"instructions","34","188171","0.0-6.0","5de8887aa2db898017debf1a","bdp_wmem","Mon Mar 13 2023 21:27:36 GMT-0700 (Pacific Daylight Time)","643992","Match,No Match","[{""page_index"":0,""viewing_time"":2201}]","2201","","","","","","","","","","","","","","","","","","",""
"html-keyboard-response","35","188678","0.0-7.0-1.0","5de8887aa2db898017debf1a","bdp_wmem","Mon Mar 13 2023 21:27:36 GMT-0700 (Pacific Daylight Time)","643992","Match,No Match","","null","","","","","","<div class='trialBorder'><div class='vertical-center'><img src='img/fixation2_sml.jpg'</img></div></div>","null","FIX","","","","","","","","","","",""
"html-keyboard-response","36","190182","0.0-7.0-2.0","5de8887aa2db898017debf1a","bdp_wmem","Mon Mar 13 2023 21:27:36 GMT-0700 (Pacific Daylight Time)","643992","Match,No Match","","null","","","","","","<div class='trialBorder'><div class='vertical-center'><img style='vertical-align:center; align:center' src='img/fixation2_sml.jpg'></div><div class='arrayDiv1'><div class='tc'><img class='introPic' src='trustrating_stim/white_mw038.bmp'><br><font color='green'><strong>Share</strong></font></div></div></div>","null","ARRAY","1","trustrating_stim/white_mw038.bmp","1","noMatchOutcome","i","1500","","","","",""
"html-keyboard-response","37","194194","0.0-7.0-3.0","5de8887aa2db898017debf1a","bdp_wmem","Mon Mar 13 2023 21:27:36 GMT-0700 (Pacific Daylight Time)","643992","Match,No Match","","null","","","","","","<div class='trialBorder'><div class='vertical-center'><img src='img/fixation2_sml.jpg'</img></div></div>","null","DELAY","","","","","","","","","","",""
"html-keyboard-response","38","197119","0.0-7.0-4.0","5de8887aa2db898017debf1a","bdp_wmem","Mon Mar 13 2023 21:27:36 GMT-0700 (Pacific Daylight Time)","643992","Match,No Match","","2923","","","","","","<div class='trialBorder'><div class='targDiv'><div class='tc'><img class='introPic' src='trustrating_stim/white_mw038.bmp'><br><font color='red'><strong>Keep</strong></font></div></div><div class='respDiv'><div class='respDivL'>Match<br>(e)</div><div class='respDivR'>No Match<br>(i)</div></div></div>","i","TARGET","1","trustrating_stim/white_mw038.bmp","1","noMatchOutcome","i","1500","trustrating_stim/white_mw038.bmp","red","Keep","REAL","1"
"html-keyboard-response","39","197622","0.0-7.0-5.0","5de8887aa2db898017debf1a","bdp_wmem","Mon Mar 13 2023 21:27:36 GMT-0700 (Pacific Daylight Time)","643992","Match,No Match","","null","","","","","","<div class='trialBorder'><div class='vertical-center'><img src='img/correct.jpg'></div><div class='respDiv'><div class='respDivL'>Match<br>(e)</div><div class='respDivR'><font style='color:orange'>No Match<br>(i)</font></div></div></div>","null","FEEDBACK","","","","","","","","","","",""
"html-keyboard-response","40","198129","0.0-7.0-1.1","5de8887aa2db898017debf1a","bdp_wmem","Mon Mar 13 2023 21:27:36 GMT-0700 (Pacific Daylight Time)","643992","Match,No Match","","null","","","","","","<div class='trialBorder'><div class='vertical-center'><img src='img/fixation2_sml.jpg'</img></div></div>","null","FIX","","","","","","","","","","",""
"html-keyboard-response","41","201137","0.0-7.0-2.1","5de8887aa2db898017debf1a","bdp_wmem","Mon Mar 13 2023 21:27:36 GMT-0700 (Pacific Daylight Time)","643992","Match,No Match","","null","","","","","","<div class='trialBorder'><div class='vertical-center'><img style='vertical-align:center; align:center' src='img/fixation2_sml.jpg'></div><div class='arrayDiv2'><div class='tl'><img class='introPic' src='trustrating_stim/white_mw042.bmp'><br><font color='green'><strong>Share</strong></font></div><div class='tr'><img class='introPic' src='trustrating_stim/white_mw040.bmp'><br><font color='red'><strong>Keep</strong></font></div></div></div>","null","ARRAY","2","trustrating_stim/white_mw042.bmp,trustrating_stim/white_mw040.bmp","1,0","noMatchOutcome","i","3000","","","","",""
"html-keyboard-response","42","205141","0.0-7.0-3.1","5de8887aa2db898017debf1a","bdp_wmem","Mon Mar 13 2023 21:27:36 GMT-0700 (Pacific Daylight Time)","643992","Match,No Match","","null","","","","","","<div class='trialBorder'><div class='vertical-center'><img src='img/fixation2_sml.jpg'</img></div></div>","null","DELAY","","","","","","","","","","",""
"html-keyboard-response","43","207063","0.0-7.0-4.1","5de8887aa2db898017debf1a","bdp_wmem","Mon Mar 13 2023 21:27:36 GMT-0700 (Pacific Daylight Time)","643992","Match,No Match","","1920","","","","","","<div class='trialBorder'><div class='targDiv'><div class='tc'><img class='introPic' src='trustrating_stim/white_mw040.bmp'><br><font color='green'><strong>Share</strong></font></div></div><div class='respDiv'><div class='respDivL'>Match<br>(e)</div><div class='respDivR'>No Match<br>(i)</div></div></div>","e","TARGET","2","trustrating_stim/white_mw042.bmp,trustrating_stim/white_mw040.bmp","1,0","noMatchOutcome","i","3000","trustrating_stim/white_mw040.bmp","green","Share","REAL","0"
"html-keyboard-response","44","207569","0.0-7.0-5.1","5de8887aa2db898017debf1a","bdp_wmem","Mon Mar 13 2023 21:27:36 GMT-0700 (Pacific Daylight Time)","643992","Match,No Match","","null","","","","","","<div class='trialBorder'><div class='vertical-center'><img src='img/error.jpg'></div><div class='respDiv'><div class='respDivL'><font style='color:orange'>Match<br>(e)</font></div><div class='respDivR'>No Match<br>(i)</div></div></div>","null","FEEDBACK","","","","","","","","","","",""
"html-keyboard-response","45","208080","0.0-7.0-1.2","5de8887aa2db898017debf1a","bdp_wmem","Mon Mar 13 2023 21:27:36 GMT-0700 (Pacific Daylight Time)","643992","Match,No Match","","null","","","","","","<div class='trialBorder'><div class='vertical-center'><img src='img/fixation2_sml.jpg'</img></div></div>","null","FIX","","","","","","","","","","",""
"html-keyboard-response","46","211089","0.0-7.0-2.2","5de8887aa2db898017debf1a","bdp_wmem","Mon Mar 13 2023 21:27:36 GMT-0700 (Pacific Daylight Time)","643992","Match,No Match","","null","","","","","","<div class='trialBorder'><div class='vertical-center'><img style='vertical-align:center; align:center' src='img/fixation2_sml.jpg'></div><div class='arrayDiv2'><div class='tl'><img class='introPic' src='trustrating_stim/white_mw012.bmp'><br><font color='green'><strong>Share</strong></font></div><div class='tr'><img class='introPic' src='trustrating_stim/white_mw038.bmp'><br><font color='red'><strong>Keep</strong></font></div></div></div>","null","ARRAY","2","trustrating_stim/white_mw012.bmp,trustrating_stim/white_mw038.bmp","1,0","noMatchOutcome","i","3000","","","","",""
"html-keyboard-response","47","215094","0.0-7.0-3.2","5de8887aa2db898017debf1a","bdp_wmem","Mon Mar 13 2023 21:27:36 GMT-0700 (Pacific Daylight Time)","643992","Match,No Match","","null","","","","","","<div class='trialBorder'><div class='vertical-center'><img src='img/fixation2_sml.jpg'</img></div></div>","null","DELAY","","","","","","","","","","",""
"html-keyboard-response","48","216447","0.0-7.0-4.2","5de8887aa2db898017debf1a","bdp_wmem","Mon Mar 13 2023 21:27:36 GMT-0700 (Pacific Daylight Time)","643992","Match,No Match","","1351","","","","","","<div class='trialBorder'><div class='targDiv'><div class='tc'><img class='introPic' src='trustrating_stim/white_mw038.bmp'><br><font color='green'><strong>Share</strong></font></div></div><div class='respDiv'><div class='respDivL'>Match<br>(e)</div><div class='respDivR'>No Match<br>(i)</div></div></div>","i","TARGET","2","trustrating_stim/white_mw012.bmp,trustrating_stim/white_mw038.bmp","1,0","noMatchOutcome","i","3000","trustrating_stim/white_mw038.bmp","green","Share","REAL","1"
"html-keyboard-response","49","216952","0.0-7.0-5.2","5de8887aa2db898017debf1a","bdp_wmem","Mon Mar 13 2023 21:27:36 GMT-0700 (Pacific Daylight Time)","643992","Match,No Match","","null","","","","","","<div class='trialBorder'><div class='vertical-center'><img src='img/correct.jpg'></div><div class='respDiv'><div class='respDivL'>Match<br>(e)</div><div class='respDivR'><font style='color:orange'>No Match<br>(i)</font></div></div></div>","null","FEEDBACK","","","","","","","","","","",""
"html-keyboard-response","50","217462","0.0-7.0-1.3","5de8887aa2db898017debf1a","bdp_wmem","Mon Mar 13 2023 21:27:36 GMT-0700 (Pacific Daylight Time)","643992","Match,No Match","","null","","","","","","<div class='trialBorder'><div class='vertical-center'><img src='img/fixation2_sml.jpg'</img></div></div>","null","FIX","","","","","","","","","","",""
"html-keyboard-response","51","218968","0.0-7.0-2.3","5de8887aa2db898017debf1a","bdp_wmem","Mon Mar 13 2023 21:27:36 GMT-0700 (Pacific Daylight Time)","643992","Match,No Match","","null","","","","","","<div class='trialBorder'><div class='vertical-center'><img style='vertical-align:center; align:center' src='img/fixation2_sml.jpg'></div><div class='arrayDiv1'><div class='tc'><img class='introPic' src='trustrating_stim/white_mw092.bmp'><br><font color='green'><strong>Share</strong></font></div></div></div>","null","ARRAY","1","trustrating_stim/white_mw092.bmp","1","noMatchOutcome","i","1500","","","","",""
"html-keyboard-response","52","222977","0.0-7.0-3.3","5de8887aa2db898017debf1a","bdp_wmem","Mon Mar 13 2023 21:27:36 GMT-0700 (Pacific Daylight Time)","643992","Match,No Match","","null","","","","","","<div class='trialBorder'><div class='vertical-center'><img src='img/fixation2_sml.jpg'</img></div></div>","null","DELAY","","","","","","","","","","",""
"html-keyboard-response","53","224737","0.0-7.0-4.3","5de8887aa2db898017debf1a","bdp_wmem","Mon Mar 13 2023 21:27:36 GMT-0700 (Pacific Daylight Time)","643992","Match,No Match","","1758","","","","","","<div class='trialBorder'><div class='targDiv'><div class='tc'><img class='introPic' src='trustrating_stim/white_mw092.bmp'><br><font color='red'><strong>Keep</strong></font></div></div><div class='respDiv'><div class='respDivL'>Match<br>(e)</div><div class='respDivR'>No Match<br>(i)</div></div></div>","i","TARGET","1","trustrating_stim/white_mw092.bmp","1","noMatchOutcome","i","1500","trustrating_stim/white_mw092.bmp","red","Keep","REAL","1"
"html-keyboard-response","54","225247","0.0-7.0-5.3","5de8887aa2db898017debf1a","bdp_wmem","Mon Mar 13 2023 21:27:36 GMT-0700 (Pacific Daylight Time)","643992","Match,No Match","","null","","","","","","<div class='trialBorder'><div class='vertical-center'><img src='img/correct.jpg'></div><div class='respDiv'><div class='respDivL'>Match<br>(e)</div><div class='respDivR'><font style='color:orange'>No Match<br>(i)</font></div></div></div>","null","FEEDBACK","","","","","","","","","","",""
"html-keyboard-response","55","225760","0.0-7.0-1.4","5de8887aa2db898017debf1a","bdp_wmem","Mon Mar 13 2023 21:27:36 GMT-0700 (Pacific Daylight Time)","643992","Match,No Match","","null","","","","","","<div class='trialBorder'><div class='vertical-center'><img src='img/fixation2_sml.jpg'</img></div></div>","null","FIX","","","","","","","","","","",""
"html-keyboard-response","56","227269","0.0-7.0-2.4","5de8887aa2db898017debf1a","bdp_wmem","Mon Mar 13 2023 21:27:36 GMT-0700 (Pacific Daylight Time)","643992","Match,No Match","","null","","","","","","<div class='trialBorder'><div class='vertical-center'><img style='vertical-align:center; align:center' src='img/fixation2_sml.jpg'></div><div class='arrayDiv1'><div class='tc'><img class='introPic' src='trustrating_stim/white_mw040.bmp'><br><font color='green'><strong>Share</strong></font></div></div></div>","null","ARRAY","1","trustrating_stim/white_mw040.bmp","1","Match","e","1500","","","","",""
"html-keyboard-response","57","231279","0.0-7.0-3.4","5de8887aa2db898017debf1a","bdp_wmem","Mon Mar 13 2023 21:27:36 GMT-0700 (Pacific Daylight Time)","643992","Match,No Match","","null","","","","","","<div class='trialBorder'><div class='vertical-center'><img src='img/fixation2_sml.jpg'</img></div></div>","null","DELAY","","","","","","","","","","",""
"html-keyboard-response","58","232209","0.0-7.0-4.4","5de8887aa2db898017debf1a","bdp_wmem","Mon Mar 13 2023 21:27:36 GMT-0700 (Pacific Daylight Time)","643992","Match,No Match","","927","","","","","","<div class='trialBorder'><div class='targDiv'><div class='tc'><img class='introPic' src='trustrating_stim/white_mw040.bmp'><br><font color='green'><strong>Share</strong></font></div></div><div class='respDiv'><div class='respDivL'>Match<br>(e)</div><div class='respDivR'>No Match<br>(i)</div></div></div>","e","TARGET","1","trustrating_stim/white_mw040.bmp","1","Match","e","1500","trustrating_stim/white_mw040.bmp","green","Share","REAL","1"
"html-keyboard-response","59","232719","0.0-7.0-5.4","5de8887aa2db898017debf1a","bdp_wmem","Mon Mar 13 2023 21:27:36 GMT-0700 (Pacific Daylight Time)","643992","Match,No Match","","null","","","","","","<div class='trialBorder'><div class='vertical-center'><img src='img/correct.jpg'></div><div class='respDiv'><div class='respDivL'><font style='color:orange'>Match<br>(e)</font></div><div class='respDivR'>No Match<br>(i)</div></div></div>","null","FEEDBACK","","","","","","","","","","",""
"html-keyboard-response","60","233231","0.0-7.0-1.5","5de8887aa2db898017debf1a","bdp_wmem","Mon Mar 13 2023 21:27:36 GMT-0700 (Pacific Daylight Time)","643992","Match,No Match","","null","","","","","","<div class='trialBorder'><div class='vertical-center'><img src='img/fixation2_sml.jpg'</img></div></div>","null","FIX","","","","","","","","","","",""
"html-keyboard-response","61","234743","0.0-7.0-2.5","5de8887aa2db898017debf1a","bdp_wmem","Mon Mar 13 2023 21:27:36 GMT-0700 (Pacific Daylight Time)","643992","Match,No Match","","null","","","","","","<div class='trialBorder'><div class='vertical-center'><img style='vertical-align:center; align:center' src='img/fixation2_sml.jpg'></div><div class='arrayDiv1'><div class='tc'><img class='introPic' src='trustrating_stim/white_mw091.bmp'><br><font color='red'><strong>Keep</strong></font></div></div></div>","null","ARRAY","1","trustrating_stim/white_mw091.bmp","0","Match","e","1500","","","","",""
"html-keyboard-response","62","238752","0.0-7.0-3.5","5de8887aa2db898017debf1a","bdp_wmem","Mon Mar 13 2023 21:27:36 GMT-0700 (Pacific Daylight Time)","643992","Match,No Match","","null","","","","","","<div class='trialBorder'><div class='vertical-center'><img src='img/fixation2_sml.jpg'</img></div></div>","null","DELAY","","","","","","","","","","",""
"html-keyboard-response","63","239754","0.0-7.0-4.5","5de8887aa2db898017debf1a","bdp_wmem","Mon Mar 13 2023 21:27:36 GMT-0700 (Pacific Daylight Time)","643992","Match,No Match","","1000","","","","","","<div class='trialBorder'><div class='targDiv'><div class='tc'><img class='introPic' src='trustrating_stim/white_mw091.bmp'><br><font color='red'><strong>Keep</strong></font></div></div><div class='respDiv'><div class='respDivL'>Match<br>(e)</div><div class='respDivR'>No Match<br>(i)</div></div></div>","e","TARGET","1","trustrating_stim/white_mw091.bmp","0","Match","e","1500","trustrating_stim/white_mw091.bmp","red","Keep","REAL","1"
"html-keyboard-response","64","240261","0.0-7.0-5.5","5de8887aa2db898017debf1a","bdp_wmem","Mon Mar 13 2023 21:27:36 GMT-0700 (Pacific Daylight Time)","643992","Match,No Match","","null","","","","","","<div class='trialBorder'><div class='vertical-center'><img src='img/correct.jpg'></div><div class='respDiv'><div class='respDivL'><font style='color:orange'>Match<br>(e)</font></div><div class='respDivR'>No Match<br>(i)</div></div></div>","null","FEEDBACK","","","","","","","","","","",""
"html-keyboard-response","65","240768","0.0-7.0-1.6","5de8887aa2db898017debf1a","bdp_wmem","Mon Mar 13 2023 21:27:36 GMT-0700 (Pacific Daylight Time)","643992","Match,No Match","","null","","","","","","<div class='trialBorder'><div class='vertical-center'><img src='img/fixation2_sml.jpg'</img></div></div>","null","FIX","","","","","","","","","","",""
"html-keyboard-response","66","243776","0.0-7.0-2.6","5de8887aa2db898017debf1a","bdp_wmem","Mon Mar 13 2023 21:27:36 GMT-0700 (Pacific Daylight Time)","643992","Match,No Match","","null","","","","","","<div class='trialBorder'><div class='vertical-center'><img style='vertical-align:center; align:center' src='img/fixation2_sml.jpg'></div><div class='arrayDiv2'><div class='tl'><img class='introPic' src='trustrating_stim/white_mw013.bmp'><br><font color='green'><strong>Share</strong></font></div><div class='tr'><img class='introPic' src='trustrating_stim/white_mw092.bmp'><br><font color='red'><strong>Keep</strong></font></div></div></div>","null","ARRAY","2","trustrating_stim/white_mw013.bmp,trustrating_stim/white_mw092.bmp","1,0","Match","e","3000","","","","",""
"html-keyboard-response","67","247781","0.0-7.0-3.6","5de8887aa2db898017debf1a","bdp_wmem","Mon Mar 13 2023 21:27:36 GMT-0700 (Pacific Daylight Time)","643992","Match,No Match","","null","","","","","","<div class='trialBorder'><div class='vertical-center'><img src='img/fixation2_sml.jpg'</img></div></div>","null","DELAY","","","","","","","","","","",""
"html-keyboard-response","68","249465","0.0-7.0-4.6","5de8887aa2db898017debf1a","bdp_wmem","Mon Mar 13 2023 21:27:36 GMT-0700 (Pacific Daylight Time)","643992","Match,No Match","","1682","","","","","","<div class='trialBorder'><div class='targDiv'><div class='tc'><img class='introPic' src='trustrating_stim/white_mw092.bmp'><br><font color='red'><strong>Keep</strong></font></div></div><div class='respDiv'><div class='respDivL'>Match<br>(e)</div><div class='respDivR'>No Match<br>(i)</div></div></div>","i","TARGET","2","trustrating_stim/white_mw013.bmp,trustrating_stim/white_mw092.bmp","1,0","Match","e","3000","trustrating_stim/white_mw092.bmp","red","Keep","REAL","0"
"html-keyboard-response","69","249972","0.0-7.0-5.6","5de8887aa2db898017debf1a","bdp_wmem","Mon Mar 13 2023 21:27:36 GMT-0700 (Pacific Daylight Time)","643992","Match,No Match","","null","","","","","","<div class='trialBorder'><div class='vertical-center'><img src='img/error.jpg'></div><div class='respDiv'><div class='respDivL'>Match<br>(e)</div><div class='respDivR'><font style='color:orange'>No Match<br>(i)</font></div></div></div>","null","FEEDBACK","","","","","","","","","","",""
"html-keyboard-response","70","250478","0.0-7.0-1.7","5de8887aa2db898017debf1a","bdp_wmem","Mon Mar 13 2023 21:27:36 GMT-0700 (Pacific Daylight Time)","643992","Match,No Match","","null","","","","","","<div class='trialBorder'><div class='vertical-center'><img src='img/fixation2_sml.jpg'</img></div></div>","null","FIX","","","","","","","","","","",""
"html-keyboard-response","71","253486","0.0-7.0-2.7","5de8887aa2db898017debf1a","bdp_wmem","Mon Mar 13 2023 21:27:36 GMT-0700 (Pacific Daylight Time)","643992","Match,No Match","","null","","","","","","<div class='trialBorder'><div class='vertical-center'><img style='vertical-align:center; align:center' src='img/fixation2_sml.jpg'></div><div class='arrayDiv2'><div class='tl'><img class='introPic' src='trustrating_stim/white_mw013.bmp'><br><font color='green'><strong>Share</strong></font></div><div class='tr'><img class='introPic' src='trustrating_stim/white_mw038.bmp'><br><font color='red'><strong>Keep</strong></font></div></div></div>","null","ARRAY","2","trustrating_stim/white_mw013.bmp,trustrating_stim/white_mw038.bmp","1,0","Match","e","3000","","","","",""
"html-keyboard-response","72","257493","0.0-7.0-3.7","5de8887aa2db898017debf1a","bdp_wmem","Mon Mar 13 2023 21:27:36 GMT-0700 (Pacific Daylight Time)","643992","Match,No Match","","null","","","","","","<div class='trialBorder'><div class='vertical-center'><img src='img/fixation2_sml.jpg'</img></div></div>","null","DELAY","","","","","","","","","","",""
"html-keyboard-response","73","258910","0.0-7.0-4.7","5de8887aa2db898017debf1a","bdp_wmem","Mon Mar 13 2023 21:27:36 GMT-0700 (Pacific Daylight Time)","643992","Match,No Match","","1414","","","","","","<div class='trialBorder'><div class='targDiv'><div class='tc'><img class='introPic' src='trustrating_stim/white_mw038.bmp'><br><font color='red'><strong>Keep</strong></font></div></div><div class='respDiv'><div class='respDivL'>Match<br>(e)</div><div class='respDivR'>No Match<br>(i)</div></div></div>","e","TARGET","2","trustrating_stim/white_mw013.bmp,trustrating_stim/white_mw038.bmp","1,0","Match","e","3000","trustrating_stim/white_mw038.bmp","red","Keep","REAL","1"
"html-keyboard-response","74","259413","0.0-7.0-5.7","5de8887aa2db898017debf1a","bdp_wmem","Mon Mar 13 2023 21:27:36 GMT-0700 (Pacific Daylight Time)","643992","Match,No Match","","null","","","","","","<div class='trialBorder'><div class='vertical-center'><img src='img/correct.jpg'></div><div class='respDiv'><div class='respDivL'><font style='color:orange'>Match<br>(e)</font></div><div class='respDivR'>No Match<br>(i)</div></div></div>","null","FEEDBACK","","","","","","","","","","",""
"html-keyboard-response","75","259918","0.0-7.0-1.8","5de8887aa2db898017debf1a","bdp_wmem","Mon Mar 13 2023 21:27:36 GMT-0700 (Pacific Daylight Time)","643992","Match,No Match","","null","","","","","","<div class='trialBorder'><div class='vertical-center'><img src='img/fixation2_sml.jpg'</img></div></div>","null","FIX","","","","","","","","","","",""
"html-keyboard-response","76","261428","0.0-7.0-2.8","5de8887aa2db898017debf1a","bdp_wmem","Mon Mar 13 2023 21:27:36 GMT-0700 (Pacific Daylight Time)","643992","Match,No Match","","null","","","","","","<div class='trialBorder'><div class='vertical-center'><img style='vertical-align:center; align:center' src='img/fixation2_sml.jpg'></div><div class='arrayDiv1'><div class='tc'><img class='introPic' src='trustrating_stim/white_mw091.bmp'><br><font color='green'><strong>Share</strong></font></div></div></div>","null","ARRAY","1","trustrating_stim/white_mw091.bmp","1","Match","e","1500","","","","",""
"html-keyboard-response","77","265439","0.0-7.0-3.8","5de8887aa2db898017debf1a","bdp_wmem","Mon Mar 13 2023 21:27:36 GMT-0700 (Pacific Daylight Time)","643992","Match,No Match","","null","","","","","","<div class='trialBorder'><div class='vertical-center'><img src='img/fixation2_sml.jpg'</img></div></div>","null","DELAY","","","","","","","","","","",""
"html-keyboard-response","78","266426","0.0-7.0-4.8","5de8887aa2db898017debf1a","bdp_wmem","Mon Mar 13 2023 21:27:36 GMT-0700 (Pacific Daylight Time)","643992","Match,No Match","","985","","","","","","<div class='trialBorder'><div class='targDiv'><div class='tc'><img class='introPic' src='trustrating_stim/white_mw091.bmp'><br><font color='green'><strong>Share</strong></font></div></div><div class='respDiv'><div class='respDivL'>Match<br>(e)</div><div class='respDivR'>No Match<br>(i)</div></div></div>","e","TARGET","1","trustrating_stim/white_mw091.bmp","1","Match","e","1500","trustrating_stim/white_mw091.bmp","green","Share","REAL","1"
"html-keyboard-response","79","266934","0.0-7.0-5.8","5de8887aa2db898017debf1a","bdp_wmem","Mon Mar 13 2023 21:27:36 GMT-0700 (Pacific Daylight Time)","643992","Match,No Match","","null","","","","","","<div class='trialBorder'><div class='vertical-center'><img src='img/correct.jpg'></div><div class='respDiv'><div class='respDivL'><font style='color:orange'>Match<br>(e)</font></div><div class='respDivR'>No Match<br>(i)</div></div></div>","null","FEEDBACK","","","","","","","","","","",""
"html-keyboard-response","80","267444","0.0-7.0-1.9","5de8887aa2db898017debf1a","bdp_wmem","Mon Mar 13 2023 21:27:36 GMT-0700 (Pacific Daylight Time)","643992","Match,No Match","","null","","","","","","<div class='trialBorder'><div class='vertical-center'><img src='img/fixation2_sml.jpg'</img></div></div>","null","FIX","","","","","","","","","","",""
"html-keyboard-response","81","268951","0.0-7.0-2.9","5de8887aa2db898017debf1a","bdp_wmem","Mon Mar 13 2023 21:27:36 GMT-0700 (Pacific Daylight Time)","643992","Match,No Match","","null","","","","","","<div class='trialBorder'><div class='vertical-center'><img style='vertical-align:center; align:center' src='img/fixation2_sml.jpg'></div><div class='arrayDiv1'><div class='tc'><img class='introPic' src='trustrating_stim/white_mw070.bmp'><br><font color='red'><strong>Keep</strong></font></div></div></div>","null","ARRAY","1","trustrating_stim/white_mw070.bmp","0","Match","e","1500","","","","",""
"html-keyboard-response","82","272959","0.0-7.0-3.9","5de8887aa2db898017debf1a","bdp_wmem","Mon Mar 13 2023 21:27:36 GMT-0700 (Pacific Daylight Time)","643992","Match,No Match","","null","","","","","","<div class='trialBorder'><div class='vertical-center'><img src='img/fixation2_sml.jpg'</img></div></div>","null","DELAY","","","","","","","","","","",""
"html-keyboard-response","83","273926","0.0-7.0-4.9","5de8887aa2db898017debf1a","bdp_wmem","Mon Mar 13 2023 21:27:36 GMT-0700 (Pacific Daylight Time)","643992","Match,No Match","","965","","","","","","<div class='trialBorder'><div class='targDiv'><div class='tc'><img class='introPic' src='trustrating_stim/white_mw070.bmp'><br><font color='red'><strong>Keep</strong></font></div></div><div class='respDiv'><div class='respDivL'>Match<br>(e)</div><div class='respDivR'>No Match<br>(i)</div></div></div>","e","TARGET","1","trustrating_stim/white_mw070.bmp","0","Match","e","1500","trustrating_stim/white_mw070.bmp","red","Keep","REAL","1"
"html-keyboard-response","84","274431","0.0-7.0-5.9","5de8887aa2db898017debf1a","bdp_wmem","Mon Mar 13 2023 21:27:36 GMT-0700 (Pacific Daylight Time)","643992","Match,No Match","","null","","","","","","<div class='trialBorder'><div class='vertical-center'><img src='img/correct.jpg'></div><div class='respDiv'><div class='respDivL'><font style='color:orange'>Match<br>(e)</font></div><div class='respDivR'>No Match<br>(i)</div></div></div>","null","FEEDBACK","","","","","","","","","","",""
"html-keyboard-response","85","274943","0.0-7.0-1.10","5de8887aa2db898017debf1a","bdp_wmem","Mon Mar 13 2023 21:27:36 GMT-0700 (Pacific Daylight Time)","643992","Match,No Match","","null","","","","","","<div class='trialBorder'><div class='vertical-center'><img src='img/fixation2_sml.jpg'</img></div></div>","null","FIX","","","","","","","","","","",""
"html-keyboard-response","86","276452","0.0-7.0-2.10","5de8887aa2db898017debf1a","bdp_wmem","Mon Mar 13 2023 21:27:36 GMT-0700 (Pacific Daylight Time)","643992","Match,No Match","","null","","","","","","<div class='trialBorder'><div class='vertical-center'><img style='vertical-align:center; align:center' src='img/fixation2_sml.jpg'></div><div class='arrayDiv1'><div class='tc'><img class='introPic' src='trustrating_stim/white_mw078.bmp'><br><font color='green'><strong>Share</strong></font></div></div></div>","null","ARRAY","1","trustrating_stim/white_mw078.bmp","1","Match","e","1500","","","","",""
"html-keyboard-response","87","280461","0.0-7.0-3.10","5de8887aa2db898017debf1a","bdp_wmem","Mon Mar 13 2023 21:27:36 GMT-0700 (Pacific Daylight Time)","643992","Match,No Match","","null","","","","","","<div class='trialBorder'><div class='vertical-center'><img src='img/fixation2_sml.jpg'</img></div></div>","null","DELAY","","","","","","","","","","",""
"html-keyboard-response","88","281464","0.0-7.0-4.10","5de8887aa2db898017debf1a","bdp_wmem","Mon Mar 13 2023 21:27:36 GMT-0700 (Pacific Daylight Time)","643992","Match,No Match","","1001","","","","","","<div class='trialBorder'><div class='targDiv'><div class='tc'><img class='introPic' src='trustrating_stim/white_mw078.bmp'><br><font color='green'><strong>Share</strong></font></div></div><div class='respDiv'><div class='respDivL'>Match<br>(e)</div><div class='respDivR'>No Match<br>(i)</div></div></div>","e","TARGET","1","trustrating_stim/white_mw078.bmp","1","Match","e","1500","trustrating_stim/white_mw078.bmp","green","Share","REAL","1"
"html-keyboard-response","89","281971","0.0-7.0-5.10","5de8887aa2db898017debf1a","bdp_wmem","Mon Mar 13 2023 21:27:36 GMT-0700 (Pacific Daylight Time)","643992","Match,No Match","","null","","","","","","<div class='trialBorder'><div class='vertical-center'><img src='img/correct.jpg'></div><div class='respDiv'><div class='respDivL'><font style='color:orange'>Match<br>(e)</font></div><div class='respDivR'>No Match<br>(i)</div></div></div>","null","FEEDBACK","","","","","","","","","","",""
"html-keyboard-response","90","282478","0.0-7.0-1.11","5de8887aa2db898017debf1a","bdp_wmem","Mon Mar 13 2023 21:27:36 GMT-0700 (Pacific Daylight Time)","643992","Match,No Match","","null","","","","","","<div class='trialBorder'><div class='vertical-center'><img src='img/fixation2_sml.jpg'</img></div></div>","null","FIX","","","","","","","","","","",""
"html-keyboard-response","91","285485","0.0-7.0-2.11","5de8887aa2db898017debf1a","bdp_wmem","Mon Mar 13 2023 21:27:36 GMT-0700 (Pacific Daylight Time)","643992","Match,No Match","","null","","","","","","<div class='trialBorder'><div class='vertical-center'><img style='vertical-align:center; align:center' src='img/fixation2_sml.jpg'></div><div class='arrayDiv2'><div class='tl'><img class='introPic' src='trustrating_stim/white_mw085.bmp'><br><font color='green'><strong>Share</strong></font></div><div class='tr'><img class='introPic' src='trustrating_stim/white_mw042.bmp'><br><font color='red'><strong>Keep</strong></font></div></div></div>","null","ARRAY","2","trustrating_stim/white_mw085.bmp,trustrating_stim/white_mw042.bmp","1,0","noMatchFace","i","3000","","","","",""
"html-keyboard-response","92","289492","0.0-7.0-3.11","5de8887aa2db898017debf1a","bdp_wmem","Mon Mar 13 2023 21:27:36 GMT-0700 (Pacific Daylight Time)","643992","Match,No Match","","null","","","","","","<div class='trialBorder'><div class='vertical-center'><img src='img/fixation2_sml.jpg'</img></div></div>","null","DELAY","","","","","","","","","","",""
"html-keyboard-response","93","290971","0.0-7.0-4.11","5de8887aa2db898017debf1a","bdp_wmem","Mon Mar 13 2023 21:27:36 GMT-0700 (Pacific Daylight Time)","643992","Match,No Match","","1476","","","","","","<div class='trialBorder'><div class='targDiv'><div class='tc'><img class='introPic' src='trustrating_stim/white_mw012.bmp'><br><font color='red'><strong>Keep</strong></font></div></div><div class='respDiv'><div class='respDivL'>Match<br>(e)</div><div class='respDivR'>No Match<br>(i)</div></div></div>","i","TARGET","2","trustrating_stim/white_mw085.bmp,trustrating_stim/white_mw042.bmp","1,0","noMatchFace","i","3000","trustrating_stim/white_mw012.bmp","red","Keep","REAL","1"
"html-keyboard-response","94","291474","0.0-7.0-5.11","5de8887aa2db898017debf1a","bdp_wmem","Mon Mar 13 2023 21:27:36 GMT-0700 (Pacific Daylight Time)","643992","Match,No Match","","null","","","","","","<div class='trialBorder'><div class='vertical-center'><img src='img/correct.jpg'></div><div class='respDiv'><div class='respDivL'>Match<br>(e)</div><div class='respDivR'><font style='color:orange'>No Match<br>(i)</font></div></div></div>","null","FEEDBACK","","","","","","","","","","",""
"html-keyboard-response","95","291981","0.0-7.0-1.12","5de8887aa2db898017debf1a","bdp_wmem","Mon Mar 13 2023 21:27:36 GMT-0700 (Pacific Daylight Time)","643992","Match,No Match","","null","","","","","","<div class='trialBorder'><div class='vertical-center'><img src='img/fixation2_sml.jpg'</img></div></div>","null","FIX","","","","","","","","","","",""
"html-keyboard-response","96","296493","0.0-7.0-2.12","5de8887aa2db898017debf1a","bdp_wmem","Mon Mar 13 2023 21:27:36 GMT-0700 (Pacific Daylight Time)","643992","Match,No Match","","null","","","","","","<div class='trialBorder'><div class='vertical-center'><img style='vertical-align:center; align:center' src='img/fixation2_sml.jpg'></div><div class='arrayDiv3'><div class='tl'><img class='introPic' src='trustrating_stim/white_mw091.bmp'><br><font color='green'><strong>Share</strong></font></div><div class='tc'><img class='introPic' src='trustrating_stim/white_mw003.bmp'><br><font color='red'><strong>Keep</strong></font></div><div class='tr'><img class='introPic' src='trustrating_stim/white_mw013.bmp'><br><font color='red'><strong>Keep</strong></font></div></div></div>","null","ARRAY","3","trustrating_stim/white_mw091.bmp,trustrating_stim/white_mw003.bmp,trustrating_stim/white_mw013.bmp","1,0,0","Match","e","4500","","","","",""
"html-keyboard-response","97","300500","0.0-7.0-3.12","5de8887aa2db898017debf1a","bdp_wmem","Mon Mar 13 2023 21:27:36 GMT-0700 (Pacific Daylight Time)","643992","Match,No Match","","null","","","","","","<div class='trialBorder'><div class='vertical-center'><img src='img/fixation2_sml.jpg'</img></div></div>","null","DELAY","","","","","","","","","","",""
"html-keyboard-response","98","301866","0.0-7.0-4.12","5de8887aa2db898017debf1a","bdp_wmem","Mon Mar 13 2023 21:27:36 GMT-0700 (Pacific Daylight Time)","643992","Match,No Match","","1362","","","","","","<div class='trialBorder'><div class='targDiv'><div class='tc'><img class='introPic' src='trustrating_stim/white_mw013.bmp'><br><font color='red'><strong>Keep</strong></font></div></div><div class='respDiv'><div class='respDivL'>Match<br>(e)</div><div class='respDivR'>No Match<br>(i)</div></div></div>","i","TARGET","3","trustrating_stim/white_mw091.bmp,trustrating_stim/white_mw003.bmp,trustrating_stim/white_mw013.bmp","1,0,0","Match","e","4500","trustrating_stim/white_mw013.bmp","red","Keep","REAL","0"
"html-keyboard-response","99","302370","0.0-7.0-5.12","5de8887aa2db898017debf1a","bdp_wmem","Mon Mar 13 2023 21:27:36 GMT-0700 (Pacific Daylight Time)","643992","Match,No Match","","null","","","","","","<div class='trialBorder'><div class='vertical-center'><img src='img/error.jpg'></div><div class='respDiv'><div class='respDivL'>Match<br>(e)</div><div class='respDivR'><font style='color:orange'>No Match<br>(i)</font></div></div></div>","null","FEEDBACK","","","","","","","","","","",""
"html-keyboard-response","100","302877","0.0-7.0-1.13","5de8887aa2db898017debf1a","bdp_wmem","Mon Mar 13 2023 21:27:36 GMT-0700 (Pacific Daylight Time)","643992","Match,No Match","","null","","","","","","<div class='trialBorder'><div class='vertical-center'><img src='img/fixation2_sml.jpg'</img></div></div>","null","FIX","","","","","","","","","","",""
"html-keyboard-response","101","304386","0.0-7.0-2.13","5de8887aa2db898017debf1a","bdp_wmem","Mon Mar 13 2023 21:27:36 GMT-0700 (Pacific Daylight Time)","643992","Match,No Match","","null","","","","","","<div class='trialBorder'><div class='vertical-center'><img style='vertical-align:center; align:center' src='img/fixation2_sml.jpg'></div><div class='arrayDiv1'><div class='tc'><img class='introPic' src='trustrating_stim/white_mw010.bmp'><br><font color='red'><strong>Keep</strong></font></div></div></div>","null","ARRAY","1","trustrating_stim/white_mw010.bmp","0","noMatchFace","i","1500","","","","",""
"html-keyboard-response","102","308396","0.0-7.0-3.13","5de8887aa2db898017debf1a","bdp_wmem","Mon Mar 13 2023 21:27:36 GMT-0700 (Pacific Daylight Time)","643992","Match,No Match","","null","","","","","","<div class='trialBorder'><div class='vertical-center'><img src='img/fixation2_sml.jpg'</img></div></div>","null","DELAY","","","","","","","","","","",""
"html-keyboard-response","103","309640","0.0-7.0-4.13","5de8887aa2db898017debf1a","bdp_wmem","Mon Mar 13 2023 21:27:36 GMT-0700 (Pacific Daylight Time)","643992","Match,No Match","","1241","","","","","","<div class='trialBorder'><div class='targDiv'><div class='tc'><img class='introPic' src='trustrating_stim/white_mw040.bmp'><br><font color='red'><strong>Keep</strong></font></div></div><div class='respDiv'><div class='respDivL'>Match<br>(e)</div><div class='respDivR'>No Match<br>(i)</div></div></div>","i","TARGET","1","trustrating_stim/white_mw010.bmp","0","noMatchFace","i","1500","trustrating_stim/white_mw040.bmp","red","Keep","REAL","1"
"html-keyboard-response","104","310150","0.0-7.0-5.13","5de8887aa2db898017debf1a","bdp_wmem","Mon Mar 13 2023 21:27:36 GMT-0700 (Pacific Daylight Time)","643992","Match,No Match","","null","","","","","","<div class='trialBorder'><div class='vertical-center'><img src='img/correct.jpg'></div><div class='respDiv'><div class='respDivL'>Match<br>(e)</div><div class='respDivR'><font style='color:orange'>No Match<br>(i)</font></div></div></div>","null","FEEDBACK","","","","","","","","","","",""
"html-keyboard-response","105","310659","0.0-7.0-1.14","5de8887aa2db898017debf1a","bdp_wmem","Mon Mar 13 2023 21:27:36 GMT-0700 (Pacific Daylight Time)","643992","Match,No Match","","null","","","","","","<div class='trialBorder'><div class='vertical-center'><img src='img/fixation2_sml.jpg'</img></div></div>","null","FIX","","","","","","","","","","",""
"html-keyboard-response","106","315165","0.0-7.0-2.14","5de8887aa2db898017debf1a","bdp_wmem","Mon Mar 13 2023 21:27:36 GMT-0700 (Pacific Daylight Time)","643992","Match,No Match","","null","","","","","","<div class='trialBorder'><div class='vertical-center'><img style='vertical-align:center; align:center' src='img/fixation2_sml.jpg'></div><div class='arrayDiv3'><div class='tl'><img class='introPic' src='trustrating_stim/white_mw078.bmp'><br><font color='red'><strong>Keep</strong></font></div><div class='tc'><img class='introPic' src='trustrating_stim/white_mw012.bmp'><br><font color='red'><strong>Keep</strong></font></div><div class='tr'><img class='introPic' src='trustrating_stim/white_mw042.bmp'><br><font color='green'><strong>Share</strong></font></div></div></div>","null","ARRAY","3","trustrating_stim/white_mw078.bmp,trustrating_stim/white_mw012.bmp,trustrating_stim/white_mw042.bmp","0,0,1","noMatchOutcome","i","4500","","","","",""
"html-keyboard-response","107","319169","0.0-7.0-3.14","5de8887aa2db898017debf1a","bdp_wmem","Mon Mar 13 2023 21:27:36 GMT-0700 (Pacific Daylight Time)","643992","Match,No Match","","null","","","","","","<div class='trialBorder'><div class='vertical-center'><img src='img/fixation2_sml.jpg'</img></div></div>","null","DELAY","","","","","","","","","","",""
"html-keyboard-response","108","320406","0.0-7.0-4.14","5de8887aa2db898017debf1a","bdp_wmem","Mon Mar 13 2023 21:27:36 GMT-0700 (Pacific Daylight Time)","643992","Match,No Match","","1234","","","","","","<div class='trialBorder'><div class='targDiv'><div class='tc'><img class='introPic' src='trustrating_stim/white_mw042.bmp'><br><font color='red'><strong>Keep</strong></font></div></div><div class='respDiv'><div class='respDivL'>Match<br>(e)</div><div class='respDivR'>No Match<br>(i)</div></div></div>","e","TARGET","3","trustrating_stim/white_mw078.bmp,trustrating_stim/white_mw012.bmp,trustrating_stim/white_mw042.bmp","0,0,1","noMatchOutcome","i","4500","trustrating_stim/white_mw042.bmp","red","Keep","REAL","0"
"html-keyboard-response","109","320913","0.0-7.0-5.14","5de8887aa2db898017debf1a","bdp_wmem","Mon Mar 13 2023 21:27:36 GMT-0700 (Pacific Daylight Time)","643992","Match,No Match","","null","","","","","","<div class='trialBorder'><div class='vertical-center'><img src='img/error.jpg'></div><div class='respDiv'><div class='respDivL'><font style='color:orange'>Match<br>(e)</font></div><div class='respDivR'>No Match<br>(i)</div></div></div>","null","FEEDBACK","","","","","","","","","","",""
"html-keyboard-response","110","321421","0.0-7.0-1.15","5de8887aa2db898017debf1a","bdp_wmem","Mon Mar 13 2023 21:27:36 GMT-0700 (Pacific Daylight Time)","643992","Match,No Match","","null","","","","","","<div class='trialBorder'><div class='vertical-center'><img src='img/fixation2_sml.jpg'</img></div></div>","null","FIX","","","","","","","","","","",""
"html-keyboard-response","111","322933","0.0-7.0-2.15","5de8887aa2db898017debf1a","bdp_wmem","Mon Mar 13 2023 21:27:36 GMT-0700 (Pacific Daylight Time)","643992","Match,No Match","","null","","","","","","<div class='trialBorder'><div class='vertical-center'><img style='vertical-align:center; align:center' src='img/fixation2_sml.jpg'></div><div class='arrayDiv1'><div class='tc'><img class='introPic' src='trustrating_stim/white_mw040.bmp'><br><font color='red'><strong>Keep</strong></font></div></div></div>","null","ARRAY","1","trustrating_stim/white_mw040.bmp","0","Match","e","1500","","","","",""
"html-keyboard-response","112","326940","0.0-7.0-3.15","5de8887aa2db898017debf1a","bdp_wmem","Mon Mar 13 2023 21:27:36 GMT-0700 (Pacific Daylight Time)","643992","Match,No Match","","null","","","","","","<div class='trialBorder'><div class='vertical-center'><img src='img/fixation2_sml.jpg'</img></div></div>","null","DELAY","","","","","","","","","","",""
"html-keyboard-response","113","328131","0.0-7.0-4.15","5de8887aa2db898017debf1a","bdp_wmem","Mon Mar 13 2023 21:27:36 GMT-0700 (Pacific Daylight Time)","643992","Match,No Match","","1189","","","","","","<div class='trialBorder'><div class='targDiv'><div class='tc'><img class='introPic' src='trustrating_stim/white_mw040.bmp'><br><font color='red'><strong>Keep</strong></font></div></div><div class='respDiv'><div class='respDivL'>Match<br>(e)</div><div class='respDivR'>No Match<br>(i)</div></div></div>","e","TARGET","1","trustrating_stim/white_mw040.bmp","0","Match","e","1500","trustrating_stim/white_mw040.bmp","red","Keep","REAL","1"
"html-keyboard-response","114","328636","0.0-7.0-5.15","5de8887aa2db898017debf1a","bdp_wmem","Mon Mar 13 2023 21:27:36 GMT-0700 (Pacific Daylight Time)","643992","Match,No Match","","null","","","","","","<div class='trialBorder'><div class='vertical-center'><img src='img/correct.jpg'></div><div class='respDiv'><div class='respDivL'><font style='color:orange'>Match<br>(e)</font></div><div class='respDivR'>No Match<br>(i)</div></div></div>","null","FEEDBACK","","","","","","","","","","",""
"html-keyboard-response","115","329148","0.0-7.0-1.16","5de8887aa2db898017debf1a","bdp_wmem","Mon Mar 13 2023 21:27:36 GMT-0700 (Pacific Daylight Time)","643992","Match,No Match","","null","","","","","","<div class='trialBorder'><div class='vertical-center'><img src='img/fixation2_sml.jpg'</img></div></div>","null","FIX","","","","","","","","","","",""
"html-keyboard-response","116","332156","0.0-7.0-2.16","5de8887aa2db898017debf1a","bdp_wmem","Mon Mar 13 2023 21:27:36 GMT-0700 (Pacific Daylight Time)","643992","Match,No Match","","null","","","","","","<div class='trialBorder'><div class='vertical-center'><img style='vertical-align:center; align:center' src='img/fixation2_sml.jpg'></div><div class='arrayDiv2'><div class='tl'><img class='introPic' src='trustrating_stim/white_mw040.bmp'><br><font color='red'><strong>Keep</strong></font></div><div class='tr'><img class='introPic' src='trustrating_stim/white_mw091.bmp'><br><font color='green'><strong>Share</strong></font></div></div></div>","null","ARRAY","2","trustrating_stim/white_mw040.bmp,trustrating_stim/white_mw091.bmp","0,1","noMatchFace","i","3000","","","","",""
"html-keyboard-response","117","336161","0.0-7.0-3.16","5de8887aa2db898017debf1a","bdp_wmem","Mon Mar 13 2023 21:27:36 GMT-0700 (Pacific Daylight Time)","643992","Match,No Match","","null","","","","","","<div class='trialBorder'><div class='vertical-center'><img src='img/fixation2_sml.jpg'</img></div></div>","null","DELAY","","","","","","","","","","",""
"html-keyboard-response","118","337409","0.0-7.0-4.16","5de8887aa2db898017debf1a","bdp_wmem","Mon Mar 13 2023 21:27:36 GMT-0700 (Pacific Daylight Time)","643992","Match,No Match","","1246","","","","","","<div class='trialBorder'><div class='targDiv'><div class='tc'><img class='introPic' src='trustrating_stim/white_mw003.bmp'><br><font color='green'><strong>Share</strong></font></div></div><div class='respDiv'><div class='respDivL'>Match<br>(e)</div><div class='respDivR'>No Match<br>(i)</div></div></div>","i","TARGET","2","trustrating_stim/white_mw040.bmp,trustrating_stim/white_mw091.bmp","0,1","noMatchFace","i","3000","trustrating_stim/white_mw003.bmp","green","Share","REAL","1"
"html-keyboard-response","119","337916","0.0-7.0-5.16","5de8887aa2db898017debf1a","bdp_wmem","Mon Mar 13 2023 21:27:36 GMT-0700 (Pacific Daylight Time)","643992","Match,No Match","","null","","","","","","<div class='trialBorder'><div class='vertical-center'><img src='img/correct.jpg'></div><div class='respDiv'><div class='respDivL'>Match<br>(e)</div><div class='respDivR'><font style='color:orange'>No Match<br>(i)</font></div></div></div>","null","FEEDBACK","","","","","","","","","","",""
"html-keyboard-response","120","338428","0.0-7.0-1.17","5de8887aa2db898017debf1a","bdp_wmem","Mon Mar 13 2023 21:27:36 GMT-0700 (Pacific Daylight Time)","643992","Match,No Match","","null","","","","","","<div class='trialBorder'><div class='vertical-center'><img src='img/fixation2_sml.jpg'</img></div></div>","null","FIX","","","","","","","","","","",""
"html-keyboard-response","121","339937","0.0-7.0-2.17","5de8887aa2db898017debf1a","bdp_wmem","Mon Mar 13 2023 21:27:36 GMT-0700 (Pacific Daylight Time)","643992","Match,No Match","","null","","","","","","<div class='trialBorder'><div class='vertical-center'><img style='vertical-align:center; align:center' src='img/fixation2_sml.jpg'></div><div class='arrayDiv1'><div class='tc'><img class='introPic' src='trustrating_stim/white_mw091.bmp'><br><font color='green'><strong>Share</strong></font></div></div></div>","null","ARRAY","1","trustrating_stim/white_mw091.bmp","1","noMatchFace","i","1500","","","","",""
"html-keyboard-response","122","343947","0.0-7.0-3.17","5de8887aa2db898017debf1a","bdp_wmem","Mon Mar 13 2023 21:27:36 GMT-0700 (Pacific Daylight Time)","643992","Match,No Match","","null","","","","","","<div class='trialBorder'><div class='vertical-center'><img src='img/fixation2_sml.jpg'</img></div></div>","null","DELAY","","","","","","","","","","",""
"html-keyboard-response","123","344998","0.0-7.0-4.17","5de8887aa2db898017debf1a","bdp_wmem","Mon Mar 13 2023 21:27:36 GMT-0700 (Pacific Daylight Time)","643992","Match,No Match","","1049","","","","","","<div class='trialBorder'><div class='targDiv'><div class='tc'><img class='introPic' src='trustrating_stim/white_mw042.bmp'><br><font color='green'><strong>Share</strong></font></div></div><div class='respDiv'><div class='respDivL'>Match<br>(e)</div><div class='respDivR'>No Match<br>(i)</div></div></div>","i","TARGET","1","trustrating_stim/white_mw091.bmp","1","noMatchFace","i","1500","trustrating_stim/white_mw042.bmp","green","Share","REAL","1"
"html-keyboard-response","124","345504","0.0-7.0-5.17","5de8887aa2db898017debf1a","bdp_wmem","Mon Mar 13 2023 21:27:36 GMT-0700 (Pacific Daylight Time)","643992","Match,No Match","","null","","","","","","<div class='trialBorder'><div class='vertical-center'><img src='img/correct.jpg'></div><div class='respDiv'><div class='respDivL'>Match<br>(e)</div><div class='respDivR'><font style='color:orange'>No Match<br>(i)</font></div></div></div>","null","FEEDBACK","","","","","","","","","","",""
"html-keyboard-response","125","346010","0.0-7.0-1.18","5de8887aa2db898017debf1a","bdp_wmem","Mon Mar 13 2023 21:27:36 GMT-0700 (Pacific Daylight Time)","643992","Match,No Match","","null","","","","","","<div class='trialBorder'><div class='vertical-center'><img src='img/fixation2_sml.jpg'</img></div></div>","null","FIX","","","","","","","","","","",""
"html-keyboard-response","126","349020","0.0-7.0-2.18","5de8887aa2db898017debf1a","bdp_wmem","Mon Mar 13 2023 21:27:36 GMT-0700 (Pacific Daylight Time)","643992","Match,No Match","","null","","","","","","<div class='trialBorder'><div class='vertical-center'><img style='vertical-align:center; align:center' src='img/fixation2_sml.jpg'></div><div class='arrayDiv2'><div class='tl'><img class='introPic' src='trustrating_stim/white_mw040.bmp'><br><font color='green'><strong>Share</strong></font></div><div class='tr'><img class='introPic' src='trustrating_stim/white_mw042.bmp'><br><font color='red'><strong>Keep</strong></font></div></div></div>","null","ARRAY","2","trustrating_stim/white_mw040.bmp,trustrating_stim/white_mw042.bmp","1,0","Match","e","3000","","","","",""
"html-keyboard-response","127","353025","0.0-7.0-3.18","5de8887aa2db898017debf1a","bdp_wmem","Mon Mar 13 2023 21:27:36 GMT-0700 (Pacific Daylight Time)","643992","Match,No Match","","null","","","","","","<div class='trialBorder'><div class='vertical-center'><img src='img/fixation2_sml.jpg'</img></div></div>","null","DELAY","","","","","","","","","","",""
"html-keyboard-response","128","354387","0.0-7.0-4.18","5de8887aa2db898017debf1a","bdp_wmem","Mon Mar 13 2023 21:27:36 GMT-0700 (Pacific Daylight Time)","643992","Match,No Match","","1360","","","","","","<div class='trialBorder'><div class='targDiv'><div class='tc'><img class='introPic' src='trustrating_stim/white_mw042.bmp'><br><font color='red'><strong>Keep</strong></font></div></div><div class='respDiv'><div class='respDivL'>Match<br>(e)</div><div class='respDivR'>No Match<br>(i)</div></div></div>","e","TARGET","2","trustrating_stim/white_mw040.bmp,trustrating_stim/white_mw042.bmp","1,0","Match","e","3000","trustrating_stim/white_mw042.bmp","red","Keep","REAL","1"
"html-keyboard-response","129","354892","0.0-7.0-5.18","5de8887aa2db898017debf1a","bdp_wmem","Mon Mar 13 2023 21:27:36 GMT-0700 (Pacific Daylight Time)","643992","Match,No Match","","null","","","","","","<div class='trialBorder'><div class='vertical-center'><img src='img/correct.jpg'></div><div class='respDiv'><div class='respDivL'><font style='color:orange'>Match<br>(e)</font></div><div class='respDivR'>No Match<br>(i)</div></div></div>","null","FEEDBACK","","","","","","","","","","",""
"html-keyboard-response","130","355403","0.0-7.0-1.19","5de8887aa2db898017debf1a","bdp_wmem","Mon Mar 13 2023 21:27:36 GMT-0700 (Pacific Daylight Time)","643992","Match,No Match","","null","","","","","","<div class='trialBorder'><div class='vertical-center'><img src='img/fixation2_sml.jpg'</img></div></div>","null","FIX","","","","","","","","","","",""
"html-keyboard-response","131","356916","0.0-7.0-2.19","5de8887aa2db898017debf1a","bdp_wmem","Mon Mar 13 2023 21:27:36 GMT-0700 (Pacific Daylight Time)","643992","Match,No Match","","null","","","","","","<div class='trialBorder'><div class='vertical-center'><img style='vertical-align:center; align:center' src='img/fixation2_sml.jpg'></div><div class='arrayDiv1'><div class='tc'><img class='introPic' src='trustrating_stim/white_mw003.bmp'><br><font color='green'><strong>Share</strong></font></div></div></div>","null","ARRAY","1","trustrating_stim/white_mw003.bmp","1","Match","e","1500","","","","",""
"html-keyboard-response","132","360922","0.0-7.0-3.19","5de8887aa2db898017debf1a","bdp_wmem","Mon Mar 13 2023 21:27:36 GMT-0700 (Pacific Daylight Time)","643992","Match,No Match","","null","","","","","","<div class='trialBorder'><div class='vertical-center'><img src='img/fixation2_sml.jpg'</img></div></div>","null","DELAY","","","","","","","","","","",""
"html-keyboard-response","133","362574","0.0-7.0-4.19","5de8887aa2db898017debf1a","bdp_wmem","Mon Mar 13 2023 21:27:36 GMT-0700 (Pacific Daylight Time)","643992","Match,No Match","","1649","","","","","","<div class='trialBorder'><div class='targDiv'><div class='tc'><img class='introPic' src='trustrating_stim/white_mw003.bmp'><br><font color='green'><strong>Share</strong></font></div></div><div class='respDiv'><div class='respDivL'>Match<br>(e)</div><div class='respDivR'>No Match<br>(i)</div></div></div>","e","TARGET","1","trustrating_stim/white_mw003.bmp","1","Match","e","1500","trustrating_stim/white_mw003.bmp","green","Share","REAL","1"
"html-keyboard-response","134","363084","0.0-7.0-5.19","5de8887aa2db898017debf1a","bdp_wmem","Mon Mar 13 2023 21:27:36 GMT-0700 (Pacific Daylight Time)","643992","Match,No Match","","null","","","","","","<div class='trialBorder'><div class='vertical-center'><img src='img/correct.jpg'></div><div class='respDiv'><div class='respDivL'><font style='color:orange'>Match<br>(e)</font></div><div class='respDivR'>No Match<br>(i)</div></div></div>","null","FEEDBACK","","","","","","","","","","",""
"html-keyboard-response","135","363595","0.0-7.0-1.20","5de8887aa2db898017debf1a","bdp_wmem","Mon Mar 13 2023 21:27:36 GMT-0700 (Pacific Daylight Time)","643992","Match,No Match","","null","","","","","","<div class='trialBorder'><div class='vertical-center'><img src='img/fixation2_sml.jpg'</img></div></div>","null","FIX","","","","","","","","","","",""
"html-keyboard-response","136","366602","0.0-7.0-2.20","5de8887aa2db898017debf1a","bdp_wmem","Mon Mar 13 2023 21:27:36 GMT-0700 (Pacific Daylight Time)","643992","Match,No Match","","null","","","","","","<div class='trialBorder'><div class='vertical-center'><img style='vertical-align:center; align:center' src='img/fixation2_sml.jpg'></div><div class='arrayDiv2'><div class='tl'><img class='introPic' src='trustrating_stim/white_mw013.bmp'><br><font color='red'><strong>Keep</strong></font></div><div class='tr'><img class='introPic' src='trustrating_stim/white_mw078.bmp'><br><font color='green'><strong>Share</strong></font></div></div></div>","null","ARRAY","2","trustrating_stim/white_mw013.bmp,trustrating_stim/white_mw078.bmp","0,1","Match","e","3000","","","","",""
"html-keyboard-response","137","370609","0.0-7.0-3.20","5de8887aa2db898017debf1a","bdp_wmem","Mon Mar 13 2023 21:27:36 GMT-0700 (Pacific Daylight Time)","643992","Match,No Match","","null","","","","","","<div class='trialBorder'><div class='vertical-center'><img src='img/fixation2_sml.jpg'</img></div></div>","null","DELAY","","","","","","","","","","",""
"html-keyboard-response","138","371601","0.0-7.0-4.20","5de8887aa2db898017debf1a","bdp_wmem","Mon Mar 13 2023 21:27:36 GMT-0700 (Pacific Daylight Time)","643992","Match,No Match","","989","","","","","","<div class='trialBorder'><div class='targDiv'><div class='tc'><img class='introPic' src='trustrating_stim/white_mw013.bmp'><br><font color='red'><strong>Keep</strong></font></div></div><div class='respDiv'><div class='respDivL'>Match<br>(e)</div><div class='respDivR'>No Match<br>(i)</div></div></div>","e","TARGET","2","trustrating_stim/white_mw013.bmp,trustrating_stim/white_mw078.bmp","0,1","Match","e","3000","trustrating_stim/white_mw013.bmp","red","Keep","REAL","1"
"html-keyboard-response","139","372108","0.0-7.0-5.20","5de8887aa2db898017debf1a","bdp_wmem","Mon Mar 13 2023 21:27:36 GMT-0700 (Pacific Daylight Time)","643992","Match,No Match","","null","","","","","","<div class='trialBorder'><div class='vertical-center'><img src='img/correct.jpg'></div><div class='respDiv'><div class='respDivL'><font style='color:orange'>Match<br>(e)</font></div><div class='respDivR'>No Match<br>(i)</div></div></div>","null","FEEDBACK","","","","","","","","","","",""
"html-keyboard-response","140","372618","0.0-7.0-1.21","5de8887aa2db898017debf1a","bdp_wmem","Mon Mar 13 2023 21:27:36 GMT-0700 (Pacific Daylight Time)","643992","Match,No Match","","null","","","","","","<div class='trialBorder'><div class='vertical-center'><img src='img/fixation2_sml.jpg'</img></div></div>","null","FIX","","","","","","","","","","",""
"html-keyboard-response","141","377130","0.0-7.0-2.21","5de8887aa2db898017debf1a","bdp_wmem","Mon Mar 13 2023 21:27:36 GMT-0700 (Pacific Daylight Time)","643992","Match,No Match","","null","","","","","","<div class='trialBorder'><div class='vertical-center'><img style='vertical-align:center; align:center' src='img/fixation2_sml.jpg'></div><div class='arrayDiv3'><div class='tl'><img class='introPic' src='trustrating_stim/white_mw038.bmp'><br><font color='red'><strong>Keep</strong></font></div><div class='tc'><img class='introPic' src='trustrating_stim/white_mw012.bmp'><br><font color='green'><strong>Share</strong></font></div><div class='tr'><img class='introPic' src='trustrating_stim/white_mw085.bmp'><br><font color='red'><strong>Keep</strong></font></div></div></div>","null","ARRAY","3","trustrating_stim/white_mw038.bmp,trustrating_stim/white_mw012.bmp,trustrating_stim/white_mw085.bmp","0,1,0","Match","e","4500","","","","",""
"html-keyboard-response","142","381135","0.0-7.0-3.21","5de8887aa2db898017debf1a","bdp_wmem","Mon Mar 13 2023 21:27:36 GMT-0700 (Pacific Daylight Time)","643992","Match,No Match","","null","","","","","","<div class='trialBorder'><div class='vertical-center'><img src='img/fixation2_sml.jpg'</img></div></div>","null","DELAY","","","","","","","","","","",""
"html-keyboard-response","143","382283","0.0-7.0-4.21","5de8887aa2db898017debf1a","bdp_wmem","Mon Mar 13 2023 21:27:36 GMT-0700 (Pacific Daylight Time)","643992","Match,No Match","","1145","","","","","","<div class='trialBorder'><div class='targDiv'><div class='tc'><img class='introPic' src='trustrating_stim/white_mw038.bmp'><br><font color='red'><strong>Keep</strong></font></div></div><div class='respDiv'><div class='respDivL'>Match<br>(e)</div><div class='respDivR'>No Match<br>(i)</div></div></div>","e","TARGET","3","trustrating_stim/white_mw038.bmp,trustrating_stim/white_mw012.bmp,trustrating_stim/white_mw085.bmp","0,1,0","Match","e","4500","trustrating_stim/white_mw038.bmp","red","Keep","REAL","1"
"html-keyboard-response","144","382791","0.0-7.0-5.21","5de8887aa2db898017debf1a","bdp_wmem","Mon Mar 13 2023 21:27:36 GMT-0700 (Pacific Daylight Time)","643992","Match,No Match","","null","","","","","","<div class='trialBorder'><div class='vertical-center'><img src='img/correct.jpg'></div><div class='respDiv'><div class='respDivL'><font style='color:orange'>Match<br>(e)</font></div><div class='respDivR'>No Match<br>(i)</div></div></div>","null","FEEDBACK","","","","","","","","","","",""
"html-keyboard-response","145","383299","0.0-7.0-1.22","5de8887aa2db898017debf1a","bdp_wmem","Mon Mar 13 2023 21:27:36 GMT-0700 (Pacific Daylight Time)","643992","Match,No Match","","null","","","","","","<div class='trialBorder'><div class='vertical-center'><img src='img/fixation2_sml.jpg'</img></div></div>","null","FIX","","","","","","","","","","",""
"html-keyboard-response","146","387808","0.0-7.0-2.22","5de8887aa2db898017debf1a","bdp_wmem","Mon Mar 13 2023 21:27:36 GMT-0700 (Pacific Daylight Time)","643992","Match,No Match","","null","","","","","","<div class='trialBorder'><div class='vertical-center'><img style='vertical-align:center; align:center' src='img/fixation2_sml.jpg'></div><div class='arrayDiv3'><div class='tl'><img class='introPic' src='trustrating_stim/white_mw085.bmp'><br><font color='green'><strong>Share</strong></font></div><div class='tc'><img class='introPic' src='trustrating_stim/white_mw092.bmp'><br><font color='red'><strong>Keep</strong></font></div><div class='tr'><img class='introPic' src='trustrating_stim/white_mw013.bmp'><br><font color='green'><strong>Share</strong></font></div></div></div>","null","ARRAY","3","trustrating_stim/white_mw085.bmp,trustrating_stim/white_mw092.bmp,trustrating_stim/white_mw013.bmp","1,0,1","Match","e","4500","","","","",""
"html-keyboard-response","147","391818","0.0-7.0-3.22","5de8887aa2db898017debf1a","bdp_wmem","Mon Mar 13 2023 21:27:36 GMT-0700 (Pacific Daylight Time)","643992","Match,No Match","","null","","","","","","<div class='trialBorder'><div class='vertical-center'><img src='img/fixation2_sml.jpg'</img></div></div>","null","DELAY","","","","","","","","","","",""
"html-keyboard-response","148","393381","0.0-7.0-4.22","5de8887aa2db898017debf1a","bdp_wmem","Mon Mar 13 2023 21:27:36 GMT-0700 (Pacific Daylight Time)","643992","Match,No Match","","1559","","","","","","<div class='trialBorder'><div class='targDiv'><div class='tc'><img class='introPic' src='trustrating_stim/white_mw013.bmp'><br><font color='green'><strong>Share</strong></font></div></div><div class='respDiv'><div class='respDivL'>Match<br>(e)</div><div class='respDivR'>No Match<br>(i)</div></div></div>","i","TARGET","3","trustrating_stim/white_mw085.bmp,trustrating_stim/white_mw092.bmp,trustrating_stim/white_mw013.bmp","1,0,1","Match","e","4500","trustrating_stim/white_mw013.bmp","green","Share","REAL","0"
"html-keyboard-response","149","393891","0.0-7.0-5.22","5de8887aa2db898017debf1a","bdp_wmem","Mon Mar 13 2023 21:27:36 GMT-0700 (Pacific Daylight Time)","643992","Match,No Match","","null","","","","","","<div class='trialBorder'><div class='vertical-center'><img src='img/error.jpg'></div><div class='respDiv'><div class='respDivL'>Match<br>(e)</div><div class='respDivR'><font style='color:orange'>No Match<br>(i)</font></div></div></div>","null","FEEDBACK","","","","","","","","","","",""
"html-keyboard-response","150","394400","0.0-7.0-1.23","5de8887aa2db898017debf1a","bdp_wmem","Mon Mar 13 2023 21:27:36 GMT-0700 (Pacific Daylight Time)","643992","Match,No Match","","null","","","","","","<div class='trialBorder'><div class='vertical-center'><img src='img/fixation2_sml.jpg'</img></div></div>","null","FIX","","","","","","","","","","",""
"html-keyboard-response","151","398905","0.0-7.0-2.23","5de8887aa2db898017debf1a","bdp_wmem","Mon Mar 13 2023 21:27:36 GMT-0700 (Pacific Daylight Time)","643992","Match,No Match","","null","","","","","","<div class='trialBorder'><div class='vertical-center'><img style='vertical-align:center; align:center' src='img/fixation2_sml.jpg'></div><div class='arrayDiv3'><div class='tl'><img class='introPic' src='trustrating_stim/white_mw042.bmp'><br><font color='red'><strong>Keep</strong></font></div><div class='tc'><img class='introPic' src='trustrating_stim/white_mw040.bmp'><br><font color='green'><strong>Share</strong></font></div><div class='tr'><img class='introPic' src='trustrating_stim/white_mw013.bmp'><br><font color='green'><strong>Share</strong></font></div></div></div>","null","ARRAY","3","trustrating_stim/white_mw042.bmp,trustrating_stim/white_mw040.bmp,trustrating_stim/white_mw013.bmp","0,1,1","noMatchOutcome","i","4500","","","","",""
"html-keyboard-response","152","402911","0.0-7.0-3.23","5de8887aa2db898017debf1a","bdp_wmem","Mon Mar 13 2023 21:27:36 GMT-0700 (Pacific Daylight Time)","643992","Match,No Match","","null","","","","","","<div class='trialBorder'><div class='vertical-center'><img src='img/fixation2_sml.jpg'</img></div></div>","null","DELAY","","","","","","","","","","",""
"html-keyboard-response","153","404326","0.0-7.0-4.23","5de8887aa2db898017debf1a","bdp_wmem","Mon Mar 13 2023 21:27:36 GMT-0700 (Pacific Daylight Time)","643992","Match,No Match","","1412","","","","","","<div class='trialBorder'><div class='targDiv'><div class='tc'><img class='introPic' src='trustrating_stim/white_mw013.bmp'><br><font color='red'><strong>Keep</strong></font></div></div><div class='respDiv'><div class='respDivL'>Match<br>(e)</div><div class='respDivR'>No Match<br>(i)</div></div></div>","i","TARGET","3","trustrating_stim/white_mw042.bmp,trustrating_stim/white_mw040.bmp,trustrating_stim/white_mw013.bmp","0,1,1","noMatchOutcome","i","4500","trustrating_stim/white_mw013.bmp","red","Keep","REAL","1"
"html-keyboard-response","154","404831","0.0-7.0-5.23","5de8887aa2db898017debf1a","bdp_wmem","Mon Mar 13 2023 21:27:36 GMT-0700 (Pacific Daylight Time)","643992","Match,No Match","","null","","","","","","<div class='trialBorder'><div class='vertical-center'><img src='img/correct.jpg'></div><div class='respDiv'><div class='respDivL'>Match<br>(e)</div><div class='respDivR'><font style='color:orange'>No Match<br>(i)</font></div></div></div>","null","FEEDBACK","","","","","","","","","","",""
"html-keyboard-response","155","405337","0.0-7.0-1.24","5de8887aa2db898017debf1a","bdp_wmem","Mon Mar 13 2023 21:27:36 GMT-0700 (Pacific Daylight Time)","643992","Match,No Match","","null","","","","","","<div class='trialBorder'><div class='vertical-center'><img src='img/fixation2_sml.jpg'</img></div></div>","null","FIX","","","","","","","","","","",""
"html-keyboard-response","156","406849","0.0-7.0-2.24","5de8887aa2db898017debf1a","bdp_wmem","Mon Mar 13 2023 21:27:36 GMT-0700 (Pacific Daylight Time)","643992","Match,No Match","","null","","","","","","<div class='trialBorder'><div class='vertical-center'><img style='vertical-align:center; align:center' src='img/fixation2_sml.jpg'></div><div class='arrayDiv1'><div class='tc'><img class='introPic' src='trustrating_stim/white_mw085.bmp'><br><font color='red'><strong>Keep</strong></font></div></div></div>","null","ARRAY","1","trustrating_stim/white_mw085.bmp","0","noMatchOutcome","i","1500","","","","",""
"html-keyboard-response","157","410858","0.0-7.0-3.24","5de8887aa2db898017debf1a","bdp_wmem","Mon Mar 13 2023 21:27:36 GMT-0700 (Pacific Daylight Time)","643992","Match,No Match","","null","","","","","","<div class='trialBorder'><div class='vertical-center'><img src='img/fixation2_sml.jpg'</img></div></div>","null","DELAY","","","","","","","","","","",""
"html-keyboard-response","158","411706","0.0-7.0-4.24","5de8887aa2db898017debf1a","bdp_wmem","Mon Mar 13 2023 21:27:36 GMT-0700 (Pacific Daylight Time)","643992","Match,No Match","","846","","","","","","<div class='trialBorder'><div class='targDiv'><div class='tc'><img class='introPic' src='trustrating_stim/white_mw085.bmp'><br><font color='green'><strong>Share</strong></font></div></div><div class='respDiv'><div class='respDivL'>Match<br>(e)</div><div class='respDivR'>No Match<br>(i)</div></div></div>","i","TARGET","1","trustrating_stim/white_mw085.bmp","0","noMatchOutcome","i","1500","trustrating_stim/white_mw085.bmp","green","Share","REAL","1"
"html-keyboard-response","159","412217","0.0-7.0-5.24","5de8887aa2db898017debf1a","bdp_wmem","Mon Mar 13 2023 21:27:36 GMT-0700 (Pacific Daylight Time)","643992","Match,No Match","","null","","","","","","<div class='trialBorder'><div class='vertical-center'><img src='img/correct.jpg'></div><div class='respDiv'><div class='respDivL'>Match<br>(e)</div><div class='respDivR'><font style='color:orange'>No Match<br>(i)</font></div></div></div>","null","FEEDBACK","","","","","","","","","","",""
"html-keyboard-response","160","412730","0.0-7.0-1.25","5de8887aa2db898017debf1a","bdp_wmem","Mon Mar 13 2023 21:27:36 GMT-0700 (Pacific Daylight Time)","643992","Match,No Match","","null","","","","","","<div class='trialBorder'><div class='vertical-center'><img src='img/fixation2_sml.jpg'</img></div></div>","null","FIX","","","","","","","","","","",""
"html-keyboard-response","161","417240","0.0-7.0-2.25","5de8887aa2db898017debf1a","bdp_wmem","Mon Mar 13 2023 21:27:36 GMT-0700 (Pacific Daylight Time)","643992","Match,No Match","","null","","","","","","<div class='trialBorder'><div class='vertical-center'><img style='vertical-align:center; align:center' src='img/fixation2_sml.jpg'></div><div class='arrayDiv3'><div class='tl'><img class='introPic' src='trustrating_stim/white_mw042.bmp'><br><font color='red'><strong>Keep</strong></font></div><div class='tc'><img class='introPic' src='trustrating_stim/white_mw010.bmp'><br><font color='green'><strong>Share</strong></font></div><div class='tr'><img class='introPic' src='trustrating_stim/white_mw085.bmp'><br><font color='green'><strong>Share</strong></font></div></div></div>","null","ARRAY","3","trustrating_stim/white_mw042.bmp,trustrating_stim/white_mw010.bmp,trustrating_stim/white_mw085.bmp","0,1,1","Match","e","4500","","","","",""
"html-keyboard-response","162","421249","0.0-7.0-3.25","5de8887aa2db898017debf1a","bdp_wmem","Mon Mar 13 2023 21:27:36 GMT-0700 (Pacific Daylight Time)","643992","Match,No Match","","null","","","","","","<div class='trialBorder'><div class='vertical-center'><img src='img/fixation2_sml.jpg'</img></div></div>","null","DELAY","","","","","","","","","","",""
"html-keyboard-response","163","423032","0.0-7.0-4.25","5de8887aa2db898017debf1a","bdp_wmem","Mon Mar 13 2023 21:27:36 GMT-0700 (Pacific Daylight Time)","643992","Match,No Match","","1781","","","","","","<div class='trialBorder'><div class='targDiv'><div class='tc'><img class='introPic' src='trustrating_stim/white_mw085.bmp'><br><font color='green'><strong>Share</strong></font></div></div><div class='respDiv'><div class='respDivL'>Match<br>(e)</div><div class='respDivR'>No Match<br>(i)</div></div></div>","e","TARGET","3","trustrating_stim/white_mw042.bmp,trustrating_stim/white_mw010.bmp,trustrating_stim/white_mw085.bmp","0,1,1","Match","e","4500","trustrating_stim/white_mw085.bmp","green","Share","REAL","1"
"html-keyboard-response","164","423543","0.0-7.0-5.25","5de8887aa2db898017debf1a","bdp_wmem","Mon Mar 13 2023 21:27:36 GMT-0700 (Pacific Daylight Time)","643992","Match,No Match","","null","","","","","","<div class='trialBorder'><div class='vertical-center'><img src='img/correct.jpg'></div><div class='respDiv'><div class='respDivL'><font style='color:orange'>Match<br>(e)</font></div><div class='respDivR'>No Match<br>(i)</div></div></div>","null","FEEDBACK","","","","","","","","","","",""
"html-keyboard-response","165","424046","0.0-7.0-1.26","5de8887aa2db898017debf1a","bdp_wmem","Mon Mar 13 2023 21:27:36 GMT-0700 (Pacific Daylight Time)","643992","Match,No Match","","null","","","","","","<div class='trialBorder'><div class='vertical-center'><img src='img/fixation2_sml.jpg'</img></div></div>","null","FIX","","","","","","","","","","",""
"html-keyboard-response","166","425550","0.0-7.0-2.26","5de8887aa2db898017debf1a","bdp_wmem","Mon Mar 13 2023 21:27:36 GMT-0700 (Pacific Daylight Time)","643992","Match,No Match","","null","","","","","","<div class='trialBorder'><div class='vertical-center'><img style='vertical-align:center; align:center' src='img/fixation2_sml.jpg'></div><div class='arrayDiv1'><div class='tc'><img class='introPic' src='trustrating_stim/white_mw010.bmp'><br><font color='red'><strong>Keep</strong></font></div></div></div>","null","ARRAY","1","trustrating_stim/white_mw010.bmp","0","noMatchFace","i","1500","","","","",""
"html-keyboard-response","167","429560","0.0-7.0-3.26","5de8887aa2db898017debf1a","bdp_wmem","Mon Mar 13 2023 21:27:36 GMT-0700 (Pacific Daylight Time)","643992","Match,No Match","","null","","","","","","<div class='trialBorder'><div class='vertical-center'><img src='img/fixation2_sml.jpg'</img></div></div>","null","DELAY","","","","","","","","","","",""
"html-keyboard-response","168","430619","0.0-7.0-4.26","5de8887aa2db898017debf1a","bdp_wmem","Mon Mar 13 2023 21:27:36 GMT-0700 (Pacific Daylight Time)","643992","Match,No Match","","1057","","","","","","<div class='trialBorder'><div class='targDiv'><div class='tc'><img class='introPic' src='trustrating_stim/white_mw092.bmp'><br><font color='red'><strong>Keep</strong></font></div></div><div class='respDiv'><div class='respDivL'>Match<br>(e)</div><div class='respDivR'>No Match<br>(i)</div></div></div>","i","TARGET","1","trustrating_stim/white_mw010.bmp","0","noMatchFace","i","1500","trustrating_stim/white_mw092.bmp","red","Keep","REAL","1"
"html-keyboard-response","169","431128","0.0-7.0-5.26","5de8887aa2db898017debf1a","bdp_wmem","Mon Mar 13 2023 21:27:36 GMT-0700 (Pacific Daylight Time)","643992","Match,No Match","","null","","","","","","<div class='trialBorder'><div class='vertical-center'><img src='img/correct.jpg'></div><div class='respDiv'><div class='respDivL'>Match<br>(e)</div><div class='respDivR'><font style='color:orange'>No Match<br>(i)</font></div></div></div>","null","FEEDBACK","","","","","","","","","","",""
"html-keyboard-response","170","431640","0.0-7.0-1.27","5de8887aa2db898017debf1a","bdp_wmem","Mon Mar 13 2023 21:27:36 GMT-0700 (Pacific Daylight Time)","643992","Match,No Match","","null","","","","","","<div class='trialBorder'><div class='vertical-center'><img src='img/fixation2_sml.jpg'</img></div></div>","null","FIX","","","","","","","","","","",""
"html-keyboard-response","171","436152","0.0-7.0-2.27","5de8887aa2db898017debf1a","bdp_wmem","Mon Mar 13 2023 21:27:36 GMT-0700 (Pacific Daylight Time)","643992","Match,No Match","","null","","","","","","<div class='trialBorder'><div class='vertical-center'><img style='vertical-align:center; align:center' src='img/fixation2_sml.jpg'></div><div class='arrayDiv3'><div class='tl'><img class='introPic' src='trustrating_stim/white_mw092.bmp'><br><font color='red'><strong>Keep</strong></font></div><div class='tc'><img class='introPic' src='trustrating_stim/white_mw070.bmp'><br><font color='green'><strong>Share</strong></font></div><div class='tr'><img class='introPic' src='trustrating_stim/white_mw042.bmp'><br><font color='red'><strong>Keep</strong></font></div></div></div>","null","ARRAY","3","trustrating_stim/white_mw092.bmp,trustrating_stim/white_mw070.bmp,trustrating_stim/white_mw042.bmp","0,1,0","noMatchOutcome","i","4500","","","","",""
"html-keyboard-response","172","440158","0.0-7.0-3.27","5de8887aa2db898017debf1a","bdp_wmem","Mon Mar 13 2023 21:27:36 GMT-0700 (Pacific Daylight Time)","643992","Match,No Match","","null","","","","","","<div class='trialBorder'><div class='vertical-center'><img src='img/fixation2_sml.jpg'</img></div></div>","null","DELAY","","","","","","","","","","",""
"html-keyboard-response","173","443526","0.0-7.0-4.27","5de8887aa2db898017debf1a","bdp_wmem","Mon Mar 13 2023 21:27:36 GMT-0700 (Pacific Daylight Time)","643992","Match,No Match","","3365","","","","","","<div class='trialBorder'><div class='targDiv'><div class='tc'><img class='introPic' src='trustrating_stim/white_mw042.bmp'><br><font color='green'><strong>Share</strong></font></div></div><div class='respDiv'><div class='respDivL'>Match<br>(e)</div><div class='respDivR'>No Match<br>(i)</div></div></div>","i","TARGET","3","trustrating_stim/white_mw092.bmp,trustrating_stim/white_mw070.bmp,trustrating_stim/white_mw042.bmp","0,1,0","noMatchOutcome","i","4500","trustrating_stim/white_mw042.bmp","green","Share","REAL","1"
"html-keyboard-response","174","444029","0.0-7.0-5.27","5de8887aa2db898017debf1a","bdp_wmem","Mon Mar 13 2023 21:27:36 GMT-0700 (Pacific Daylight Time)","643992","Match,No Match","","null","","","","","","<div class='trialBorder'><div class='vertical-center'><img src='img/correct.jpg'></div><div class='respDiv'><div class='respDivL'>Match<br>(e)</div><div class='respDivR'><font style='color:orange'>No Match<br>(i)</font></div></div></div>","null","FEEDBACK","","","","","","","","","","",""
"html-keyboard-response","175","444536","0.0-7.0-1.28","5de8887aa2db898017debf1a","bdp_wmem","Mon Mar 13 2023 21:27:36 GMT-0700 (Pacific Daylight Time)","643992","Match,No Match","","null","","","","","","<div class='trialBorder'><div class='vertical-center'><img src='img/fixation2_sml.jpg'</img></div></div>","null","FIX","","","","","","","","","","",""
"html-keyboard-response","176","447543","0.0-7.0-2.28","5de8887aa2db898017debf1a","bdp_wmem","Mon Mar 13 2023 21:27:36 GMT-0700 (Pacific Daylight Time)","643992","Match,No Match","","null","","","","","","<div class='trialBorder'><div class='vertical-center'><img style='vertical-align:center; align:center' src='img/fixation2_sml.jpg'></div><div class='arrayDiv2'><div class='tl'><img class='introPic' src='trustrating_stim/white_mw091.bmp'><br><font color='red'><strong>Keep</strong></font></div><div class='tr'><img class='introPic' src='trustrating_stim/white_mw010.bmp'><br><font color='green'><strong>Share</strong></font></div></div></div>","null","ARRAY","2","trustrating_stim/white_mw091.bmp,trustrating_stim/white_mw010.bmp","0,1","noMatchFace","i","3000","","","","",""
"html-keyboard-response","177","451550","0.0-7.0-3.28","5de8887aa2db898017debf1a","bdp_wmem","Mon Mar 13 2023 21:27:36 GMT-0700 (Pacific Daylight Time)","643992","Match,No Match","","null","","","","","","<div class='trialBorder'><div class='vertical-center'><img src='img/fixation2_sml.jpg'</img></div></div>","null","DELAY","","","","","","","","","","",""
"html-keyboard-response","178","453168","0.0-7.0-4.28","5de8887aa2db898017debf1a","bdp_wmem","Mon Mar 13 2023 21:27:36 GMT-0700 (Pacific Daylight Time)","643992","Match,No Match","","1616","","","","","","<div class='trialBorder'><div class='targDiv'><div class='tc'><img class='introPic' src='trustrating_stim/white_mw040.bmp'><br><font color='green'><strong>Share</strong></font></div></div><div class='respDiv'><div class='respDivL'>Match<br>(e)</div><div class='respDivR'>No Match<br>(i)</div></div></div>","i","TARGET","2","trustrating_stim/white_mw091.bmp,trustrating_stim/white_mw010.bmp","0,1","noMatchFace","i","3000","trustrating_stim/white_mw040.bmp","green","Share","REAL","1"
"html-keyboard-response","179","453672","0.0-7.0-5.28","5de8887aa2db898017debf1a","bdp_wmem","Mon Mar 13 2023 21:27:36 GMT-0700 (Pacific Daylight Time)","643992","Match,No Match","","null","","","","","","<div class='trialBorder'><div class='vertical-center'><img src='img/correct.jpg'></div><div class='respDiv'><div class='respDivL'>Match<br>(e)</div><div class='respDivR'><font style='color:orange'>No Match<br>(i)</font></div></div></div>","null","FEEDBACK","","","","","","","","","","",""
"html-keyboard-response","180","454184","0.0-7.0-1.29","5de8887aa2db898017debf1a","bdp_wmem","Mon Mar 13 2023 21:27:36 GMT-0700 (Pacific Daylight Time)","643992","Match,No Match","","null","","","","","","<div class='trialBorder'><div class='vertical-center'><img src='img/fixation2_sml.jpg'</img></div></div>","null","FIX","","","","","","","","","","",""
"html-keyboard-response","181","457192","0.0-7.0-2.29","5de8887aa2db898017debf1a","bdp_wmem","Mon Mar 13 2023 21:27:36 GMT-0700 (Pacific Daylight Time)","643992","Match,No Match","","null","","","","","","<div class='trialBorder'><div class='vertical-center'><img style='vertical-align:center; align:center' src='img/fixation2_sml.jpg'></div><div class='arrayDiv2'><div class='tl'><img class='introPic' src='trustrating_stim/white_mw013.bmp'><br><font color='green'><strong>Share</strong></font></div><div class='tr'><img class='introPic' src='trustrating_stim/white_mw003.bmp'><br><font color='red'><strong>Keep</strong></font></div></div></div>","null","ARRAY","2","trustrating_stim/white_mw013.bmp,trustrating_stim/white_mw003.bmp","1,0","Match","e","3000","","","","",""
"html-keyboard-response","182","461197","0.0-7.0-3.29","5de8887aa2db898017debf1a","bdp_wmem","Mon Mar 13 2023 21:27:36 GMT-0700 (Pacific Daylight Time)","643992","Match,No Match","","null","","","","","","<div class='trialBorder'><div class='vertical-center'><img src='img/fixation2_sml.jpg'</img></div></div>","null","DELAY","","","","","","","","","","",""
"html-keyboard-response","183","463481","0.0-7.0-4.29","5de8887aa2db898017debf1a","bdp_wmem","Mon Mar 13 2023 21:27:36 GMT-0700 (Pacific Daylight Time)","643992","Match,No Match","","2281","","","","","","<div class='trialBorder'><div class='targDiv'><div class='tc'><img class='introPic' src='trustrating_stim/white_mw003.bmp'><br><font color='red'><strong>Keep</strong></font></div></div><div class='respDiv'><div class='respDivL'>Match<br>(e)</div><div class='respDivR'>No Match<br>(i)</div></div></div>","e","TARGET","2","trustrating_stim/white_mw013.bmp,trustrating_stim/white_mw003.bmp","1,0","Match","e","3000","trustrating_stim/white_mw003.bmp","red","Keep","REAL","1"
"html-keyboard-response","184","463992","0.0-7.0-5.29","5de8887aa2db898017debf1a","bdp_wmem","Mon Mar 13 2023 21:27:36 GMT-0700 (Pacific Daylight Time)","643992","Match,No Match","","null","","","","","","<div class='trialBorder'><div class='vertical-center'><img src='img/correct.jpg'></div><div class='respDiv'><div class='respDivL'><font style='color:orange'>Match<br>(e)</font></div><div class='respDivR'>No Match<br>(i)</div></div></div>","null","FEEDBACK","","","","","","","","","","",""
"html-keyboard-response","185","464501","0.0-7.0-1.30","5de8887aa2db898017debf1a","bdp_wmem","Mon Mar 13 2023 21:27:36 GMT-0700 (Pacific Daylight Time)","643992","Match,No Match","","null","","","","","","<div class='trialBorder'><div class='vertical-center'><img src='img/fixation2_sml.jpg'</img></div></div>","null","FIX","","","","","","","","","","",""
"html-keyboard-response","186","466007","0.0-7.0-2.30","5de8887aa2db898017debf1a","bdp_wmem","Mon Mar 13 2023 21:27:36 GMT-0700 (Pacific Daylight Time)","643992","Match,No Match","","null","","","","","","<div class='trialBorder'><div class='vertical-center'><img style='vertical-align:center; align:center' src='img/fixation2_sml.jpg'></div><div class='arrayDiv1'><div class='tc'><img class='introPic' src='trustrating_stim/white_mw013.bmp'><br><font color='red'><strong>Keep</strong></font></div></div></div>","null","ARRAY","1","trustrating_stim/white_mw013.bmp","0","noMatchFace","i","1500","","","","",""
"html-keyboard-response","187","470013","0.0-7.0-3.30","5de8887aa2db898017debf1a","bdp_wmem","Mon Mar 13 2023 21:27:36 GMT-0700 (Pacific Daylight Time)","643992","Match,No Match","","null","","","","","","<div class='trialBorder'><div class='vertical-center'><img src='img/fixation2_sml.jpg'</img></div></div>","null","DELAY","","","","","","","","","","",""
"html-keyboard-response","188","470979","0.0-7.0-4.30","5de8887aa2db898017debf1a","bdp_wmem","Mon Mar 13 2023 21:27:36 GMT-0700 (Pacific Daylight Time)","643992","Match,No Match","","964","","","","","","<div class='trialBorder'><div class='targDiv'><div class='tc'><img class='introPic' src='trustrating_stim/white_mw003.bmp'><br><font color='red'><strong>Keep</strong></font></div></div><div class='respDiv'><div class='respDivL'>Match<br>(e)</div><div class='respDivR'>No Match<br>(i)</div></div></div>","i","TARGET","1","trustrating_stim/white_mw013.bmp","0","noMatchFace","i","1500","trustrating_stim/white_mw003.bmp","red","Keep","REAL","1"
"html-keyboard-response","189","471485","0.0-7.0-5.30","5de8887aa2db898017debf1a","bdp_wmem","Mon Mar 13 2023 21:27:36 GMT-0700 (Pacific Daylight Time)","643992","Match,No Match","","null","","","","","","<div class='trialBorder'><div class='vertical-center'><img src='img/correct.jpg'></div><div class='respDiv'><div class='respDivL'>Match<br>(e)</div><div class='respDivR'><font style='color:orange'>No Match<br>(i)</font></div></div></div>","null","FEEDBACK","","","","","","","","","","",""
"html-keyboard-response","190","471991","0.0-7.0-1.31","5de8887aa2db898017debf1a","bdp_wmem","Mon Mar 13 2023 21:27:36 GMT-0700 (Pacific Daylight Time)","643992","Match,No Match","","null","","","","","","<div class='trialBorder'><div class='vertical-center'><img src='img/fixation2_sml.jpg'</img></div></div>","null","FIX","","","","","","","","","","",""
