"trial_type","trial_index","time_elapsed","internal_node_id","subject_id","task","startTime","totalTime","labels","view_history","rt","event","trial","time","trialtype","success","stimulus","key_press","stimType","arraySize","arrayFaces","arrayOutcomes","matchType","corrResp","arrayDur","targFace","targCol","targOutcome","trialType","corr"
"pavlovia","0","5","0.0-0.0","5eba16d1843bd1154b5a2aa9","bdp_wmem","Thu Jul 28 2022 00:45:30 GMT-0400 (Eastern Daylight Time)","570541","Match,No Match","","","","","","","","","","","","","","","","","","","","",""
"instructions","1","3364","0.0-1.0","5eba16d1843bd1154b5a2aa9","bdp_wmem","Thu Jul 28 2022 00:45:30 GMT-0400 (Eastern Daylight Time)","570541","Match,No Match","[{""page_index"":0,""viewing_time"":3359}]","3359","","","","","","","","","","","","","","","","","","",""
"","","","","5eba16d1843bd1154b5a2aa9","bdp_wmem","Thu Jul 28 2022 00:45:30 GMT-0400 (Eastern Daylight Time)","570541","Match,No Match","","","fullscreenenter","2","6013","fullscreenenter","","","","","","","","","","","","","","",""
"fullscreen","2","7001","0.0-2.0","5eba16d1843bd1154b5a2aa9","bdp_wmem","Thu Jul 28 2022 00:45:30 GMT-0400 (Eastern Daylight Time)","570541","Match,No Match","","","","","","","true","","","","","","","","","","","","","",""
"instructions","3","88508","0.0-4.0","5eba16d1843bd1154b5a2aa9","bdp_wmem","Thu Jul 28 2022 00:45:30 GMT-0400 (Eastern Daylight Time)","570541","Match,No Match","[{""page_index"":0,""viewing_time"":27941},{""page_index"":1,""viewing_time"":33892},{""page_index"":2,""viewing_time"":8801},{""page_index"":3,""viewing_time"":8586},{""page_index"":4,""viewing_time"":2284}]","81504","","","","","","","","","","","","","","","","","","",""
"html-keyboard-response","4","89010","0.0-5.0-1.0","5eba16d1843bd1154b5a2aa9","bdp_wmem","Thu Jul 28 2022 00:45:30 GMT-0400 (Eastern Daylight Time)","570541","Match,No Match","","null","","","","","","<div class='trialBorder'><div class='vertical-center'><img src='img/fixation2_sml.jpg'</img></div></div>","null","FIX","","","","","","","","","","",""
"html-keyboard-response","5","93512","0.0-5.0-2.0","5eba16d1843bd1154b5a2aa9","bdp_wmem","Thu Jul 28 2022 00:45:30 GMT-0400 (Eastern Daylight Time)","570541","Match,No Match","","null","","","","","","<div class='trialBorder'><div class='vertical-center'><img style='vertical-align:center; align:center' src='img/fixation2_sml.jpg'></div><div class='arrayDiv3'><div class='tl'><img class='introPic' src='trustrating_stim/white_mw010.bmp'><br><font color='red'><strong>Keep</strong></font></div><div class='tc'><img class='introPic' src='trustrating_stim/white_mw012.bmp'><br><font color='green'><strong>Share</strong></font></div><div class='tr'><img class='introPic' src='trustrating_stim/white_mw003.bmp'><br><font color='red'><strong>Keep</strong></font></div></div></div>","null","ARRAY","3","trustrating_stim/white_mw010.bmp,trustrating_stim/white_mw012.bmp,trustrating_stim/white_mw003.bmp","0,1,0","Match","e","4500","","","","",""
"html-keyboard-response","6","97513","0.0-5.0-3.0","5eba16d1843bd1154b5a2aa9","bdp_wmem","Thu Jul 28 2022 00:45:30 GMT-0400 (Eastern Daylight Time)","570541","Match,No Match","","null","","","","","","<div class='trialBorder'><div class='vertical-center'><img src='img/fixation2_sml.jpg'</img></div></div>","null","DELAY","","","","","","","","","","",""
"html-keyboard-response","7","98852","0.0-5.0-4.0","5eba16d1843bd1154b5a2aa9","bdp_wmem","Thu Jul 28 2022 00:45:30 GMT-0400 (Eastern Daylight Time)","570541","Match,No Match","","1339","","","","","","<div class='trialBorder'><div class='targDiv'><div class='tc'><img class='introPic' src='trustrating_stim/white_mw003.bmp'><br><font color='red'><strong>Keep</strong></font></div></div><div class='respDiv'><div class='respDivL'>Match<br>(e)</div><div class='respDivR'>No Match<br>(i)</div></div></div>","i","TARGET","3","trustrating_stim/white_mw010.bmp,trustrating_stim/white_mw012.bmp,trustrating_stim/white_mw003.bmp","0,1,0","Match","e","4500","trustrating_stim/white_mw003.bmp","red","Keep","PRACTICE","0"
"html-keyboard-response","8","99353","0.0-5.0-5.0","5eba16d1843bd1154b5a2aa9","bdp_wmem","Thu Jul 28 2022 00:45:30 GMT-0400 (Eastern Daylight Time)","570541","Match,No Match","","null","","","","","","<div class='trialBorder'><div class='vertical-center'><img src='img/error.jpg'></div><div class='respDiv'><div class='respDivL'>Match<br>(e)</div><div class='respDivR'><font style='color:orange'>No Match<br>(i)</font></div></div></div>","null","FEEDBACK","","","","","","","","","","",""
"html-keyboard-response","9","99854","0.0-5.0-1.1","5eba16d1843bd1154b5a2aa9","bdp_wmem","Thu Jul 28 2022 00:45:30 GMT-0400 (Eastern Daylight Time)","570541","Match,No Match","","null","","","","","","<div class='trialBorder'><div class='vertical-center'><img src='img/fixation2_sml.jpg'</img></div></div>","null","FIX","","","","","","","","","","",""
"html-keyboard-response","10","101356","0.0-5.0-2.1","5eba16d1843bd1154b5a2aa9","bdp_wmem","Thu Jul 28 2022 00:45:30 GMT-0400 (Eastern Daylight Time)","570541","Match,No Match","","null","","","","","","<div class='trialBorder'><div class='vertical-center'><img style='vertical-align:center; align:center' src='img/fixation2_sml.jpg'></div><div class='arrayDiv1'><div class='tc'><img class='introPic' src='trustrating_stim/white_mw013.bmp'><br><font color='red'><strong>Keep</strong></font></div></div></div>","null","ARRAY","1","trustrating_stim/white_mw013.bmp","0","noMatchFace","i","1500","","","","",""
"html-keyboard-response","11","105358","0.0-5.0-3.1","5eba16d1843bd1154b5a2aa9","bdp_wmem","Thu Jul 28 2022 00:45:30 GMT-0400 (Eastern Daylight Time)","570541","Match,No Match","","null","","","","","","<div class='trialBorder'><div class='vertical-center'><img src='img/fixation2_sml.jpg'</img></div></div>","null","DELAY","","","","","","","","","","",""
"html-keyboard-response","12","106497","0.0-5.0-4.1","5eba16d1843bd1154b5a2aa9","bdp_wmem","Thu Jul 28 2022 00:45:30 GMT-0400 (Eastern Daylight Time)","570541","Match,No Match","","1137","","","","","","<div class='trialBorder'><div class='targDiv'><div class='tc'><img class='introPic' src='trustrating_stim/white_mw078.bmp'><br><font color='red'><strong>Keep</strong></font></div></div><div class='respDiv'><div class='respDivL'>Match<br>(e)</div><div class='respDivR'>No Match<br>(i)</div></div></div>","i","TARGET","1","trustrating_stim/white_mw013.bmp","0","noMatchFace","i","1500","trustrating_stim/white_mw078.bmp","red","Keep","PRACTICE","1"
"html-keyboard-response","13","106998","0.0-5.0-5.1","5eba16d1843bd1154b5a2aa9","bdp_wmem","Thu Jul 28 2022 00:45:30 GMT-0400 (Eastern Daylight Time)","570541","Match,No Match","","null","","","","","","<div class='trialBorder'><div class='vertical-center'><img src='img/correct.jpg'></div><div class='respDiv'><div class='respDivL'>Match<br>(e)</div><div class='respDivR'><font style='color:orange'>No Match<br>(i)</font></div></div></div>","null","FEEDBACK","","","","","","","","","","",""
"html-keyboard-response","14","107499","0.0-5.0-1.2","5eba16d1843bd1154b5a2aa9","bdp_wmem","Thu Jul 28 2022 00:45:30 GMT-0400 (Eastern Daylight Time)","570541","Match,No Match","","null","","","","","","<div class='trialBorder'><div class='vertical-center'><img src='img/fixation2_sml.jpg'</img></div></div>","null","FIX","","","","","","","","","","",""
"html-keyboard-response","15","110501","0.0-5.0-2.2","5eba16d1843bd1154b5a2aa9","bdp_wmem","Thu Jul 28 2022 00:45:30 GMT-0400 (Eastern Daylight Time)","570541","Match,No Match","","null","","","","","","<div class='trialBorder'><div class='vertical-center'><img style='vertical-align:center; align:center' src='img/fixation2_sml.jpg'></div><div class='arrayDiv2'><div class='tl'><img class='introPic' src='trustrating_stim/white_mw010.bmp'><br><font color='green'><strong>Share</strong></font></div><div class='tr'><img class='introPic' src='trustrating_stim/white_mw078.bmp'><br><font color='red'><strong>Keep</strong></font></div></div></div>","null","ARRAY","2","trustrating_stim/white_mw010.bmp,trustrating_stim/white_mw078.bmp","1,0","Match","e","3000","","","","",""
"html-keyboard-response","16","114503","0.0-5.0-3.2","5eba16d1843bd1154b5a2aa9","bdp_wmem","Thu Jul 28 2022 00:45:30 GMT-0400 (Eastern Daylight Time)","570541","Match,No Match","","null","","","","","","<div class='trialBorder'><div class='vertical-center'><img src='img/fixation2_sml.jpg'</img></div></div>","null","DELAY","","","","","","","","","","",""
"html-keyboard-response","17","117860","0.0-5.0-4.2","5eba16d1843bd1154b5a2aa9","bdp_wmem","Thu Jul 28 2022 00:45:30 GMT-0400 (Eastern Daylight Time)","570541","Match,No Match","","3357","","","","","","<div class='trialBorder'><div class='targDiv'><div class='tc'><img class='introPic' src='trustrating_stim/white_mw078.bmp'><br><font color='red'><strong>Keep</strong></font></div></div><div class='respDiv'><div class='respDivL'>Match<br>(e)</div><div class='respDivR'>No Match<br>(i)</div></div></div>","e","TARGET","2","trustrating_stim/white_mw010.bmp,trustrating_stim/white_mw078.bmp","1,0","Match","e","3000","trustrating_stim/white_mw078.bmp","red","Keep","PRACTICE","1"
"html-keyboard-response","18","118362","0.0-5.0-5.2","5eba16d1843bd1154b5a2aa9","bdp_wmem","Thu Jul 28 2022 00:45:30 GMT-0400 (Eastern Daylight Time)","570541","Match,No Match","","null","","","","","","<div class='trialBorder'><div class='vertical-center'><img src='img/correct.jpg'></div><div class='respDiv'><div class='respDivL'><font style='color:orange'>Match<br>(e)</font></div><div class='respDivR'>No Match<br>(i)</div></div></div>","null","FEEDBACK","","","","","","","","","","",""
"html-keyboard-response","19","118863","0.0-5.0-1.3","5eba16d1843bd1154b5a2aa9","bdp_wmem","Thu Jul 28 2022 00:45:30 GMT-0400 (Eastern Daylight Time)","570541","Match,No Match","","null","","","","","","<div class='trialBorder'><div class='vertical-center'><img src='img/fixation2_sml.jpg'</img></div></div>","null","FIX","","","","","","","","","","",""
"html-keyboard-response","20","123366","0.0-5.0-2.3","5eba16d1843bd1154b5a2aa9","bdp_wmem","Thu Jul 28 2022 00:45:30 GMT-0400 (Eastern Daylight Time)","570541","Match,No Match","","null","","","","","","<div class='trialBorder'><div class='vertical-center'><img style='vertical-align:center; align:center' src='img/fixation2_sml.jpg'></div><div class='arrayDiv3'><div class='tl'><img class='introPic' src='trustrating_stim/white_mw010.bmp'><br><font color='green'><strong>Share</strong></font></div><div class='tc'><img class='introPic' src='trustrating_stim/white_mw012.bmp'><br><font color='red'><strong>Keep</strong></font></div><div class='tr'><img class='introPic' src='trustrating_stim/white_mw038.bmp'><br><font color='red'><strong>Keep</strong></font></div></div></div>","null","ARRAY","3","trustrating_stim/white_mw010.bmp,trustrating_stim/white_mw012.bmp,trustrating_stim/white_mw038.bmp","1,0,0","noMatchOutcome","i","4500","","","","",""
"html-keyboard-response","21","127367","0.0-5.0-3.3","5eba16d1843bd1154b5a2aa9","bdp_wmem","Thu Jul 28 2022 00:45:30 GMT-0400 (Eastern Daylight Time)","570541","Match,No Match","","null","","","","","","<div class='trialBorder'><div class='vertical-center'><img src='img/fixation2_sml.jpg'</img></div></div>","null","DELAY","","","","","","","","","","",""
"html-keyboard-response","22","128550","0.0-5.0-4.3","5eba16d1843bd1154b5a2aa9","bdp_wmem","Thu Jul 28 2022 00:45:30 GMT-0400 (Eastern Daylight Time)","570541","Match,No Match","","1182","","","","","","<div class='trialBorder'><div class='targDiv'><div class='tc'><img class='introPic' src='trustrating_stim/white_mw038.bmp'><br><font color='green'><strong>Share</strong></font></div></div><div class='respDiv'><div class='respDivL'>Match<br>(e)</div><div class='respDivR'>No Match<br>(i)</div></div></div>","i","TARGET","3","trustrating_stim/white_mw010.bmp,trustrating_stim/white_mw012.bmp,trustrating_stim/white_mw038.bmp","1,0,0","noMatchOutcome","i","4500","trustrating_stim/white_mw038.bmp","green","Share","PRACTICE","1"
"html-keyboard-response","23","129051","0.0-5.0-5.3","5eba16d1843bd1154b5a2aa9","bdp_wmem","Thu Jul 28 2022 00:45:30 GMT-0400 (Eastern Daylight Time)","570541","Match,No Match","","null","","","","","","<div class='trialBorder'><div class='vertical-center'><img src='img/correct.jpg'></div><div class='respDiv'><div class='respDivL'>Match<br>(e)</div><div class='respDivR'><font style='color:orange'>No Match<br>(i)</font></div></div></div>","null","FEEDBACK","","","","","","","","","","",""
"html-keyboard-response","24","129552","0.0-5.0-1.4","5eba16d1843bd1154b5a2aa9","bdp_wmem","Thu Jul 28 2022 00:45:30 GMT-0400 (Eastern Daylight Time)","570541","Match,No Match","","null","","","","","","<div class='trialBorder'><div class='vertical-center'><img src='img/fixation2_sml.jpg'</img></div></div>","null","FIX","","","","","","","","","","",""
"html-keyboard-response","25","131054","0.0-5.0-2.4","5eba16d1843bd1154b5a2aa9","bdp_wmem","Thu Jul 28 2022 00:45:30 GMT-0400 (Eastern Daylight Time)","570541","Match,No Match","","null","","","","","","<div class='trialBorder'><div class='vertical-center'><img style='vertical-align:center; align:center' src='img/fixation2_sml.jpg'></div><div class='arrayDiv1'><div class='tc'><img class='introPic' src='trustrating_stim/white_mw013.bmp'><br><font color='green'><strong>Share</strong></font></div></div></div>","null","ARRAY","1","trustrating_stim/white_mw013.bmp","1","Match","e","1500","","","","",""
"html-keyboard-response","26","135055","0.0-5.0-3.4","5eba16d1843bd1154b5a2aa9","bdp_wmem","Thu Jul 28 2022 00:45:30 GMT-0400 (Eastern Daylight Time)","570541","Match,No Match","","null","","","","","","<div class='trialBorder'><div class='vertical-center'><img src='img/fixation2_sml.jpg'</img></div></div>","null","DELAY","","","","","","","","","","",""
"html-keyboard-response","27","135846","0.0-5.0-4.4","5eba16d1843bd1154b5a2aa9","bdp_wmem","Thu Jul 28 2022 00:45:30 GMT-0400 (Eastern Daylight Time)","570541","Match,No Match","","791","","","","","","<div class='trialBorder'><div class='targDiv'><div class='tc'><img class='introPic' src='trustrating_stim/white_mw013.bmp'><br><font color='green'><strong>Share</strong></font></div></div><div class='respDiv'><div class='respDivL'>Match<br>(e)</div><div class='respDivR'>No Match<br>(i)</div></div></div>","e","TARGET","1","trustrating_stim/white_mw013.bmp","1","Match","e","1500","trustrating_stim/white_mw013.bmp","green","Share","PRACTICE","1"
"html-keyboard-response","28","136347","0.0-5.0-5.4","5eba16d1843bd1154b5a2aa9","bdp_wmem","Thu Jul 28 2022 00:45:30 GMT-0400 (Eastern Daylight Time)","570541","Match,No Match","","null","","","","","","<div class='trialBorder'><div class='vertical-center'><img src='img/correct.jpg'></div><div class='respDiv'><div class='respDivL'><font style='color:orange'>Match<br>(e)</font></div><div class='respDivR'>No Match<br>(i)</div></div></div>","null","FEEDBACK","","","","","","","","","","",""
"html-keyboard-response","29","136848","0.0-5.0-1.5","5eba16d1843bd1154b5a2aa9","bdp_wmem","Thu Jul 28 2022 00:45:30 GMT-0400 (Eastern Daylight Time)","570541","Match,No Match","","null","","","","","","<div class='trialBorder'><div class='vertical-center'><img src='img/fixation2_sml.jpg'</img></div></div>","null","FIX","","","","","","","","","","",""
"html-keyboard-response","30","139849","0.0-5.0-2.5","5eba16d1843bd1154b5a2aa9","bdp_wmem","Thu Jul 28 2022 00:45:30 GMT-0400 (Eastern Daylight Time)","570541","Match,No Match","","null","","","","","","<div class='trialBorder'><div class='vertical-center'><img style='vertical-align:center; align:center' src='img/fixation2_sml.jpg'></div><div class='arrayDiv2'><div class='tl'><img class='introPic' src='trustrating_stim/white_mw070.bmp'><br><font color='red'><strong>Keep</strong></font></div><div class='tr'><img class='introPic' src='trustrating_stim/white_mw078.bmp'><br><font color='green'><strong>Share</strong></font></div></div></div>","null","ARRAY","2","trustrating_stim/white_mw070.bmp,trustrating_stim/white_mw078.bmp","0,1","noMatchFace","i","3000","","","","",""
"html-keyboard-response","31","143850","0.0-5.0-3.5","5eba16d1843bd1154b5a2aa9","bdp_wmem","Thu Jul 28 2022 00:45:30 GMT-0400 (Eastern Daylight Time)","570541","Match,No Match","","null","","","","","","<div class='trialBorder'><div class='vertical-center'><img src='img/fixation2_sml.jpg'</img></div></div>","null","DELAY","","","","","","","","","","",""
"html-keyboard-response","32","144962","0.0-5.0-4.5","5eba16d1843bd1154b5a2aa9","bdp_wmem","Thu Jul 28 2022 00:45:30 GMT-0400 (Eastern Daylight Time)","570541","Match,No Match","","1111","","","","","","<div class='trialBorder'><div class='targDiv'><div class='tc'><img class='introPic' src='trustrating_stim/white_mw010.bmp'><br><font color='red'><strong>Keep</strong></font></div></div><div class='respDiv'><div class='respDivL'>Match<br>(e)</div><div class='respDivR'>No Match<br>(i)</div></div></div>","e","TARGET","2","trustrating_stim/white_mw070.bmp,trustrating_stim/white_mw078.bmp","0,1","noMatchFace","i","3000","trustrating_stim/white_mw010.bmp","red","Keep","PRACTICE","0"
"html-keyboard-response","33","145463","0.0-5.0-5.5","5eba16d1843bd1154b5a2aa9","bdp_wmem","Thu Jul 28 2022 00:45:30 GMT-0400 (Eastern Daylight Time)","570541","Match,No Match","","null","","","","","","<div class='trialBorder'><div class='vertical-center'><img src='img/error.jpg'></div><div class='respDiv'><div class='respDivL'><font style='color:orange'>Match<br>(e)</font></div><div class='respDivR'>No Match<br>(i)</div></div></div>","null","FEEDBACK","","","","","","","","","","",""
"instructions","34","148210","0.0-6.0","5eba16d1843bd1154b5a2aa9","bdp_wmem","Thu Jul 28 2022 00:45:30 GMT-0400 (Eastern Daylight Time)","570541","Match,No Match","[{""page_index"":0,""viewing_time"":2746}]","2746","","","","","","","","","","","","","","","","","","",""
"html-keyboard-response","35","148711","0.0-7.0-1.0","5eba16d1843bd1154b5a2aa9","bdp_wmem","Thu Jul 28 2022 00:45:30 GMT-0400 (Eastern Daylight Time)","570541","Match,No Match","","null","","","","","","<div class='trialBorder'><div class='vertical-center'><img src='img/fixation2_sml.jpg'</img></div></div>","null","FIX","","","","","","","","","","",""
"html-keyboard-response","36","150213","0.0-7.0-2.0","5eba16d1843bd1154b5a2aa9","bdp_wmem","Thu Jul 28 2022 00:45:30 GMT-0400 (Eastern Daylight Time)","570541","Match,No Match","","null","","","","","","<div class='trialBorder'><div class='vertical-center'><img style='vertical-align:center; align:center' src='img/fixation2_sml.jpg'></div><div class='arrayDiv1'><div class='tc'><img class='introPic' src='trustrating_stim/white_mw078.bmp'><br><font color='green'><strong>Share</strong></font></div></div></div>","null","ARRAY","1","trustrating_stim/white_mw078.bmp","1","noMatchFace","i","1500","","","","",""
"html-keyboard-response","37","154214","0.0-7.0-3.0","5eba16d1843bd1154b5a2aa9","bdp_wmem","Thu Jul 28 2022 00:45:30 GMT-0400 (Eastern Daylight Time)","570541","Match,No Match","","null","","","","","","<div class='trialBorder'><div class='vertical-center'><img src='img/fixation2_sml.jpg'</img></div></div>","null","DELAY","","","","","","","","","","",""
"html-keyboard-response","38","154716","0.0-7.0-4.0","5eba16d1843bd1154b5a2aa9","bdp_wmem","Thu Jul 28 2022 00:45:30 GMT-0400 (Eastern Daylight Time)","570541","Match,No Match","","502","","","","","","<div class='trialBorder'><div class='targDiv'><div class='tc'><img class='introPic' src='trustrating_stim/white_mw092.bmp'><br><font color='green'><strong>Share</strong></font></div></div><div class='respDiv'><div class='respDivL'>Match<br>(e)</div><div class='respDivR'>No Match<br>(i)</div></div></div>","i","TARGET","1","trustrating_stim/white_mw078.bmp","1","noMatchFace","i","1500","trustrating_stim/white_mw092.bmp","green","Share","REAL","1"
"html-keyboard-response","39","155219","0.0-7.0-5.0","5eba16d1843bd1154b5a2aa9","bdp_wmem","Thu Jul 28 2022 00:45:30 GMT-0400 (Eastern Daylight Time)","570541","Match,No Match","","null","","","","","","<div class='trialBorder'><div class='vertical-center'><img src='img/correct.jpg'></div><div class='respDiv'><div class='respDivL'>Match<br>(e)</div><div class='respDivR'><font style='color:orange'>No Match<br>(i)</font></div></div></div>","null","FEEDBACK","","","","","","","","","","",""
"html-keyboard-response","40","155720","0.0-7.0-1.1","5eba16d1843bd1154b5a2aa9","bdp_wmem","Thu Jul 28 2022 00:45:30 GMT-0400 (Eastern Daylight Time)","570541","Match,No Match","","null","","","","","","<div class='trialBorder'><div class='vertical-center'><img src='img/fixation2_sml.jpg'</img></div></div>","null","FIX","","","","","","","","","","",""
"html-keyboard-response","41","160222","0.0-7.0-2.1","5eba16d1843bd1154b5a2aa9","bdp_wmem","Thu Jul 28 2022 00:45:30 GMT-0400 (Eastern Daylight Time)","570541","Match,No Match","","null","","","","","","<div class='trialBorder'><div class='vertical-center'><img style='vertical-align:center; align:center' src='img/fixation2_sml.jpg'></div><div class='arrayDiv3'><div class='tl'><img class='introPic' src='trustrating_stim/white_mw012.bmp'><br><font color='red'><strong>Keep</strong></font></div><div class='tc'><img class='introPic' src='trustrating_stim/white_mw078.bmp'><br><font color='red'><strong>Keep</strong></font></div><div class='tr'><img class='introPic' src='trustrating_stim/white_mw040.bmp'><br><font color='green'><strong>Share</strong></font></div></div></div>","null","ARRAY","3","trustrating_stim/white_mw012.bmp,trustrating_stim/white_mw078.bmp,trustrating_stim/white_mw040.bmp","0,0,1","noMatchOutcome","i","4500","","","","",""
"html-keyboard-response","42","164224","0.0-7.0-3.1","5eba16d1843bd1154b5a2aa9","bdp_wmem","Thu Jul 28 2022 00:45:30 GMT-0400 (Eastern Daylight Time)","570541","Match,No Match","","null","","","","","","<div class='trialBorder'><div class='vertical-center'><img src='img/fixation2_sml.jpg'</img></div></div>","null","DELAY","","","","","","","","","","",""
"html-keyboard-response","43","165067","0.0-7.0-4.1","5eba16d1843bd1154b5a2aa9","bdp_wmem","Thu Jul 28 2022 00:45:30 GMT-0400 (Eastern Daylight Time)","570541","Match,No Match","","843","","","","","","<div class='trialBorder'><div class='targDiv'><div class='tc'><img class='introPic' src='trustrating_stim/white_mw040.bmp'><br><font color='red'><strong>Keep</strong></font></div></div><div class='respDiv'><div class='respDivL'>Match<br>(e)</div><div class='respDivR'>No Match<br>(i)</div></div></div>","i","TARGET","3","trustrating_stim/white_mw012.bmp,trustrating_stim/white_mw078.bmp,trustrating_stim/white_mw040.bmp","0,0,1","noMatchOutcome","i","4500","trustrating_stim/white_mw040.bmp","red","Keep","REAL","1"
"html-keyboard-response","44","165567","0.0-7.0-5.1","5eba16d1843bd1154b5a2aa9","bdp_wmem","Thu Jul 28 2022 00:45:30 GMT-0400 (Eastern Daylight Time)","570541","Match,No Match","","null","","","","","","<div class='trialBorder'><div class='vertical-center'><img src='img/correct.jpg'></div><div class='respDiv'><div class='respDivL'>Match<br>(e)</div><div class='respDivR'><font style='color:orange'>No Match<br>(i)</font></div></div></div>","null","FEEDBACK","","","","","","","","","","",""
"html-keyboard-response","45","166069","0.0-7.0-1.2","5eba16d1843bd1154b5a2aa9","bdp_wmem","Thu Jul 28 2022 00:45:30 GMT-0400 (Eastern Daylight Time)","570541","Match,No Match","","null","","","","","","<div class='trialBorder'><div class='vertical-center'><img src='img/fixation2_sml.jpg'</img></div></div>","null","FIX","","","","","","","","","","",""
"html-keyboard-response","46","169071","0.0-7.0-2.2","5eba16d1843bd1154b5a2aa9","bdp_wmem","Thu Jul 28 2022 00:45:30 GMT-0400 (Eastern Daylight Time)","570541","Match,No Match","","null","","","","","","<div class='trialBorder'><div class='vertical-center'><img style='vertical-align:center; align:center' src='img/fixation2_sml.jpg'></div><div class='arrayDiv2'><div class='tl'><img class='introPic' src='trustrating_stim/white_mw070.bmp'><br><font color='green'><strong>Share</strong></font></div><div class='tr'><img class='introPic' src='trustrating_stim/white_mw042.bmp'><br><font color='red'><strong>Keep</strong></font></div></div></div>","null","ARRAY","2","trustrating_stim/white_mw070.bmp,trustrating_stim/white_mw042.bmp","1,0","noMatchFace","i","3000","","","","",""
"html-keyboard-response","47","173072","0.0-7.0-3.2","5eba16d1843bd1154b5a2aa9","bdp_wmem","Thu Jul 28 2022 00:45:30 GMT-0400 (Eastern Daylight Time)","570541","Match,No Match","","null","","","","","","<div class='trialBorder'><div class='vertical-center'><img src='img/fixation2_sml.jpg'</img></div></div>","null","DELAY","","","","","","","","","","",""
"html-keyboard-response","48","173702","0.0-7.0-4.2","5eba16d1843bd1154b5a2aa9","bdp_wmem","Thu Jul 28 2022 00:45:30 GMT-0400 (Eastern Daylight Time)","570541","Match,No Match","","630","","","","","","<div class='trialBorder'><div class='targDiv'><div class='tc'><img class='introPic' src='trustrating_stim/white_mw003.bmp'><br><font color='red'><strong>Keep</strong></font></div></div><div class='respDiv'><div class='respDivL'>Match<br>(e)</div><div class='respDivR'>No Match<br>(i)</div></div></div>","i","TARGET","2","trustrating_stim/white_mw070.bmp,trustrating_stim/white_mw042.bmp","1,0","noMatchFace","i","3000","trustrating_stim/white_mw003.bmp","red","Keep","REAL","1"
"html-keyboard-response","49","174203","0.0-7.0-5.2","5eba16d1843bd1154b5a2aa9","bdp_wmem","Thu Jul 28 2022 00:45:30 GMT-0400 (Eastern Daylight Time)","570541","Match,No Match","","null","","","","","","<div class='trialBorder'><div class='vertical-center'><img src='img/correct.jpg'></div><div class='respDiv'><div class='respDivL'>Match<br>(e)</div><div class='respDivR'><font style='color:orange'>No Match<br>(i)</font></div></div></div>","null","FEEDBACK","","","","","","","","","","",""
"html-keyboard-response","50","174704","0.0-7.0-1.3","5eba16d1843bd1154b5a2aa9","bdp_wmem","Thu Jul 28 2022 00:45:30 GMT-0400 (Eastern Daylight Time)","570541","Match,No Match","","null","","","","","","<div class='trialBorder'><div class='vertical-center'><img src='img/fixation2_sml.jpg'</img></div></div>","null","FIX","","","","","","","","","","",""
"html-keyboard-response","51","179205","0.0-7.0-2.3","5eba16d1843bd1154b5a2aa9","bdp_wmem","Thu Jul 28 2022 00:45:30 GMT-0400 (Eastern Daylight Time)","570541","Match,No Match","","null","","","","","","<div class='trialBorder'><div class='vertical-center'><img style='vertical-align:center; align:center' src='img/fixation2_sml.jpg'></div><div class='arrayDiv3'><div class='tl'><img class='introPic' src='trustrating_stim/white_mw078.bmp'><br><font color='green'><strong>Share</strong></font></div><div class='tc'><img class='introPic' src='trustrating_stim/white_mw042.bmp'><br><font color='green'><strong>Share</strong></font></div><div class='tr'><img class='introPic' src='trustrating_stim/white_mw070.bmp'><br><font color='red'><strong>Keep</strong></font></div></div></div>","null","ARRAY","3","trustrating_stim/white_mw078.bmp,trustrating_stim/white_mw042.bmp,trustrating_stim/white_mw070.bmp","1,1,0","noMatchFace","i","4500","","","","",""
"html-keyboard-response","52","183207","0.0-7.0-3.3","5eba16d1843bd1154b5a2aa9","bdp_wmem","Thu Jul 28 2022 00:45:30 GMT-0400 (Eastern Daylight Time)","570541","Match,No Match","","null","","","","","","<div class='trialBorder'><div class='vertical-center'><img src='img/fixation2_sml.jpg'</img></div></div>","null","DELAY","","","","","","","","","","",""
"html-keyboard-response","53","183814","0.0-7.0-4.3","5eba16d1843bd1154b5a2aa9","bdp_wmem","Thu Jul 28 2022 00:45:30 GMT-0400 (Eastern Daylight Time)","570541","Match,No Match","","607","","","","","","<div class='trialBorder'><div class='targDiv'><div class='tc'><img class='introPic' src='trustrating_stim/white_mw092.bmp'><br><font color='red'><strong>Keep</strong></font></div></div><div class='respDiv'><div class='respDivL'>Match<br>(e)</div><div class='respDivR'>No Match<br>(i)</div></div></div>","i","TARGET","3","trustrating_stim/white_mw078.bmp,trustrating_stim/white_mw042.bmp,trustrating_stim/white_mw070.bmp","1,1,0","noMatchFace","i","4500","trustrating_stim/white_mw092.bmp","red","Keep","REAL","1"
"html-keyboard-response","54","184316","0.0-7.0-5.3","5eba16d1843bd1154b5a2aa9","bdp_wmem","Thu Jul 28 2022 00:45:30 GMT-0400 (Eastern Daylight Time)","570541","Match,No Match","","null","","","","","","<div class='trialBorder'><div class='vertical-center'><img src='img/correct.jpg'></div><div class='respDiv'><div class='respDivL'>Match<br>(e)</div><div class='respDivR'><font style='color:orange'>No Match<br>(i)</font></div></div></div>","null","FEEDBACK","","","","","","","","","","",""
"html-keyboard-response","55","184816","0.0-7.0-1.4","5eba16d1843bd1154b5a2aa9","bdp_wmem","Thu Jul 28 2022 00:45:30 GMT-0400 (Eastern Daylight Time)","570541","Match,No Match","","null","","","","","","<div class='trialBorder'><div class='vertical-center'><img src='img/fixation2_sml.jpg'</img></div></div>","null","FIX","","","","","","","","","","",""
"html-keyboard-response","56","187818","0.0-7.0-2.4","5eba16d1843bd1154b5a2aa9","bdp_wmem","Thu Jul 28 2022 00:45:30 GMT-0400 (Eastern Daylight Time)","570541","Match,No Match","","null","","","","","","<div class='trialBorder'><div class='vertical-center'><img style='vertical-align:center; align:center' src='img/fixation2_sml.jpg'></div><div class='arrayDiv2'><div class='tl'><img class='introPic' src='trustrating_stim/white_mw013.bmp'><br><font color='green'><strong>Share</strong></font></div><div class='tr'><img class='introPic' src='trustrating_stim/white_mw091.bmp'><br><font color='red'><strong>Keep</strong></font></div></div></div>","null","ARRAY","2","trustrating_stim/white_mw013.bmp,trustrating_stim/white_mw091.bmp","1,0","noMatchFace","i","3000","","","","",""
"html-keyboard-response","57","191820","0.0-7.0-3.4","5eba16d1843bd1154b5a2aa9","bdp_wmem","Thu Jul 28 2022 00:45:30 GMT-0400 (Eastern Daylight Time)","570541","Match,No Match","","null","","","","","","<div class='trialBorder'><div class='vertical-center'><img src='img/fixation2_sml.jpg'</img></div></div>","null","DELAY","","","","","","","","","","",""
"html-keyboard-response","58","192357","0.0-7.0-4.4","5eba16d1843bd1154b5a2aa9","bdp_wmem","Thu Jul 28 2022 00:45:30 GMT-0400 (Eastern Daylight Time)","570541","Match,No Match","","536","","","","","","<div class='trialBorder'><div class='targDiv'><div class='tc'><img class='introPic' src='trustrating_stim/white_mw085.bmp'><br><font color='red'><strong>Keep</strong></font></div></div><div class='respDiv'><div class='respDivL'>Match<br>(e)</div><div class='respDivR'>No Match<br>(i)</div></div></div>","i","TARGET","2","trustrating_stim/white_mw013.bmp,trustrating_stim/white_mw091.bmp","1,0","noMatchFace","i","3000","trustrating_stim/white_mw085.bmp","red","Keep","REAL","1"
"html-keyboard-response","59","192858","0.0-7.0-5.4","5eba16d1843bd1154b5a2aa9","bdp_wmem","Thu Jul 28 2022 00:45:30 GMT-0400 (Eastern Daylight Time)","570541","Match,No Match","","null","","","","","","<div class='trialBorder'><div class='vertical-center'><img src='img/correct.jpg'></div><div class='respDiv'><div class='respDivL'>Match<br>(e)</div><div class='respDivR'><font style='color:orange'>No Match<br>(i)</font></div></div></div>","null","FEEDBACK","","","","","","","","","","",""
"html-keyboard-response","60","193360","0.0-7.0-1.5","5eba16d1843bd1154b5a2aa9","bdp_wmem","Thu Jul 28 2022 00:45:30 GMT-0400 (Eastern Daylight Time)","570541","Match,No Match","","null","","","","","","<div class='trialBorder'><div class='vertical-center'><img src='img/fixation2_sml.jpg'</img></div></div>","null","FIX","","","","","","","","","","",""
"html-keyboard-response","61","194861","0.0-7.0-2.5","5eba16d1843bd1154b5a2aa9","bdp_wmem","Thu Jul 28 2022 00:45:30 GMT-0400 (Eastern Daylight Time)","570541","Match,No Match","","null","","","","","","<div class='trialBorder'><div class='vertical-center'><img style='vertical-align:center; align:center' src='img/fixation2_sml.jpg'></div><div class='arrayDiv1'><div class='tc'><img class='introPic' src='trustrating_stim/white_mw012.bmp'><br><font color='red'><strong>Keep</strong></font></div></div></div>","null","ARRAY","1","trustrating_stim/white_mw012.bmp","0","noMatchOutcome","i","1500","","","","",""
"html-keyboard-response","62","198863","0.0-7.0-3.5","5eba16d1843bd1154b5a2aa9","bdp_wmem","Thu Jul 28 2022 00:45:30 GMT-0400 (Eastern Daylight Time)","570541","Match,No Match","","null","","","","","","<div class='trialBorder'><div class='vertical-center'><img src='img/fixation2_sml.jpg'</img></div></div>","null","DELAY","","","","","","","","","","",""
"html-keyboard-response","63","199610","0.0-7.0-4.5","5eba16d1843bd1154b5a2aa9","bdp_wmem","Thu Jul 28 2022 00:45:30 GMT-0400 (Eastern Daylight Time)","570541","Match,No Match","","746","","","","","","<div class='trialBorder'><div class='targDiv'><div class='tc'><img class='introPic' src='trustrating_stim/white_mw012.bmp'><br><font color='green'><strong>Share</strong></font></div></div><div class='respDiv'><div class='respDivL'>Match<br>(e)</div><div class='respDivR'>No Match<br>(i)</div></div></div>","e","TARGET","1","trustrating_stim/white_mw012.bmp","0","noMatchOutcome","i","1500","trustrating_stim/white_mw012.bmp","green","Share","REAL","0"
"html-keyboard-response","64","200112","0.0-7.0-5.5","5eba16d1843bd1154b5a2aa9","bdp_wmem","Thu Jul 28 2022 00:45:30 GMT-0400 (Eastern Daylight Time)","570541","Match,No Match","","null","","","","","","<div class='trialBorder'><div class='vertical-center'><img src='img/error.jpg'></div><div class='respDiv'><div class='respDivL'><font style='color:orange'>Match<br>(e)</font></div><div class='respDivR'>No Match<br>(i)</div></div></div>","null","FEEDBACK","","","","","","","","","","",""
"html-keyboard-response","65","200614","0.0-7.0-1.6","5eba16d1843bd1154b5a2aa9","bdp_wmem","Thu Jul 28 2022 00:45:30 GMT-0400 (Eastern Daylight Time)","570541","Match,No Match","","null","","","","","","<div class='trialBorder'><div class='vertical-center'><img src='img/fixation2_sml.jpg'</img></div></div>","null","FIX","","","","","","","","","","",""
"html-keyboard-response","66","205115","0.0-7.0-2.6","5eba16d1843bd1154b5a2aa9","bdp_wmem","Thu Jul 28 2022 00:45:30 GMT-0400 (Eastern Daylight Time)","570541","Match,No Match","","null","","","","","","<div class='trialBorder'><div class='vertical-center'><img style='vertical-align:center; align:center' src='img/fixation2_sml.jpg'></div><div class='arrayDiv3'><div class='tl'><img class='introPic' src='trustrating_stim/white_mw010.bmp'><br><font color='green'><strong>Share</strong></font></div><div class='tc'><img class='introPic' src='trustrating_stim/white_mw040.bmp'><br><font color='green'><strong>Share</strong></font></div><div class='tr'><img class='introPic' src='trustrating_stim/white_mw092.bmp'><br><font color='red'><strong>Keep</strong></font></div></div></div>","null","ARRAY","3","trustrating_stim/white_mw010.bmp,trustrating_stim/white_mw040.bmp,trustrating_stim/white_mw092.bmp","1,1,0","Match","e","4500","","","","",""
"html-keyboard-response","67","209117","0.0-7.0-3.6","5eba16d1843bd1154b5a2aa9","bdp_wmem","Thu Jul 28 2022 00:45:30 GMT-0400 (Eastern Daylight Time)","570541","Match,No Match","","null","","","","","","<div class='trialBorder'><div class='vertical-center'><img src='img/fixation2_sml.jpg'</img></div></div>","null","DELAY","","","","","","","","","","",""
"html-keyboard-response","68","210529","0.0-7.0-4.6","5eba16d1843bd1154b5a2aa9","bdp_wmem","Thu Jul 28 2022 00:45:30 GMT-0400 (Eastern Daylight Time)","570541","Match,No Match","","1411","","","","","","<div class='trialBorder'><div class='targDiv'><div class='tc'><img class='introPic' src='trustrating_stim/white_mw092.bmp'><br><font color='red'><strong>Keep</strong></font></div></div><div class='respDiv'><div class='respDivL'>Match<br>(e)</div><div class='respDivR'>No Match<br>(i)</div></div></div>","e","TARGET","3","trustrating_stim/white_mw010.bmp,trustrating_stim/white_mw040.bmp,trustrating_stim/white_mw092.bmp","1,1,0","Match","e","4500","trustrating_stim/white_mw092.bmp","red","Keep","REAL","1"
"html-keyboard-response","69","211030","0.0-7.0-5.6","5eba16d1843bd1154b5a2aa9","bdp_wmem","Thu Jul 28 2022 00:45:30 GMT-0400 (Eastern Daylight Time)","570541","Match,No Match","","null","","","","","","<div class='trialBorder'><div class='vertical-center'><img src='img/correct.jpg'></div><div class='respDiv'><div class='respDivL'><font style='color:orange'>Match<br>(e)</font></div><div class='respDivR'>No Match<br>(i)</div></div></div>","null","FEEDBACK","","","","","","","","","","",""
"html-keyboard-response","70","211532","0.0-7.0-1.7","5eba16d1843bd1154b5a2aa9","bdp_wmem","Thu Jul 28 2022 00:45:30 GMT-0400 (Eastern Daylight Time)","570541","Match,No Match","","null","","","","","","<div class='trialBorder'><div class='vertical-center'><img src='img/fixation2_sml.jpg'</img></div></div>","null","FIX","","","","","","","","","","",""
"html-keyboard-response","71","213033","0.0-7.0-2.7","5eba16d1843bd1154b5a2aa9","bdp_wmem","Thu Jul 28 2022 00:45:30 GMT-0400 (Eastern Daylight Time)","570541","Match,No Match","","null","","","","","","<div class='trialBorder'><div class='vertical-center'><img style='vertical-align:center; align:center' src='img/fixation2_sml.jpg'></div><div class='arrayDiv1'><div class='tc'><img class='introPic' src='trustrating_stim/white_mw038.bmp'><br><font color='green'><strong>Share</strong></font></div></div></div>","null","ARRAY","1","trustrating_stim/white_mw038.bmp","1","Match","e","1500","","","","",""
"html-keyboard-response","72","217034","0.0-7.0-3.7","5eba16d1843bd1154b5a2aa9","bdp_wmem","Thu Jul 28 2022 00:45:30 GMT-0400 (Eastern Daylight Time)","570541","Match,No Match","","null","","","","","","<div class='trialBorder'><div class='vertical-center'><img src='img/fixation2_sml.jpg'</img></div></div>","null","DELAY","","","","","","","","","","",""
"html-keyboard-response","73","217597","0.0-7.0-4.7","5eba16d1843bd1154b5a2aa9","bdp_wmem","Thu Jul 28 2022 00:45:30 GMT-0400 (Eastern Daylight Time)","570541","Match,No Match","","562","","","","","","<div class='trialBorder'><div class='targDiv'><div class='tc'><img class='introPic' src='trustrating_stim/white_mw038.bmp'><br><font color='green'><strong>Share</strong></font></div></div><div class='respDiv'><div class='respDivL'>Match<br>(e)</div><div class='respDivR'>No Match<br>(i)</div></div></div>","e","TARGET","1","trustrating_stim/white_mw038.bmp","1","Match","e","1500","trustrating_stim/white_mw038.bmp","green","Share","REAL","1"
"html-keyboard-response","74","218098","0.0-7.0-5.7","5eba16d1843bd1154b5a2aa9","bdp_wmem","Thu Jul 28 2022 00:45:30 GMT-0400 (Eastern Daylight Time)","570541","Match,No Match","","null","","","","","","<div class='trialBorder'><div class='vertical-center'><img src='img/correct.jpg'></div><div class='respDiv'><div class='respDivL'><font style='color:orange'>Match<br>(e)</font></div><div class='respDivR'>No Match<br>(i)</div></div></div>","null","FEEDBACK","","","","","","","","","","",""
"html-keyboard-response","75","218600","0.0-7.0-1.8","5eba16d1843bd1154b5a2aa9","bdp_wmem","Thu Jul 28 2022 00:45:30 GMT-0400 (Eastern Daylight Time)","570541","Match,No Match","","null","","","","","","<div class='trialBorder'><div class='vertical-center'><img src='img/fixation2_sml.jpg'</img></div></div>","null","FIX","","","","","","","","","","",""
"html-keyboard-response","76","220101","0.0-7.0-2.8","5eba16d1843bd1154b5a2aa9","bdp_wmem","Thu Jul 28 2022 00:45:30 GMT-0400 (Eastern Daylight Time)","570541","Match,No Match","","null","","","","","","<div class='trialBorder'><div class='vertical-center'><img style='vertical-align:center; align:center' src='img/fixation2_sml.jpg'></div><div class='arrayDiv1'><div class='tc'><img class='introPic' src='trustrating_stim/white_mw038.bmp'><br><font color='green'><strong>Share</strong></font></div></div></div>","null","ARRAY","1","trustrating_stim/white_mw038.bmp","1","noMatchOutcome","i","1500","","","","",""
"html-keyboard-response","77","224102","0.0-7.0-3.8","5eba16d1843bd1154b5a2aa9","bdp_wmem","Thu Jul 28 2022 00:45:30 GMT-0400 (Eastern Daylight Time)","570541","Match,No Match","","null","","","","","","<div class='trialBorder'><div class='vertical-center'><img src='img/fixation2_sml.jpg'</img></div></div>","null","DELAY","","","","","","","","","","",""
"html-keyboard-response","78","224768","0.0-7.0-4.8","5eba16d1843bd1154b5a2aa9","bdp_wmem","Thu Jul 28 2022 00:45:30 GMT-0400 (Eastern Daylight Time)","570541","Match,No Match","","666","","","","","","<div class='trialBorder'><div class='targDiv'><div class='tc'><img class='introPic' src='trustrating_stim/white_mw038.bmp'><br><font color='red'><strong>Keep</strong></font></div></div><div class='respDiv'><div class='respDivL'>Match<br>(e)</div><div class='respDivR'>No Match<br>(i)</div></div></div>","i","TARGET","1","trustrating_stim/white_mw038.bmp","1","noMatchOutcome","i","1500","trustrating_stim/white_mw038.bmp","red","Keep","REAL","1"
"html-keyboard-response","79","225269","0.0-7.0-5.8","5eba16d1843bd1154b5a2aa9","bdp_wmem","Thu Jul 28 2022 00:45:30 GMT-0400 (Eastern Daylight Time)","570541","Match,No Match","","null","","","","","","<div class='trialBorder'><div class='vertical-center'><img src='img/correct.jpg'></div><div class='respDiv'><div class='respDivL'>Match<br>(e)</div><div class='respDivR'><font style='color:orange'>No Match<br>(i)</font></div></div></div>","null","FEEDBACK","","","","","","","","","","",""
"html-keyboard-response","80","225771","0.0-7.0-1.9","5eba16d1843bd1154b5a2aa9","bdp_wmem","Thu Jul 28 2022 00:45:30 GMT-0400 (Eastern Daylight Time)","570541","Match,No Match","","null","","","","","","<div class='trialBorder'><div class='vertical-center'><img src='img/fixation2_sml.jpg'</img></div></div>","null","FIX","","","","","","","","","","",""
"html-keyboard-response","81","230272","0.0-7.0-2.9","5eba16d1843bd1154b5a2aa9","bdp_wmem","Thu Jul 28 2022 00:45:30 GMT-0400 (Eastern Daylight Time)","570541","Match,No Match","","null","","","","","","<div class='trialBorder'><div class='vertical-center'><img style='vertical-align:center; align:center' src='img/fixation2_sml.jpg'></div><div class='arrayDiv3'><div class='tl'><img class='introPic' src='trustrating_stim/white_mw091.bmp'><br><font color='green'><strong>Share</strong></font></div><div class='tc'><img class='introPic' src='trustrating_stim/white_mw040.bmp'><br><font color='red'><strong>Keep</strong></font></div><div class='tr'><img class='introPic' src='trustrating_stim/white_mw013.bmp'><br><font color='green'><strong>Share</strong></font></div></div></div>","null","ARRAY","3","trustrating_stim/white_mw091.bmp,trustrating_stim/white_mw040.bmp,trustrating_stim/white_mw013.bmp","1,0,1","noMatchFace","i","4500","","","","",""
"html-keyboard-response","82","234274","0.0-7.0-3.9","5eba16d1843bd1154b5a2aa9","bdp_wmem","Thu Jul 28 2022 00:45:30 GMT-0400 (Eastern Daylight Time)","570541","Match,No Match","","null","","","","","","<div class='trialBorder'><div class='vertical-center'><img src='img/fixation2_sml.jpg'</img></div></div>","null","DELAY","","","","","","","","","","",""
"html-keyboard-response","83","234908","0.0-7.0-4.9","5eba16d1843bd1154b5a2aa9","bdp_wmem","Thu Jul 28 2022 00:45:30 GMT-0400 (Eastern Daylight Time)","570541","Match,No Match","","633","","","","","","<div class='trialBorder'><div class='targDiv'><div class='tc'><img class='introPic' src='trustrating_stim/white_mw085.bmp'><br><font color='green'><strong>Share</strong></font></div></div><div class='respDiv'><div class='respDivL'>Match<br>(e)</div><div class='respDivR'>No Match<br>(i)</div></div></div>","i","TARGET","3","trustrating_stim/white_mw091.bmp,trustrating_stim/white_mw040.bmp,trustrating_stim/white_mw013.bmp","1,0,1","noMatchFace","i","4500","trustrating_stim/white_mw085.bmp","green","Share","REAL","1"
"html-keyboard-response","84","235410","0.0-7.0-5.9","5eba16d1843bd1154b5a2aa9","bdp_wmem","Thu Jul 28 2022 00:45:30 GMT-0400 (Eastern Daylight Time)","570541","Match,No Match","","null","","","","","","<div class='trialBorder'><div class='vertical-center'><img src='img/correct.jpg'></div><div class='respDiv'><div class='respDivL'>Match<br>(e)</div><div class='respDivR'><font style='color:orange'>No Match<br>(i)</font></div></div></div>","null","FEEDBACK","","","","","","","","","","",""
"html-keyboard-response","85","235911","0.0-7.0-1.10","5eba16d1843bd1154b5a2aa9","bdp_wmem","Thu Jul 28 2022 00:45:30 GMT-0400 (Eastern Daylight Time)","570541","Match,No Match","","null","","","","","","<div class='trialBorder'><div class='vertical-center'><img src='img/fixation2_sml.jpg'</img></div></div>","null","FIX","","","","","","","","","","",""
"html-keyboard-response","86","238913","0.0-7.0-2.10","5eba16d1843bd1154b5a2aa9","bdp_wmem","Thu Jul 28 2022 00:45:30 GMT-0400 (Eastern Daylight Time)","570541","Match,No Match","","null","","","","","","<div class='trialBorder'><div class='vertical-center'><img style='vertical-align:center; align:center' src='img/fixation2_sml.jpg'></div><div class='arrayDiv2'><div class='tl'><img class='introPic' src='trustrating_stim/white_mw038.bmp'><br><font color='green'><strong>Share</strong></font></div><div class='tr'><img class='introPic' src='trustrating_stim/white_mw040.bmp'><br><font color='red'><strong>Keep</strong></font></div></div></div>","null","ARRAY","2","trustrating_stim/white_mw038.bmp,trustrating_stim/white_mw040.bmp","1,0","Match","e","3000","","","","",""
"html-keyboard-response","87","242914","0.0-7.0-3.10","5eba16d1843bd1154b5a2aa9","bdp_wmem","Thu Jul 28 2022 00:45:30 GMT-0400 (Eastern Daylight Time)","570541","Match,No Match","","null","","","","","","<div class='trialBorder'><div class='vertical-center'><img src='img/fixation2_sml.jpg'</img></div></div>","null","DELAY","","","","","","","","","","",""
"html-keyboard-response","88","243535","0.0-7.0-4.10","5eba16d1843bd1154b5a2aa9","bdp_wmem","Thu Jul 28 2022 00:45:30 GMT-0400 (Eastern Daylight Time)","570541","Match,No Match","","620","","","","","","<div class='trialBorder'><div class='targDiv'><div class='tc'><img class='introPic' src='trustrating_stim/white_mw040.bmp'><br><font color='red'><strong>Keep</strong></font></div></div><div class='respDiv'><div class='respDivL'>Match<br>(e)</div><div class='respDivR'>No Match<br>(i)</div></div></div>","i","TARGET","2","trustrating_stim/white_mw038.bmp,trustrating_stim/white_mw040.bmp","1,0","Match","e","3000","trustrating_stim/white_mw040.bmp","red","Keep","REAL","0"
"html-keyboard-response","89","244036","0.0-7.0-5.10","5eba16d1843bd1154b5a2aa9","bdp_wmem","Thu Jul 28 2022 00:45:30 GMT-0400 (Eastern Daylight Time)","570541","Match,No Match","","null","","","","","","<div class='trialBorder'><div class='vertical-center'><img src='img/error.jpg'></div><div class='respDiv'><div class='respDivL'>Match<br>(e)</div><div class='respDivR'><font style='color:orange'>No Match<br>(i)</font></div></div></div>","null","FEEDBACK","","","","","","","","","","",""
"html-keyboard-response","90","244537","0.0-7.0-1.11","5eba16d1843bd1154b5a2aa9","bdp_wmem","Thu Jul 28 2022 00:45:30 GMT-0400 (Eastern Daylight Time)","570541","Match,No Match","","null","","","","","","<div class='trialBorder'><div class='vertical-center'><img src='img/fixation2_sml.jpg'</img></div></div>","null","FIX","","","","","","","","","","",""
"html-keyboard-response","91","246038","0.0-7.0-2.11","5eba16d1843bd1154b5a2aa9","bdp_wmem","Thu Jul 28 2022 00:45:30 GMT-0400 (Eastern Daylight Time)","570541","Match,No Match","","null","","","","","","<div class='trialBorder'><div class='vertical-center'><img style='vertical-align:center; align:center' src='img/fixation2_sml.jpg'></div><div class='arrayDiv1'><div class='tc'><img class='introPic' src='trustrating_stim/white_mw091.bmp'><br><font color='green'><strong>Share</strong></font></div></div></div>","null","ARRAY","1","trustrating_stim/white_mw091.bmp","1","Match","e","1500","","","","",""
"html-keyboard-response","92","250040","0.0-7.0-3.11","5eba16d1843bd1154b5a2aa9","bdp_wmem","Thu Jul 28 2022 00:45:30 GMT-0400 (Eastern Daylight Time)","570541","Match,No Match","","null","","","","","","<div class='trialBorder'><div class='vertical-center'><img src='img/fixation2_sml.jpg'</img></div></div>","null","DELAY","","","","","","","","","","",""
"html-keyboard-response","93","250843","0.0-7.0-4.11","5eba16d1843bd1154b5a2aa9","bdp_wmem","Thu Jul 28 2022 00:45:30 GMT-0400 (Eastern Daylight Time)","570541","Match,No Match","","802","","","","","","<div class='trialBorder'><div class='targDiv'><div class='tc'><img class='introPic' src='trustrating_stim/white_mw091.bmp'><br><font color='green'><strong>Share</strong></font></div></div><div class='respDiv'><div class='respDivL'>Match<br>(e)</div><div class='respDivR'>No Match<br>(i)</div></div></div>","e","TARGET","1","trustrating_stim/white_mw091.bmp","1","Match","e","1500","trustrating_stim/white_mw091.bmp","green","Share","REAL","1"
"html-keyboard-response","94","251344","0.0-7.0-5.11","5eba16d1843bd1154b5a2aa9","bdp_wmem","Thu Jul 28 2022 00:45:30 GMT-0400 (Eastern Daylight Time)","570541","Match,No Match","","null","","","","","","<div class='trialBorder'><div class='vertical-center'><img src='img/correct.jpg'></div><div class='respDiv'><div class='respDivL'><font style='color:orange'>Match<br>(e)</font></div><div class='respDivR'>No Match<br>(i)</div></div></div>","null","FEEDBACK","","","","","","","","","","",""
"html-keyboard-response","95","251846","0.0-7.0-1.12","5eba16d1843bd1154b5a2aa9","bdp_wmem","Thu Jul 28 2022 00:45:30 GMT-0400 (Eastern Daylight Time)","570541","Match,No Match","","null","","","","","","<div class='trialBorder'><div class='vertical-center'><img src='img/fixation2_sml.jpg'</img></div></div>","null","FIX","","","","","","","","","","",""
"html-keyboard-response","96","253346","0.0-7.0-2.12","5eba16d1843bd1154b5a2aa9","bdp_wmem","Thu Jul 28 2022 00:45:30 GMT-0400 (Eastern Daylight Time)","570541","Match,No Match","","null","","","","","","<div class='trialBorder'><div class='vertical-center'><img style='vertical-align:center; align:center' src='img/fixation2_sml.jpg'></div><div class='arrayDiv1'><div class='tc'><img class='introPic' src='trustrating_stim/white_mw003.bmp'><br><font color='red'><strong>Keep</strong></font></div></div></div>","null","ARRAY","1","trustrating_stim/white_mw003.bmp","0","noMatchOutcome","i","1500","","","","",""
"html-keyboard-response","97","257348","0.0-7.0-3.12","5eba16d1843bd1154b5a2aa9","bdp_wmem","Thu Jul 28 2022 00:45:30 GMT-0400 (Eastern Daylight Time)","570541","Match,No Match","","null","","","","","","<div class='trialBorder'><div class='vertical-center'><img src='img/fixation2_sml.jpg'</img></div></div>","null","DELAY","","","","","","","","","","",""
"html-keyboard-response","98","258102","0.0-7.0-4.12","5eba16d1843bd1154b5a2aa9","bdp_wmem","Thu Jul 28 2022 00:45:30 GMT-0400 (Eastern Daylight Time)","570541","Match,No Match","","754","","","","","","<div class='trialBorder'><div class='targDiv'><div class='tc'><img class='introPic' src='trustrating_stim/white_mw003.bmp'><br><font color='green'><strong>Share</strong></font></div></div><div class='respDiv'><div class='respDivL'>Match<br>(e)</div><div class='respDivR'>No Match<br>(i)</div></div></div>","i","TARGET","1","trustrating_stim/white_mw003.bmp","0","noMatchOutcome","i","1500","trustrating_stim/white_mw003.bmp","green","Share","REAL","1"
"html-keyboard-response","99","258603","0.0-7.0-5.12","5eba16d1843bd1154b5a2aa9","bdp_wmem","Thu Jul 28 2022 00:45:30 GMT-0400 (Eastern Daylight Time)","570541","Match,No Match","","null","","","","","","<div class='trialBorder'><div class='vertical-center'><img src='img/correct.jpg'></div><div class='respDiv'><div class='respDivL'>Match<br>(e)</div><div class='respDivR'><font style='color:orange'>No Match<br>(i)</font></div></div></div>","null","FEEDBACK","","","","","","","","","","",""
"html-keyboard-response","100","259104","0.0-7.0-1.13","5eba16d1843bd1154b5a2aa9","bdp_wmem","Thu Jul 28 2022 00:45:30 GMT-0400 (Eastern Daylight Time)","570541","Match,No Match","","null","","","","","","<div class='trialBorder'><div class='vertical-center'><img src='img/fixation2_sml.jpg'</img></div></div>","null","FIX","","","","","","","","","","",""
"html-keyboard-response","101","262107","0.0-7.0-2.13","5eba16d1843bd1154b5a2aa9","bdp_wmem","Thu Jul 28 2022 00:45:30 GMT-0400 (Eastern Daylight Time)","570541","Match,No Match","","null","","","","","","<div class='trialBorder'><div class='vertical-center'><img style='vertical-align:center; align:center' src='img/fixation2_sml.jpg'></div><div class='arrayDiv2'><div class='tl'><img class='introPic' src='trustrating_stim/white_mw013.bmp'><br><font color='red'><strong>Keep</strong></font></div><div class='tr'><img class='introPic' src='trustrating_stim/white_mw092.bmp'><br><font color='green'><strong>Share</strong></font></div></div></div>","null","ARRAY","2","trustrating_stim/white_mw013.bmp,trustrating_stim/white_mw092.bmp","0,1","Match","e","3000","","","","",""
"html-keyboard-response","102","266108","0.0-7.0-3.13","5eba16d1843bd1154b5a2aa9","bdp_wmem","Thu Jul 28 2022 00:45:30 GMT-0400 (Eastern Daylight Time)","570541","Match,No Match","","null","","","","","","<div class='trialBorder'><div class='vertical-center'><img src='img/fixation2_sml.jpg'</img></div></div>","null","DELAY","","","","","","","","","","",""
"html-keyboard-response","103","266598","0.0-7.0-4.13","5eba16d1843bd1154b5a2aa9","bdp_wmem","Thu Jul 28 2022 00:45:30 GMT-0400 (Eastern Daylight Time)","570541","Match,No Match","","489","","","","","","<div class='trialBorder'><div class='targDiv'><div class='tc'><img class='introPic' src='trustrating_stim/white_mw013.bmp'><br><font color='red'><strong>Keep</strong></font></div></div><div class='respDiv'><div class='respDivL'>Match<br>(e)</div><div class='respDivR'>No Match<br>(i)</div></div></div>","i","TARGET","2","trustrating_stim/white_mw013.bmp,trustrating_stim/white_mw092.bmp","0,1","Match","e","3000","trustrating_stim/white_mw013.bmp","red","Keep","REAL","0"
"html-keyboard-response","104","267100","0.0-7.0-5.13","5eba16d1843bd1154b5a2aa9","bdp_wmem","Thu Jul 28 2022 00:45:30 GMT-0400 (Eastern Daylight Time)","570541","Match,No Match","","null","","","","","","<div class='trialBorder'><div class='vertical-center'><img src='img/error.jpg'></div><div class='respDiv'><div class='respDivL'>Match<br>(e)</div><div class='respDivR'><font style='color:orange'>No Match<br>(i)</font></div></div></div>","null","FEEDBACK","","","","","","","","","","",""
"html-keyboard-response","105","267601","0.0-7.0-1.14","5eba16d1843bd1154b5a2aa9","bdp_wmem","Thu Jul 28 2022 00:45:30 GMT-0400 (Eastern Daylight Time)","570541","Match,No Match","","null","","","","","","<div class='trialBorder'><div class='vertical-center'><img src='img/fixation2_sml.jpg'</img></div></div>","null","FIX","","","","","","","","","","",""
"html-keyboard-response","106","270602","0.0-7.0-2.14","5eba16d1843bd1154b5a2aa9","bdp_wmem","Thu Jul 28 2022 00:45:30 GMT-0400 (Eastern Daylight Time)","570541","Match,No Match","","null","","","","","","<div class='trialBorder'><div class='vertical-center'><img style='vertical-align:center; align:center' src='img/fixation2_sml.jpg'></div><div class='arrayDiv2'><div class='tl'><img class='introPic' src='trustrating_stim/white_mw092.bmp'><br><font color='red'><strong>Keep</strong></font></div><div class='tr'><img class='introPic' src='trustrating_stim/white_mw070.bmp'><br><font color='green'><strong>Share</strong></font></div></div></div>","null","ARRAY","2","trustrating_stim/white_mw092.bmp,trustrating_stim/white_mw070.bmp","0,1","Match","e","3000","","","","",""
"html-keyboard-response","107","274603","0.0-7.0-3.14","5eba16d1843bd1154b5a2aa9","bdp_wmem","Thu Jul 28 2022 00:45:30 GMT-0400 (Eastern Daylight Time)","570541","Match,No Match","","null","","","","","","<div class='trialBorder'><div class='vertical-center'><img src='img/fixation2_sml.jpg'</img></div></div>","null","DELAY","","","","","","","","","","",""
"html-keyboard-response","108","275031","0.0-7.0-4.14","5eba16d1843bd1154b5a2aa9","bdp_wmem","Thu Jul 28 2022 00:45:30 GMT-0400 (Eastern Daylight Time)","570541","Match,No Match","","427","","","","","","<div class='trialBorder'><div class='targDiv'><div class='tc'><img class='introPic' src='trustrating_stim/white_mw092.bmp'><br><font color='red'><strong>Keep</strong></font></div></div><div class='respDiv'><div class='respDivL'>Match<br>(e)</div><div class='respDivR'>No Match<br>(i)</div></div></div>","e","TARGET","2","trustrating_stim/white_mw092.bmp,trustrating_stim/white_mw070.bmp","0,1","Match","e","3000","trustrating_stim/white_mw092.bmp","red","Keep","REAL","1"
"html-keyboard-response","109","275533","0.0-7.0-5.14","5eba16d1843bd1154b5a2aa9","bdp_wmem","Thu Jul 28 2022 00:45:30 GMT-0400 (Eastern Daylight Time)","570541","Match,No Match","","null","","","","","","<div class='trialBorder'><div class='vertical-center'><img src='img/correct.jpg'></div><div class='respDiv'><div class='respDivL'><font style='color:orange'>Match<br>(e)</font></div><div class='respDivR'>No Match<br>(i)</div></div></div>","null","FEEDBACK","","","","","","","","","","",""
"html-keyboard-response","110","276034","0.0-7.0-1.15","5eba16d1843bd1154b5a2aa9","bdp_wmem","Thu Jul 28 2022 00:45:30 GMT-0400 (Eastern Daylight Time)","570541","Match,No Match","","null","","","","","","<div class='trialBorder'><div class='vertical-center'><img src='img/fixation2_sml.jpg'</img></div></div>","null","FIX","","","","","","","","","","",""
"html-keyboard-response","111","280536","0.0-7.0-2.15","5eba16d1843bd1154b5a2aa9","bdp_wmem","Thu Jul 28 2022 00:45:30 GMT-0400 (Eastern Daylight Time)","570541","Match,No Match","","null","","","","","","<div class='trialBorder'><div class='vertical-center'><img style='vertical-align:center; align:center' src='img/fixation2_sml.jpg'></div><div class='arrayDiv3'><div class='tl'><img class='introPic' src='trustrating_stim/white_mw040.bmp'><br><font color='red'><strong>Keep</strong></font></div><div class='tc'><img class='introPic' src='trustrating_stim/white_mw070.bmp'><br><font color='green'><strong>Share</strong></font></div><div class='tr'><img class='introPic' src='trustrating_stim/white_mw038.bmp'><br><font color='red'><strong>Keep</strong></font></div></div></div>","null","ARRAY","3","trustrating_stim/white_mw040.bmp,trustrating_stim/white_mw070.bmp,trustrating_stim/white_mw038.bmp","0,1,0","noMatchFace","i","4500","","","","",""
"html-keyboard-response","112","284538","0.0-7.0-3.15","5eba16d1843bd1154b5a2aa9","bdp_wmem","Thu Jul 28 2022 00:45:30 GMT-0400 (Eastern Daylight Time)","570541","Match,No Match","","null","","","","","","<div class='trialBorder'><div class='vertical-center'><img src='img/fixation2_sml.jpg'</img></div></div>","null","DELAY","","","","","","","","","","",""
"html-keyboard-response","113","285308","0.0-7.0-4.15","5eba16d1843bd1154b5a2aa9","bdp_wmem","Thu Jul 28 2022 00:45:30 GMT-0400 (Eastern Daylight Time)","570541","Match,No Match","","770","","","","","","<div class='trialBorder'><div class='targDiv'><div class='tc'><img class='introPic' src='trustrating_stim/white_mw012.bmp'><br><font color='green'><strong>Share</strong></font></div></div><div class='respDiv'><div class='respDivL'>Match<br>(e)</div><div class='respDivR'>No Match<br>(i)</div></div></div>","i","TARGET","3","trustrating_stim/white_mw040.bmp,trustrating_stim/white_mw070.bmp,trustrating_stim/white_mw038.bmp","0,1,0","noMatchFace","i","4500","trustrating_stim/white_mw012.bmp","green","Share","REAL","1"
"html-keyboard-response","114","285809","0.0-7.0-5.15","5eba16d1843bd1154b5a2aa9","bdp_wmem","Thu Jul 28 2022 00:45:30 GMT-0400 (Eastern Daylight Time)","570541","Match,No Match","","null","","","","","","<div class='trialBorder'><div class='vertical-center'><img src='img/correct.jpg'></div><div class='respDiv'><div class='respDivL'>Match<br>(e)</div><div class='respDivR'><font style='color:orange'>No Match<br>(i)</font></div></div></div>","null","FEEDBACK","","","","","","","","","","",""
"html-keyboard-response","115","286309","0.0-7.0-1.16","5eba16d1843bd1154b5a2aa9","bdp_wmem","Thu Jul 28 2022 00:45:30 GMT-0400 (Eastern Daylight Time)","570541","Match,No Match","","null","","","","","","<div class='trialBorder'><div class='vertical-center'><img src='img/fixation2_sml.jpg'</img></div></div>","null","FIX","","","","","","","","","","",""
"html-keyboard-response","116","290811","0.0-7.0-2.16","5eba16d1843bd1154b5a2aa9","bdp_wmem","Thu Jul 28 2022 00:45:30 GMT-0400 (Eastern Daylight Time)","570541","Match,No Match","","null","","","","","","<div class='trialBorder'><div class='vertical-center'><img style='vertical-align:center; align:center' src='img/fixation2_sml.jpg'></div><div class='arrayDiv3'><div class='tl'><img class='introPic' src='trustrating_stim/white_mw078.bmp'><br><font color='red'><strong>Keep</strong></font></div><div class='tc'><img class='introPic' src='trustrating_stim/white_mw091.bmp'><br><font color='red'><strong>Keep</strong></font></div><div class='tr'><img class='introPic' src='trustrating_stim/white_mw042.bmp'><br><font color='green'><strong>Share</strong></font></div></div></div>","null","ARRAY","3","trustrating_stim/white_mw078.bmp,trustrating_stim/white_mw091.bmp,trustrating_stim/white_mw042.bmp","0,0,1","Match","e","4500","","","","",""
"html-keyboard-response","117","294812","0.0-7.0-3.16","5eba16d1843bd1154b5a2aa9","bdp_wmem","Thu Jul 28 2022 00:45:30 GMT-0400 (Eastern Daylight Time)","570541","Match,No Match","","null","","","","","","<div class='trialBorder'><div class='vertical-center'><img src='img/fixation2_sml.jpg'</img></div></div>","null","DELAY","","","","","","","","","","",""
"html-keyboard-response","118","295390","0.0-7.0-4.16","5eba16d1843bd1154b5a2aa9","bdp_wmem","Thu Jul 28 2022 00:45:30 GMT-0400 (Eastern Daylight Time)","570541","Match,No Match","","578","","","","","","<div class='trialBorder'><div class='targDiv'><div class='tc'><img class='introPic' src='trustrating_stim/white_mw078.bmp'><br><font color='red'><strong>Keep</strong></font></div></div><div class='respDiv'><div class='respDivL'>Match<br>(e)</div><div class='respDivR'>No Match<br>(i)</div></div></div>","i","TARGET","3","trustrating_stim/white_mw078.bmp,trustrating_stim/white_mw091.bmp,trustrating_stim/white_mw042.bmp","0,0,1","Match","e","4500","trustrating_stim/white_mw078.bmp","red","Keep","REAL","0"
"html-keyboard-response","119","295891","0.0-7.0-5.16","5eba16d1843bd1154b5a2aa9","bdp_wmem","Thu Jul 28 2022 00:45:30 GMT-0400 (Eastern Daylight Time)","570541","Match,No Match","","null","","","","","","<div class='trialBorder'><div class='vertical-center'><img src='img/error.jpg'></div><div class='respDiv'><div class='respDivL'>Match<br>(e)</div><div class='respDivR'><font style='color:orange'>No Match<br>(i)</font></div></div></div>","null","FEEDBACK","","","","","","","","","","",""
"html-keyboard-response","120","296392","0.0-7.0-1.17","5eba16d1843bd1154b5a2aa9","bdp_wmem","Thu Jul 28 2022 00:45:30 GMT-0400 (Eastern Daylight Time)","570541","Match,No Match","","null","","","","","","<div class='trialBorder'><div class='vertical-center'><img src='img/fixation2_sml.jpg'</img></div></div>","null","FIX","","","","","","","","","","",""
"html-keyboard-response","121","300893","0.0-7.0-2.17","5eba16d1843bd1154b5a2aa9","bdp_wmem","Thu Jul 28 2022 00:45:30 GMT-0400 (Eastern Daylight Time)","570541","Match,No Match","","null","","","","","","<div class='trialBorder'><div class='vertical-center'><img style='vertical-align:center; align:center' src='img/fixation2_sml.jpg'></div><div class='arrayDiv3'><div class='tl'><img class='introPic' src='trustrating_stim/white_mw091.bmp'><br><font color='red'><strong>Keep</strong></font></div><div class='tc'><img class='introPic' src='trustrating_stim/white_mw003.bmp'><br><font color='green'><strong>Share</strong></font></div><div class='tr'><img class='introPic' src='trustrating_stim/white_mw042.bmp'><br><font color='green'><strong>Share</strong></font></div></div></div>","null","ARRAY","3","trustrating_stim/white_mw091.bmp,trustrating_stim/white_mw003.bmp,trustrating_stim/white_mw042.bmp","0,1,1","Match","e","4500","","","","",""
"html-keyboard-response","122","304895","0.0-7.0-3.17","5eba16d1843bd1154b5a2aa9","bdp_wmem","Thu Jul 28 2022 00:45:30 GMT-0400 (Eastern Daylight Time)","570541","Match,No Match","","null","","","","","","<div class='trialBorder'><div class='vertical-center'><img src='img/fixation2_sml.jpg'</img></div></div>","null","DELAY","","","","","","","","","","",""
"html-keyboard-response","123","305709","0.0-7.0-4.17","5eba16d1843bd1154b5a2aa9","bdp_wmem","Thu Jul 28 2022 00:45:30 GMT-0400 (Eastern Daylight Time)","570541","Match,No Match","","814","","","","","","<div class='trialBorder'><div class='targDiv'><div class='tc'><img class='introPic' src='trustrating_stim/white_mw042.bmp'><br><font color='green'><strong>Share</strong></font></div></div><div class='respDiv'><div class='respDivL'>Match<br>(e)</div><div class='respDivR'>No Match<br>(i)</div></div></div>","i","TARGET","3","trustrating_stim/white_mw091.bmp,trustrating_stim/white_mw003.bmp,trustrating_stim/white_mw042.bmp","0,1,1","Match","e","4500","trustrating_stim/white_mw042.bmp","green","Share","REAL","0"
"html-keyboard-response","124","306210","0.0-7.0-5.17","5eba16d1843bd1154b5a2aa9","bdp_wmem","Thu Jul 28 2022 00:45:30 GMT-0400 (Eastern Daylight Time)","570541","Match,No Match","","null","","","","","","<div class='trialBorder'><div class='vertical-center'><img src='img/error.jpg'></div><div class='respDiv'><div class='respDivL'>Match<br>(e)</div><div class='respDivR'><font style='color:orange'>No Match<br>(i)</font></div></div></div>","null","FEEDBACK","","","","","","","","","","",""
"html-keyboard-response","125","306712","0.0-7.0-1.18","5eba16d1843bd1154b5a2aa9","bdp_wmem","Thu Jul 28 2022 00:45:30 GMT-0400 (Eastern Daylight Time)","570541","Match,No Match","","null","","","","","","<div class='trialBorder'><div class='vertical-center'><img src='img/fixation2_sml.jpg'</img></div></div>","null","FIX","","","","","","","","","","",""
"html-keyboard-response","126","311214","0.0-7.0-2.18","5eba16d1843bd1154b5a2aa9","bdp_wmem","Thu Jul 28 2022 00:45:30 GMT-0400 (Eastern Daylight Time)","570541","Match,No Match","","null","","","","","","<div class='trialBorder'><div class='vertical-center'><img style='vertical-align:center; align:center' src='img/fixation2_sml.jpg'></div><div class='arrayDiv3'><div class='tl'><img class='introPic' src='trustrating_stim/white_mw078.bmp'><br><font color='green'><strong>Share</strong></font></div><div class='tc'><img class='introPic' src='trustrating_stim/white_mw038.bmp'><br><font color='green'><strong>Share</strong></font></div><div class='tr'><img class='introPic' src='trustrating_stim/white_mw042.bmp'><br><font color='red'><strong>Keep</strong></font></div></div></div>","null","ARRAY","3","trustrating_stim/white_mw078.bmp,trustrating_stim/white_mw038.bmp,trustrating_stim/white_mw042.bmp","1,1,0","Match","e","4500","","","","",""
"html-keyboard-response","127","315215","0.0-7.0-3.18","5eba16d1843bd1154b5a2aa9","bdp_wmem","Thu Jul 28 2022 00:45:30 GMT-0400 (Eastern Daylight Time)","570541","Match,No Match","","null","","","","","","<div class='trialBorder'><div class='vertical-center'><img src='img/fixation2_sml.jpg'</img></div></div>","null","DELAY","","","","","","","","","","",""
"html-keyboard-response","128","316107","0.0-7.0-4.18","5eba16d1843bd1154b5a2aa9","bdp_wmem","Thu Jul 28 2022 00:45:30 GMT-0400 (Eastern Daylight Time)","570541","Match,No Match","","892","","","","","","<div class='trialBorder'><div class='targDiv'><div class='tc'><img class='introPic' src='trustrating_stim/white_mw042.bmp'><br><font color='red'><strong>Keep</strong></font></div></div><div class='respDiv'><div class='respDivL'>Match<br>(e)</div><div class='respDivR'>No Match<br>(i)</div></div></div>","i","TARGET","3","trustrating_stim/white_mw078.bmp,trustrating_stim/white_mw038.bmp,trustrating_stim/white_mw042.bmp","1,1,0","Match","e","4500","trustrating_stim/white_mw042.bmp","red","Keep","REAL","0"
"html-keyboard-response","129","316608","0.0-7.0-5.18","5eba16d1843bd1154b5a2aa9","bdp_wmem","Thu Jul 28 2022 00:45:30 GMT-0400 (Eastern Daylight Time)","570541","Match,No Match","","null","","","","","","<div class='trialBorder'><div class='vertical-center'><img src='img/error.jpg'></div><div class='respDiv'><div class='respDivL'>Match<br>(e)</div><div class='respDivR'><font style='color:orange'>No Match<br>(i)</font></div></div></div>","null","FEEDBACK","","","","","","","","","","",""
"html-keyboard-response","130","317109","0.0-7.0-1.19","5eba16d1843bd1154b5a2aa9","bdp_wmem","Thu Jul 28 2022 00:45:30 GMT-0400 (Eastern Daylight Time)","570541","Match,No Match","","null","","","","","","<div class='trialBorder'><div class='vertical-center'><img src='img/fixation2_sml.jpg'</img></div></div>","null","FIX","","","","","","","","","","",""
"html-keyboard-response","131","321610","0.0-7.0-2.19","5eba16d1843bd1154b5a2aa9","bdp_wmem","Thu Jul 28 2022 00:45:30 GMT-0400 (Eastern Daylight Time)","570541","Match,No Match","","null","","","","","","<div class='trialBorder'><div class='vertical-center'><img style='vertical-align:center; align:center' src='img/fixation2_sml.jpg'></div><div class='arrayDiv3'><div class='tl'><img class='introPic' src='trustrating_stim/white_mw085.bmp'><br><font color='green'><strong>Share</strong></font></div><div class='tc'><img class='introPic' src='trustrating_stim/white_mw092.bmp'><br><font color='red'><strong>Keep</strong></font></div><div class='tr'><img class='introPic' src='trustrating_stim/white_mw003.bmp'><br><font color='green'><strong>Share</strong></font></div></div></div>","null","ARRAY","3","trustrating_stim/white_mw085.bmp,trustrating_stim/white_mw092.bmp,trustrating_stim/white_mw003.bmp","1,0,1","noMatchOutcome","i","4500","","","","",""
"html-keyboard-response","132","325612","0.0-7.0-3.19","5eba16d1843bd1154b5a2aa9","bdp_wmem","Thu Jul 28 2022 00:45:30 GMT-0400 (Eastern Daylight Time)","570541","Match,No Match","","null","","","","","","<div class='trialBorder'><div class='vertical-center'><img src='img/fixation2_sml.jpg'</img></div></div>","null","DELAY","","","","","","","","","","",""
"html-keyboard-response","133","326550","0.0-7.0-4.19","5eba16d1843bd1154b5a2aa9","bdp_wmem","Thu Jul 28 2022 00:45:30 GMT-0400 (Eastern Daylight Time)","570541","Match,No Match","","937","","","","","","<div class='trialBorder'><div class='targDiv'><div class='tc'><img class='introPic' src='trustrating_stim/white_mw085.bmp'><br><font color='red'><strong>Keep</strong></font></div></div><div class='respDiv'><div class='respDivL'>Match<br>(e)</div><div class='respDivR'>No Match<br>(i)</div></div></div>","e","TARGET","3","trustrating_stim/white_mw085.bmp,trustrating_stim/white_mw092.bmp,trustrating_stim/white_mw003.bmp","1,0,1","noMatchOutcome","i","4500","trustrating_stim/white_mw085.bmp","red","Keep","REAL","0"
"html-keyboard-response","134","327051","0.0-7.0-5.19","5eba16d1843bd1154b5a2aa9","bdp_wmem","Thu Jul 28 2022 00:45:30 GMT-0400 (Eastern Daylight Time)","570541","Match,No Match","","null","","","","","","<div class='trialBorder'><div class='vertical-center'><img src='img/error.jpg'></div><div class='respDiv'><div class='respDivL'><font style='color:orange'>Match<br>(e)</font></div><div class='respDivR'>No Match<br>(i)</div></div></div>","null","FEEDBACK","","","","","","","","","","",""
"html-keyboard-response","135","327552","0.0-7.0-1.20","5eba16d1843bd1154b5a2aa9","bdp_wmem","Thu Jul 28 2022 00:45:30 GMT-0400 (Eastern Daylight Time)","570541","Match,No Match","","null","","","","","","<div class='trialBorder'><div class='vertical-center'><img src='img/fixation2_sml.jpg'</img></div></div>","null","FIX","","","","","","","","","","",""
"html-keyboard-response","136","330553","0.0-7.0-2.20","5eba16d1843bd1154b5a2aa9","bdp_wmem","Thu Jul 28 2022 00:45:30 GMT-0400 (Eastern Daylight Time)","570541","Match,No Match","","null","","","","","","<div class='trialBorder'><div class='vertical-center'><img style='vertical-align:center; align:center' src='img/fixation2_sml.jpg'></div><div class='arrayDiv2'><div class='tl'><img class='introPic' src='trustrating_stim/white_mw085.bmp'><br><font color='green'><strong>Share</strong></font></div><div class='tr'><img class='introPic' src='trustrating_stim/white_mw012.bmp'><br><font color='red'><strong>Keep</strong></font></div></div></div>","null","ARRAY","2","trustrating_stim/white_mw085.bmp,trustrating_stim/white_mw012.bmp","1,0","Match","e","3000","","","","",""
"html-keyboard-response","137","334554","0.0-7.0-3.20","5eba16d1843bd1154b5a2aa9","bdp_wmem","Thu Jul 28 2022 00:45:30 GMT-0400 (Eastern Daylight Time)","570541","Match,No Match","","null","","","","","","<div class='trialBorder'><div class='vertical-center'><img src='img/fixation2_sml.jpg'</img></div></div>","null","DELAY","","","","","","","","","","",""
"html-keyboard-response","138","335476","0.0-7.0-4.20","5eba16d1843bd1154b5a2aa9","bdp_wmem","Thu Jul 28 2022 00:45:30 GMT-0400 (Eastern Daylight Time)","570541","Match,No Match","","920","","","","","","<div class='trialBorder'><div class='targDiv'><div class='tc'><img class='introPic' src='trustrating_stim/white_mw012.bmp'><br><font color='red'><strong>Keep</strong></font></div></div><div class='respDiv'><div class='respDivL'>Match<br>(e)</div><div class='respDivR'>No Match<br>(i)</div></div></div>","i","TARGET","2","trustrating_stim/white_mw085.bmp,trustrating_stim/white_mw012.bmp","1,0","Match","e","3000","trustrating_stim/white_mw012.bmp","red","Keep","REAL","0"
"html-keyboard-response","139","335976","0.0-7.0-5.20","5eba16d1843bd1154b5a2aa9","bdp_wmem","Thu Jul 28 2022 00:45:30 GMT-0400 (Eastern Daylight Time)","570541","Match,No Match","","null","","","","","","<div class='trialBorder'><div class='vertical-center'><img src='img/error.jpg'></div><div class='respDiv'><div class='respDivL'>Match<br>(e)</div><div class='respDivR'><font style='color:orange'>No Match<br>(i)</font></div></div></div>","null","FEEDBACK","","","","","","","","","","",""
"html-keyboard-response","140","336478","0.0-7.0-1.21","5eba16d1843bd1154b5a2aa9","bdp_wmem","Thu Jul 28 2022 00:45:30 GMT-0400 (Eastern Daylight Time)","570541","Match,No Match","","null","","","","","","<div class='trialBorder'><div class='vertical-center'><img src='img/fixation2_sml.jpg'</img></div></div>","null","FIX","","","","","","","","","","",""
"html-keyboard-response","141","340979","0.0-7.0-2.21","5eba16d1843bd1154b5a2aa9","bdp_wmem","Thu Jul 28 2022 00:45:30 GMT-0400 (Eastern Daylight Time)","570541","Match,No Match","","null","","","","","","<div class='trialBorder'><div class='vertical-center'><img style='vertical-align:center; align:center' src='img/fixation2_sml.jpg'></div><div class='arrayDiv3'><div class='tl'><img class='introPic' src='trustrating_stim/white_mw003.bmp'><br><font color='red'><strong>Keep</strong></font></div><div class='tc'><img class='introPic' src='trustrating_stim/white_mw092.bmp'><br><font color='green'><strong>Share</strong></font></div><div class='tr'><img class='introPic' src='trustrating_stim/white_mw040.bmp'><br><font color='red'><strong>Keep</strong></font></div></div></div>","null","ARRAY","3","trustrating_stim/white_mw003.bmp,trustrating_stim/white_mw092.bmp,trustrating_stim/white_mw040.bmp","0,1,0","Match","e","4500","","","","",""
"html-keyboard-response","142","344981","0.0-7.0-3.21","5eba16d1843bd1154b5a2aa9","bdp_wmem","Thu Jul 28 2022 00:45:30 GMT-0400 (Eastern Daylight Time)","570541","Match,No Match","","null","","","","","","<div class='trialBorder'><div class='vertical-center'><img src='img/fixation2_sml.jpg'</img></div></div>","null","DELAY","","","","","","","","","","",""
"html-keyboard-response","143","345796","0.0-7.0-4.21","5eba16d1843bd1154b5a2aa9","bdp_wmem","Thu Jul 28 2022 00:45:30 GMT-0400 (Eastern Daylight Time)","570541","Match,No Match","","815","","","","","","<div class='trialBorder'><div class='targDiv'><div class='tc'><img class='introPic' src='trustrating_stim/white_mw092.bmp'><br><font color='green'><strong>Share</strong></font></div></div><div class='respDiv'><div class='respDivL'>Match<br>(e)</div><div class='respDivR'>No Match<br>(i)</div></div></div>","e","TARGET","3","trustrating_stim/white_mw003.bmp,trustrating_stim/white_mw092.bmp,trustrating_stim/white_mw040.bmp","0,1,0","Match","e","4500","trustrating_stim/white_mw092.bmp","green","Share","REAL","1"
"html-keyboard-response","144","346298","0.0-7.0-5.21","5eba16d1843bd1154b5a2aa9","bdp_wmem","Thu Jul 28 2022 00:45:30 GMT-0400 (Eastern Daylight Time)","570541","Match,No Match","","null","","","","","","<div class='trialBorder'><div class='vertical-center'><img src='img/correct.jpg'></div><div class='respDiv'><div class='respDivL'><font style='color:orange'>Match<br>(e)</font></div><div class='respDivR'>No Match<br>(i)</div></div></div>","null","FEEDBACK","","","","","","","","","","",""
"html-keyboard-response","145","346800","0.0-7.0-1.22","5eba16d1843bd1154b5a2aa9","bdp_wmem","Thu Jul 28 2022 00:45:30 GMT-0400 (Eastern Daylight Time)","570541","Match,No Match","","null","","","","","","<div class='trialBorder'><div class='vertical-center'><img src='img/fixation2_sml.jpg'</img></div></div>","null","FIX","","","","","","","","","","",""
"html-keyboard-response","146","348301","0.0-7.0-2.22","5eba16d1843bd1154b5a2aa9","bdp_wmem","Thu Jul 28 2022 00:45:30 GMT-0400 (Eastern Daylight Time)","570541","Match,No Match","","null","","","","","","<div class='trialBorder'><div class='vertical-center'><img style='vertical-align:center; align:center' src='img/fixation2_sml.jpg'></div><div class='arrayDiv1'><div class='tc'><img class='introPic' src='trustrating_stim/white_mw070.bmp'><br><font color='red'><strong>Keep</strong></font></div></div></div>","null","ARRAY","1","trustrating_stim/white_mw070.bmp","0","Match","e","1500","","","","",""
"html-keyboard-response","147","352302","0.0-7.0-3.22","5eba16d1843bd1154b5a2aa9","bdp_wmem","Thu Jul 28 2022 00:45:30 GMT-0400 (Eastern Daylight Time)","570541","Match,No Match","","null","","","","","","<div class='trialBorder'><div class='vertical-center'><img src='img/fixation2_sml.jpg'</img></div></div>","null","DELAY","","","","","","","","","","",""
"html-keyboard-response","148","353245","0.0-7.0-4.22","5eba16d1843bd1154b5a2aa9","bdp_wmem","Thu Jul 28 2022 00:45:30 GMT-0400 (Eastern Daylight Time)","570541","Match,No Match","","942","","","","","","<div class='trialBorder'><div class='targDiv'><div class='tc'><img class='introPic' src='trustrating_stim/white_mw070.bmp'><br><font color='red'><strong>Keep</strong></font></div></div><div class='respDiv'><div class='respDivL'>Match<br>(e)</div><div class='respDivR'>No Match<br>(i)</div></div></div>","e","TARGET","1","trustrating_stim/white_mw070.bmp","0","Match","e","1500","trustrating_stim/white_mw070.bmp","red","Keep","REAL","1"
"html-keyboard-response","149","353746","0.0-7.0-5.22","5eba16d1843bd1154b5a2aa9","bdp_wmem","Thu Jul 28 2022 00:45:30 GMT-0400 (Eastern Daylight Time)","570541","Match,No Match","","null","","","","","","<div class='trialBorder'><div class='vertical-center'><img src='img/correct.jpg'></div><div class='respDiv'><div class='respDivL'><font style='color:orange'>Match<br>(e)</font></div><div class='respDivR'>No Match<br>(i)</div></div></div>","null","FEEDBACK","","","","","","","","","","",""
"html-keyboard-response","150","354247","0.0-7.0-1.23","5eba16d1843bd1154b5a2aa9","bdp_wmem","Thu Jul 28 2022 00:45:30 GMT-0400 (Eastern Daylight Time)","570541","Match,No Match","","null","","","","","","<div class='trialBorder'><div class='vertical-center'><img src='img/fixation2_sml.jpg'</img></div></div>","null","FIX","","","","","","","","","","",""
"html-keyboard-response","151","358749","0.0-7.0-2.23","5eba16d1843bd1154b5a2aa9","bdp_wmem","Thu Jul 28 2022 00:45:30 GMT-0400 (Eastern Daylight Time)","570541","Match,No Match","","null","","","","","","<div class='trialBorder'><div class='vertical-center'><img style='vertical-align:center; align:center' src='img/fixation2_sml.jpg'></div><div class='arrayDiv3'><div class='tl'><img class='introPic' src='trustrating_stim/white_mw085.bmp'><br><font color='red'><strong>Keep</strong></font></div><div class='tc'><img class='introPic' src='trustrating_stim/white_mw042.bmp'><br><font color='red'><strong>Keep</strong></font></div><div class='tr'><img class='introPic' src='trustrating_stim/white_mw012.bmp'><br><font color='green'><strong>Share</strong></font></div></div></div>","null","ARRAY","3","trustrating_stim/white_mw085.bmp,trustrating_stim/white_mw042.bmp,trustrating_stim/white_mw012.bmp","0,0,1","Match","e","4500","","","","",""
"html-keyboard-response","152","362751","0.0-7.0-3.23","5eba16d1843bd1154b5a2aa9","bdp_wmem","Thu Jul 28 2022 00:45:30 GMT-0400 (Eastern Daylight Time)","570541","Match,No Match","","null","","","","","","<div class='trialBorder'><div class='vertical-center'><img src='img/fixation2_sml.jpg'</img></div></div>","null","DELAY","","","","","","","","","","",""
"html-keyboard-response","153","364322","0.0-7.0-4.23","5eba16d1843bd1154b5a2aa9","bdp_wmem","Thu Jul 28 2022 00:45:30 GMT-0400 (Eastern Daylight Time)","570541","Match,No Match","","1571","","","","","","<div class='trialBorder'><div class='targDiv'><div class='tc'><img class='introPic' src='trustrating_stim/white_mw012.bmp'><br><font color='green'><strong>Share</strong></font></div></div><div class='respDiv'><div class='respDivL'>Match<br>(e)</div><div class='respDivR'>No Match<br>(i)</div></div></div>","e","TARGET","3","trustrating_stim/white_mw085.bmp,trustrating_stim/white_mw042.bmp,trustrating_stim/white_mw012.bmp","0,0,1","Match","e","4500","trustrating_stim/white_mw012.bmp","green","Share","REAL","1"
"html-keyboard-response","154","364823","0.0-7.0-5.23","5eba16d1843bd1154b5a2aa9","bdp_wmem","Thu Jul 28 2022 00:45:30 GMT-0400 (Eastern Daylight Time)","570541","Match,No Match","","null","","","","","","<div class='trialBorder'><div class='vertical-center'><img src='img/correct.jpg'></div><div class='respDiv'><div class='respDivL'><font style='color:orange'>Match<br>(e)</font></div><div class='respDivR'>No Match<br>(i)</div></div></div>","null","FEEDBACK","","","","","","","","","","",""
"html-keyboard-response","155","365325","0.0-7.0-1.24","5eba16d1843bd1154b5a2aa9","bdp_wmem","Thu Jul 28 2022 00:45:30 GMT-0400 (Eastern Daylight Time)","570541","Match,No Match","","null","","","","","","<div class='trialBorder'><div class='vertical-center'><img src='img/fixation2_sml.jpg'</img></div></div>","null","FIX","","","","","","","","","","",""
"html-keyboard-response","156","366826","0.0-7.0-2.24","5eba16d1843bd1154b5a2aa9","bdp_wmem","Thu Jul 28 2022 00:45:30 GMT-0400 (Eastern Daylight Time)","570541","Match,No Match","","null","","","","","","<div class='trialBorder'><div class='vertical-center'><img style='vertical-align:center; align:center' src='img/fixation2_sml.jpg'></div><div class='arrayDiv1'><div class='tc'><img class='introPic' src='trustrating_stim/white_mw012.bmp'><br><font color='red'><strong>Keep</strong></font></div></div></div>","null","ARRAY","1","trustrating_stim/white_mw012.bmp","0","noMatchOutcome","i","1500","","","","",""
"html-keyboard-response","157","370827","0.0-7.0-3.24","5eba16d1843bd1154b5a2aa9","bdp_wmem","Thu Jul 28 2022 00:45:30 GMT-0400 (Eastern Daylight Time)","570541","Match,No Match","","null","","","","","","<div class='trialBorder'><div class='vertical-center'><img src='img/fixation2_sml.jpg'</img></div></div>","null","DELAY","","","","","","","","","","",""
"html-keyboard-response","158","371565","0.0-7.0-4.24","5eba16d1843bd1154b5a2aa9","bdp_wmem","Thu Jul 28 2022 00:45:30 GMT-0400 (Eastern Daylight Time)","570541","Match,No Match","","738","","","","","","<div class='trialBorder'><div class='targDiv'><div class='tc'><img class='introPic' src='trustrating_stim/white_mw012.bmp'><br><font color='green'><strong>Share</strong></font></div></div><div class='respDiv'><div class='respDivL'>Match<br>(e)</div><div class='respDivR'>No Match<br>(i)</div></div></div>","i","TARGET","1","trustrating_stim/white_mw012.bmp","0","noMatchOutcome","i","1500","trustrating_stim/white_mw012.bmp","green","Share","REAL","1"
"html-keyboard-response","159","372066","0.0-7.0-5.24","5eba16d1843bd1154b5a2aa9","bdp_wmem","Thu Jul 28 2022 00:45:30 GMT-0400 (Eastern Daylight Time)","570541","Match,No Match","","null","","","","","","<div class='trialBorder'><div class='vertical-center'><img src='img/correct.jpg'></div><div class='respDiv'><div class='respDivL'>Match<br>(e)</div><div class='respDivR'><font style='color:orange'>No Match<br>(i)</font></div></div></div>","null","FEEDBACK","","","","","","","","","","",""
"html-keyboard-response","160","372567","0.0-7.0-1.25","5eba16d1843bd1154b5a2aa9","bdp_wmem","Thu Jul 28 2022 00:45:30 GMT-0400 (Eastern Daylight Time)","570541","Match,No Match","","null","","","","","","<div class='trialBorder'><div class='vertical-center'><img src='img/fixation2_sml.jpg'</img></div></div>","null","FIX","","","","","","","","","","",""
"html-keyboard-response","161","375569","0.0-7.0-2.25","5eba16d1843bd1154b5a2aa9","bdp_wmem","Thu Jul 28 2022 00:45:30 GMT-0400 (Eastern Daylight Time)","570541","Match,No Match","","null","","","","","","<div class='trialBorder'><div class='vertical-center'><img style='vertical-align:center; align:center' src='img/fixation2_sml.jpg'></div><div class='arrayDiv2'><div class='tl'><img class='introPic' src='trustrating_stim/white_mw091.bmp'><br><font color='red'><strong>Keep</strong></font></div><div class='tr'><img class='introPic' src='trustrating_stim/white_mw003.bmp'><br><font color='green'><strong>Share</strong></font></div></div></div>","null","ARRAY","2","trustrating_stim/white_mw091.bmp,trustrating_stim/white_mw003.bmp","0,1","noMatchFace","i","3000","","","","",""
"html-keyboard-response","162","379570","0.0-7.0-3.25","5eba16d1843bd1154b5a2aa9","bdp_wmem","Thu Jul 28 2022 00:45:30 GMT-0400 (Eastern Daylight Time)","570541","Match,No Match","","null","","","","","","<div class='trialBorder'><div class='vertical-center'><img src='img/fixation2_sml.jpg'</img></div></div>","null","DELAY","","","","","","","","","","",""
"html-keyboard-response","163","380457","0.0-7.0-4.25","5eba16d1843bd1154b5a2aa9","bdp_wmem","Thu Jul 28 2022 00:45:30 GMT-0400 (Eastern Daylight Time)","570541","Match,No Match","","886","","","","","","<div class='trialBorder'><div class='targDiv'><div class='tc'><img class='introPic' src='trustrating_stim/white_mw042.bmp'><br><font color='green'><strong>Share</strong></font></div></div><div class='respDiv'><div class='respDivL'>Match<br>(e)</div><div class='respDivR'>No Match<br>(i)</div></div></div>","i","TARGET","2","trustrating_stim/white_mw091.bmp,trustrating_stim/white_mw003.bmp","0,1","noMatchFace","i","3000","trustrating_stim/white_mw042.bmp","green","Share","REAL","1"
"html-keyboard-response","164","380958","0.0-7.0-5.25","5eba16d1843bd1154b5a2aa9","bdp_wmem","Thu Jul 28 2022 00:45:30 GMT-0400 (Eastern Daylight Time)","570541","Match,No Match","","null","","","","","","<div class='trialBorder'><div class='vertical-center'><img src='img/correct.jpg'></div><div class='respDiv'><div class='respDivL'>Match<br>(e)</div><div class='respDivR'><font style='color:orange'>No Match<br>(i)</font></div></div></div>","null","FEEDBACK","","","","","","","","","","",""
"html-keyboard-response","165","381459","0.0-7.0-1.26","5eba16d1843bd1154b5a2aa9","bdp_wmem","Thu Jul 28 2022 00:45:30 GMT-0400 (Eastern Daylight Time)","570541","Match,No Match","","null","","","","","","<div class='trialBorder'><div class='vertical-center'><img src='img/fixation2_sml.jpg'</img></div></div>","null","FIX","","","","","","","","","","",""
"html-keyboard-response","166","384461","0.0-7.0-2.26","5eba16d1843bd1154b5a2aa9","bdp_wmem","Thu Jul 28 2022 00:45:30 GMT-0400 (Eastern Daylight Time)","570541","Match,No Match","","null","","","","","","<div class='trialBorder'><div class='vertical-center'><img style='vertical-align:center; align:center' src='img/fixation2_sml.jpg'></div><div class='arrayDiv2'><div class='tl'><img class='introPic' src='trustrating_stim/white_mw013.bmp'><br><font color='green'><strong>Share</strong></font></div><div class='tr'><img class='introPic' src='trustrating_stim/white_mw085.bmp'><br><font color='red'><strong>Keep</strong></font></div></div></div>","null","ARRAY","2","trustrating_stim/white_mw013.bmp,trustrating_stim/white_mw085.bmp","1,0","Match","e","3000","","","","",""
"html-keyboard-response","167","388462","0.0-7.0-3.26","5eba16d1843bd1154b5a2aa9","bdp_wmem","Thu Jul 28 2022 00:45:30 GMT-0400 (Eastern Daylight Time)","570541","Match,No Match","","null","","","","","","<div class='trialBorder'><div class='vertical-center'><img src='img/fixation2_sml.jpg'</img></div></div>","null","DELAY","","","","","","","","","","",""
"html-keyboard-response","168","389179","0.0-7.0-4.26","5eba16d1843bd1154b5a2aa9","bdp_wmem","Thu Jul 28 2022 00:45:30 GMT-0400 (Eastern Daylight Time)","570541","Match,No Match","","717","","","","","","<div class='trialBorder'><div class='targDiv'><div class='tc'><img class='introPic' src='trustrating_stim/white_mw013.bmp'><br><font color='green'><strong>Share</strong></font></div></div><div class='respDiv'><div class='respDivL'>Match<br>(e)</div><div class='respDivR'>No Match<br>(i)</div></div></div>","e","TARGET","2","trustrating_stim/white_mw013.bmp,trustrating_stim/white_mw085.bmp","1,0","Match","e","3000","trustrating_stim/white_mw013.bmp","green","Share","REAL","1"
"html-keyboard-response","169","389680","0.0-7.0-5.26","5eba16d1843bd1154b5a2aa9","bdp_wmem","Thu Jul 28 2022 00:45:30 GMT-0400 (Eastern Daylight Time)","570541","Match,No Match","","null","","","","","","<div class='trialBorder'><div class='vertical-center'><img src='img/correct.jpg'></div><div class='respDiv'><div class='respDivL'><font style='color:orange'>Match<br>(e)</font></div><div class='respDivR'>No Match<br>(i)</div></div></div>","null","FEEDBACK","","","","","","","","","","",""
"html-keyboard-response","170","390181","0.0-7.0-1.27","5eba16d1843bd1154b5a2aa9","bdp_wmem","Thu Jul 28 2022 00:45:30 GMT-0400 (Eastern Daylight Time)","570541","Match,No Match","","null","","","","","","<div class='trialBorder'><div class='vertical-center'><img src='img/fixation2_sml.jpg'</img></div></div>","null","FIX","","","","","","","","","","",""
"html-keyboard-response","171","391683","0.0-7.0-2.27","5eba16d1843bd1154b5a2aa9","bdp_wmem","Thu Jul 28 2022 00:45:30 GMT-0400 (Eastern Daylight Time)","570541","Match,No Match","","null","","","","","","<div class='trialBorder'><div class='vertical-center'><img style='vertical-align:center; align:center' src='img/fixation2_sml.jpg'></div><div class='arrayDiv1'><div class='tc'><img class='introPic' src='trustrating_stim/white_mw042.bmp'><br><font color='red'><strong>Keep</strong></font></div></div></div>","null","ARRAY","1","trustrating_stim/white_mw042.bmp","0","noMatchFace","i","1500","","","","",""
"html-keyboard-response","172","395684","0.0-7.0-3.27","5eba16d1843bd1154b5a2aa9","bdp_wmem","Thu Jul 28 2022 00:45:30 GMT-0400 (Eastern Daylight Time)","570541","Match,No Match","","null","","","","","","<div class='trialBorder'><div class='vertical-center'><img src='img/fixation2_sml.jpg'</img></div></div>","null","DELAY","","","","","","","","","","",""
"html-keyboard-response","173","396939","0.0-7.0-4.27","5eba16d1843bd1154b5a2aa9","bdp_wmem","Thu Jul 28 2022 00:45:30 GMT-0400 (Eastern Daylight Time)","570541","Match,No Match","","1255","","","","","","<div class='trialBorder'><div class='targDiv'><div class='tc'><img class='introPic' src='trustrating_stim/white_mw040.bmp'><br><font color='red'><strong>Keep</strong></font></div></div><div class='respDiv'><div class='respDivL'>Match<br>(e)</div><div class='respDivR'>No Match<br>(i)</div></div></div>","i","TARGET","1","trustrating_stim/white_mw042.bmp","0","noMatchFace","i","1500","trustrating_stim/white_mw040.bmp","red","Keep","REAL","1"
"html-keyboard-response","174","397440","0.0-7.0-5.27","5eba16d1843bd1154b5a2aa9","bdp_wmem","Thu Jul 28 2022 00:45:30 GMT-0400 (Eastern Daylight Time)","570541","Match,No Match","","null","","","","","","<div class='trialBorder'><div class='vertical-center'><img src='img/correct.jpg'></div><div class='respDiv'><div class='respDivL'>Match<br>(e)</div><div class='respDivR'><font style='color:orange'>No Match<br>(i)</font></div></div></div>","null","FEEDBACK","","","","","","","","","","",""
"html-keyboard-response","175","397941","0.0-7.0-1.28","5eba16d1843bd1154b5a2aa9","bdp_wmem","Thu Jul 28 2022 00:45:30 GMT-0400 (Eastern Daylight Time)","570541","Match,No Match","","null","","","","","","<div class='trialBorder'><div class='vertical-center'><img src='img/fixation2_sml.jpg'</img></div></div>","null","FIX","","","","","","","","","","",""
"html-keyboard-response","176","400943","0.0-7.0-2.28","5eba16d1843bd1154b5a2aa9","bdp_wmem","Thu Jul 28 2022 00:45:30 GMT-0400 (Eastern Daylight Time)","570541","Match,No Match","","null","","","","","","<div class='trialBorder'><div class='vertical-center'><img style='vertical-align:center; align:center' src='img/fixation2_sml.jpg'></div><div class='arrayDiv2'><div class='tl'><img class='introPic' src='trustrating_stim/white_mw070.bmp'><br><font color='green'><strong>Share</strong></font></div><div class='tr'><img class='introPic' src='trustrating_stim/white_mw003.bmp'><br><font color='red'><strong>Keep</strong></font></div></div></div>","null","ARRAY","2","trustrating_stim/white_mw070.bmp,trustrating_stim/white_mw003.bmp","1,0","noMatchOutcome","i","3000","","","","",""
"html-keyboard-response","177","404944","0.0-7.0-3.28","5eba16d1843bd1154b5a2aa9","bdp_wmem","Thu Jul 28 2022 00:45:30 GMT-0400 (Eastern Daylight Time)","570541","Match,No Match","","null","","","","","","<div class='trialBorder'><div class='vertical-center'><img src='img/fixation2_sml.jpg'</img></div></div>","null","DELAY","","","","","","","","","","",""
"html-keyboard-response","178","405323","0.0-7.0-4.28","5eba16d1843bd1154b5a2aa9","bdp_wmem","Thu Jul 28 2022 00:45:30 GMT-0400 (Eastern Daylight Time)","570541","Match,No Match","","378","","","","","","<div class='trialBorder'><div class='targDiv'><div class='tc'><img class='introPic' src='trustrating_stim/white_mw003.bmp'><br><font color='green'><strong>Share</strong></font></div></div><div class='respDiv'><div class='respDivL'>Match<br>(e)</div><div class='respDivR'>No Match<br>(i)</div></div></div>","i","TARGET","2","trustrating_stim/white_mw070.bmp,trustrating_stim/white_mw003.bmp","1,0","noMatchOutcome","i","3000","trustrating_stim/white_mw003.bmp","green","Share","REAL","1"
"html-keyboard-response","179","405824","0.0-7.0-5.28","5eba16d1843bd1154b5a2aa9","bdp_wmem","Thu Jul 28 2022 00:45:30 GMT-0400 (Eastern Daylight Time)","570541","Match,No Match","","null","","","","","","<div class='trialBorder'><div class='vertical-center'><img src='img/correct.jpg'></div><div class='respDiv'><div class='respDivL'>Match<br>(e)</div><div class='respDivR'><font style='color:orange'>No Match<br>(i)</font></div></div></div>","null","FEEDBACK","","","","","","","","","","",""
"html-keyboard-response","180","406325","0.0-7.0-1.29","5eba16d1843bd1154b5a2aa9","bdp_wmem","Thu Jul 28 2022 00:45:30 GMT-0400 (Eastern Daylight Time)","570541","Match,No Match","","null","","","","","","<div class='trialBorder'><div class='vertical-center'><img src='img/fixation2_sml.jpg'</img></div></div>","null","FIX","","","","","","","","","","",""
"html-keyboard-response","181","407826","0.0-7.0-2.29","5eba16d1843bd1154b5a2aa9","bdp_wmem","Thu Jul 28 2022 00:45:30 GMT-0400 (Eastern Daylight Time)","570541","Match,No Match","","null","","","","","","<div class='trialBorder'><div class='vertical-center'><img style='vertical-align:center; align:center' src='img/fixation2_sml.jpg'></div><div class='arrayDiv1'><div class='tc'><img class='introPic' src='trustrating_stim/white_mw091.bmp'><br><font color='green'><strong>Share</strong></font></div></div></div>","null","ARRAY","1","trustrating_stim/white_mw091.bmp","1","Match","e","1500","","","","",""
"html-keyboard-response","182","411828","0.0-7.0-3.29","5eba16d1843bd1154b5a2aa9","bdp_wmem","Thu Jul 28 2022 00:45:30 GMT-0400 (Eastern Daylight Time)","570541","Match,No Match","","null","","","","","","<div class='trialBorder'><div class='vertical-center'><img src='img/fixation2_sml.jpg'</img></div></div>","null","DELAY","","","","","","","","","","",""
"html-keyboard-response","183","412600","0.0-7.0-4.29","5eba16d1843bd1154b5a2aa9","bdp_wmem","Thu Jul 28 2022 00:45:30 GMT-0400 (Eastern Daylight Time)","570541","Match,No Match","","771","","","","","","<div class='trialBorder'><div class='targDiv'><div class='tc'><img class='introPic' src='trustrating_stim/white_mw091.bmp'><br><font color='green'><strong>Share</strong></font></div></div><div class='respDiv'><div class='respDivL'>Match<br>(e)</div><div class='respDivR'>No Match<br>(i)</div></div></div>","e","TARGET","1","trustrating_stim/white_mw091.bmp","1","Match","e","1500","trustrating_stim/white_mw091.bmp","green","Share","REAL","1"
"html-keyboard-response","184","413102","0.0-7.0-5.29","5eba16d1843bd1154b5a2aa9","bdp_wmem","Thu Jul 28 2022 00:45:30 GMT-0400 (Eastern Daylight Time)","570541","Match,No Match","","null","","","","","","<div class='trialBorder'><div class='vertical-center'><img src='img/correct.jpg'></div><div class='respDiv'><div class='respDivL'><font style='color:orange'>Match<br>(e)</font></div><div class='respDivR'>No Match<br>(i)</div></div></div>","null","FEEDBACK","","","","","","","","","","",""
"html-keyboard-response","185","413603","0.0-7.0-1.30","5eba16d1843bd1154b5a2aa9","bdp_wmem","Thu Jul 28 2022 00:45:30 GMT-0400 (Eastern Daylight Time)","570541","Match,No Match","","null","","","","","","<div class='trialBorder'><div class='vertical-center'><img src='img/fixation2_sml.jpg'</img></div></div>","null","FIX","","","","","","","","","","",""
"html-keyboard-response","186","418105","0.0-7.0-2.30","5eba16d1843bd1154b5a2aa9","bdp_wmem","Thu Jul 28 2022 00:45:30 GMT-0400 (Eastern Daylight Time)","570541","Match,No Match","","null","","","","","","<div class='trialBorder'><div class='vertical-center'><img style='vertical-align:center; align:center' src='img/fixation2_sml.jpg'></div><div class='arrayDiv3'><div class='tl'><img class='introPic' src='trustrating_stim/white_mw070.bmp'><br><font color='red'><strong>Keep</strong></font></div><div class='tc'><img class='introPic' src='trustrating_stim/white_mw012.bmp'><br><font color='red'><strong>Keep</strong></font></div><div class='tr'><img class='introPic' src='trustrating_stim/white_mw042.bmp'><br><font color='green'><strong>Share</strong></font></div></div></div>","null","ARRAY","3","trustrating_stim/white_mw070.bmp,trustrating_stim/white_mw012.bmp,trustrating_stim/white_mw042.bmp","0,0,1","Match","e","4500","","","","",""
"html-keyboard-response","187","422107","0.0-7.0-3.30","5eba16d1843bd1154b5a2aa9","bdp_wmem","Thu Jul 28 2022 00:45:30 GMT-0400 (Eastern Daylight Time)","570541","Match,No Match","","null","","","","","","<div class='trialBorder'><div class='vertical-center'><img src='img/fixation2_sml.jpg'</img></div></div>","null","DELAY","","","","","","","","","","",""
