"trial_type","trial_index","time_elapsed","internal_node_id","subject_id","task","startTime","totalTime","labels","view_history","rt","event","trial","time","trialtype","success","stimulus","key_press","stimType","arraySize","arrayFaces","arrayOutcomes","matchType","corrResp","arrayDur","targFace","targCol","targOutcome","trialType","corr"
"pavlovia","0","3","0.0-0.0","dstanley","bdp_wmem","Tue Nov 09 2021 13:23:40 GMT-0500 (Eastern Standard Time)","604756","Match,No Match","","","","","","","","","","","","","","","","","","","","",""
"instructions","1","3205","0.0-1.0","dstanley","bdp_wmem","Tue Nov 09 2021 13:23:40 GMT-0500 (Eastern Standard Time)","604756","Match,No Match","[{""page_index"":0,""viewing_time"":3202}]","3202","","","","","","","","","","","","","","","","","","",""
"","","","","dstanley","bdp_wmem","Tue Nov 09 2021 13:23:40 GMT-0500 (Eastern Standard Time)","604756","Match,No Match","","","fullscreenenter","2","5719","fullscreenenter","","","","","","","","","","","","","","",""
"fullscreen","2","6716","0.0-2.0","dstanley","bdp_wmem","Tue Nov 09 2021 13:23:40 GMT-0500 (Eastern Standard Time)","604756","Match,No Match","","","","","","","true","","","","","","","","","","","","","",""
"instructions","3","95663","0.0-4.0","dstanley","bdp_wmem","Tue Nov 09 2021 13:23:40 GMT-0500 (Eastern Standard Time)","604756","Match,No Match","[{""page_index"":0,""viewing_time"":18533},{""page_index"":1,""viewing_time"":16968},{""page_index"":2,""viewing_time"":16462},{""page_index"":3,""viewing_time"":25378},{""page_index"":4,""viewing_time"":11605}]","88946","","","","","","","","","","","","","","","","","","",""
"html-keyboard-response","4","96166","0.0-5.0-1.0","dstanley","bdp_wmem","Tue Nov 09 2021 13:23:40 GMT-0500 (Eastern Standard Time)","604756","Match,No Match","","null","","","","","","<div class='trialBorder'><div class='vertical-center'><img src='img/fixation2_sml.jpg'</img></div></div>","null","FIX","","","","","","","","","","",""
"html-keyboard-response","5","99173","0.0-5.0-2.0","dstanley","bdp_wmem","Tue Nov 09 2021 13:23:40 GMT-0500 (Eastern Standard Time)","604756","Match,No Match","","null","","","","","","<div class='trialBorder'><div class='vertical-center'><img style='vertical-align:center; align:center' src='img/fixation2_sml.jpg'></div><div class='arrayDiv2'><div class='tl'><img class='introPic' src='trustrating_stim/white_mw003.bmp'><br><font color='green'><strong>Share</strong></font></div><div class='tr'><img class='introPic' src='trustrating_stim/white_00050_931230_fa_edt.bmp'><br><font color='red'><strong>Keep</strong></font></div></div></div>","null","ARRAY","2","trustrating_stim/white_mw003.bmp,trustrating_stim/white_00050_931230_fa_edt.bmp","1,0","noMatchOutcome","i","3000","","","","",""
"html-keyboard-response","6","103178","0.0-5.0-3.0","dstanley","bdp_wmem","Tue Nov 09 2021 13:23:40 GMT-0500 (Eastern Standard Time)","604756","Match,No Match","","null","","","","","","<div class='trialBorder'><div class='vertical-center'><img src='img/fixation2_sml.jpg'</img></div></div>","null","DELAY","","","","","","","","","","",""
"html-keyboard-response","7","104422","0.0-5.0-4.0","dstanley","bdp_wmem","Tue Nov 09 2021 13:23:40 GMT-0500 (Eastern Standard Time)","604756","Match,No Match","","1241","","","","","","<div class='trialBorder'><div class='targDiv'><div class='tc'><img class='introPic' src='trustrating_stim/white_mw003.bmp'><br><font color='red'><strong>Keep</strong></font></div></div><div class='respDiv'><div class='respDivL'>Match<br>(e)</div><div class='respDivR'>No Match<br>(i)</div></div></div>","i","TARGET","2","trustrating_stim/white_mw003.bmp,trustrating_stim/white_00050_931230_fa_edt.bmp","1,0","noMatchOutcome","i","3000","trustrating_stim/white_mw003.bmp","red","Keep","PRACTICE","1"
"html-keyboard-response","8","104926","0.0-5.0-5.0","dstanley","bdp_wmem","Tue Nov 09 2021 13:23:40 GMT-0500 (Eastern Standard Time)","604756","Match,No Match","","null","","","","","","<div class='trialBorder'><div class='vertical-center'><img src='img/correct.jpg'></div><div class='respDiv'><div class='respDivL'>Match<br>(e)</div><div class='respDivR'><font style='color:orange'>No Match<br>(i)</font></div></div></div>","null","FEEDBACK","","","","","","","","","","",""
"html-keyboard-response","9","105430","0.0-5.0-1.1","dstanley","bdp_wmem","Tue Nov 09 2021 13:23:40 GMT-0500 (Eastern Standard Time)","604756","Match,No Match","","null","","","","","","<div class='trialBorder'><div class='vertical-center'><img src='img/fixation2_sml.jpg'</img></div></div>","null","FIX","","","","","","","","","","",""
"html-keyboard-response","10","109935","0.0-5.0-2.1","dstanley","bdp_wmem","Tue Nov 09 2021 13:23:40 GMT-0500 (Eastern Standard Time)","604756","Match,No Match","","null","","","","","","<div class='trialBorder'><div class='vertical-center'><img style='vertical-align:center; align:center' src='img/fixation2_sml.jpg'></div><div class='arrayDiv3'><div class='tl'><img class='introPic' src='trustrating_stim/white_mw038.bmp'><br><font color='red'><strong>Keep</strong></font></div><div class='tc'><img class='introPic' src='trustrating_stim/white_mw015.bmp'><br><font color='green'><strong>Share</strong></font></div><div class='tr'><img class='introPic' src='trustrating_stim/white_mw013.bmp'><br><font color='green'><strong>Share</strong></font></div></div></div>","null","ARRAY","3","trustrating_stim/white_mw038.bmp,trustrating_stim/white_mw015.bmp,trustrating_stim/white_mw013.bmp","0,1,1","noMatchOutcome","i","4500","","","","",""
"html-keyboard-response","11","113941","0.0-5.0-3.1","dstanley","bdp_wmem","Tue Nov 09 2021 13:23:40 GMT-0500 (Eastern Standard Time)","604756","Match,No Match","","null","","","","","","<div class='trialBorder'><div class='vertical-center'><img src='img/fixation2_sml.jpg'</img></div></div>","null","DELAY","","","","","","","","","","",""
"html-keyboard-response","12","115079","0.0-5.0-4.1","dstanley","bdp_wmem","Tue Nov 09 2021 13:23:40 GMT-0500 (Eastern Standard Time)","604756","Match,No Match","","1137","","","","","","<div class='trialBorder'><div class='targDiv'><div class='tc'><img class='introPic' src='trustrating_stim/white_mw038.bmp'><br><font color='green'><strong>Share</strong></font></div></div><div class='respDiv'><div class='respDivL'>Match<br>(e)</div><div class='respDivR'>No Match<br>(i)</div></div></div>","i","TARGET","3","trustrating_stim/white_mw038.bmp,trustrating_stim/white_mw015.bmp,trustrating_stim/white_mw013.bmp","0,1,1","noMatchOutcome","i","4500","trustrating_stim/white_mw038.bmp","green","Share","PRACTICE","1"
"html-keyboard-response","13","115583","0.0-5.0-5.1","dstanley","bdp_wmem","Tue Nov 09 2021 13:23:40 GMT-0500 (Eastern Standard Time)","604756","Match,No Match","","null","","","","","","<div class='trialBorder'><div class='vertical-center'><img src='img/correct.jpg'></div><div class='respDiv'><div class='respDivL'>Match<br>(e)</div><div class='respDivR'><font style='color:orange'>No Match<br>(i)</font></div></div></div>","null","FEEDBACK","","","","","","","","","","",""
"html-keyboard-response","14","116088","0.0-5.0-1.2","dstanley","bdp_wmem","Tue Nov 09 2021 13:23:40 GMT-0500 (Eastern Standard Time)","604756","Match,No Match","","null","","","","","","<div class='trialBorder'><div class='vertical-center'><img src='img/fixation2_sml.jpg'</img></div></div>","null","FIX","","","","","","","","","","",""
"html-keyboard-response","15","117594","0.0-5.0-2.2","dstanley","bdp_wmem","Tue Nov 09 2021 13:23:40 GMT-0500 (Eastern Standard Time)","604756","Match,No Match","","null","","","","","","<div class='trialBorder'><div class='vertical-center'><img style='vertical-align:center; align:center' src='img/fixation2_sml.jpg'></div><div class='arrayDiv1'><div class='tc'><img class='introPic' src='trustrating_stim/white_mw070.bmp'><br><font color='green'><strong>Share</strong></font></div></div></div>","null","ARRAY","1","trustrating_stim/white_mw070.bmp","1","noMatchFace","i","1500","","","","",""
"html-keyboard-response","16","121597","0.0-5.0-3.2","dstanley","bdp_wmem","Tue Nov 09 2021 13:23:40 GMT-0500 (Eastern Standard Time)","604756","Match,No Match","","null","","","","","","<div class='trialBorder'><div class='vertical-center'><img src='img/fixation2_sml.jpg'</img></div></div>","null","DELAY","","","","","","","","","","",""
"html-keyboard-response","17","123038","0.0-5.0-4.2","dstanley","bdp_wmem","Tue Nov 09 2021 13:23:40 GMT-0500 (Eastern Standard Time)","604756","Match,No Match","","1439","","","","","","<div class='trialBorder'><div class='targDiv'><div class='tc'><img class='introPic' src='trustrating_stim/white_mw038.bmp'><br><font color='green'><strong>Share</strong></font></div></div><div class='respDiv'><div class='respDivL'>Match<br>(e)</div><div class='respDivR'>No Match<br>(i)</div></div></div>","i","TARGET","1","trustrating_stim/white_mw070.bmp","1","noMatchFace","i","1500","trustrating_stim/white_mw038.bmp","green","Share","PRACTICE","1"
"html-keyboard-response","18","123542","0.0-5.0-5.2","dstanley","bdp_wmem","Tue Nov 09 2021 13:23:40 GMT-0500 (Eastern Standard Time)","604756","Match,No Match","","null","","","","","","<div class='trialBorder'><div class='vertical-center'><img src='img/correct.jpg'></div><div class='respDiv'><div class='respDivL'>Match<br>(e)</div><div class='respDivR'><font style='color:orange'>No Match<br>(i)</font></div></div></div>","null","FEEDBACK","","","","","","","","","","",""
"html-keyboard-response","19","124046","0.0-5.0-1.3","dstanley","bdp_wmem","Tue Nov 09 2021 13:23:40 GMT-0500 (Eastern Standard Time)","604756","Match,No Match","","null","","","","","","<div class='trialBorder'><div class='vertical-center'><img src='img/fixation2_sml.jpg'</img></div></div>","null","FIX","","","","","","","","","","",""
"html-keyboard-response","20","125553","0.0-5.0-2.3","dstanley","bdp_wmem","Tue Nov 09 2021 13:23:40 GMT-0500 (Eastern Standard Time)","604756","Match,No Match","","null","","","","","","<div class='trialBorder'><div class='vertical-center'><img style='vertical-align:center; align:center' src='img/fixation2_sml.jpg'></div><div class='arrayDiv1'><div class='tc'><img class='introPic' src='trustrating_stim/white_mw012.bmp'><br><font color='green'><strong>Share</strong></font></div></div></div>","null","ARRAY","1","trustrating_stim/white_mw012.bmp","1","Match","e","1500","","","","",""
"html-keyboard-response","21","129555","0.0-5.0-3.3","dstanley","bdp_wmem","Tue Nov 09 2021 13:23:40 GMT-0500 (Eastern Standard Time)","604756","Match,No Match","","null","","","","","","<div class='trialBorder'><div class='vertical-center'><img src='img/fixation2_sml.jpg'</img></div></div>","null","DELAY","","","","","","","","","","",""
"html-keyboard-response","22","130741","0.0-5.0-4.3","dstanley","bdp_wmem","Tue Nov 09 2021 13:23:40 GMT-0500 (Eastern Standard Time)","604756","Match,No Match","","1184","","","","","","<div class='trialBorder'><div class='targDiv'><div class='tc'><img class='introPic' src='trustrating_stim/white_mw012.bmp'><br><font color='green'><strong>Share</strong></font></div></div><div class='respDiv'><div class='respDivL'>Match<br>(e)</div><div class='respDivR'>No Match<br>(i)</div></div></div>","e","TARGET","1","trustrating_stim/white_mw012.bmp","1","Match","e","1500","trustrating_stim/white_mw012.bmp","green","Share","PRACTICE","1"
"html-keyboard-response","23","131245","0.0-5.0-5.3","dstanley","bdp_wmem","Tue Nov 09 2021 13:23:40 GMT-0500 (Eastern Standard Time)","604756","Match,No Match","","null","","","","","","<div class='trialBorder'><div class='vertical-center'><img src='img/correct.jpg'></div><div class='respDiv'><div class='respDivL'><font style='color:orange'>Match<br>(e)</font></div><div class='respDivR'>No Match<br>(i)</div></div></div>","null","FEEDBACK","","","","","","","","","","",""
"html-keyboard-response","24","131750","0.0-5.0-1.4","dstanley","bdp_wmem","Tue Nov 09 2021 13:23:40 GMT-0500 (Eastern Standard Time)","604756","Match,No Match","","null","","","","","","<div class='trialBorder'><div class='vertical-center'><img src='img/fixation2_sml.jpg'</img></div></div>","null","FIX","","","","","","","","","","",""
"html-keyboard-response","25","136254","0.0-5.0-2.4","dstanley","bdp_wmem","Tue Nov 09 2021 13:23:40 GMT-0500 (Eastern Standard Time)","604756","Match,No Match","","null","","","","","","<div class='trialBorder'><div class='vertical-center'><img style='vertical-align:center; align:center' src='img/fixation2_sml.jpg'></div><div class='arrayDiv3'><div class='tl'><img class='introPic' src='trustrating_stim/white_mw091.bmp'><br><font color='red'><strong>Keep</strong></font></div><div class='tc'><img class='introPic' src='trustrating_stim/white_00807_941205_fb_edt.bmp'><br><font color='green'><strong>Share</strong></font></div><div class='tr'><img class='introPic' src='trustrating_stim/white_mw033.bmp'><br><font color='red'><strong>Keep</strong></font></div></div></div>","null","ARRAY","3","trustrating_stim/white_mw091.bmp,trustrating_stim/white_00807_941205_fb_edt.bmp,trustrating_stim/white_mw033.bmp","0,1,0","Match","e","4500","","","","",""
"html-keyboard-response","26","140259","0.0-5.0-3.4","dstanley","bdp_wmem","Tue Nov 09 2021 13:23:40 GMT-0500 (Eastern Standard Time)","604756","Match,No Match","","null","","","","","","<div class='trialBorder'><div class='vertical-center'><img src='img/fixation2_sml.jpg'</img></div></div>","null","DELAY","","","","","","","","","","",""
"html-keyboard-response","27","141761","0.0-5.0-4.4","dstanley","bdp_wmem","Tue Nov 09 2021 13:23:40 GMT-0500 (Eastern Standard Time)","604756","Match,No Match","","1499","","","","","","<div class='trialBorder'><div class='targDiv'><div class='tc'><img class='introPic' src='trustrating_stim/white_mw033.bmp'><br><font color='red'><strong>Keep</strong></font></div></div><div class='respDiv'><div class='respDivL'>Match<br>(e)</div><div class='respDivR'>No Match<br>(i)</div></div></div>","e","TARGET","3","trustrating_stim/white_mw091.bmp,trustrating_stim/white_00807_941205_fb_edt.bmp,trustrating_stim/white_mw033.bmp","0,1,0","Match","e","4500","trustrating_stim/white_mw033.bmp","red","Keep","PRACTICE","1"
"html-keyboard-response","28","142265","0.0-5.0-5.4","dstanley","bdp_wmem","Tue Nov 09 2021 13:23:40 GMT-0500 (Eastern Standard Time)","604756","Match,No Match","","null","","","","","","<div class='trialBorder'><div class='vertical-center'><img src='img/correct.jpg'></div><div class='respDiv'><div class='respDivL'><font style='color:orange'>Match<br>(e)</font></div><div class='respDivR'>No Match<br>(i)</div></div></div>","null","FEEDBACK","","","","","","","","","","",""
"html-keyboard-response","29","142770","0.0-5.0-1.5","dstanley","bdp_wmem","Tue Nov 09 2021 13:23:40 GMT-0500 (Eastern Standard Time)","604756","Match,No Match","","null","","","","","","<div class='trialBorder'><div class='vertical-center'><img src='img/fixation2_sml.jpg'</img></div></div>","null","FIX","","","","","","","","","","",""
"html-keyboard-response","30","145774","0.0-5.0-2.5","dstanley","bdp_wmem","Tue Nov 09 2021 13:23:40 GMT-0500 (Eastern Standard Time)","604756","Match,No Match","","null","","","","","","<div class='trialBorder'><div class='vertical-center'><img style='vertical-align:center; align:center' src='img/fixation2_sml.jpg'></div><div class='arrayDiv2'><div class='tl'><img class='introPic' src='trustrating_stim/white_mw012.bmp'><br><font color='green'><strong>Share</strong></font></div><div class='tr'><img class='introPic' src='trustrating_stim/white_mw038.bmp'><br><font color='red'><strong>Keep</strong></font></div></div></div>","null","ARRAY","2","trustrating_stim/white_mw012.bmp,trustrating_stim/white_mw038.bmp","1,0","Match","e","3000","","","","",""
"html-keyboard-response","31","149779","0.0-5.0-3.5","dstanley","bdp_wmem","Tue Nov 09 2021 13:23:40 GMT-0500 (Eastern Standard Time)","604756","Match,No Match","","null","","","","","","<div class='trialBorder'><div class='vertical-center'><img src='img/fixation2_sml.jpg'</img></div></div>","null","DELAY","","","","","","","","","","",""
"html-keyboard-response","32","151092","0.0-5.0-4.5","dstanley","bdp_wmem","Tue Nov 09 2021 13:23:40 GMT-0500 (Eastern Standard Time)","604756","Match,No Match","","1312","","","","","","<div class='trialBorder'><div class='targDiv'><div class='tc'><img class='introPic' src='trustrating_stim/white_mw038.bmp'><br><font color='red'><strong>Keep</strong></font></div></div><div class='respDiv'><div class='respDivL'>Match<br>(e)</div><div class='respDivR'>No Match<br>(i)</div></div></div>","e","TARGET","2","trustrating_stim/white_mw012.bmp,trustrating_stim/white_mw038.bmp","1,0","Match","e","3000","trustrating_stim/white_mw038.bmp","red","Keep","PRACTICE","1"
"html-keyboard-response","33","151596","0.0-5.0-5.5","dstanley","bdp_wmem","Tue Nov 09 2021 13:23:40 GMT-0500 (Eastern Standard Time)","604756","Match,No Match","","null","","","","","","<div class='trialBorder'><div class='vertical-center'><img src='img/correct.jpg'></div><div class='respDiv'><div class='respDivL'><font style='color:orange'>Match<br>(e)</font></div><div class='respDivR'>No Match<br>(i)</div></div></div>","null","FEEDBACK","","","","","","","","","","",""
"instructions","34","159582","0.0-6.0","dstanley","bdp_wmem","Tue Nov 09 2021 13:23:40 GMT-0500 (Eastern Standard Time)","604756","Match,No Match","[{""page_index"":0,""viewing_time"":7985}]","7985","","","","","","","","","","","","","","","","","","",""
"html-keyboard-response","35","160083","0.0-7.0-1.0","dstanley","bdp_wmem","Tue Nov 09 2021 13:23:40 GMT-0500 (Eastern Standard Time)","604756","Match,No Match","","null","","","","","","<div class='trialBorder'><div class='vertical-center'><img src='img/fixation2_sml.jpg'</img></div></div>","null","FIX","","","","","","","","","","",""
"html-keyboard-response","36","163089","0.0-7.0-2.0","dstanley","bdp_wmem","Tue Nov 09 2021 13:23:40 GMT-0500 (Eastern Standard Time)","604756","Match,No Match","","null","","","","","","<div class='trialBorder'><div class='vertical-center'><img style='vertical-align:center; align:center' src='img/fixation2_sml.jpg'></div><div class='arrayDiv2'><div class='tl'><img class='introPic' src='trustrating_stim/white_00050_931230_fa_edt.bmp'><br><font color='red'><strong>Keep</strong></font></div><div class='tr'><img class='introPic' src='trustrating_stim/white_mw040.bmp'><br><font color='green'><strong>Share</strong></font></div></div></div>","null","ARRAY","2","trustrating_stim/white_00050_931230_fa_edt.bmp,trustrating_stim/white_mw040.bmp","0,1","Match","e","3000","","","","",""
"html-keyboard-response","37","167095","0.0-7.0-3.0","dstanley","bdp_wmem","Tue Nov 09 2021 13:23:40 GMT-0500 (Eastern Standard Time)","604756","Match,No Match","","null","","","","","","<div class='trialBorder'><div class='vertical-center'><img src='img/fixation2_sml.jpg'</img></div></div>","null","DELAY","","","","","","","","","","",""
"html-keyboard-response","38","168100","0.0-7.0-4.0","dstanley","bdp_wmem","Tue Nov 09 2021 13:23:40 GMT-0500 (Eastern Standard Time)","604756","Match,No Match","","1004","","","","","","<div class='trialBorder'><div class='targDiv'><div class='tc'><img class='introPic' src='trustrating_stim/white_mw040.bmp'><br><font color='green'><strong>Share</strong></font></div></div><div class='respDiv'><div class='respDivL'>Match<br>(e)</div><div class='respDivR'>No Match<br>(i)</div></div></div>","e","TARGET","2","trustrating_stim/white_00050_931230_fa_edt.bmp,trustrating_stim/white_mw040.bmp","0,1","Match","e","3000","trustrating_stim/white_mw040.bmp","green","Share","REAL","1"
"html-keyboard-response","39","168604","0.0-7.0-5.0","dstanley","bdp_wmem","Tue Nov 09 2021 13:23:40 GMT-0500 (Eastern Standard Time)","604756","Match,No Match","","null","","","","","","<div class='trialBorder'><div class='vertical-center'><img src='img/correct.jpg'></div><div class='respDiv'><div class='respDivL'><font style='color:orange'>Match<br>(e)</font></div><div class='respDivR'>No Match<br>(i)</div></div></div>","null","FEEDBACK","","","","","","","","","","",""
"html-keyboard-response","40","169105","0.0-7.0-1.1","dstanley","bdp_wmem","Tue Nov 09 2021 13:23:40 GMT-0500 (Eastern Standard Time)","604756","Match,No Match","","null","","","","","","<div class='trialBorder'><div class='vertical-center'><img src='img/fixation2_sml.jpg'</img></div></div>","null","FIX","","","","","","","","","","",""
"html-keyboard-response","41","170610","0.0-7.0-2.1","dstanley","bdp_wmem","Tue Nov 09 2021 13:23:40 GMT-0500 (Eastern Standard Time)","604756","Match,No Match","","null","","","","","","<div class='trialBorder'><div class='vertical-center'><img style='vertical-align:center; align:center' src='img/fixation2_sml.jpg'></div><div class='arrayDiv1'><div class='tc'><img class='introPic' src='trustrating_stim/white_mw070.bmp'><br><font color='green'><strong>Share</strong></font></div></div></div>","null","ARRAY","1","trustrating_stim/white_mw070.bmp","1","Match","e","1500","","","","",""
"html-keyboard-response","42","174616","0.0-7.0-3.1","dstanley","bdp_wmem","Tue Nov 09 2021 13:23:40 GMT-0500 (Eastern Standard Time)","604756","Match,No Match","","null","","","","","","<div class='trialBorder'><div class='vertical-center'><img src='img/fixation2_sml.jpg'</img></div></div>","null","DELAY","","","","","","","","","","",""
"html-keyboard-response","43","175801","0.0-7.0-4.1","dstanley","bdp_wmem","Tue Nov 09 2021 13:23:40 GMT-0500 (Eastern Standard Time)","604756","Match,No Match","","1183","","","","","","<div class='trialBorder'><div class='targDiv'><div class='tc'><img class='introPic' src='trustrating_stim/white_mw070.bmp'><br><font color='green'><strong>Share</strong></font></div></div><div class='respDiv'><div class='respDivL'>Match<br>(e)</div><div class='respDivR'>No Match<br>(i)</div></div></div>","e","TARGET","1","trustrating_stim/white_mw070.bmp","1","Match","e","1500","trustrating_stim/white_mw070.bmp","green","Share","REAL","1"
"html-keyboard-response","44","176304","0.0-7.0-5.1","dstanley","bdp_wmem","Tue Nov 09 2021 13:23:40 GMT-0500 (Eastern Standard Time)","604756","Match,No Match","","null","","","","","","<div class='trialBorder'><div class='vertical-center'><img src='img/correct.jpg'></div><div class='respDiv'><div class='respDivL'><font style='color:orange'>Match<br>(e)</font></div><div class='respDivR'>No Match<br>(i)</div></div></div>","null","FEEDBACK","","","","","","","","","","",""
"html-keyboard-response","45","176807","0.0-7.0-1.2","dstanley","bdp_wmem","Tue Nov 09 2021 13:23:40 GMT-0500 (Eastern Standard Time)","604756","Match,No Match","","null","","","","","","<div class='trialBorder'><div class='vertical-center'><img src='img/fixation2_sml.jpg'</img></div></div>","null","FIX","","","","","","","","","","",""
"html-keyboard-response","46","181311","0.0-7.0-2.2","dstanley","bdp_wmem","Tue Nov 09 2021 13:23:40 GMT-0500 (Eastern Standard Time)","604756","Match,No Match","","null","","","","","","<div class='trialBorder'><div class='vertical-center'><img style='vertical-align:center; align:center' src='img/fixation2_sml.jpg'></div><div class='arrayDiv3'><div class='tl'><img class='introPic' src='trustrating_stim/white_mw092.bmp'><br><font color='red'><strong>Keep</strong></font></div><div class='tc'><img class='introPic' src='trustrating_stim/white_mw003.bmp'><br><font color='green'><strong>Share</strong></font></div><div class='tr'><img class='introPic' src='trustrating_stim/white_00050_931230_fa_edt.bmp'><br><font color='red'><strong>Keep</strong></font></div></div></div>","null","ARRAY","3","trustrating_stim/white_mw092.bmp,trustrating_stim/white_mw003.bmp,trustrating_stim/white_00050_931230_fa_edt.bmp","0,1,0","Match","e","4500","","","","",""
"html-keyboard-response","47","185317","0.0-7.0-3.2","dstanley","bdp_wmem","Tue Nov 09 2021 13:23:40 GMT-0500 (Eastern Standard Time)","604756","Match,No Match","","null","","","","","","<div class='trialBorder'><div class='vertical-center'><img src='img/fixation2_sml.jpg'</img></div></div>","null","DELAY","","","","","","","","","","",""
"html-keyboard-response","48","187013","0.0-7.0-4.2","dstanley","bdp_wmem","Tue Nov 09 2021 13:23:40 GMT-0500 (Eastern Standard Time)","604756","Match,No Match","","1695","","","","","","<div class='trialBorder'><div class='targDiv'><div class='tc'><img class='introPic' src='trustrating_stim/white_00050_931230_fa_edt.bmp'><br><font color='red'><strong>Keep</strong></font></div></div><div class='respDiv'><div class='respDivL'>Match<br>(e)</div><div class='respDivR'>No Match<br>(i)</div></div></div>","e","TARGET","3","trustrating_stim/white_mw092.bmp,trustrating_stim/white_mw003.bmp,trustrating_stim/white_00050_931230_fa_edt.bmp","0,1,0","Match","e","4500","trustrating_stim/white_00050_931230_fa_edt.bmp","red","Keep","REAL","1"
"html-keyboard-response","49","187517","0.0-7.0-5.2","dstanley","bdp_wmem","Tue Nov 09 2021 13:23:40 GMT-0500 (Eastern Standard Time)","604756","Match,No Match","","null","","","","","","<div class='trialBorder'><div class='vertical-center'><img src='img/correct.jpg'></div><div class='respDiv'><div class='respDivL'><font style='color:orange'>Match<br>(e)</font></div><div class='respDivR'>No Match<br>(i)</div></div></div>","null","FEEDBACK","","","","","","","","","","",""
"html-keyboard-response","50","188022","0.0-7.0-1.3","dstanley","bdp_wmem","Tue Nov 09 2021 13:23:40 GMT-0500 (Eastern Standard Time)","604756","Match,No Match","","null","","","","","","<div class='trialBorder'><div class='vertical-center'><img src='img/fixation2_sml.jpg'</img></div></div>","null","FIX","","","","","","","","","","",""
"html-keyboard-response","51","192526","0.0-7.0-2.3","dstanley","bdp_wmem","Tue Nov 09 2021 13:23:40 GMT-0500 (Eastern Standard Time)","604756","Match,No Match","","null","","","","","","<div class='trialBorder'><div class='vertical-center'><img style='vertical-align:center; align:center' src='img/fixation2_sml.jpg'></div><div class='arrayDiv3'><div class='tl'><img class='introPic' src='trustrating_stim/white_mw091.bmp'><br><font color='red'><strong>Keep</strong></font></div><div class='tc'><img class='introPic' src='trustrating_stim/white_mw038.bmp'><br><font color='green'><strong>Share</strong></font></div><div class='tr'><img class='introPic' src='trustrating_stim/white_mw070.bmp'><br><font color='red'><strong>Keep</strong></font></div></div></div>","null","ARRAY","3","trustrating_stim/white_mw091.bmp,trustrating_stim/white_mw038.bmp,trustrating_stim/white_mw070.bmp","0,1,0","noMatchFace","i","4500","","","","",""
"html-keyboard-response","52","196532","0.0-7.0-3.3","dstanley","bdp_wmem","Tue Nov 09 2021 13:23:40 GMT-0500 (Eastern Standard Time)","604756","Match,No Match","","null","","","","","","<div class='trialBorder'><div class='vertical-center'><img src='img/fixation2_sml.jpg'</img></div></div>","null","DELAY","","","","","","","","","","",""
"html-keyboard-response","53","198472","0.0-7.0-4.3","dstanley","bdp_wmem","Tue Nov 09 2021 13:23:40 GMT-0500 (Eastern Standard Time)","604756","Match,No Match","","1939","","","","","","<div class='trialBorder'><div class='targDiv'><div class='tc'><img class='introPic' src='trustrating_stim/white_mw003.bmp'><br><font color='red'><strong>Keep</strong></font></div></div><div class='respDiv'><div class='respDivL'>Match<br>(e)</div><div class='respDivR'>No Match<br>(i)</div></div></div>","e","TARGET","3","trustrating_stim/white_mw091.bmp,trustrating_stim/white_mw038.bmp,trustrating_stim/white_mw070.bmp","0,1,0","noMatchFace","i","4500","trustrating_stim/white_mw003.bmp","red","Keep","REAL","0"
"html-keyboard-response","54","198975","0.0-7.0-5.3","dstanley","bdp_wmem","Tue Nov 09 2021 13:23:40 GMT-0500 (Eastern Standard Time)","604756","Match,No Match","","null","","","","","","<div class='trialBorder'><div class='vertical-center'><img src='img/error.jpg'></div><div class='respDiv'><div class='respDivL'><font style='color:orange'>Match<br>(e)</font></div><div class='respDivR'>No Match<br>(i)</div></div></div>","null","FEEDBACK","","","","","","","","","","",""
"html-keyboard-response","55","199480","0.0-7.0-1.4","dstanley","bdp_wmem","Tue Nov 09 2021 13:23:40 GMT-0500 (Eastern Standard Time)","604756","Match,No Match","","null","","","","","","<div class='trialBorder'><div class='vertical-center'><img src='img/fixation2_sml.jpg'</img></div></div>","null","FIX","","","","","","","","","","",""
"html-keyboard-response","56","200984","0.0-7.0-2.4","dstanley","bdp_wmem","Tue Nov 09 2021 13:23:40 GMT-0500 (Eastern Standard Time)","604756","Match,No Match","","null","","","","","","<div class='trialBorder'><div class='vertical-center'><img style='vertical-align:center; align:center' src='img/fixation2_sml.jpg'></div><div class='arrayDiv1'><div class='tc'><img class='introPic' src='trustrating_stim/white_mw012.bmp'><br><font color='red'><strong>Keep</strong></font></div></div></div>","null","ARRAY","1","trustrating_stim/white_mw012.bmp","0","Match","e","1500","","","","",""
"html-keyboard-response","57","204988","0.0-7.0-3.4","dstanley","bdp_wmem","Tue Nov 09 2021 13:23:40 GMT-0500 (Eastern Standard Time)","604756","Match,No Match","","null","","","","","","<div class='trialBorder'><div class='vertical-center'><img src='img/fixation2_sml.jpg'</img></div></div>","null","DELAY","","","","","","","","","","",""
"html-keyboard-response","58","205979","0.0-7.0-4.4","dstanley","bdp_wmem","Tue Nov 09 2021 13:23:40 GMT-0500 (Eastern Standard Time)","604756","Match,No Match","","988","","","","","","<div class='trialBorder'><div class='targDiv'><div class='tc'><img class='introPic' src='trustrating_stim/white_mw012.bmp'><br><font color='red'><strong>Keep</strong></font></div></div><div class='respDiv'><div class='respDivL'>Match<br>(e)</div><div class='respDivR'>No Match<br>(i)</div></div></div>","e","TARGET","1","trustrating_stim/white_mw012.bmp","0","Match","e","1500","trustrating_stim/white_mw012.bmp","red","Keep","REAL","1"
"html-keyboard-response","59","206481","0.0-7.0-5.4","dstanley","bdp_wmem","Tue Nov 09 2021 13:23:40 GMT-0500 (Eastern Standard Time)","604756","Match,No Match","","null","","","","","","<div class='trialBorder'><div class='vertical-center'><img src='img/correct.jpg'></div><div class='respDiv'><div class='respDivL'><font style='color:orange'>Match<br>(e)</font></div><div class='respDivR'>No Match<br>(i)</div></div></div>","null","FEEDBACK","","","","","","","","","","",""
"html-keyboard-response","60","206986","0.0-7.0-1.5","dstanley","bdp_wmem","Tue Nov 09 2021 13:23:40 GMT-0500 (Eastern Standard Time)","604756","Match,No Match","","null","","","","","","<div class='trialBorder'><div class='vertical-center'><img src='img/fixation2_sml.jpg'</img></div></div>","null","FIX","","","","","","","","","","",""
"html-keyboard-response","61","209987","0.0-7.0-2.5","dstanley","bdp_wmem","Tue Nov 09 2021 13:23:40 GMT-0500 (Eastern Standard Time)","604756","Match,No Match","","null","","","","","","<div class='trialBorder'><div class='vertical-center'><img style='vertical-align:center; align:center' src='img/fixation2_sml.jpg'></div><div class='arrayDiv2'><div class='tl'><img class='introPic' src='trustrating_stim/white_00050_931230_fa_edt.bmp'><br><font color='green'><strong>Share</strong></font></div><div class='tr'><img class='introPic' src='trustrating_stim/white_mw013.bmp'><br><font color='red'><strong>Keep</strong></font></div></div></div>","null","ARRAY","2","trustrating_stim/white_00050_931230_fa_edt.bmp,trustrating_stim/white_mw013.bmp","1,0","Match","e","3000","","","","",""
"html-keyboard-response","62","213992","0.0-7.0-3.5","dstanley","bdp_wmem","Tue Nov 09 2021 13:23:40 GMT-0500 (Eastern Standard Time)","604756","Match,No Match","","null","","","","","","<div class='trialBorder'><div class='vertical-center'><img src='img/fixation2_sml.jpg'</img></div></div>","null","DELAY","","","","","","","","","","",""
"html-keyboard-response","63","215703","0.0-7.0-4.5","dstanley","bdp_wmem","Tue Nov 09 2021 13:23:40 GMT-0500 (Eastern Standard Time)","604756","Match,No Match","","1710","","","","","","<div class='trialBorder'><div class='targDiv'><div class='tc'><img class='introPic' src='trustrating_stim/white_mw013.bmp'><br><font color='red'><strong>Keep</strong></font></div></div><div class='respDiv'><div class='respDivL'>Match<br>(e)</div><div class='respDivR'>No Match<br>(i)</div></div></div>","e","TARGET","2","trustrating_stim/white_00050_931230_fa_edt.bmp,trustrating_stim/white_mw013.bmp","1,0","Match","e","3000","trustrating_stim/white_mw013.bmp","red","Keep","REAL","1"
"html-keyboard-response","64","216206","0.0-7.0-5.5","dstanley","bdp_wmem","Tue Nov 09 2021 13:23:40 GMT-0500 (Eastern Standard Time)","604756","Match,No Match","","null","","","","","","<div class='trialBorder'><div class='vertical-center'><img src='img/correct.jpg'></div><div class='respDiv'><div class='respDivL'><font style='color:orange'>Match<br>(e)</font></div><div class='respDivR'>No Match<br>(i)</div></div></div>","null","FEEDBACK","","","","","","","","","","",""
"html-keyboard-response","65","216709","0.0-7.0-1.6","dstanley","bdp_wmem","Tue Nov 09 2021 13:23:40 GMT-0500 (Eastern Standard Time)","604756","Match,No Match","","null","","","","","","<div class='trialBorder'><div class='vertical-center'><img src='img/fixation2_sml.jpg'</img></div></div>","null","FIX","","","","","","","","","","",""
"html-keyboard-response","66","218212","0.0-7.0-2.6","dstanley","bdp_wmem","Tue Nov 09 2021 13:23:40 GMT-0500 (Eastern Standard Time)","604756","Match,No Match","","null","","","","","","<div class='trialBorder'><div class='vertical-center'><img style='vertical-align:center; align:center' src='img/fixation2_sml.jpg'></div><div class='arrayDiv1'><div class='tc'><img class='introPic' src='trustrating_stim/white_mw040.bmp'><br><font color='green'><strong>Share</strong></font></div></div></div>","null","ARRAY","1","trustrating_stim/white_mw040.bmp","1","Match","e","1500","","","","",""
"html-keyboard-response","67","222218","0.0-7.0-3.6","dstanley","bdp_wmem","Tue Nov 09 2021 13:23:40 GMT-0500 (Eastern Standard Time)","604756","Match,No Match","","null","","","","","","<div class='trialBorder'><div class='vertical-center'><img src='img/fixation2_sml.jpg'</img></div></div>","null","DELAY","","","","","","","","","","",""
"html-keyboard-response","68","223435","0.0-7.0-4.6","dstanley","bdp_wmem","Tue Nov 09 2021 13:23:40 GMT-0500 (Eastern Standard Time)","604756","Match,No Match","","1215","","","","","","<div class='trialBorder'><div class='targDiv'><div class='tc'><img class='introPic' src='trustrating_stim/white_mw040.bmp'><br><font color='green'><strong>Share</strong></font></div></div><div class='respDiv'><div class='respDivL'>Match<br>(e)</div><div class='respDivR'>No Match<br>(i)</div></div></div>","e","TARGET","1","trustrating_stim/white_mw040.bmp","1","Match","e","1500","trustrating_stim/white_mw040.bmp","green","Share","REAL","1"
"html-keyboard-response","69","223937","0.0-7.0-5.6","dstanley","bdp_wmem","Tue Nov 09 2021 13:23:40 GMT-0500 (Eastern Standard Time)","604756","Match,No Match","","null","","","","","","<div class='trialBorder'><div class='vertical-center'><img src='img/correct.jpg'></div><div class='respDiv'><div class='respDivL'><font style='color:orange'>Match<br>(e)</font></div><div class='respDivR'>No Match<br>(i)</div></div></div>","null","FEEDBACK","","","","","","","","","","",""
"html-keyboard-response","70","224441","0.0-7.0-1.7","dstanley","bdp_wmem","Tue Nov 09 2021 13:23:40 GMT-0500 (Eastern Standard Time)","604756","Match,No Match","","null","","","","","","<div class='trialBorder'><div class='vertical-center'><img src='img/fixation2_sml.jpg'</img></div></div>","null","FIX","","","","","","","","","","",""
"html-keyboard-response","71","227448","0.0-7.0-2.7","dstanley","bdp_wmem","Tue Nov 09 2021 13:23:40 GMT-0500 (Eastern Standard Time)","604756","Match,No Match","","null","","","","","","<div class='trialBorder'><div class='vertical-center'><img style='vertical-align:center; align:center' src='img/fixation2_sml.jpg'></div><div class='arrayDiv2'><div class='tl'><img class='introPic' src='trustrating_stim/white_mw003.bmp'><br><font color='green'><strong>Share</strong></font></div><div class='tr'><img class='introPic' src='trustrating_stim/white_mw013.bmp'><br><font color='red'><strong>Keep</strong></font></div></div></div>","null","ARRAY","2","trustrating_stim/white_mw003.bmp,trustrating_stim/white_mw013.bmp","1,0","Match","e","3000","","","","",""
"html-keyboard-response","72","231453","0.0-7.0-3.7","dstanley","bdp_wmem","Tue Nov 09 2021 13:23:40 GMT-0500 (Eastern Standard Time)","604756","Match,No Match","","null","","","","","","<div class='trialBorder'><div class='vertical-center'><img src='img/fixation2_sml.jpg'</img></div></div>","null","DELAY","","","","","","","","","","",""
"html-keyboard-response","73","233262","0.0-7.0-4.7","dstanley","bdp_wmem","Tue Nov 09 2021 13:23:40 GMT-0500 (Eastern Standard Time)","604756","Match,No Match","","1808","","","","","","<div class='trialBorder'><div class='targDiv'><div class='tc'><img class='introPic' src='trustrating_stim/white_mw013.bmp'><br><font color='red'><strong>Keep</strong></font></div></div><div class='respDiv'><div class='respDivL'>Match<br>(e)</div><div class='respDivR'>No Match<br>(i)</div></div></div>","e","TARGET","2","trustrating_stim/white_mw003.bmp,trustrating_stim/white_mw013.bmp","1,0","Match","e","3000","trustrating_stim/white_mw013.bmp","red","Keep","REAL","1"
"html-keyboard-response","74","233763","0.0-7.0-5.7","dstanley","bdp_wmem","Tue Nov 09 2021 13:23:40 GMT-0500 (Eastern Standard Time)","604756","Match,No Match","","null","","","","","","<div class='trialBorder'><div class='vertical-center'><img src='img/correct.jpg'></div><div class='respDiv'><div class='respDivL'><font style='color:orange'>Match<br>(e)</font></div><div class='respDivR'>No Match<br>(i)</div></div></div>","null","FEEDBACK","","","","","","","","","","",""
"html-keyboard-response","75","234268","0.0-7.0-1.8","dstanley","bdp_wmem","Tue Nov 09 2021 13:23:40 GMT-0500 (Eastern Standard Time)","604756","Match,No Match","","null","","","","","","<div class='trialBorder'><div class='vertical-center'><img src='img/fixation2_sml.jpg'</img></div></div>","null","FIX","","","","","","","","","","",""
"html-keyboard-response","76","237273","0.0-7.0-2.8","dstanley","bdp_wmem","Tue Nov 09 2021 13:23:40 GMT-0500 (Eastern Standard Time)","604756","Match,No Match","","null","","","","","","<div class='trialBorder'><div class='vertical-center'><img style='vertical-align:center; align:center' src='img/fixation2_sml.jpg'></div><div class='arrayDiv2'><div class='tl'><img class='introPic' src='trustrating_stim/white_mw040.bmp'><br><font color='green'><strong>Share</strong></font></div><div class='tr'><img class='introPic' src='trustrating_stim/white_mw003.bmp'><br><font color='red'><strong>Keep</strong></font></div></div></div>","null","ARRAY","2","trustrating_stim/white_mw040.bmp,trustrating_stim/white_mw003.bmp","1,0","noMatchFace","i","3000","","","","",""
"html-keyboard-response","77","241275","0.0-7.0-3.8","dstanley","bdp_wmem","Tue Nov 09 2021 13:23:40 GMT-0500 (Eastern Standard Time)","604756","Match,No Match","","null","","","","","","<div class='trialBorder'><div class='vertical-center'><img src='img/fixation2_sml.jpg'</img></div></div>","null","DELAY","","","","","","","","","","",""
"html-keyboard-response","78","242506","0.0-7.0-4.8","dstanley","bdp_wmem","Tue Nov 09 2021 13:23:40 GMT-0500 (Eastern Standard Time)","604756","Match,No Match","","1230","","","","","","<div class='trialBorder'><div class='targDiv'><div class='tc'><img class='introPic' src='trustrating_stim/white_00050_931230_fa_edt.bmp'><br><font color='green'><strong>Share</strong></font></div></div><div class='respDiv'><div class='respDivL'>Match<br>(e)</div><div class='respDivR'>No Match<br>(i)</div></div></div>","i","TARGET","2","trustrating_stim/white_mw040.bmp,trustrating_stim/white_mw003.bmp","1,0","noMatchFace","i","3000","trustrating_stim/white_00050_931230_fa_edt.bmp","green","Share","REAL","1"
"html-keyboard-response","79","243011","0.0-7.0-5.8","dstanley","bdp_wmem","Tue Nov 09 2021 13:23:40 GMT-0500 (Eastern Standard Time)","604756","Match,No Match","","null","","","","","","<div class='trialBorder'><div class='vertical-center'><img src='img/correct.jpg'></div><div class='respDiv'><div class='respDivL'>Match<br>(e)</div><div class='respDivR'><font style='color:orange'>No Match<br>(i)</font></div></div></div>","null","FEEDBACK","","","","","","","","","","",""
"html-keyboard-response","80","243516","0.0-7.0-1.9","dstanley","bdp_wmem","Tue Nov 09 2021 13:23:40 GMT-0500 (Eastern Standard Time)","604756","Match,No Match","","null","","","","","","<div class='trialBorder'><div class='vertical-center'><img src='img/fixation2_sml.jpg'</img></div></div>","null","FIX","","","","","","","","","","",""
"html-keyboard-response","81","246519","0.0-7.0-2.9","dstanley","bdp_wmem","Tue Nov 09 2021 13:23:40 GMT-0500 (Eastern Standard Time)","604756","Match,No Match","","null","","","","","","<div class='trialBorder'><div class='vertical-center'><img style='vertical-align:center; align:center' src='img/fixation2_sml.jpg'></div><div class='arrayDiv2'><div class='tl'><img class='introPic' src='trustrating_stim/white_00807_941205_fb_edt.bmp'><br><font color='red'><strong>Keep</strong></font></div><div class='tr'><img class='introPic' src='trustrating_stim/white_mw012.bmp'><br><font color='green'><strong>Share</strong></font></div></div></div>","null","ARRAY","2","trustrating_stim/white_00807_941205_fb_edt.bmp,trustrating_stim/white_mw012.bmp","0,1","Match","e","3000","","","","",""
"html-keyboard-response","82","250522","0.0-7.0-3.9","dstanley","bdp_wmem","Tue Nov 09 2021 13:23:40 GMT-0500 (Eastern Standard Time)","604756","Match,No Match","","null","","","","","","<div class='trialBorder'><div class='vertical-center'><img src='img/fixation2_sml.jpg'</img></div></div>","null","DELAY","","","","","","","","","","",""
"html-keyboard-response","83","251819","0.0-7.0-4.9","dstanley","bdp_wmem","Tue Nov 09 2021 13:23:40 GMT-0500 (Eastern Standard Time)","604756","Match,No Match","","1296","","","","","","<div class='trialBorder'><div class='targDiv'><div class='tc'><img class='introPic' src='trustrating_stim/white_mw012.bmp'><br><font color='green'><strong>Share</strong></font></div></div><div class='respDiv'><div class='respDivL'>Match<br>(e)</div><div class='respDivR'>No Match<br>(i)</div></div></div>","e","TARGET","2","trustrating_stim/white_00807_941205_fb_edt.bmp,trustrating_stim/white_mw012.bmp","0,1","Match","e","3000","trustrating_stim/white_mw012.bmp","green","Share","REAL","1"
"html-keyboard-response","84","252322","0.0-7.0-5.9","dstanley","bdp_wmem","Tue Nov 09 2021 13:23:40 GMT-0500 (Eastern Standard Time)","604756","Match,No Match","","null","","","","","","<div class='trialBorder'><div class='vertical-center'><img src='img/correct.jpg'></div><div class='respDiv'><div class='respDivL'><font style='color:orange'>Match<br>(e)</font></div><div class='respDivR'>No Match<br>(i)</div></div></div>","null","FEEDBACK","","","","","","","","","","",""
"html-keyboard-response","85","252826","0.0-7.0-1.10","dstanley","bdp_wmem","Tue Nov 09 2021 13:23:40 GMT-0500 (Eastern Standard Time)","604756","Match,No Match","","null","","","","","","<div class='trialBorder'><div class='vertical-center'><img src='img/fixation2_sml.jpg'</img></div></div>","null","FIX","","","","","","","","","","",""
"html-keyboard-response","86","254330","0.0-7.0-2.10","dstanley","bdp_wmem","Tue Nov 09 2021 13:23:40 GMT-0500 (Eastern Standard Time)","604756","Match,No Match","","null","","","","","","<div class='trialBorder'><div class='vertical-center'><img style='vertical-align:center; align:center' src='img/fixation2_sml.jpg'></div><div class='arrayDiv1'><div class='tc'><img class='introPic' src='trustrating_stim/white_mw033.bmp'><br><font color='red'><strong>Keep</strong></font></div></div></div>","null","ARRAY","1","trustrating_stim/white_mw033.bmp","0","Match","e","1500","","","","",""
"html-keyboard-response","87","258335","0.0-7.0-3.10","dstanley","bdp_wmem","Tue Nov 09 2021 13:23:40 GMT-0500 (Eastern Standard Time)","604756","Match,No Match","","null","","","","","","<div class='trialBorder'><div class='vertical-center'><img src='img/fixation2_sml.jpg'</img></div></div>","null","DELAY","","","","","","","","","","",""
"html-keyboard-response","88","259285","0.0-7.0-4.10","dstanley","bdp_wmem","Tue Nov 09 2021 13:23:40 GMT-0500 (Eastern Standard Time)","604756","Match,No Match","","948","","","","","","<div class='trialBorder'><div class='targDiv'><div class='tc'><img class='introPic' src='trustrating_stim/white_mw033.bmp'><br><font color='red'><strong>Keep</strong></font></div></div><div class='respDiv'><div class='respDivL'>Match<br>(e)</div><div class='respDivR'>No Match<br>(i)</div></div></div>","e","TARGET","1","trustrating_stim/white_mw033.bmp","0","Match","e","1500","trustrating_stim/white_mw033.bmp","red","Keep","REAL","1"
"html-keyboard-response","89","259787","0.0-7.0-5.10","dstanley","bdp_wmem","Tue Nov 09 2021 13:23:40 GMT-0500 (Eastern Standard Time)","604756","Match,No Match","","null","","","","","","<div class='trialBorder'><div class='vertical-center'><img src='img/correct.jpg'></div><div class='respDiv'><div class='respDivL'><font style='color:orange'>Match<br>(e)</font></div><div class='respDivR'>No Match<br>(i)</div></div></div>","null","FEEDBACK","","","","","","","","","","",""
"html-keyboard-response","90","260291","0.0-7.0-1.11","dstanley","bdp_wmem","Tue Nov 09 2021 13:23:40 GMT-0500 (Eastern Standard Time)","604756","Match,No Match","","null","","","","","","<div class='trialBorder'><div class='vertical-center'><img src='img/fixation2_sml.jpg'</img></div></div>","null","FIX","","","","","","","","","","",""
"html-keyboard-response","91","264796","0.0-7.0-2.11","dstanley","bdp_wmem","Tue Nov 09 2021 13:23:40 GMT-0500 (Eastern Standard Time)","604756","Match,No Match","","null","","","","","","<div class='trialBorder'><div class='vertical-center'><img style='vertical-align:center; align:center' src='img/fixation2_sml.jpg'></div><div class='arrayDiv3'><div class='tl'><img class='introPic' src='trustrating_stim/white_mw091.bmp'><br><font color='green'><strong>Share</strong></font></div><div class='tc'><img class='introPic' src='trustrating_stim/white_mw033.bmp'><br><font color='green'><strong>Share</strong></font></div><div class='tr'><img class='introPic' src='trustrating_stim/white_mw012.bmp'><br><font color='red'><strong>Keep</strong></font></div></div></div>","null","ARRAY","3","trustrating_stim/white_mw091.bmp,trustrating_stim/white_mw033.bmp,trustrating_stim/white_mw012.bmp","1,1,0","Match","e","4500","","","","",""
"html-keyboard-response","92","268801","0.0-7.0-3.11","dstanley","bdp_wmem","Tue Nov 09 2021 13:23:40 GMT-0500 (Eastern Standard Time)","604756","Match,No Match","","null","","","","","","<div class='trialBorder'><div class='vertical-center'><img src='img/fixation2_sml.jpg'</img></div></div>","null","DELAY","","","","","","","","","","",""
"html-keyboard-response","93","269906","0.0-7.0-4.11","dstanley","bdp_wmem","Tue Nov 09 2021 13:23:40 GMT-0500 (Eastern Standard Time)","604756","Match,No Match","","1104","","","","","","<div class='trialBorder'><div class='targDiv'><div class='tc'><img class='introPic' src='trustrating_stim/white_mw012.bmp'><br><font color='red'><strong>Keep</strong></font></div></div><div class='respDiv'><div class='respDivL'>Match<br>(e)</div><div class='respDivR'>No Match<br>(i)</div></div></div>","e","TARGET","3","trustrating_stim/white_mw091.bmp,trustrating_stim/white_mw033.bmp,trustrating_stim/white_mw012.bmp","1,1,0","Match","e","4500","trustrating_stim/white_mw012.bmp","red","Keep","REAL","1"
"html-keyboard-response","94","270411","0.0-7.0-5.11","dstanley","bdp_wmem","Tue Nov 09 2021 13:23:40 GMT-0500 (Eastern Standard Time)","604756","Match,No Match","","null","","","","","","<div class='trialBorder'><div class='vertical-center'><img src='img/correct.jpg'></div><div class='respDiv'><div class='respDivL'><font style='color:orange'>Match<br>(e)</font></div><div class='respDivR'>No Match<br>(i)</div></div></div>","null","FEEDBACK","","","","","","","","","","",""
"html-keyboard-response","95","270914","0.0-7.0-1.12","dstanley","bdp_wmem","Tue Nov 09 2021 13:23:40 GMT-0500 (Eastern Standard Time)","604756","Match,No Match","","null","","","","","","<div class='trialBorder'><div class='vertical-center'><img src='img/fixation2_sml.jpg'</img></div></div>","null","FIX","","","","","","","","","","",""
"html-keyboard-response","96","273916","0.0-7.0-2.12","dstanley","bdp_wmem","Tue Nov 09 2021 13:23:40 GMT-0500 (Eastern Standard Time)","604756","Match,No Match","","null","","","","","","<div class='trialBorder'><div class='vertical-center'><img style='vertical-align:center; align:center' src='img/fixation2_sml.jpg'></div><div class='arrayDiv2'><div class='tl'><img class='introPic' src='trustrating_stim/white_mw013.bmp'><br><font color='green'><strong>Share</strong></font></div><div class='tr'><img class='introPic' src='trustrating_stim/white_mw091.bmp'><br><font color='red'><strong>Keep</strong></font></div></div></div>","null","ARRAY","2","trustrating_stim/white_mw013.bmp,trustrating_stim/white_mw091.bmp","1,0","noMatchFace","i","3000","","","","",""
"html-keyboard-response","97","277921","0.0-7.0-3.12","dstanley","bdp_wmem","Tue Nov 09 2021 13:23:40 GMT-0500 (Eastern Standard Time)","604756","Match,No Match","","null","","","","","","<div class='trialBorder'><div class='vertical-center'><img src='img/fixation2_sml.jpg'</img></div></div>","null","DELAY","","","","","","","","","","",""
"html-keyboard-response","98","278897","0.0-7.0-4.12","dstanley","bdp_wmem","Tue Nov 09 2021 13:23:40 GMT-0500 (Eastern Standard Time)","604756","Match,No Match","","975","","","","","","<div class='trialBorder'><div class='targDiv'><div class='tc'><img class='introPic' src='trustrating_stim/white_mw040.bmp'><br><font color='red'><strong>Keep</strong></font></div></div><div class='respDiv'><div class='respDivL'>Match<br>(e)</div><div class='respDivR'>No Match<br>(i)</div></div></div>","i","TARGET","2","trustrating_stim/white_mw013.bmp,trustrating_stim/white_mw091.bmp","1,0","noMatchFace","i","3000","trustrating_stim/white_mw040.bmp","red","Keep","REAL","1"
"html-keyboard-response","99","279401","0.0-7.0-5.12","dstanley","bdp_wmem","Tue Nov 09 2021 13:23:40 GMT-0500 (Eastern Standard Time)","604756","Match,No Match","","null","","","","","","<div class='trialBorder'><div class='vertical-center'><img src='img/correct.jpg'></div><div class='respDiv'><div class='respDivL'>Match<br>(e)</div><div class='respDivR'><font style='color:orange'>No Match<br>(i)</font></div></div></div>","null","FEEDBACK","","","","","","","","","","",""
"html-keyboard-response","100","279906","0.0-7.0-1.13","dstanley","bdp_wmem","Tue Nov 09 2021 13:23:40 GMT-0500 (Eastern Standard Time)","604756","Match,No Match","","null","","","","","","<div class='trialBorder'><div class='vertical-center'><img src='img/fixation2_sml.jpg'</img></div></div>","null","FIX","","","","","","","","","","",""
"html-keyboard-response","101","284411","0.0-7.0-2.13","dstanley","bdp_wmem","Tue Nov 09 2021 13:23:40 GMT-0500 (Eastern Standard Time)","604756","Match,No Match","","null","","","","","","<div class='trialBorder'><div class='vertical-center'><img style='vertical-align:center; align:center' src='img/fixation2_sml.jpg'></div><div class='arrayDiv3'><div class='tl'><img class='introPic' src='trustrating_stim/white_mw033.bmp'><br><font color='green'><strong>Share</strong></font></div><div class='tc'><img class='introPic' src='trustrating_stim/white_mw038.bmp'><br><font color='green'><strong>Share</strong></font></div><div class='tr'><img class='introPic' src='trustrating_stim/white_mw091.bmp'><br><font color='red'><strong>Keep</strong></font></div></div></div>","null","ARRAY","3","trustrating_stim/white_mw033.bmp,trustrating_stim/white_mw038.bmp,trustrating_stim/white_mw091.bmp","1,1,0","Match","e","4500","","","","",""
"html-keyboard-response","102","288416","0.0-7.0-3.13","dstanley","bdp_wmem","Tue Nov 09 2021 13:23:40 GMT-0500 (Eastern Standard Time)","604756","Match,No Match","","null","","","","","","<div class='trialBorder'><div class='vertical-center'><img src='img/fixation2_sml.jpg'</img></div></div>","null","DELAY","","","","","","","","","","",""
"html-keyboard-response","103","289826","0.0-7.0-4.13","dstanley","bdp_wmem","Tue Nov 09 2021 13:23:40 GMT-0500 (Eastern Standard Time)","604756","Match,No Match","","1409","","","","","","<div class='trialBorder'><div class='targDiv'><div class='tc'><img class='introPic' src='trustrating_stim/white_mw038.bmp'><br><font color='green'><strong>Share</strong></font></div></div><div class='respDiv'><div class='respDivL'>Match<br>(e)</div><div class='respDivR'>No Match<br>(i)</div></div></div>","e","TARGET","3","trustrating_stim/white_mw033.bmp,trustrating_stim/white_mw038.bmp,trustrating_stim/white_mw091.bmp","1,1,0","Match","e","4500","trustrating_stim/white_mw038.bmp","green","Share","REAL","1"
"html-keyboard-response","104","290331","0.0-7.0-5.13","dstanley","bdp_wmem","Tue Nov 09 2021 13:23:40 GMT-0500 (Eastern Standard Time)","604756","Match,No Match","","null","","","","","","<div class='trialBorder'><div class='vertical-center'><img src='img/correct.jpg'></div><div class='respDiv'><div class='respDivL'><font style='color:orange'>Match<br>(e)</font></div><div class='respDivR'>No Match<br>(i)</div></div></div>","null","FEEDBACK","","","","","","","","","","",""
"html-keyboard-response","105","290837","0.0-7.0-1.14","dstanley","bdp_wmem","Tue Nov 09 2021 13:23:40 GMT-0500 (Eastern Standard Time)","604756","Match,No Match","","null","","","","","","<div class='trialBorder'><div class='vertical-center'><img src='img/fixation2_sml.jpg'</img></div></div>","null","FIX","","","","","","","","","","",""
"html-keyboard-response","106","292340","0.0-7.0-2.14","dstanley","bdp_wmem","Tue Nov 09 2021 13:23:40 GMT-0500 (Eastern Standard Time)","604756","Match,No Match","","null","","","","","","<div class='trialBorder'><div class='vertical-center'><img style='vertical-align:center; align:center' src='img/fixation2_sml.jpg'></div><div class='arrayDiv1'><div class='tc'><img class='introPic' src='trustrating_stim/white_mw040.bmp'><br><font color='green'><strong>Share</strong></font></div></div></div>","null","ARRAY","1","trustrating_stim/white_mw040.bmp","1","noMatchFace","i","1500","","","","",""
"html-keyboard-response","107","296345","0.0-7.0-3.14","dstanley","bdp_wmem","Tue Nov 09 2021 13:23:40 GMT-0500 (Eastern Standard Time)","604756","Match,No Match","","null","","","","","","<div class='trialBorder'><div class='vertical-center'><img src='img/fixation2_sml.jpg'</img></div></div>","null","DELAY","","","","","","","","","","",""
"html-keyboard-response","108","297048","0.0-7.0-4.14","dstanley","bdp_wmem","Tue Nov 09 2021 13:23:40 GMT-0500 (Eastern Standard Time)","604756","Match,No Match","","702","","","","","","<div class='trialBorder'><div class='targDiv'><div class='tc'><img class='introPic' src='trustrating_stim/white_00807_941205_fb_edt.bmp'><br><font color='green'><strong>Share</strong></font></div></div><div class='respDiv'><div class='respDivL'>Match<br>(e)</div><div class='respDivR'>No Match<br>(i)</div></div></div>","i","TARGET","1","trustrating_stim/white_mw040.bmp","1","noMatchFace","i","1500","trustrating_stim/white_00807_941205_fb_edt.bmp","green","Share","REAL","1"
"html-keyboard-response","109","297553","0.0-7.0-5.14","dstanley","bdp_wmem","Tue Nov 09 2021 13:23:40 GMT-0500 (Eastern Standard Time)","604756","Match,No Match","","null","","","","","","<div class='trialBorder'><div class='vertical-center'><img src='img/correct.jpg'></div><div class='respDiv'><div class='respDivL'>Match<br>(e)</div><div class='respDivR'><font style='color:orange'>No Match<br>(i)</font></div></div></div>","null","FEEDBACK","","","","","","","","","","",""
"html-keyboard-response","110","298058","0.0-7.0-1.15","dstanley","bdp_wmem","Tue Nov 09 2021 13:23:40 GMT-0500 (Eastern Standard Time)","604756","Match,No Match","","null","","","","","","<div class='trialBorder'><div class='vertical-center'><img src='img/fixation2_sml.jpg'</img></div></div>","null","FIX","","","","","","","","","","",""
"html-keyboard-response","111","302562","0.0-7.0-2.15","dstanley","bdp_wmem","Tue Nov 09 2021 13:23:40 GMT-0500 (Eastern Standard Time)","604756","Match,No Match","","null","","","","","","<div class='trialBorder'><div class='vertical-center'><img style='vertical-align:center; align:center' src='img/fixation2_sml.jpg'></div><div class='arrayDiv3'><div class='tl'><img class='introPic' src='trustrating_stim/white_mw033.bmp'><br><font color='red'><strong>Keep</strong></font></div><div class='tc'><img class='introPic' src='trustrating_stim/white_mw038.bmp'><br><font color='green'><strong>Share</strong></font></div><div class='tr'><img class='introPic' src='trustrating_stim/white_mw013.bmp'><br><font color='red'><strong>Keep</strong></font></div></div></div>","null","ARRAY","3","trustrating_stim/white_mw033.bmp,trustrating_stim/white_mw038.bmp,trustrating_stim/white_mw013.bmp","0,1,0","Match","e","4500","","","","",""
"html-keyboard-response","112","306568","0.0-7.0-3.15","dstanley","bdp_wmem","Tue Nov 09 2021 13:23:40 GMT-0500 (Eastern Standard Time)","604756","Match,No Match","","null","","","","","","<div class='trialBorder'><div class='vertical-center'><img src='img/fixation2_sml.jpg'</img></div></div>","null","DELAY","","","","","","","","","","",""
"html-keyboard-response","113","307880","0.0-7.0-4.15","dstanley","bdp_wmem","Tue Nov 09 2021 13:23:40 GMT-0500 (Eastern Standard Time)","604756","Match,No Match","","1310","","","","","","<div class='trialBorder'><div class='targDiv'><div class='tc'><img class='introPic' src='trustrating_stim/white_mw033.bmp'><br><font color='red'><strong>Keep</strong></font></div></div><div class='respDiv'><div class='respDivL'>Match<br>(e)</div><div class='respDivR'>No Match<br>(i)</div></div></div>","e","TARGET","3","trustrating_stim/white_mw033.bmp,trustrating_stim/white_mw038.bmp,trustrating_stim/white_mw013.bmp","0,1,0","Match","e","4500","trustrating_stim/white_mw033.bmp","red","Keep","REAL","1"
"html-keyboard-response","114","308384","0.0-7.0-5.15","dstanley","bdp_wmem","Tue Nov 09 2021 13:23:40 GMT-0500 (Eastern Standard Time)","604756","Match,No Match","","null","","","","","","<div class='trialBorder'><div class='vertical-center'><img src='img/correct.jpg'></div><div class='respDiv'><div class='respDivL'><font style='color:orange'>Match<br>(e)</font></div><div class='respDivR'>No Match<br>(i)</div></div></div>","null","FEEDBACK","","","","","","","","","","",""
"html-keyboard-response","115","308890","0.0-7.0-1.16","dstanley","bdp_wmem","Tue Nov 09 2021 13:23:40 GMT-0500 (Eastern Standard Time)","604756","Match,No Match","","null","","","","","","<div class='trialBorder'><div class='vertical-center'><img src='img/fixation2_sml.jpg'</img></div></div>","null","FIX","","","","","","","","","","",""
"html-keyboard-response","116","311896","0.0-7.0-2.16","dstanley","bdp_wmem","Tue Nov 09 2021 13:23:40 GMT-0500 (Eastern Standard Time)","604756","Match,No Match","","null","","","","","","<div class='trialBorder'><div class='vertical-center'><img style='vertical-align:center; align:center' src='img/fixation2_sml.jpg'></div><div class='arrayDiv2'><div class='tl'><img class='introPic' src='trustrating_stim/white_mw003.bmp'><br><font color='red'><strong>Keep</strong></font></div><div class='tr'><img class='introPic' src='trustrating_stim/white_00050_931230_fa_edt.bmp'><br><font color='green'><strong>Share</strong></font></div></div></div>","null","ARRAY","2","trustrating_stim/white_mw003.bmp,trustrating_stim/white_00050_931230_fa_edt.bmp","0,1","noMatchOutcome","i","3000","","","","",""
"html-keyboard-response","117","315900","0.0-7.0-3.16","dstanley","bdp_wmem","Tue Nov 09 2021 13:23:40 GMT-0500 (Eastern Standard Time)","604756","Match,No Match","","null","","","","","","<div class='trialBorder'><div class='vertical-center'><img src='img/fixation2_sml.jpg'</img></div></div>","null","DELAY","","","","","","","","","","",""
"html-keyboard-response","118","316963","0.0-7.0-4.16","dstanley","bdp_wmem","Tue Nov 09 2021 13:23:40 GMT-0500 (Eastern Standard Time)","604756","Match,No Match","","1062","","","","","","<div class='trialBorder'><div class='targDiv'><div class='tc'><img class='introPic' src='trustrating_stim/white_00050_931230_fa_edt.bmp'><br><font color='red'><strong>Keep</strong></font></div></div><div class='respDiv'><div class='respDivL'>Match<br>(e)</div><div class='respDivR'>No Match<br>(i)</div></div></div>","e","TARGET","2","trustrating_stim/white_mw003.bmp,trustrating_stim/white_00050_931230_fa_edt.bmp","0,1","noMatchOutcome","i","3000","trustrating_stim/white_00050_931230_fa_edt.bmp","red","Keep","REAL","0"
"html-keyboard-response","119","317466","0.0-7.0-5.16","dstanley","bdp_wmem","Tue Nov 09 2021 13:23:40 GMT-0500 (Eastern Standard Time)","604756","Match,No Match","","null","","","","","","<div class='trialBorder'><div class='vertical-center'><img src='img/error.jpg'></div><div class='respDiv'><div class='respDivL'><font style='color:orange'>Match<br>(e)</font></div><div class='respDivR'>No Match<br>(i)</div></div></div>","null","FEEDBACK","","","","","","","","","","",""
"html-keyboard-response","120","317968","0.0-7.0-1.17","dstanley","bdp_wmem","Tue Nov 09 2021 13:23:40 GMT-0500 (Eastern Standard Time)","604756","Match,No Match","","null","","","","","","<div class='trialBorder'><div class='vertical-center'><img src='img/fixation2_sml.jpg'</img></div></div>","null","FIX","","","","","","","","","","",""
"html-keyboard-response","121","320970","0.0-7.0-2.17","dstanley","bdp_wmem","Tue Nov 09 2021 13:23:40 GMT-0500 (Eastern Standard Time)","604756","Match,No Match","","null","","","","","","<div class='trialBorder'><div class='vertical-center'><img style='vertical-align:center; align:center' src='img/fixation2_sml.jpg'></div><div class='arrayDiv2'><div class='tl'><img class='introPic' src='trustrating_stim/white_mw015.bmp'><br><font color='red'><strong>Keep</strong></font></div><div class='tr'><img class='introPic' src='trustrating_stim/white_mw013.bmp'><br><font color='green'><strong>Share</strong></font></div></div></div>","null","ARRAY","2","trustrating_stim/white_mw015.bmp,trustrating_stim/white_mw013.bmp","0,1","Match","e","3000","","","","",""
"html-keyboard-response","122","324975","0.0-7.0-3.17","dstanley","bdp_wmem","Tue Nov 09 2021 13:23:40 GMT-0500 (Eastern Standard Time)","604756","Match,No Match","","null","","","","","","<div class='trialBorder'><div class='vertical-center'><img src='img/fixation2_sml.jpg'</img></div></div>","null","DELAY","","","","","","","","","","",""
"html-keyboard-response","123","326385","0.0-7.0-4.17","dstanley","bdp_wmem","Tue Nov 09 2021 13:23:40 GMT-0500 (Eastern Standard Time)","604756","Match,No Match","","1409","","","","","","<div class='trialBorder'><div class='targDiv'><div class='tc'><img class='introPic' src='trustrating_stim/white_mw015.bmp'><br><font color='red'><strong>Keep</strong></font></div></div><div class='respDiv'><div class='respDivL'>Match<br>(e)</div><div class='respDivR'>No Match<br>(i)</div></div></div>","e","TARGET","2","trustrating_stim/white_mw015.bmp,trustrating_stim/white_mw013.bmp","0,1","Match","e","3000","trustrating_stim/white_mw015.bmp","red","Keep","REAL","1"
"html-keyboard-response","124","326886","0.0-7.0-5.17","dstanley","bdp_wmem","Tue Nov 09 2021 13:23:40 GMT-0500 (Eastern Standard Time)","604756","Match,No Match","","null","","","","","","<div class='trialBorder'><div class='vertical-center'><img src='img/correct.jpg'></div><div class='respDiv'><div class='respDivL'><font style='color:orange'>Match<br>(e)</font></div><div class='respDivR'>No Match<br>(i)</div></div></div>","null","FEEDBACK","","","","","","","","","","",""
"html-keyboard-response","125","327392","0.0-7.0-1.18","dstanley","bdp_wmem","Tue Nov 09 2021 13:23:40 GMT-0500 (Eastern Standard Time)","604756","Match,No Match","","null","","","","","","<div class='trialBorder'><div class='vertical-center'><img src='img/fixation2_sml.jpg'</img></div></div>","null","FIX","","","","","","","","","","",""
"html-keyboard-response","126","328898","0.0-7.0-2.18","dstanley","bdp_wmem","Tue Nov 09 2021 13:23:40 GMT-0500 (Eastern Standard Time)","604756","Match,No Match","","null","","","","","","<div class='trialBorder'><div class='vertical-center'><img style='vertical-align:center; align:center' src='img/fixation2_sml.jpg'></div><div class='arrayDiv1'><div class='tc'><img class='introPic' src='trustrating_stim/white_mw012.bmp'><br><font color='green'><strong>Share</strong></font></div></div></div>","null","ARRAY","1","trustrating_stim/white_mw012.bmp","1","noMatchOutcome","i","1500","","","","",""
"html-keyboard-response","127","332902","0.0-7.0-3.18","dstanley","bdp_wmem","Tue Nov 09 2021 13:23:40 GMT-0500 (Eastern Standard Time)","604756","Match,No Match","","null","","","","","","<div class='trialBorder'><div class='vertical-center'><img src='img/fixation2_sml.jpg'</img></div></div>","null","DELAY","","","","","","","","","","",""
"html-keyboard-response","128","334014","0.0-7.0-4.18","dstanley","bdp_wmem","Tue Nov 09 2021 13:23:40 GMT-0500 (Eastern Standard Time)","604756","Match,No Match","","1111","","","","","","<div class='trialBorder'><div class='targDiv'><div class='tc'><img class='introPic' src='trustrating_stim/white_mw012.bmp'><br><font color='red'><strong>Keep</strong></font></div></div><div class='respDiv'><div class='respDivL'>Match<br>(e)</div><div class='respDivR'>No Match<br>(i)</div></div></div>","i","TARGET","1","trustrating_stim/white_mw012.bmp","1","noMatchOutcome","i","1500","trustrating_stim/white_mw012.bmp","red","Keep","REAL","1"
"html-keyboard-response","129","334518","0.0-7.0-5.18","dstanley","bdp_wmem","Tue Nov 09 2021 13:23:40 GMT-0500 (Eastern Standard Time)","604756","Match,No Match","","null","","","","","","<div class='trialBorder'><div class='vertical-center'><img src='img/correct.jpg'></div><div class='respDiv'><div class='respDivL'>Match<br>(e)</div><div class='respDivR'><font style='color:orange'>No Match<br>(i)</font></div></div></div>","null","FEEDBACK","","","","","","","","","","",""
"html-keyboard-response","130","335023","0.0-7.0-1.19","dstanley","bdp_wmem","Tue Nov 09 2021 13:23:40 GMT-0500 (Eastern Standard Time)","604756","Match,No Match","","null","","","","","","<div class='trialBorder'><div class='vertical-center'><img src='img/fixation2_sml.jpg'</img></div></div>","null","FIX","","","","","","","","","","",""
"html-keyboard-response","131","338029","0.0-7.0-2.19","dstanley","bdp_wmem","Tue Nov 09 2021 13:23:40 GMT-0500 (Eastern Standard Time)","604756","Match,No Match","","null","","","","","","<div class='trialBorder'><div class='vertical-center'><img style='vertical-align:center; align:center' src='img/fixation2_sml.jpg'></div><div class='arrayDiv2'><div class='tl'><img class='introPic' src='trustrating_stim/white_mw092.bmp'><br><font color='green'><strong>Share</strong></font></div><div class='tr'><img class='introPic' src='trustrating_stim/white_mw091.bmp'><br><font color='red'><strong>Keep</strong></font></div></div></div>","null","ARRAY","2","trustrating_stim/white_mw092.bmp,trustrating_stim/white_mw091.bmp","1,0","noMatchFace","i","3000","","","","",""
"html-keyboard-response","132","342032","0.0-7.0-3.19","dstanley","bdp_wmem","Tue Nov 09 2021 13:23:40 GMT-0500 (Eastern Standard Time)","604756","Match,No Match","","null","","","","","","<div class='trialBorder'><div class='vertical-center'><img src='img/fixation2_sml.jpg'</img></div></div>","null","DELAY","","","","","","","","","","",""
"html-keyboard-response","133","343066","0.0-7.0-4.19","dstanley","bdp_wmem","Tue Nov 09 2021 13:23:40 GMT-0500 (Eastern Standard Time)","604756","Match,No Match","","1033","","","","","","<div class='trialBorder'><div class='targDiv'><div class='tc'><img class='introPic' src='trustrating_stim/white_mw038.bmp'><br><font color='red'><strong>Keep</strong></font></div></div><div class='respDiv'><div class='respDivL'>Match<br>(e)</div><div class='respDivR'>No Match<br>(i)</div></div></div>","i","TARGET","2","trustrating_stim/white_mw092.bmp,trustrating_stim/white_mw091.bmp","1,0","noMatchFace","i","3000","trustrating_stim/white_mw038.bmp","red","Keep","REAL","1"
"html-keyboard-response","134","343567","0.0-7.0-5.19","dstanley","bdp_wmem","Tue Nov 09 2021 13:23:40 GMT-0500 (Eastern Standard Time)","604756","Match,No Match","","null","","","","","","<div class='trialBorder'><div class='vertical-center'><img src='img/correct.jpg'></div><div class='respDiv'><div class='respDivL'>Match<br>(e)</div><div class='respDivR'><font style='color:orange'>No Match<br>(i)</font></div></div></div>","null","FEEDBACK","","","","","","","","","","",""
"html-keyboard-response","135","344072","0.0-7.0-1.20","dstanley","bdp_wmem","Tue Nov 09 2021 13:23:40 GMT-0500 (Eastern Standard Time)","604756","Match,No Match","","null","","","","","","<div class='trialBorder'><div class='vertical-center'><img src='img/fixation2_sml.jpg'</img></div></div>","null","FIX","","","","","","","","","","",""
"html-keyboard-response","136","347073","0.0-7.0-2.20","dstanley","bdp_wmem","Tue Nov 09 2021 13:23:40 GMT-0500 (Eastern Standard Time)","604756","Match,No Match","","null","","","","","","<div class='trialBorder'><div class='vertical-center'><img style='vertical-align:center; align:center' src='img/fixation2_sml.jpg'></div><div class='arrayDiv2'><div class='tl'><img class='introPic' src='trustrating_stim/white_mw040.bmp'><br><font color='red'><strong>Keep</strong></font></div><div class='tr'><img class='introPic' src='trustrating_stim/white_mw038.bmp'><br><font color='green'><strong>Share</strong></font></div></div></div>","null","ARRAY","2","trustrating_stim/white_mw040.bmp,trustrating_stim/white_mw038.bmp","0,1","Match","e","3000","","","","",""
"html-keyboard-response","137","351079","0.0-7.0-3.20","dstanley","bdp_wmem","Tue Nov 09 2021 13:23:40 GMT-0500 (Eastern Standard Time)","604756","Match,No Match","","null","","","","","","<div class='trialBorder'><div class='vertical-center'><img src='img/fixation2_sml.jpg'</img></div></div>","null","DELAY","","","","","","","","","","",""
"html-keyboard-response","138","351822","0.0-7.0-4.20","dstanley","bdp_wmem","Tue Nov 09 2021 13:23:40 GMT-0500 (Eastern Standard Time)","604756","Match,No Match","","742","","","","","","<div class='trialBorder'><div class='targDiv'><div class='tc'><img class='introPic' src='trustrating_stim/white_mw038.bmp'><br><font color='green'><strong>Share</strong></font></div></div><div class='respDiv'><div class='respDivL'>Match<br>(e)</div><div class='respDivR'>No Match<br>(i)</div></div></div>","e","TARGET","2","trustrating_stim/white_mw040.bmp,trustrating_stim/white_mw038.bmp","0,1","Match","e","3000","trustrating_stim/white_mw038.bmp","green","Share","REAL","1"
"html-keyboard-response","139","352327","0.0-7.0-5.20","dstanley","bdp_wmem","Tue Nov 09 2021 13:23:40 GMT-0500 (Eastern Standard Time)","604756","Match,No Match","","null","","","","","","<div class='trialBorder'><div class='vertical-center'><img src='img/correct.jpg'></div><div class='respDiv'><div class='respDivL'><font style='color:orange'>Match<br>(e)</font></div><div class='respDivR'>No Match<br>(i)</div></div></div>","null","FEEDBACK","","","","","","","","","","",""
"html-keyboard-response","140","352831","0.0-7.0-1.21","dstanley","bdp_wmem","Tue Nov 09 2021 13:23:40 GMT-0500 (Eastern Standard Time)","604756","Match,No Match","","null","","","","","","<div class='trialBorder'><div class='vertical-center'><img src='img/fixation2_sml.jpg'</img></div></div>","null","FIX","","","","","","","","","","",""
"html-keyboard-response","141","354337","0.0-7.0-2.21","dstanley","bdp_wmem","Tue Nov 09 2021 13:23:40 GMT-0500 (Eastern Standard Time)","604756","Match,No Match","","null","","","","","","<div class='trialBorder'><div class='vertical-center'><img style='vertical-align:center; align:center' src='img/fixation2_sml.jpg'></div><div class='arrayDiv1'><div class='tc'><img class='introPic' src='trustrating_stim/white_mw033.bmp'><br><font color='green'><strong>Share</strong></font></div></div></div>","null","ARRAY","1","trustrating_stim/white_mw033.bmp","1","noMatchFace","i","1500","","","","",""
"html-keyboard-response","142","358341","0.0-7.0-3.21","dstanley","bdp_wmem","Tue Nov 09 2021 13:23:40 GMT-0500 (Eastern Standard Time)","604756","Match,No Match","","null","","","","","","<div class='trialBorder'><div class='vertical-center'><img src='img/fixation2_sml.jpg'</img></div></div>","null","DELAY","","","","","","","","","","",""
"html-keyboard-response","143","359151","0.0-7.0-4.21","dstanley","bdp_wmem","Tue Nov 09 2021 13:23:40 GMT-0500 (Eastern Standard Time)","604756","Match,No Match","","808","","","","","","<div class='trialBorder'><div class='targDiv'><div class='tc'><img class='introPic' src='trustrating_stim/white_mw013.bmp'><br><font color='green'><strong>Share</strong></font></div></div><div class='respDiv'><div class='respDivL'>Match<br>(e)</div><div class='respDivR'>No Match<br>(i)</div></div></div>","i","TARGET","1","trustrating_stim/white_mw033.bmp","1","noMatchFace","i","1500","trustrating_stim/white_mw013.bmp","green","Share","REAL","1"
"html-keyboard-response","144","359653","0.0-7.0-5.21","dstanley","bdp_wmem","Tue Nov 09 2021 13:23:40 GMT-0500 (Eastern Standard Time)","604756","Match,No Match","","null","","","","","","<div class='trialBorder'><div class='vertical-center'><img src='img/correct.jpg'></div><div class='respDiv'><div class='respDivL'>Match<br>(e)</div><div class='respDivR'><font style='color:orange'>No Match<br>(i)</font></div></div></div>","null","FEEDBACK","","","","","","","","","","",""
"html-keyboard-response","145","360158","0.0-7.0-1.22","dstanley","bdp_wmem","Tue Nov 09 2021 13:23:40 GMT-0500 (Eastern Standard Time)","604756","Match,No Match","","null","","","","","","<div class='trialBorder'><div class='vertical-center'><img src='img/fixation2_sml.jpg'</img></div></div>","null","FIX","","","","","","","","","","",""
"html-keyboard-response","146","363163","0.0-7.0-2.22","dstanley","bdp_wmem","Tue Nov 09 2021 13:23:40 GMT-0500 (Eastern Standard Time)","604756","Match,No Match","","null","","","","","","<div class='trialBorder'><div class='vertical-center'><img style='vertical-align:center; align:center' src='img/fixation2_sml.jpg'></div><div class='arrayDiv2'><div class='tl'><img class='introPic' src='trustrating_stim/white_mw033.bmp'><br><font color='green'><strong>Share</strong></font></div><div class='tr'><img class='introPic' src='trustrating_stim/white_mw003.bmp'><br><font color='red'><strong>Keep</strong></font></div></div></div>","null","ARRAY","2","trustrating_stim/white_mw033.bmp,trustrating_stim/white_mw003.bmp","1,0","noMatchFace","i","3000","","","","",""
"html-keyboard-response","147","367169","0.0-7.0-3.22","dstanley","bdp_wmem","Tue Nov 09 2021 13:23:40 GMT-0500 (Eastern Standard Time)","604756","Match,No Match","","null","","","","","","<div class='trialBorder'><div class='vertical-center'><img src='img/fixation2_sml.jpg'</img></div></div>","null","DELAY","","","","","","","","","","",""
"html-keyboard-response","148","368178","0.0-7.0-4.22","dstanley","bdp_wmem","Tue Nov 09 2021 13:23:40 GMT-0500 (Eastern Standard Time)","604756","Match,No Match","","1004","","","","","","<div class='trialBorder'><div class='targDiv'><div class='tc'><img class='introPic' src='trustrating_stim/white_00050_931230_fa_edt.bmp'><br><font color='red'><strong>Keep</strong></font></div></div><div class='respDiv'><div class='respDivL'>Match<br>(e)</div><div class='respDivR'>No Match<br>(i)</div></div></div>","i","TARGET","2","trustrating_stim/white_mw033.bmp,trustrating_stim/white_mw003.bmp","1,0","noMatchFace","i","3000","trustrating_stim/white_00050_931230_fa_edt.bmp","red","Keep","REAL","1"
"html-keyboard-response","149","368679","0.0-7.0-5.22","dstanley","bdp_wmem","Tue Nov 09 2021 13:23:40 GMT-0500 (Eastern Standard Time)","604756","Match,No Match","","null","","","","","","<div class='trialBorder'><div class='vertical-center'><img src='img/correct.jpg'></div><div class='respDiv'><div class='respDivL'>Match<br>(e)</div><div class='respDivR'><font style='color:orange'>No Match<br>(i)</font></div></div></div>","null","FEEDBACK","","","","","","","","","","",""
"html-keyboard-response","150","369184","0.0-7.0-1.23","dstanley","bdp_wmem","Tue Nov 09 2021 13:23:40 GMT-0500 (Eastern Standard Time)","604756","Match,No Match","","null","","","","","","<div class='trialBorder'><div class='vertical-center'><img src='img/fixation2_sml.jpg'</img></div></div>","null","FIX","","","","","","","","","","",""
"html-keyboard-response","151","373689","0.0-7.0-2.23","dstanley","bdp_wmem","Tue Nov 09 2021 13:23:40 GMT-0500 (Eastern Standard Time)","604756","Match,No Match","","null","","","","","","<div class='trialBorder'><div class='vertical-center'><img style='vertical-align:center; align:center' src='img/fixation2_sml.jpg'></div><div class='arrayDiv3'><div class='tl'><img class='introPic' src='trustrating_stim/white_mw033.bmp'><br><font color='red'><strong>Keep</strong></font></div><div class='tc'><img class='introPic' src='trustrating_stim/white_mw012.bmp'><br><font color='red'><strong>Keep</strong></font></div><div class='tr'><img class='introPic' src='trustrating_stim/white_mw013.bmp'><br><font color='green'><strong>Share</strong></font></div></div></div>","null","ARRAY","3","trustrating_stim/white_mw033.bmp,trustrating_stim/white_mw012.bmp,trustrating_stim/white_mw013.bmp","0,0,1","Match","e","4500","","","","",""
"html-keyboard-response","152","377694","0.0-7.0-3.23","dstanley","bdp_wmem","Tue Nov 09 2021 13:23:40 GMT-0500 (Eastern Standard Time)","604756","Match,No Match","","null","","","","","","<div class='trialBorder'><div class='vertical-center'><img src='img/fixation2_sml.jpg'</img></div></div>","null","DELAY","","","","","","","","","","",""
"html-keyboard-response","153","378887","0.0-7.0-4.23","dstanley","bdp_wmem","Tue Nov 09 2021 13:23:40 GMT-0500 (Eastern Standard Time)","604756","Match,No Match","","1192","","","","","","<div class='trialBorder'><div class='targDiv'><div class='tc'><img class='introPic' src='trustrating_stim/white_mw013.bmp'><br><font color='green'><strong>Share</strong></font></div></div><div class='respDiv'><div class='respDivL'>Match<br>(e)</div><div class='respDivR'>No Match<br>(i)</div></div></div>","i","TARGET","3","trustrating_stim/white_mw033.bmp,trustrating_stim/white_mw012.bmp,trustrating_stim/white_mw013.bmp","0,0,1","Match","e","4500","trustrating_stim/white_mw013.bmp","green","Share","REAL","0"
"html-keyboard-response","154","379389","0.0-7.0-5.23","dstanley","bdp_wmem","Tue Nov 09 2021 13:23:40 GMT-0500 (Eastern Standard Time)","604756","Match,No Match","","null","","","","","","<div class='trialBorder'><div class='vertical-center'><img src='img/error.jpg'></div><div class='respDiv'><div class='respDivL'>Match<br>(e)</div><div class='respDivR'><font style='color:orange'>No Match<br>(i)</font></div></div></div>","null","FEEDBACK","","","","","","","","","","",""
"html-keyboard-response","155","379894","0.0-7.0-1.24","dstanley","bdp_wmem","Tue Nov 09 2021 13:23:40 GMT-0500 (Eastern Standard Time)","604756","Match,No Match","","null","","","","","","<div class='trialBorder'><div class='vertical-center'><img src='img/fixation2_sml.jpg'</img></div></div>","null","FIX","","","","","","","","","","",""
"html-keyboard-response","156","384398","0.0-7.0-2.24","dstanley","bdp_wmem","Tue Nov 09 2021 13:23:40 GMT-0500 (Eastern Standard Time)","604756","Match,No Match","","null","","","","","","<div class='trialBorder'><div class='vertical-center'><img style='vertical-align:center; align:center' src='img/fixation2_sml.jpg'></div><div class='arrayDiv3'><div class='tl'><img class='introPic' src='trustrating_stim/white_mw012.bmp'><br><font color='red'><strong>Keep</strong></font></div><div class='tc'><img class='introPic' src='trustrating_stim/white_mw092.bmp'><br><font color='red'><strong>Keep</strong></font></div><div class='tr'><img class='introPic' src='trustrating_stim/white_mw003.bmp'><br><font color='green'><strong>Share</strong></font></div></div></div>","null","ARRAY","3","trustrating_stim/white_mw012.bmp,trustrating_stim/white_mw092.bmp,trustrating_stim/white_mw003.bmp","0,0,1","noMatchFace","i","4500","","","","",""
"html-keyboard-response","157","388399","0.0-7.0-3.24","dstanley","bdp_wmem","Tue Nov 09 2021 13:23:40 GMT-0500 (Eastern Standard Time)","604756","Match,No Match","","null","","","","","","<div class='trialBorder'><div class='vertical-center'><img src='img/fixation2_sml.jpg'</img></div></div>","null","DELAY","","","","","","","","","","",""
"html-keyboard-response","158","390071","0.0-7.0-4.24","dstanley","bdp_wmem","Tue Nov 09 2021 13:23:40 GMT-0500 (Eastern Standard Time)","604756","Match,No Match","","1670","","","","","","<div class='trialBorder'><div class='targDiv'><div class='tc'><img class='introPic' src='trustrating_stim/white_mw015.bmp'><br><font color='red'><strong>Keep</strong></font></div></div><div class='respDiv'><div class='respDivL'>Match<br>(e)</div><div class='respDivR'>No Match<br>(i)</div></div></div>","e","TARGET","3","trustrating_stim/white_mw012.bmp,trustrating_stim/white_mw092.bmp,trustrating_stim/white_mw003.bmp","0,0,1","noMatchFace","i","4500","trustrating_stim/white_mw015.bmp","red","Keep","REAL","0"
"html-keyboard-response","159","390575","0.0-7.0-5.24","dstanley","bdp_wmem","Tue Nov 09 2021 13:23:40 GMT-0500 (Eastern Standard Time)","604756","Match,No Match","","null","","","","","","<div class='trialBorder'><div class='vertical-center'><img src='img/error.jpg'></div><div class='respDiv'><div class='respDivL'><font style='color:orange'>Match<br>(e)</font></div><div class='respDivR'>No Match<br>(i)</div></div></div>","null","FEEDBACK","","","","","","","","","","",""
"html-keyboard-response","160","391080","0.0-7.0-1.25","dstanley","bdp_wmem","Tue Nov 09 2021 13:23:40 GMT-0500 (Eastern Standard Time)","604756","Match,No Match","","null","","","","","","<div class='trialBorder'><div class='vertical-center'><img src='img/fixation2_sml.jpg'</img></div></div>","null","FIX","","","","","","","","","","",""
"html-keyboard-response","161","392584","0.0-7.0-2.25","dstanley","bdp_wmem","Tue Nov 09 2021 13:23:40 GMT-0500 (Eastern Standard Time)","604756","Match,No Match","","null","","","","","","<div class='trialBorder'><div class='vertical-center'><img style='vertical-align:center; align:center' src='img/fixation2_sml.jpg'></div><div class='arrayDiv1'><div class='tc'><img class='introPic' src='trustrating_stim/white_mw038.bmp'><br><font color='green'><strong>Share</strong></font></div></div></div>","null","ARRAY","1","trustrating_stim/white_mw038.bmp","1","noMatchOutcome","i","1500","","","","",""
"html-keyboard-response","162","396588","0.0-7.0-3.25","dstanley","bdp_wmem","Tue Nov 09 2021 13:23:40 GMT-0500 (Eastern Standard Time)","604756","Match,No Match","","null","","","","","","<div class='trialBorder'><div class='vertical-center'><img src='img/fixation2_sml.jpg'</img></div></div>","null","DELAY","","","","","","","","","","",""
"html-keyboard-response","163","397574","0.0-7.0-4.25","dstanley","bdp_wmem","Tue Nov 09 2021 13:23:40 GMT-0500 (Eastern Standard Time)","604756","Match,No Match","","983","","","","","","<div class='trialBorder'><div class='targDiv'><div class='tc'><img class='introPic' src='trustrating_stim/white_mw038.bmp'><br><font color='red'><strong>Keep</strong></font></div></div><div class='respDiv'><div class='respDivL'>Match<br>(e)</div><div class='respDivR'>No Match<br>(i)</div></div></div>","i","TARGET","1","trustrating_stim/white_mw038.bmp","1","noMatchOutcome","i","1500","trustrating_stim/white_mw038.bmp","red","Keep","REAL","1"
"html-keyboard-response","164","398075","0.0-7.0-5.25","dstanley","bdp_wmem","Tue Nov 09 2021 13:23:40 GMT-0500 (Eastern Standard Time)","604756","Match,No Match","","null","","","","","","<div class='trialBorder'><div class='vertical-center'><img src='img/correct.jpg'></div><div class='respDiv'><div class='respDivL'>Match<br>(e)</div><div class='respDivR'><font style='color:orange'>No Match<br>(i)</font></div></div></div>","null","FEEDBACK","","","","","","","","","","",""
"html-keyboard-response","165","398579","0.0-7.0-1.26","dstanley","bdp_wmem","Tue Nov 09 2021 13:23:40 GMT-0500 (Eastern Standard Time)","604756","Match,No Match","","null","","","","","","<div class='trialBorder'><div class='vertical-center'><img src='img/fixation2_sml.jpg'</img></div></div>","null","FIX","","","","","","","","","","",""
"html-keyboard-response","166","401581","0.0-7.0-2.26","dstanley","bdp_wmem","Tue Nov 09 2021 13:23:40 GMT-0500 (Eastern Standard Time)","604756","Match,No Match","","null","","","","","","<div class='trialBorder'><div class='vertical-center'><img style='vertical-align:center; align:center' src='img/fixation2_sml.jpg'></div><div class='arrayDiv2'><div class='tl'><img class='introPic' src='trustrating_stim/white_00807_941205_fb_edt.bmp'><br><font color='green'><strong>Share</strong></font></div><div class='tr'><img class='introPic' src='trustrating_stim/white_mw033.bmp'><br><font color='red'><strong>Keep</strong></font></div></div></div>","null","ARRAY","2","trustrating_stim/white_00807_941205_fb_edt.bmp,trustrating_stim/white_mw033.bmp","1,0","noMatchOutcome","i","3000","","","","",""
"html-keyboard-response","167","405586","0.0-7.0-3.26","dstanley","bdp_wmem","Tue Nov 09 2021 13:23:40 GMT-0500 (Eastern Standard Time)","604756","Match,No Match","","null","","","","","","<div class='trialBorder'><div class='vertical-center'><img src='img/fixation2_sml.jpg'</img></div></div>","null","DELAY","","","","","","","","","","",""
"html-keyboard-response","168","406938","0.0-7.0-4.26","dstanley","bdp_wmem","Tue Nov 09 2021 13:23:40 GMT-0500 (Eastern Standard Time)","604756","Match,No Match","","1350","","","","","","<div class='trialBorder'><div class='targDiv'><div class='tc'><img class='introPic' src='trustrating_stim/white_00807_941205_fb_edt.bmp'><br><font color='red'><strong>Keep</strong></font></div></div><div class='respDiv'><div class='respDivL'>Match<br>(e)</div><div class='respDivR'>No Match<br>(i)</div></div></div>","i","TARGET","2","trustrating_stim/white_00807_941205_fb_edt.bmp,trustrating_stim/white_mw033.bmp","1,0","noMatchOutcome","i","3000","trustrating_stim/white_00807_941205_fb_edt.bmp","red","Keep","REAL","1"
"html-keyboard-response","169","407442","0.0-7.0-5.26","dstanley","bdp_wmem","Tue Nov 09 2021 13:23:40 GMT-0500 (Eastern Standard Time)","604756","Match,No Match","","null","","","","","","<div class='trialBorder'><div class='vertical-center'><img src='img/correct.jpg'></div><div class='respDiv'><div class='respDivL'>Match<br>(e)</div><div class='respDivR'><font style='color:orange'>No Match<br>(i)</font></div></div></div>","null","FEEDBACK","","","","","","","","","","",""
"html-keyboard-response","170","407943","0.0-7.0-1.27","dstanley","bdp_wmem","Tue Nov 09 2021 13:23:40 GMT-0500 (Eastern Standard Time)","604756","Match,No Match","","null","","","","","","<div class='trialBorder'><div class='vertical-center'><img src='img/fixation2_sml.jpg'</img></div></div>","null","FIX","","","","","","","","","","",""
"html-keyboard-response","171","410945","0.0-7.0-2.27","dstanley","bdp_wmem","Tue Nov 09 2021 13:23:40 GMT-0500 (Eastern Standard Time)","604756","Match,No Match","","null","","","","","","<div class='trialBorder'><div class='vertical-center'><img style='vertical-align:center; align:center' src='img/fixation2_sml.jpg'></div><div class='arrayDiv2'><div class='tl'><img class='introPic' src='trustrating_stim/white_mw092.bmp'><br><font color='green'><strong>Share</strong></font></div><div class='tr'><img class='introPic' src='trustrating_stim/white_mw091.bmp'><br><font color='red'><strong>Keep</strong></font></div></div></div>","null","ARRAY","2","trustrating_stim/white_mw092.bmp,trustrating_stim/white_mw091.bmp","1,0","Match","e","3000","","","","",""
"html-keyboard-response","172","414949","0.0-7.0-3.27","dstanley","bdp_wmem","Tue Nov 09 2021 13:23:40 GMT-0500 (Eastern Standard Time)","604756","Match,No Match","","null","","","","","","<div class='trialBorder'><div class='vertical-center'><img src='img/fixation2_sml.jpg'</img></div></div>","null","DELAY","","","","","","","","","","",""
"html-keyboard-response","173","416309","0.0-7.0-4.27","dstanley","bdp_wmem","Tue Nov 09 2021 13:23:40 GMT-0500 (Eastern Standard Time)","604756","Match,No Match","","1358","","","","","","<div class='trialBorder'><div class='targDiv'><div class='tc'><img class='introPic' src='trustrating_stim/white_mw092.bmp'><br><font color='green'><strong>Share</strong></font></div></div><div class='respDiv'><div class='respDivL'>Match<br>(e)</div><div class='respDivR'>No Match<br>(i)</div></div></div>","e","TARGET","2","trustrating_stim/white_mw092.bmp,trustrating_stim/white_mw091.bmp","1,0","Match","e","3000","trustrating_stim/white_mw092.bmp","green","Share","REAL","1"
"html-keyboard-response","174","416813","0.0-7.0-5.27","dstanley","bdp_wmem","Tue Nov 09 2021 13:23:40 GMT-0500 (Eastern Standard Time)","604756","Match,No Match","","null","","","","","","<div class='trialBorder'><div class='vertical-center'><img src='img/correct.jpg'></div><div class='respDiv'><div class='respDivL'><font style='color:orange'>Match<br>(e)</font></div><div class='respDivR'>No Match<br>(i)</div></div></div>","null","FEEDBACK","","","","","","","","","","",""
"html-keyboard-response","175","417318","0.0-7.0-1.28","dstanley","bdp_wmem","Tue Nov 09 2021 13:23:40 GMT-0500 (Eastern Standard Time)","604756","Match,No Match","","null","","","","","","<div class='trialBorder'><div class='vertical-center'><img src='img/fixation2_sml.jpg'</img></div></div>","null","FIX","","","","","","","","","","",""
"html-keyboard-response","176","421822","0.0-7.0-2.28","dstanley","bdp_wmem","Tue Nov 09 2021 13:23:40 GMT-0500 (Eastern Standard Time)","604756","Match,No Match","","null","","","","","","<div class='trialBorder'><div class='vertical-center'><img style='vertical-align:center; align:center' src='img/fixation2_sml.jpg'></div><div class='arrayDiv3'><div class='tl'><img class='introPic' src='trustrating_stim/white_mw033.bmp'><br><font color='red'><strong>Keep</strong></font></div><div class='tc'><img class='introPic' src='trustrating_stim/white_mw070.bmp'><br><font color='green'><strong>Share</strong></font></div><div class='tr'><img class='introPic' src='trustrating_stim/white_mw013.bmp'><br><font color='red'><strong>Keep</strong></font></div></div></div>","null","ARRAY","3","trustrating_stim/white_mw033.bmp,trustrating_stim/white_mw070.bmp,trustrating_stim/white_mw013.bmp","0,1,0","noMatchOutcome","i","4500","","","","",""
"html-keyboard-response","177","425827","0.0-7.0-3.28","dstanley","bdp_wmem","Tue Nov 09 2021 13:23:40 GMT-0500 (Eastern Standard Time)","604756","Match,No Match","","null","","","","","","<div class='trialBorder'><div class='vertical-center'><img src='img/fixation2_sml.jpg'</img></div></div>","null","DELAY","","","","","","","","","","",""
"html-keyboard-response","178","427664","0.0-7.0-4.28","dstanley","bdp_wmem","Tue Nov 09 2021 13:23:40 GMT-0500 (Eastern Standard Time)","604756","Match,No Match","","1836","","","","","","<div class='trialBorder'><div class='targDiv'><div class='tc'><img class='introPic' src='trustrating_stim/white_mw033.bmp'><br><font color='green'><strong>Share</strong></font></div></div><div class='respDiv'><div class='respDivL'>Match<br>(e)</div><div class='respDivR'>No Match<br>(i)</div></div></div>","e","TARGET","3","trustrating_stim/white_mw033.bmp,trustrating_stim/white_mw070.bmp,trustrating_stim/white_mw013.bmp","0,1,0","noMatchOutcome","i","4500","trustrating_stim/white_mw033.bmp","green","Share","REAL","0"
"html-keyboard-response","179","428167","0.0-7.0-5.28","dstanley","bdp_wmem","Tue Nov 09 2021 13:23:40 GMT-0500 (Eastern Standard Time)","604756","Match,No Match","","null","","","","","","<div class='trialBorder'><div class='vertical-center'><img src='img/error.jpg'></div><div class='respDiv'><div class='respDivL'><font style='color:orange'>Match<br>(e)</font></div><div class='respDivR'>No Match<br>(i)</div></div></div>","null","FEEDBACK","","","","","","","","","","",""
"html-keyboard-response","180","428672","0.0-7.0-1.29","dstanley","bdp_wmem","Tue Nov 09 2021 13:23:40 GMT-0500 (Eastern Standard Time)","604756","Match,No Match","","null","","","","","","<div class='trialBorder'><div class='vertical-center'><img src='img/fixation2_sml.jpg'</img></div></div>","null","FIX","","","","","","","","","","",""
"html-keyboard-response","181","430177","0.0-7.0-2.29","dstanley","bdp_wmem","Tue Nov 09 2021 13:23:40 GMT-0500 (Eastern Standard Time)","604756","Match,No Match","","null","","","","","","<div class='trialBorder'><div class='vertical-center'><img style='vertical-align:center; align:center' src='img/fixation2_sml.jpg'></div><div class='arrayDiv1'><div class='tc'><img class='introPic' src='trustrating_stim/white_mw070.bmp'><br><font color='red'><strong>Keep</strong></font></div></div></div>","null","ARRAY","1","trustrating_stim/white_mw070.bmp","0","noMatchFace","i","1500","","","","",""
"html-keyboard-response","182","434181","0.0-7.0-3.29","dstanley","bdp_wmem","Tue Nov 09 2021 13:23:40 GMT-0500 (Eastern Standard Time)","604756","Match,No Match","","null","","","","","","<div class='trialBorder'><div class='vertical-center'><img src='img/fixation2_sml.jpg'</img></div></div>","null","DELAY","","","","","","","","","","",""
"html-keyboard-response","183","434955","0.0-7.0-4.29","dstanley","bdp_wmem","Tue Nov 09 2021 13:23:40 GMT-0500 (Eastern Standard Time)","604756","Match,No Match","","774","","","","","","<div class='trialBorder'><div class='targDiv'><div class='tc'><img class='introPic' src='trustrating_stim/white_mw015.bmp'><br><font color='red'><strong>Keep</strong></font></div></div><div class='respDiv'><div class='respDivL'>Match<br>(e)</div><div class='respDivR'>No Match<br>(i)</div></div></div>","i","TARGET","1","trustrating_stim/white_mw070.bmp","0","noMatchFace","i","1500","trustrating_stim/white_mw015.bmp","red","Keep","REAL","1"
"html-keyboard-response","184","435458","0.0-7.0-5.29","dstanley","bdp_wmem","Tue Nov 09 2021 13:23:40 GMT-0500 (Eastern Standard Time)","604756","Match,No Match","","null","","","","","","<div class='trialBorder'><div class='vertical-center'><img src='img/correct.jpg'></div><div class='respDiv'><div class='respDivL'>Match<br>(e)</div><div class='respDivR'><font style='color:orange'>No Match<br>(i)</font></div></div></div>","null","FEEDBACK","","","","","","","","","","",""
"html-keyboard-response","185","435962","0.0-7.0-1.30","dstanley","bdp_wmem","Tue Nov 09 2021 13:23:40 GMT-0500 (Eastern Standard Time)","604756","Match,No Match","","null","","","","","","<div class='trialBorder'><div class='vertical-center'><img src='img/fixation2_sml.jpg'</img></div></div>","null","FIX","","","","","","","","","","",""
"html-keyboard-response","186","438964","0.0-7.0-2.30","dstanley","bdp_wmem","Tue Nov 09 2021 13:23:40 GMT-0500 (Eastern Standard Time)","604756","Match,No Match","","null","","","","","","<div class='trialBorder'><div class='vertical-center'><img style='vertical-align:center; align:center' src='img/fixation2_sml.jpg'></div><div class='arrayDiv2'><div class='tl'><img class='introPic' src='trustrating_stim/white_mw038.bmp'><br><font color='green'><strong>Share</strong></font></div><div class='tr'><img class='introPic' src='trustrating_stim/white_mw013.bmp'><br><font color='red'><strong>Keep</strong></font></div></div></div>","null","ARRAY","2","trustrating_stim/white_mw038.bmp,trustrating_stim/white_mw013.bmp","1,0","noMatchOutcome","i","3000","","","","",""
"html-keyboard-response","187","442969","0.0-7.0-3.30","dstanley","bdp_wmem","Tue Nov 09 2021 13:23:40 GMT-0500 (Eastern Standard Time)","604756","Match,No Match","","null","","","","","","<div class='trialBorder'><div class='vertical-center'><img src='img/fixation2_sml.jpg'</img></div></div>","null","DELAY","","","","","","","","","","",""
"html-keyboard-response","188","444696","0.0-7.0-4.30","dstanley","bdp_wmem","Tue Nov 09 2021 13:23:40 GMT-0500 (Eastern Standard Time)","604756","Match,No Match","","1725","","","","","","<div class='trialBorder'><div class='targDiv'><div class='tc'><img class='introPic' src='trustrating_stim/white_mw038.bmp'><br><font color='red'><strong>Keep</strong></font></div></div><div class='respDiv'><div class='respDivL'>Match<br>(e)</div><div class='respDivR'>No Match<br>(i)</div></div></div>","i","TARGET","2","trustrating_stim/white_mw038.bmp,trustrating_stim/white_mw013.bmp","1,0","noMatchOutcome","i","3000","trustrating_stim/white_mw038.bmp","red","Keep","REAL","1"
"html-keyboard-response","189","445198","0.0-7.0-5.30","dstanley","bdp_wmem","Tue Nov 09 2021 13:23:40 GMT-0500 (Eastern Standard Time)","604756","Match,No Match","","null","","","","","","<div class='trialBorder'><div class='vertical-center'><img src='img/correct.jpg'></div><div class='respDiv'><div class='respDivL'>Match<br>(e)</div><div class='respDivR'><font style='color:orange'>No Match<br>(i)</font></div></div></div>","null","FEEDBACK","","","","","","","","","","",""
"html-keyboard-response","190","445703","0.0-7.0-1.31","dstanley","bdp_wmem","Tue Nov 09 2021 13:23:40 GMT-0500 (Eastern Standard Time)","604756","Match,No Match","","null","","","","","","<div class='trialBorder'><div class='vertical-center'><img src='img/fixation2_sml.jpg'</img></div></div>","null","FIX","","","","","","","","","","",""
"html-keyboard-response","191","447206","0.0-7.0-2.31","dstanley","bdp_wmem","Tue Nov 09 2021 13:23:40 GMT-0500 (Eastern Standard Time)","604756","Match,No Match","","null","","","","","","<div class='trialBorder'><div class='vertical-center'><img style='vertical-align:center; align:center' src='img/fixation2_sml.jpg'></div><div class='arrayDiv1'><div class='tc'><img class='introPic' src='trustrating_stim/white_mw038.bmp'><br><font color='green'><strong>Share</strong></font></div></div></div>","null","ARRAY","1","trustrating_stim/white_mw038.bmp","1","noMatchFace","i","1500","","","","",""
"html-keyboard-response","192","451212","0.0-7.0-3.31","dstanley","bdp_wmem","Tue Nov 09 2021 13:23:40 GMT-0500 (Eastern Standard Time)","604756","Match,No Match","","null","","","","","","<div class='trialBorder'><div class='vertical-center'><img src='img/fixation2_sml.jpg'</img></div></div>","null","DELAY","","","","","","","","","","",""
"html-keyboard-response","193","451972","0.0-7.0-4.31","dstanley","bdp_wmem","Tue Nov 09 2021 13:23:40 GMT-0500 (Eastern Standard Time)","604756","Match,No Match","","758","","","","","","<div class='trialBorder'><div class='targDiv'><div class='tc'><img class='introPic' src='trustrating_stim/white_mw091.bmp'><br><font color='green'><strong>Share</strong></font></div></div><div class='respDiv'><div class='respDivL'>Match<br>(e)</div><div class='respDivR'>No Match<br>(i)</div></div></div>","i","TARGET","1","trustrating_stim/white_mw038.bmp","1","noMatchFace","i","1500","trustrating_stim/white_mw091.bmp","green","Share","REAL","1"
