"event","trial","time","trialtype","numBlurs","subject_id","task","startTime","totalTime","labels","trial_type","trial_index","time_elapsed","internal_node_id","view_history","rt","success","stimulus","key_press","stimType","arraySize","arrayFaces","arrayOutcomes","matchType","corrResp","arrayDur","targFace","targCol","targOutcome","trialType","corr"
"blur","0","0","blurevent","1","5c9bfbfa325c3d001ad360a8","bdp_wmem","Wed Mar 15 2023 20:40:00 GMT-0700 (Pacific Daylight Time)","621293","Match,No Match","","","","","","","","","","","","","","","","","","","","",""
"focus","0","0","focusevent","","5c9bfbfa325c3d001ad360a8","bdp_wmem","Wed Mar 15 2023 20:40:00 GMT-0700 (Pacific Daylight Time)","621293","Match,No Match","","","","","","","","","","","","","","","","","","","","",""
"","","","","","5c9bfbfa325c3d001ad360a8","bdp_wmem","Wed Mar 15 2023 20:40:00 GMT-0700 (Pacific Daylight Time)","621293","Match,No Match","pavlovia","0","4","0.0-0.0","","","","","","","","","","","","","","","","",""
"","","","","","5c9bfbfa325c3d001ad360a8","bdp_wmem","Wed Mar 15 2023 20:40:00 GMT-0700 (Pacific Daylight Time)","621293","Match,No Match","instructions","1","1321","0.0-1.0","[{""page_index"":0,""viewing_time"":1316}]","1316","","","","","","","","","","","","","","",""
"fullscreenenter","2","4166","fullscreenenter","","5c9bfbfa325c3d001ad360a8","bdp_wmem","Wed Mar 15 2023 20:40:00 GMT-0700 (Pacific Daylight Time)","621293","Match,No Match","","","","","","","","","","","","","","","","","","","","",""
"","","","","","5c9bfbfa325c3d001ad360a8","bdp_wmem","Wed Mar 15 2023 20:40:00 GMT-0700 (Pacific Daylight Time)","621293","Match,No Match","fullscreen","2","5146","0.0-2.0","","","true","","","","","","","","","","","","","",""
"","","","","","5c9bfbfa325c3d001ad360a8","bdp_wmem","Wed Mar 15 2023 20:40:00 GMT-0700 (Pacific Daylight Time)","621293","Match,No Match","instructions","3","108651","0.0-4.0","[{""page_index"":0,""viewing_time"":35567},{""page_index"":1,""viewing_time"":33827},{""page_index"":2,""viewing_time"":14643},{""page_index"":3,""viewing_time"":9694},{""page_index"":4,""viewing_time"":9772}]","103504","","","","","","","","","","","","","","",""
"","","","","","5c9bfbfa325c3d001ad360a8","bdp_wmem","Wed Mar 15 2023 20:40:00 GMT-0700 (Pacific Daylight Time)","621293","Match,No Match","html-keyboard-response","4","109161","0.0-5.0-1.0","","null","","<div class='trialBorder'><div class='vertical-center'><img src='img/fixation2_sml.jpg'</img></div></div>","null","FIX","","","","","","","","","","",""
"","","","","","5c9bfbfa325c3d001ad360a8","bdp_wmem","Wed Mar 15 2023 20:40:00 GMT-0700 (Pacific Daylight Time)","621293","Match,No Match","html-keyboard-response","5","113673","0.0-5.0-2.0","","null","","<div class='trialBorder'><div class='vertical-center'><img style='vertical-align:center; align:center' src='img/fixation2_sml.jpg'></div><div class='arrayDiv3'><div class='tl'><img class='introPic' src='trustrating_stim/white_mw013.bmp'><br><font color='green'><strong>Share</strong></font></div><div class='tc'><img class='introPic' src='trustrating_stim/white_mw092.bmp'><br><font color='red'><strong>Keep</strong></font></div><div class='tr'><img class='introPic' src='trustrating_stim/white_mw070.bmp'><br><font color='red'><strong>Keep</strong></font></div></div></div>","null","ARRAY","3","trustrating_stim/white_mw013.bmp,trustrating_stim/white_mw092.bmp,trustrating_stim/white_mw070.bmp","1,0,0","Match","e","4500","","","","",""
"","","","","","5c9bfbfa325c3d001ad360a8","bdp_wmem","Wed Mar 15 2023 20:40:00 GMT-0700 (Pacific Daylight Time)","621293","Match,No Match","html-keyboard-response","6","117678","0.0-5.0-3.0","","null","","<div class='trialBorder'><div class='vertical-center'><img src='img/fixation2_sml.jpg'</img></div></div>","null","DELAY","","","","","","","","","","",""
"","","","","","5c9bfbfa325c3d001ad360a8","bdp_wmem","Wed Mar 15 2023 20:40:00 GMT-0700 (Pacific Daylight Time)","621293","Match,No Match","html-keyboard-response","7","120312","0.0-5.0-4.0","","2632","","<div class='trialBorder'><div class='targDiv'><div class='tc'><img class='introPic' src='trustrating_stim/white_mw092.bmp'><br><font color='red'><strong>Keep</strong></font></div></div><div class='respDiv'><div class='respDivL'>Match<br>(e)</div><div class='respDivR'>No Match<br>(i)</div></div></div>","e","TARGET","3","trustrating_stim/white_mw013.bmp,trustrating_stim/white_mw092.bmp,trustrating_stim/white_mw070.bmp","1,0,0","Match","e","4500","trustrating_stim/white_mw092.bmp","red","Keep","PRACTICE","1"
"","","","","","5c9bfbfa325c3d001ad360a8","bdp_wmem","Wed Mar 15 2023 20:40:00 GMT-0700 (Pacific Daylight Time)","621293","Match,No Match","html-keyboard-response","8","120817","0.0-5.0-5.0","","null","","<div class='trialBorder'><div class='vertical-center'><img src='img/correct.jpg'></div><div class='respDiv'><div class='respDivL'><font style='color:orange'>Match<br>(e)</font></div><div class='respDivR'>No Match<br>(i)</div></div></div>","null","FEEDBACK","","","","","","","","","","",""
"","","","","","5c9bfbfa325c3d001ad360a8","bdp_wmem","Wed Mar 15 2023 20:40:00 GMT-0700 (Pacific Daylight Time)","621293","Match,No Match","html-keyboard-response","9","121324","0.0-5.0-1.1","","null","","<div class='trialBorder'><div class='vertical-center'><img src='img/fixation2_sml.jpg'</img></div></div>","null","FIX","","","","","","","","","","",""
"","","","","","5c9bfbfa325c3d001ad360a8","bdp_wmem","Wed Mar 15 2023 20:40:00 GMT-0700 (Pacific Daylight Time)","621293","Match,No Match","html-keyboard-response","10","125828","0.0-5.0-2.1","","null","","<div class='trialBorder'><div class='vertical-center'><img style='vertical-align:center; align:center' src='img/fixation2_sml.jpg'></div><div class='arrayDiv3'><div class='tl'><img class='introPic' src='trustrating_stim/white_mw070.bmp'><br><font color='red'><strong>Keep</strong></font></div><div class='tc'><img class='introPic' src='trustrating_stim/white_mw078.bmp'><br><font color='green'><strong>Share</strong></font></div><div class='tr'><img class='introPic' src='trustrating_stim/white_mw092.bmp'><br><font color='green'><strong>Share</strong></font></div></div></div>","null","ARRAY","3","trustrating_stim/white_mw070.bmp,trustrating_stim/white_mw078.bmp,trustrating_stim/white_mw092.bmp","0,1,1","noMatchOutcome","i","4500","","","","",""
"","","","","","5c9bfbfa325c3d001ad360a8","bdp_wmem","Wed Mar 15 2023 20:40:00 GMT-0700 (Pacific Daylight Time)","621293","Match,No Match","html-keyboard-response","11","129836","0.0-5.0-3.1","","null","","<div class='trialBorder'><div class='vertical-center'><img src='img/fixation2_sml.jpg'</img></div></div>","null","DELAY","","","","","","","","","","",""
"","","","","","5c9bfbfa325c3d001ad360a8","bdp_wmem","Wed Mar 15 2023 20:40:00 GMT-0700 (Pacific Daylight Time)","621293","Match,No Match","html-keyboard-response","12","131973","0.0-5.0-4.1","","2136","","<div class='trialBorder'><div class='targDiv'><div class='tc'><img class='introPic' src='trustrating_stim/white_mw070.bmp'><br><font color='green'><strong>Share</strong></font></div></div><div class='respDiv'><div class='respDivL'>Match<br>(e)</div><div class='respDivR'>No Match<br>(i)</div></div></div>","e","TARGET","3","trustrating_stim/white_mw070.bmp,trustrating_stim/white_mw078.bmp,trustrating_stim/white_mw092.bmp","0,1,1","noMatchOutcome","i","4500","trustrating_stim/white_mw070.bmp","green","Share","PRACTICE","0"
"","","","","","5c9bfbfa325c3d001ad360a8","bdp_wmem","Wed Mar 15 2023 20:40:00 GMT-0700 (Pacific Daylight Time)","621293","Match,No Match","html-keyboard-response","13","132476","0.0-5.0-5.1","","null","","<div class='trialBorder'><div class='vertical-center'><img src='img/error.jpg'></div><div class='respDiv'><div class='respDivL'><font style='color:orange'>Match<br>(e)</font></div><div class='respDivR'>No Match<br>(i)</div></div></div>","null","FEEDBACK","","","","","","","","","","",""
"","","","","","5c9bfbfa325c3d001ad360a8","bdp_wmem","Wed Mar 15 2023 20:40:00 GMT-0700 (Pacific Daylight Time)","621293","Match,No Match","html-keyboard-response","14","132979","0.0-5.0-1.2","","null","","<div class='trialBorder'><div class='vertical-center'><img src='img/fixation2_sml.jpg'</img></div></div>","null","FIX","","","","","","","","","","",""
"","","","","","5c9bfbfa325c3d001ad360a8","bdp_wmem","Wed Mar 15 2023 20:40:00 GMT-0700 (Pacific Daylight Time)","621293","Match,No Match","html-keyboard-response","15","135986","0.0-5.0-2.2","","null","","<div class='trialBorder'><div class='vertical-center'><img style='vertical-align:center; align:center' src='img/fixation2_sml.jpg'></div><div class='arrayDiv2'><div class='tl'><img class='introPic' src='trustrating_stim/white_mw010.bmp'><br><font color='red'><strong>Keep</strong></font></div><div class='tr'><img class='introPic' src='trustrating_stim/white_mw038.bmp'><br><font color='green'><strong>Share</strong></font></div></div></div>","null","ARRAY","2","trustrating_stim/white_mw010.bmp,trustrating_stim/white_mw038.bmp","0,1","noMatchFace","i","3000","","","","",""
"","","","","","5c9bfbfa325c3d001ad360a8","bdp_wmem","Wed Mar 15 2023 20:40:00 GMT-0700 (Pacific Daylight Time)","621293","Match,No Match","html-keyboard-response","16","139994","0.0-5.0-3.2","","null","","<div class='trialBorder'><div class='vertical-center'><img src='img/fixation2_sml.jpg'</img></div></div>","null","DELAY","","","","","","","","","","",""
"","","","","","5c9bfbfa325c3d001ad360a8","bdp_wmem","Wed Mar 15 2023 20:40:00 GMT-0700 (Pacific Daylight Time)","621293","Match,No Match","html-keyboard-response","17","142094","0.0-5.0-4.2","","2097","","<div class='trialBorder'><div class='targDiv'><div class='tc'><img class='introPic' src='trustrating_stim/white_mw085.bmp'><br><font color='green'><strong>Share</strong></font></div></div><div class='respDiv'><div class='respDivL'>Match<br>(e)</div><div class='respDivR'>No Match<br>(i)</div></div></div>","i","TARGET","2","trustrating_stim/white_mw010.bmp,trustrating_stim/white_mw038.bmp","0,1","noMatchFace","i","3000","trustrating_stim/white_mw085.bmp","green","Share","PRACTICE","1"
"","","","","","5c9bfbfa325c3d001ad360a8","bdp_wmem","Wed Mar 15 2023 20:40:00 GMT-0700 (Pacific Daylight Time)","621293","Match,No Match","html-keyboard-response","18","142595","0.0-5.0-5.2","","null","","<div class='trialBorder'><div class='vertical-center'><img src='img/correct.jpg'></div><div class='respDiv'><div class='respDivL'>Match<br>(e)</div><div class='respDivR'><font style='color:orange'>No Match<br>(i)</font></div></div></div>","null","FEEDBACK","","","","","","","","","","",""
"","","","","","5c9bfbfa325c3d001ad360a8","bdp_wmem","Wed Mar 15 2023 20:40:00 GMT-0700 (Pacific Daylight Time)","621293","Match,No Match","html-keyboard-response","19","143105","0.0-5.0-1.3","","null","","<div class='trialBorder'><div class='vertical-center'><img src='img/fixation2_sml.jpg'</img></div></div>","null","FIX","","","","","","","","","","",""
"","","","","","5c9bfbfa325c3d001ad360a8","bdp_wmem","Wed Mar 15 2023 20:40:00 GMT-0700 (Pacific Daylight Time)","621293","Match,No Match","html-keyboard-response","20","144611","0.0-5.0-2.3","","null","","<div class='trialBorder'><div class='vertical-center'><img style='vertical-align:center; align:center' src='img/fixation2_sml.jpg'></div><div class='arrayDiv1'><div class='tc'><img class='introPic' src='trustrating_stim/white_mw040.bmp'><br><font color='green'><strong>Share</strong></font></div></div></div>","null","ARRAY","1","trustrating_stim/white_mw040.bmp","1","Match","e","1500","","","","",""
"","","","","","5c9bfbfa325c3d001ad360a8","bdp_wmem","Wed Mar 15 2023 20:40:00 GMT-0700 (Pacific Daylight Time)","621293","Match,No Match","html-keyboard-response","21","148616","0.0-5.0-3.3","","null","","<div class='trialBorder'><div class='vertical-center'><img src='img/fixation2_sml.jpg'</img></div></div>","null","DELAY","","","","","","","","","","",""
"","","","","","5c9bfbfa325c3d001ad360a8","bdp_wmem","Wed Mar 15 2023 20:40:00 GMT-0700 (Pacific Daylight Time)","621293","Match,No Match","html-keyboard-response","22","149757","0.0-5.0-4.3","","1138","","<div class='trialBorder'><div class='targDiv'><div class='tc'><img class='introPic' src='trustrating_stim/white_mw040.bmp'><br><font color='green'><strong>Share</strong></font></div></div><div class='respDiv'><div class='respDivL'>Match<br>(e)</div><div class='respDivR'>No Match<br>(i)</div></div></div>","e","TARGET","1","trustrating_stim/white_mw040.bmp","1","Match","e","1500","trustrating_stim/white_mw040.bmp","green","Share","PRACTICE","1"
"","","","","","5c9bfbfa325c3d001ad360a8","bdp_wmem","Wed Mar 15 2023 20:40:00 GMT-0700 (Pacific Daylight Time)","621293","Match,No Match","html-keyboard-response","23","150263","0.0-5.0-5.3","","null","","<div class='trialBorder'><div class='vertical-center'><img src='img/correct.jpg'></div><div class='respDiv'><div class='respDivL'><font style='color:orange'>Match<br>(e)</font></div><div class='respDivR'>No Match<br>(i)</div></div></div>","null","FEEDBACK","","","","","","","","","","",""
"","","","","","5c9bfbfa325c3d001ad360a8","bdp_wmem","Wed Mar 15 2023 20:40:00 GMT-0700 (Pacific Daylight Time)","621293","Match,No Match","html-keyboard-response","24","150770","0.0-5.0-1.4","","null","","<div class='trialBorder'><div class='vertical-center'><img src='img/fixation2_sml.jpg'</img></div></div>","null","FIX","","","","","","","","","","",""
"","","","","","5c9bfbfa325c3d001ad360a8","bdp_wmem","Wed Mar 15 2023 20:40:00 GMT-0700 (Pacific Daylight Time)","621293","Match,No Match","html-keyboard-response","25","152281","0.0-5.0-2.4","","null","","<div class='trialBorder'><div class='vertical-center'><img style='vertical-align:center; align:center' src='img/fixation2_sml.jpg'></div><div class='arrayDiv1'><div class='tc'><img class='introPic' src='trustrating_stim/white_mw078.bmp'><br><font color='red'><strong>Keep</strong></font></div></div></div>","null","ARRAY","1","trustrating_stim/white_mw078.bmp","0","noMatchFace","i","1500","","","","",""
"","","","","","5c9bfbfa325c3d001ad360a8","bdp_wmem","Wed Mar 15 2023 20:40:00 GMT-0700 (Pacific Daylight Time)","621293","Match,No Match","html-keyboard-response","26","156289","0.0-5.0-3.4","","null","","<div class='trialBorder'><div class='vertical-center'><img src='img/fixation2_sml.jpg'</img></div></div>","null","DELAY","","","","","","","","","","",""
"","","","","","5c9bfbfa325c3d001ad360a8","bdp_wmem","Wed Mar 15 2023 20:40:00 GMT-0700 (Pacific Daylight Time)","621293","Match,No Match","html-keyboard-response","27","157374","0.0-5.0-4.4","","1084","","<div class='trialBorder'><div class='targDiv'><div class='tc'><img class='introPic' src='trustrating_stim/white_mw091.bmp'><br><font color='red'><strong>Keep</strong></font></div></div><div class='respDiv'><div class='respDivL'>Match<br>(e)</div><div class='respDivR'>No Match<br>(i)</div></div></div>","i","TARGET","1","trustrating_stim/white_mw078.bmp","0","noMatchFace","i","1500","trustrating_stim/white_mw091.bmp","red","Keep","PRACTICE","1"
"","","","","","5c9bfbfa325c3d001ad360a8","bdp_wmem","Wed Mar 15 2023 20:40:00 GMT-0700 (Pacific Daylight Time)","621293","Match,No Match","html-keyboard-response","28","157880","0.0-5.0-5.4","","null","","<div class='trialBorder'><div class='vertical-center'><img src='img/correct.jpg'></div><div class='respDiv'><div class='respDivL'>Match<br>(e)</div><div class='respDivR'><font style='color:orange'>No Match<br>(i)</font></div></div></div>","null","FEEDBACK","","","","","","","","","","",""
"","","","","","5c9bfbfa325c3d001ad360a8","bdp_wmem","Wed Mar 15 2023 20:40:00 GMT-0700 (Pacific Daylight Time)","621293","Match,No Match","html-keyboard-response","29","158389","0.0-5.0-1.5","","null","","<div class='trialBorder'><div class='vertical-center'><img src='img/fixation2_sml.jpg'</img></div></div>","null","FIX","","","","","","","","","","",""
"","","","","","5c9bfbfa325c3d001ad360a8","bdp_wmem","Wed Mar 15 2023 20:40:00 GMT-0700 (Pacific Daylight Time)","621293","Match,No Match","html-keyboard-response","30","161397","0.0-5.0-2.5","","null","","<div class='trialBorder'><div class='vertical-center'><img style='vertical-align:center; align:center' src='img/fixation2_sml.jpg'></div><div class='arrayDiv2'><div class='tl'><img class='introPic' src='trustrating_stim/white_mw042.bmp'><br><font color='green'><strong>Share</strong></font></div><div class='tr'><img class='introPic' src='trustrating_stim/white_mw013.bmp'><br><font color='red'><strong>Keep</strong></font></div></div></div>","null","ARRAY","2","trustrating_stim/white_mw042.bmp,trustrating_stim/white_mw013.bmp","1,0","Match","e","3000","","","","",""
"","","","","","5c9bfbfa325c3d001ad360a8","bdp_wmem","Wed Mar 15 2023 20:40:00 GMT-0700 (Pacific Daylight Time)","621293","Match,No Match","html-keyboard-response","31","165401","0.0-5.0-3.5","","null","","<div class='trialBorder'><div class='vertical-center'><img src='img/fixation2_sml.jpg'</img></div></div>","null","DELAY","","","","","","","","","","",""
"","","","","","5c9bfbfa325c3d001ad360a8","bdp_wmem","Wed Mar 15 2023 20:40:00 GMT-0700 (Pacific Daylight Time)","621293","Match,No Match","html-keyboard-response","32","166971","0.0-5.0-4.5","","1569","","<div class='trialBorder'><div class='targDiv'><div class='tc'><img class='introPic' src='trustrating_stim/white_mw013.bmp'><br><font color='red'><strong>Keep</strong></font></div></div><div class='respDiv'><div class='respDivL'>Match<br>(e)</div><div class='respDivR'>No Match<br>(i)</div></div></div>","e","TARGET","2","trustrating_stim/white_mw042.bmp,trustrating_stim/white_mw013.bmp","1,0","Match","e","3000","trustrating_stim/white_mw013.bmp","red","Keep","PRACTICE","1"
"","","","","","5c9bfbfa325c3d001ad360a8","bdp_wmem","Wed Mar 15 2023 20:40:00 GMT-0700 (Pacific Daylight Time)","621293","Match,No Match","html-keyboard-response","33","167479","0.0-5.0-5.5","","null","","<div class='trialBorder'><div class='vertical-center'><img src='img/correct.jpg'></div><div class='respDiv'><div class='respDivL'><font style='color:orange'>Match<br>(e)</font></div><div class='respDivR'>No Match<br>(i)</div></div></div>","null","FEEDBACK","","","","","","","","","","",""
"","","","","","5c9bfbfa325c3d001ad360a8","bdp_wmem","Wed Mar 15 2023 20:40:00 GMT-0700 (Pacific Daylight Time)","621293","Match,No Match","instructions","34","169100","0.0-6.0","[{""page_index"":0,""viewing_time"":1621}]","1621","","","","","","","","","","","","","","",""
"","","","","","5c9bfbfa325c3d001ad360a8","bdp_wmem","Wed Mar 15 2023 20:40:00 GMT-0700 (Pacific Daylight Time)","621293","Match,No Match","html-keyboard-response","35","169605","0.0-7.0-1.0","","null","","<div class='trialBorder'><div class='vertical-center'><img src='img/fixation2_sml.jpg'</img></div></div>","null","FIX","","","","","","","","","","",""
"","","","","","5c9bfbfa325c3d001ad360a8","bdp_wmem","Wed Mar 15 2023 20:40:00 GMT-0700 (Pacific Daylight Time)","621293","Match,No Match","html-keyboard-response","36","172612","0.0-7.0-2.0","","null","","<div class='trialBorder'><div class='vertical-center'><img style='vertical-align:center; align:center' src='img/fixation2_sml.jpg'></div><div class='arrayDiv2'><div class='tl'><img class='introPic' src='trustrating_stim/white_mw040.bmp'><br><font color='green'><strong>Share</strong></font></div><div class='tr'><img class='introPic' src='trustrating_stim/white_mw091.bmp'><br><font color='red'><strong>Keep</strong></font></div></div></div>","null","ARRAY","2","trustrating_stim/white_mw040.bmp,trustrating_stim/white_mw091.bmp","1,0","noMatchOutcome","i","3000","","","","",""
"","","","","","5c9bfbfa325c3d001ad360a8","bdp_wmem","Wed Mar 15 2023 20:40:00 GMT-0700 (Pacific Daylight Time)","621293","Match,No Match","html-keyboard-response","37","176614","0.0-7.0-3.0","","null","","<div class='trialBorder'><div class='vertical-center'><img src='img/fixation2_sml.jpg'</img></div></div>","null","DELAY","","","","","","","","","","",""
"","","","","","5c9bfbfa325c3d001ad360a8","bdp_wmem","Wed Mar 15 2023 20:40:00 GMT-0700 (Pacific Daylight Time)","621293","Match,No Match","html-keyboard-response","38","178327","0.0-7.0-4.0","","1712","","<div class='trialBorder'><div class='targDiv'><div class='tc'><img class='introPic' src='trustrating_stim/white_mw091.bmp'><br><font color='green'><strong>Share</strong></font></div></div><div class='respDiv'><div class='respDivL'>Match<br>(e)</div><div class='respDivR'>No Match<br>(i)</div></div></div>","i","TARGET","2","trustrating_stim/white_mw040.bmp,trustrating_stim/white_mw091.bmp","1,0","noMatchOutcome","i","3000","trustrating_stim/white_mw091.bmp","green","Share","REAL","1"
"","","","","","5c9bfbfa325c3d001ad360a8","bdp_wmem","Wed Mar 15 2023 20:40:00 GMT-0700 (Pacific Daylight Time)","621293","Match,No Match","html-keyboard-response","39","178832","0.0-7.0-5.0","","null","","<div class='trialBorder'><div class='vertical-center'><img src='img/correct.jpg'></div><div class='respDiv'><div class='respDivL'>Match<br>(e)</div><div class='respDivR'><font style='color:orange'>No Match<br>(i)</font></div></div></div>","null","FEEDBACK","","","","","","","","","","",""
"","","","","","5c9bfbfa325c3d001ad360a8","bdp_wmem","Wed Mar 15 2023 20:40:00 GMT-0700 (Pacific Daylight Time)","621293","Match,No Match","html-keyboard-response","40","179339","0.0-7.0-1.1","","null","","<div class='trialBorder'><div class='vertical-center'><img src='img/fixation2_sml.jpg'</img></div></div>","null","FIX","","","","","","","","","","",""
"","","","","","5c9bfbfa325c3d001ad360a8","bdp_wmem","Wed Mar 15 2023 20:40:00 GMT-0700 (Pacific Daylight Time)","621293","Match,No Match","html-keyboard-response","41","182343","0.0-7.0-2.1","","null","","<div class='trialBorder'><div class='vertical-center'><img style='vertical-align:center; align:center' src='img/fixation2_sml.jpg'></div><div class='arrayDiv2'><div class='tl'><img class='introPic' src='trustrating_stim/white_mw003.bmp'><br><font color='green'><strong>Share</strong></font></div><div class='tr'><img class='introPic' src='trustrating_stim/white_mw042.bmp'><br><font color='red'><strong>Keep</strong></font></div></div></div>","null","ARRAY","2","trustrating_stim/white_mw003.bmp,trustrating_stim/white_mw042.bmp","1,0","Match","e","3000","","","","",""
"","","","","","5c9bfbfa325c3d001ad360a8","bdp_wmem","Wed Mar 15 2023 20:40:00 GMT-0700 (Pacific Daylight Time)","621293","Match,No Match","html-keyboard-response","42","186346","0.0-7.0-3.1","","null","","<div class='trialBorder'><div class='vertical-center'><img src='img/fixation2_sml.jpg'</img></div></div>","null","DELAY","","","","","","","","","","",""
"","","","","","5c9bfbfa325c3d001ad360a8","bdp_wmem","Wed Mar 15 2023 20:40:00 GMT-0700 (Pacific Daylight Time)","621293","Match,No Match","html-keyboard-response","43","188060","0.0-7.0-4.1","","1712","","<div class='trialBorder'><div class='targDiv'><div class='tc'><img class='introPic' src='trustrating_stim/white_mw042.bmp'><br><font color='red'><strong>Keep</strong></font></div></div><div class='respDiv'><div class='respDivL'>Match<br>(e)</div><div class='respDivR'>No Match<br>(i)</div></div></div>","e","TARGET","2","trustrating_stim/white_mw003.bmp,trustrating_stim/white_mw042.bmp","1,0","Match","e","3000","trustrating_stim/white_mw042.bmp","red","Keep","REAL","1"
"","","","","","5c9bfbfa325c3d001ad360a8","bdp_wmem","Wed Mar 15 2023 20:40:00 GMT-0700 (Pacific Daylight Time)","621293","Match,No Match","html-keyboard-response","44","188565","0.0-7.0-5.1","","null","","<div class='trialBorder'><div class='vertical-center'><img src='img/correct.jpg'></div><div class='respDiv'><div class='respDivL'><font style='color:orange'>Match<br>(e)</font></div><div class='respDivR'>No Match<br>(i)</div></div></div>","null","FEEDBACK","","","","","","","","","","",""
"","","","","","5c9bfbfa325c3d001ad360a8","bdp_wmem","Wed Mar 15 2023 20:40:00 GMT-0700 (Pacific Daylight Time)","621293","Match,No Match","html-keyboard-response","45","189073","0.0-7.0-1.2","","null","","<div class='trialBorder'><div class='vertical-center'><img src='img/fixation2_sml.jpg'</img></div></div>","null","FIX","","","","","","","","","","",""
"","","","","","5c9bfbfa325c3d001ad360a8","bdp_wmem","Wed Mar 15 2023 20:40:00 GMT-0700 (Pacific Daylight Time)","621293","Match,No Match","html-keyboard-response","46","192085","0.0-7.0-2.2","","null","","<div class='trialBorder'><div class='vertical-center'><img style='vertical-align:center; align:center' src='img/fixation2_sml.jpg'></div><div class='arrayDiv2'><div class='tl'><img class='introPic' src='trustrating_stim/white_mw038.bmp'><br><font color='red'><strong>Keep</strong></font></div><div class='tr'><img class='introPic' src='trustrating_stim/white_mw040.bmp'><br><font color='green'><strong>Share</strong></font></div></div></div>","null","ARRAY","2","trustrating_stim/white_mw038.bmp,trustrating_stim/white_mw040.bmp","0,1","Match","e","3000","","","","",""
"","","","","","5c9bfbfa325c3d001ad360a8","bdp_wmem","Wed Mar 15 2023 20:40:00 GMT-0700 (Pacific Daylight Time)","621293","Match,No Match","html-keyboard-response","47","196094","0.0-7.0-3.2","","null","","<div class='trialBorder'><div class='vertical-center'><img src='img/fixation2_sml.jpg'</img></div></div>","null","DELAY","","","","","","","","","","",""
"","","","","","5c9bfbfa325c3d001ad360a8","bdp_wmem","Wed Mar 15 2023 20:40:00 GMT-0700 (Pacific Daylight Time)","621293","Match,No Match","html-keyboard-response","48","197123","0.0-7.0-4.2","","1027","","<div class='trialBorder'><div class='targDiv'><div class='tc'><img class='introPic' src='trustrating_stim/white_mw038.bmp'><br><font color='red'><strong>Keep</strong></font></div></div><div class='respDiv'><div class='respDivL'>Match<br>(e)</div><div class='respDivR'>No Match<br>(i)</div></div></div>","e","TARGET","2","trustrating_stim/white_mw038.bmp,trustrating_stim/white_mw040.bmp","0,1","Match","e","3000","trustrating_stim/white_mw038.bmp","red","Keep","REAL","1"
"","","","","","5c9bfbfa325c3d001ad360a8","bdp_wmem","Wed Mar 15 2023 20:40:00 GMT-0700 (Pacific Daylight Time)","621293","Match,No Match","html-keyboard-response","49","197631","0.0-7.0-5.2","","null","","<div class='trialBorder'><div class='vertical-center'><img src='img/correct.jpg'></div><div class='respDiv'><div class='respDivL'><font style='color:orange'>Match<br>(e)</font></div><div class='respDivR'>No Match<br>(i)</div></div></div>","null","FEEDBACK","","","","","","","","","","",""
"","","","","","5c9bfbfa325c3d001ad360a8","bdp_wmem","Wed Mar 15 2023 20:40:00 GMT-0700 (Pacific Daylight Time)","621293","Match,No Match","html-keyboard-response","50","198138","0.0-7.0-1.3","","null","","<div class='trialBorder'><div class='vertical-center'><img src='img/fixation2_sml.jpg'</img></div></div>","null","FIX","","","","","","","","","","",""
"","","","","","5c9bfbfa325c3d001ad360a8","bdp_wmem","Wed Mar 15 2023 20:40:00 GMT-0700 (Pacific Daylight Time)","621293","Match,No Match","html-keyboard-response","51","201145","0.0-7.0-2.3","","null","","<div class='trialBorder'><div class='vertical-center'><img style='vertical-align:center; align:center' src='img/fixation2_sml.jpg'></div><div class='arrayDiv2'><div class='tl'><img class='introPic' src='trustrating_stim/white_mw013.bmp'><br><font color='red'><strong>Keep</strong></font></div><div class='tr'><img class='introPic' src='trustrating_stim/white_mw010.bmp'><br><font color='green'><strong>Share</strong></font></div></div></div>","null","ARRAY","2","trustrating_stim/white_mw013.bmp,trustrating_stim/white_mw010.bmp","0,1","noMatchOutcome","i","3000","","","","",""
"","","","","","5c9bfbfa325c3d001ad360a8","bdp_wmem","Wed Mar 15 2023 20:40:00 GMT-0700 (Pacific Daylight Time)","621293","Match,No Match","html-keyboard-response","52","205152","0.0-7.0-3.3","","null","","<div class='trialBorder'><div class='vertical-center'><img src='img/fixation2_sml.jpg'</img></div></div>","null","DELAY","","","","","","","","","","",""
"","","","","","5c9bfbfa325c3d001ad360a8","bdp_wmem","Wed Mar 15 2023 20:40:00 GMT-0700 (Pacific Daylight Time)","621293","Match,No Match","html-keyboard-response","53","206202","0.0-7.0-4.3","","1047","","<div class='trialBorder'><div class='targDiv'><div class='tc'><img class='introPic' src='trustrating_stim/white_mw013.bmp'><br><font color='green'><strong>Share</strong></font></div></div><div class='respDiv'><div class='respDivL'>Match<br>(e)</div><div class='respDivR'>No Match<br>(i)</div></div></div>","e","TARGET","2","trustrating_stim/white_mw013.bmp,trustrating_stim/white_mw010.bmp","0,1","noMatchOutcome","i","3000","trustrating_stim/white_mw013.bmp","green","Share","REAL","0"
"","","","","","5c9bfbfa325c3d001ad360a8","bdp_wmem","Wed Mar 15 2023 20:40:00 GMT-0700 (Pacific Daylight Time)","621293","Match,No Match","html-keyboard-response","54","206709","0.0-7.0-5.3","","null","","<div class='trialBorder'><div class='vertical-center'><img src='img/error.jpg'></div><div class='respDiv'><div class='respDivL'><font style='color:orange'>Match<br>(e)</font></div><div class='respDivR'>No Match<br>(i)</div></div></div>","null","FEEDBACK","","","","","","","","","","",""
"","","","","","5c9bfbfa325c3d001ad360a8","bdp_wmem","Wed Mar 15 2023 20:40:00 GMT-0700 (Pacific Daylight Time)","621293","Match,No Match","html-keyboard-response","55","207213","0.0-7.0-1.4","","null","","<div class='trialBorder'><div class='vertical-center'><img src='img/fixation2_sml.jpg'</img></div></div>","null","FIX","","","","","","","","","","",""
"","","","","","5c9bfbfa325c3d001ad360a8","bdp_wmem","Wed Mar 15 2023 20:40:00 GMT-0700 (Pacific Daylight Time)","621293","Match,No Match","html-keyboard-response","56","208723","0.0-7.0-2.4","","null","","<div class='trialBorder'><div class='vertical-center'><img style='vertical-align:center; align:center' src='img/fixation2_sml.jpg'></div><div class='arrayDiv1'><div class='tc'><img class='introPic' src='trustrating_stim/white_mw003.bmp'><br><font color='green'><strong>Share</strong></font></div></div></div>","null","ARRAY","1","trustrating_stim/white_mw003.bmp","1","noMatchOutcome","i","1500","","","","",""
"","","","","","5c9bfbfa325c3d001ad360a8","bdp_wmem","Wed Mar 15 2023 20:40:00 GMT-0700 (Pacific Daylight Time)","621293","Match,No Match","html-keyboard-response","57","212727","0.0-7.0-3.4","","null","","<div class='trialBorder'><div class='vertical-center'><img src='img/fixation2_sml.jpg'</img></div></div>","null","DELAY","","","","","","","","","","",""
"","","","","","5c9bfbfa325c3d001ad360a8","bdp_wmem","Wed Mar 15 2023 20:40:00 GMT-0700 (Pacific Daylight Time)","621293","Match,No Match","html-keyboard-response","58","213853","0.0-7.0-4.4","","1125","","<div class='trialBorder'><div class='targDiv'><div class='tc'><img class='introPic' src='trustrating_stim/white_mw003.bmp'><br><font color='red'><strong>Keep</strong></font></div></div><div class='respDiv'><div class='respDivL'>Match<br>(e)</div><div class='respDivR'>No Match<br>(i)</div></div></div>","i","TARGET","1","trustrating_stim/white_mw003.bmp","1","noMatchOutcome","i","1500","trustrating_stim/white_mw003.bmp","red","Keep","REAL","1"
"","","","","","5c9bfbfa325c3d001ad360a8","bdp_wmem","Wed Mar 15 2023 20:40:00 GMT-0700 (Pacific Daylight Time)","621293","Match,No Match","html-keyboard-response","59","214355","0.0-7.0-5.4","","null","","<div class='trialBorder'><div class='vertical-center'><img src='img/correct.jpg'></div><div class='respDiv'><div class='respDivL'>Match<br>(e)</div><div class='respDivR'><font style='color:orange'>No Match<br>(i)</font></div></div></div>","null","FEEDBACK","","","","","","","","","","",""
"","","","","","5c9bfbfa325c3d001ad360a8","bdp_wmem","Wed Mar 15 2023 20:40:00 GMT-0700 (Pacific Daylight Time)","621293","Match,No Match","html-keyboard-response","60","214859","0.0-7.0-1.5","","null","","<div class='trialBorder'><div class='vertical-center'><img src='img/fixation2_sml.jpg'</img></div></div>","null","FIX","","","","","","","","","","",""
"","","","","","5c9bfbfa325c3d001ad360a8","bdp_wmem","Wed Mar 15 2023 20:40:00 GMT-0700 (Pacific Daylight Time)","621293","Match,No Match","html-keyboard-response","61","216370","0.0-7.0-2.5","","null","","<div class='trialBorder'><div class='vertical-center'><img style='vertical-align:center; align:center' src='img/fixation2_sml.jpg'></div><div class='arrayDiv1'><div class='tc'><img class='introPic' src='trustrating_stim/white_mw078.bmp'><br><font color='red'><strong>Keep</strong></font></div></div></div>","null","ARRAY","1","trustrating_stim/white_mw078.bmp","0","noMatchOutcome","i","1500","","","","",""
"","","","","","5c9bfbfa325c3d001ad360a8","bdp_wmem","Wed Mar 15 2023 20:40:00 GMT-0700 (Pacific Daylight Time)","621293","Match,No Match","html-keyboard-response","62","220376","0.0-7.0-3.5","","null","","<div class='trialBorder'><div class='vertical-center'><img src='img/fixation2_sml.jpg'</img></div></div>","null","DELAY","","","","","","","","","","",""
"","","","","","5c9bfbfa325c3d001ad360a8","bdp_wmem","Wed Mar 15 2023 20:40:00 GMT-0700 (Pacific Daylight Time)","621293","Match,No Match","html-keyboard-response","63","221334","0.0-7.0-4.5","","956","","<div class='trialBorder'><div class='targDiv'><div class='tc'><img class='introPic' src='trustrating_stim/white_mw078.bmp'><br><font color='green'><strong>Share</strong></font></div></div><div class='respDiv'><div class='respDivL'>Match<br>(e)</div><div class='respDivR'>No Match<br>(i)</div></div></div>","e","TARGET","1","trustrating_stim/white_mw078.bmp","0","noMatchOutcome","i","1500","trustrating_stim/white_mw078.bmp","green","Share","REAL","0"
"","","","","","5c9bfbfa325c3d001ad360a8","bdp_wmem","Wed Mar 15 2023 20:40:00 GMT-0700 (Pacific Daylight Time)","621293","Match,No Match","html-keyboard-response","64","221836","0.0-7.0-5.5","","null","","<div class='trialBorder'><div class='vertical-center'><img src='img/error.jpg'></div><div class='respDiv'><div class='respDivL'><font style='color:orange'>Match<br>(e)</font></div><div class='respDivR'>No Match<br>(i)</div></div></div>","null","FEEDBACK","","","","","","","","","","",""
"","","","","","5c9bfbfa325c3d001ad360a8","bdp_wmem","Wed Mar 15 2023 20:40:00 GMT-0700 (Pacific Daylight Time)","621293","Match,No Match","html-keyboard-response","65","222343","0.0-7.0-1.6","","null","","<div class='trialBorder'><div class='vertical-center'><img src='img/fixation2_sml.jpg'</img></div></div>","null","FIX","","","","","","","","","","",""
"","","","","","5c9bfbfa325c3d001ad360a8","bdp_wmem","Wed Mar 15 2023 20:40:00 GMT-0700 (Pacific Daylight Time)","621293","Match,No Match","html-keyboard-response","66","226852","0.0-7.0-2.6","","null","","<div class='trialBorder'><div class='vertical-center'><img style='vertical-align:center; align:center' src='img/fixation2_sml.jpg'></div><div class='arrayDiv3'><div class='tl'><img class='introPic' src='trustrating_stim/white_mw085.bmp'><br><font color='green'><strong>Share</strong></font></div><div class='tc'><img class='introPic' src='trustrating_stim/white_mw092.bmp'><br><font color='red'><strong>Keep</strong></font></div><div class='tr'><img class='introPic' src='trustrating_stim/white_mw038.bmp'><br><font color='green'><strong>Share</strong></font></div></div></div>","null","ARRAY","3","trustrating_stim/white_mw085.bmp,trustrating_stim/white_mw092.bmp,trustrating_stim/white_mw038.bmp","1,0,1","noMatchFace","i","4500","","","","",""
"","","","","","5c9bfbfa325c3d001ad360a8","bdp_wmem","Wed Mar 15 2023 20:40:00 GMT-0700 (Pacific Daylight Time)","621293","Match,No Match","html-keyboard-response","67","230858","0.0-7.0-3.6","","null","","<div class='trialBorder'><div class='vertical-center'><img src='img/fixation2_sml.jpg'</img></div></div>","null","DELAY","","","","","","","","","","",""
"","","","","","5c9bfbfa325c3d001ad360a8","bdp_wmem","Wed Mar 15 2023 20:40:00 GMT-0700 (Pacific Daylight Time)","621293","Match,No Match","html-keyboard-response","68","232118","0.0-7.0-4.6","","1258","","<div class='trialBorder'><div class='targDiv'><div class='tc'><img class='introPic' src='trustrating_stim/white_mw091.bmp'><br><font color='red'><strong>Keep</strong></font></div></div><div class='respDiv'><div class='respDivL'>Match<br>(e)</div><div class='respDivR'>No Match<br>(i)</div></div></div>","i","TARGET","3","trustrating_stim/white_mw085.bmp,trustrating_stim/white_mw092.bmp,trustrating_stim/white_mw038.bmp","1,0,1","noMatchFace","i","4500","trustrating_stim/white_mw091.bmp","red","Keep","REAL","1"
"","","","","","5c9bfbfa325c3d001ad360a8","bdp_wmem","Wed Mar 15 2023 20:40:00 GMT-0700 (Pacific Daylight Time)","621293","Match,No Match","html-keyboard-response","69","232626","0.0-7.0-5.6","","null","","<div class='trialBorder'><div class='vertical-center'><img src='img/correct.jpg'></div><div class='respDiv'><div class='respDivL'>Match<br>(e)</div><div class='respDivR'><font style='color:orange'>No Match<br>(i)</font></div></div></div>","null","FEEDBACK","","","","","","","","","","",""
"","","","","","5c9bfbfa325c3d001ad360a8","bdp_wmem","Wed Mar 15 2023 20:40:00 GMT-0700 (Pacific Daylight Time)","621293","Match,No Match","html-keyboard-response","70","233131","0.0-7.0-1.7","","null","","<div class='trialBorder'><div class='vertical-center'><img src='img/fixation2_sml.jpg'</img></div></div>","null","FIX","","","","","","","","","","",""
"","","","","","5c9bfbfa325c3d001ad360a8","bdp_wmem","Wed Mar 15 2023 20:40:00 GMT-0700 (Pacific Daylight Time)","621293","Match,No Match","html-keyboard-response","71","234633","0.0-7.0-2.7","","null","","<div class='trialBorder'><div class='vertical-center'><img style='vertical-align:center; align:center' src='img/fixation2_sml.jpg'></div><div class='arrayDiv1'><div class='tc'><img class='introPic' src='trustrating_stim/white_mw003.bmp'><br><font color='green'><strong>Share</strong></font></div></div></div>","null","ARRAY","1","trustrating_stim/white_mw003.bmp","1","Match","e","1500","","","","",""
"","","","","","5c9bfbfa325c3d001ad360a8","bdp_wmem","Wed Mar 15 2023 20:40:00 GMT-0700 (Pacific Daylight Time)","621293","Match,No Match","html-keyboard-response","72","238641","0.0-7.0-3.7","","null","","<div class='trialBorder'><div class='vertical-center'><img src='img/fixation2_sml.jpg'</img></div></div>","null","DELAY","","","","","","","","","","",""
"","","","","","5c9bfbfa325c3d001ad360a8","bdp_wmem","Wed Mar 15 2023 20:40:00 GMT-0700 (Pacific Daylight Time)","621293","Match,No Match","html-keyboard-response","73","239705","0.0-7.0-4.7","","1062","","<div class='trialBorder'><div class='targDiv'><div class='tc'><img class='introPic' src='trustrating_stim/white_mw003.bmp'><br><font color='green'><strong>Share</strong></font></div></div><div class='respDiv'><div class='respDivL'>Match<br>(e)</div><div class='respDivR'>No Match<br>(i)</div></div></div>","e","TARGET","1","trustrating_stim/white_mw003.bmp","1","Match","e","1500","trustrating_stim/white_mw003.bmp","green","Share","REAL","1"
"","","","","","5c9bfbfa325c3d001ad360a8","bdp_wmem","Wed Mar 15 2023 20:40:00 GMT-0700 (Pacific Daylight Time)","621293","Match,No Match","html-keyboard-response","74","240208","0.0-7.0-5.7","","null","","<div class='trialBorder'><div class='vertical-center'><img src='img/correct.jpg'></div><div class='respDiv'><div class='respDivL'><font style='color:orange'>Match<br>(e)</font></div><div class='respDivR'>No Match<br>(i)</div></div></div>","null","FEEDBACK","","","","","","","","","","",""
"","","","","","5c9bfbfa325c3d001ad360a8","bdp_wmem","Wed Mar 15 2023 20:40:00 GMT-0700 (Pacific Daylight Time)","621293","Match,No Match","html-keyboard-response","75","240717","0.0-7.0-1.8","","null","","<div class='trialBorder'><div class='vertical-center'><img src='img/fixation2_sml.jpg'</img></div></div>","null","FIX","","","","","","","","","","",""
"","","","","","5c9bfbfa325c3d001ad360a8","bdp_wmem","Wed Mar 15 2023 20:40:00 GMT-0700 (Pacific Daylight Time)","621293","Match,No Match","html-keyboard-response","76","242220","0.0-7.0-2.8","","null","","<div class='trialBorder'><div class='vertical-center'><img style='vertical-align:center; align:center' src='img/fixation2_sml.jpg'></div><div class='arrayDiv1'><div class='tc'><img class='introPic' src='trustrating_stim/white_mw092.bmp'><br><font color='red'><strong>Keep</strong></font></div></div></div>","null","ARRAY","1","trustrating_stim/white_mw092.bmp","0","Match","e","1500","","","","",""
"","","","","","5c9bfbfa325c3d001ad360a8","bdp_wmem","Wed Mar 15 2023 20:40:00 GMT-0700 (Pacific Daylight Time)","621293","Match,No Match","html-keyboard-response","77","246225","0.0-7.0-3.8","","null","","<div class='trialBorder'><div class='vertical-center'><img src='img/fixation2_sml.jpg'</img></div></div>","null","DELAY","","","","","","","","","","",""
"","","","","","5c9bfbfa325c3d001ad360a8","bdp_wmem","Wed Mar 15 2023 20:40:00 GMT-0700 (Pacific Daylight Time)","621293","Match,No Match","html-keyboard-response","78","247189","0.0-7.0-4.8","","962","","<div class='trialBorder'><div class='targDiv'><div class='tc'><img class='introPic' src='trustrating_stim/white_mw092.bmp'><br><font color='red'><strong>Keep</strong></font></div></div><div class='respDiv'><div class='respDivL'>Match<br>(e)</div><div class='respDivR'>No Match<br>(i)</div></div></div>","e","TARGET","1","trustrating_stim/white_mw092.bmp","0","Match","e","1500","trustrating_stim/white_mw092.bmp","red","Keep","REAL","1"
"","","","","","5c9bfbfa325c3d001ad360a8","bdp_wmem","Wed Mar 15 2023 20:40:00 GMT-0700 (Pacific Daylight Time)","621293","Match,No Match","html-keyboard-response","79","247698","0.0-7.0-5.8","","null","","<div class='trialBorder'><div class='vertical-center'><img src='img/correct.jpg'></div><div class='respDiv'><div class='respDivL'><font style='color:orange'>Match<br>(e)</font></div><div class='respDivR'>No Match<br>(i)</div></div></div>","null","FEEDBACK","","","","","","","","","","",""
"","","","","","5c9bfbfa325c3d001ad360a8","bdp_wmem","Wed Mar 15 2023 20:40:00 GMT-0700 (Pacific Daylight Time)","621293","Match,No Match","html-keyboard-response","80","248200","0.0-7.0-1.9","","null","","<div class='trialBorder'><div class='vertical-center'><img src='img/fixation2_sml.jpg'</img></div></div>","null","FIX","","","","","","","","","","",""
"","","","","","5c9bfbfa325c3d001ad360a8","bdp_wmem","Wed Mar 15 2023 20:40:00 GMT-0700 (Pacific Daylight Time)","621293","Match,No Match","html-keyboard-response","81","252702","0.0-7.0-2.9","","null","","<div class='trialBorder'><div class='vertical-center'><img style='vertical-align:center; align:center' src='img/fixation2_sml.jpg'></div><div class='arrayDiv3'><div class='tl'><img class='introPic' src='trustrating_stim/white_mw040.bmp'><br><font color='red'><strong>Keep</strong></font></div><div class='tc'><img class='introPic' src='trustrating_stim/white_mw091.bmp'><br><font color='green'><strong>Share</strong></font></div><div class='tr'><img class='introPic' src='trustrating_stim/white_mw070.bmp'><br><font color='green'><strong>Share</strong></font></div></div></div>","null","ARRAY","3","trustrating_stim/white_mw040.bmp,trustrating_stim/white_mw091.bmp,trustrating_stim/white_mw070.bmp","0,1,1","noMatchFace","i","4500","","","","",""
"","","","","","5c9bfbfa325c3d001ad360a8","bdp_wmem","Wed Mar 15 2023 20:40:00 GMT-0700 (Pacific Daylight Time)","621293","Match,No Match","html-keyboard-response","82","256706","0.0-7.0-3.9","","null","","<div class='trialBorder'><div class='vertical-center'><img src='img/fixation2_sml.jpg'</img></div></div>","null","DELAY","","","","","","","","","","",""
"","","","","","5c9bfbfa325c3d001ad360a8","bdp_wmem","Wed Mar 15 2023 20:40:00 GMT-0700 (Pacific Daylight Time)","621293","Match,No Match","html-keyboard-response","83","258040","0.0-7.0-4.9","","1333","","<div class='trialBorder'><div class='targDiv'><div class='tc'><img class='introPic' src='trustrating_stim/white_mw042.bmp'><br><font color='green'><strong>Share</strong></font></div></div><div class='respDiv'><div class='respDivL'>Match<br>(e)</div><div class='respDivR'>No Match<br>(i)</div></div></div>","i","TARGET","3","trustrating_stim/white_mw040.bmp,trustrating_stim/white_mw091.bmp,trustrating_stim/white_mw070.bmp","0,1,1","noMatchFace","i","4500","trustrating_stim/white_mw042.bmp","green","Share","REAL","1"
"","","","","","5c9bfbfa325c3d001ad360a8","bdp_wmem","Wed Mar 15 2023 20:40:00 GMT-0700 (Pacific Daylight Time)","621293","Match,No Match","html-keyboard-response","84","258549","0.0-7.0-5.9","","null","","<div class='trialBorder'><div class='vertical-center'><img src='img/correct.jpg'></div><div class='respDiv'><div class='respDivL'>Match<br>(e)</div><div class='respDivR'><font style='color:orange'>No Match<br>(i)</font></div></div></div>","null","FEEDBACK","","","","","","","","","","",""
"","","","","","5c9bfbfa325c3d001ad360a8","bdp_wmem","Wed Mar 15 2023 20:40:00 GMT-0700 (Pacific Daylight Time)","621293","Match,No Match","html-keyboard-response","85","259056","0.0-7.0-1.10","","null","","<div class='trialBorder'><div class='vertical-center'><img src='img/fixation2_sml.jpg'</img></div></div>","null","FIX","","","","","","","","","","",""
"","","","","","5c9bfbfa325c3d001ad360a8","bdp_wmem","Wed Mar 15 2023 20:40:00 GMT-0700 (Pacific Daylight Time)","621293","Match,No Match","html-keyboard-response","86","263565","0.0-7.0-2.10","","null","","<div class='trialBorder'><div class='vertical-center'><img style='vertical-align:center; align:center' src='img/fixation2_sml.jpg'></div><div class='arrayDiv3'><div class='tl'><img class='introPic' src='trustrating_stim/white_mw038.bmp'><br><font color='red'><strong>Keep</strong></font></div><div class='tc'><img class='introPic' src='trustrating_stim/white_mw010.bmp'><br><font color='red'><strong>Keep</strong></font></div><div class='tr'><img class='introPic' src='trustrating_stim/white_mw091.bmp'><br><font color='green'><strong>Share</strong></font></div></div></div>","null","ARRAY","3","trustrating_stim/white_mw038.bmp,trustrating_stim/white_mw010.bmp,trustrating_stim/white_mw091.bmp","0,0,1","Match","e","4500","","","","",""
"","","","","","5c9bfbfa325c3d001ad360a8","bdp_wmem","Wed Mar 15 2023 20:40:00 GMT-0700 (Pacific Daylight Time)","621293","Match,No Match","html-keyboard-response","87","267570","0.0-7.0-3.10","","null","","<div class='trialBorder'><div class='vertical-center'><img src='img/fixation2_sml.jpg'</img></div></div>","null","DELAY","","","","","","","","","","",""
"","","","","","5c9bfbfa325c3d001ad360a8","bdp_wmem","Wed Mar 15 2023 20:40:00 GMT-0700 (Pacific Daylight Time)","621293","Match,No Match","html-keyboard-response","88","269886","0.0-7.0-4.10","","2314","","<div class='trialBorder'><div class='targDiv'><div class='tc'><img class='introPic' src='trustrating_stim/white_mw091.bmp'><br><font color='green'><strong>Share</strong></font></div></div><div class='respDiv'><div class='respDivL'>Match<br>(e)</div><div class='respDivR'>No Match<br>(i)</div></div></div>","e","TARGET","3","trustrating_stim/white_mw038.bmp,trustrating_stim/white_mw010.bmp,trustrating_stim/white_mw091.bmp","0,0,1","Match","e","4500","trustrating_stim/white_mw091.bmp","green","Share","REAL","1"
"","","","","","5c9bfbfa325c3d001ad360a8","bdp_wmem","Wed Mar 15 2023 20:40:00 GMT-0700 (Pacific Daylight Time)","621293","Match,No Match","html-keyboard-response","89","270391","0.0-7.0-5.10","","null","","<div class='trialBorder'><div class='vertical-center'><img src='img/correct.jpg'></div><div class='respDiv'><div class='respDivL'><font style='color:orange'>Match<br>(e)</font></div><div class='respDivR'>No Match<br>(i)</div></div></div>","null","FEEDBACK","","","","","","","","","","",""
"","","","","","5c9bfbfa325c3d001ad360a8","bdp_wmem","Wed Mar 15 2023 20:40:00 GMT-0700 (Pacific Daylight Time)","621293","Match,No Match","html-keyboard-response","90","270898","0.0-7.0-1.11","","null","","<div class='trialBorder'><div class='vertical-center'><img src='img/fixation2_sml.jpg'</img></div></div>","null","FIX","","","","","","","","","","",""
"","","","","","5c9bfbfa325c3d001ad360a8","bdp_wmem","Wed Mar 15 2023 20:40:00 GMT-0700 (Pacific Daylight Time)","621293","Match,No Match","html-keyboard-response","91","272404","0.0-7.0-2.11","","null","","<div class='trialBorder'><div class='vertical-center'><img style='vertical-align:center; align:center' src='img/fixation2_sml.jpg'></div><div class='arrayDiv1'><div class='tc'><img class='introPic' src='trustrating_stim/white_mw013.bmp'><br><font color='green'><strong>Share</strong></font></div></div></div>","null","ARRAY","1","trustrating_stim/white_mw013.bmp","1","Match","e","1500","","","","",""
"","","","","","5c9bfbfa325c3d001ad360a8","bdp_wmem","Wed Mar 15 2023 20:40:00 GMT-0700 (Pacific Daylight Time)","621293","Match,No Match","html-keyboard-response","92","276408","0.0-7.0-3.11","","null","","<div class='trialBorder'><div class='vertical-center'><img src='img/fixation2_sml.jpg'</img></div></div>","null","DELAY","","","","","","","","","","",""
"","","","","","5c9bfbfa325c3d001ad360a8","bdp_wmem","Wed Mar 15 2023 20:40:00 GMT-0700 (Pacific Daylight Time)","621293","Match,No Match","html-keyboard-response","93","279314","0.0-7.0-4.11","","2903","","<div class='trialBorder'><div class='targDiv'><div class='tc'><img class='introPic' src='trustrating_stim/white_mw013.bmp'><br><font color='green'><strong>Share</strong></font></div></div><div class='respDiv'><div class='respDivL'>Match<br>(e)</div><div class='respDivR'>No Match<br>(i)</div></div></div>","i","TARGET","1","trustrating_stim/white_mw013.bmp","1","Match","e","1500","trustrating_stim/white_mw013.bmp","green","Share","REAL","0"
"","","","","","5c9bfbfa325c3d001ad360a8","bdp_wmem","Wed Mar 15 2023 20:40:00 GMT-0700 (Pacific Daylight Time)","621293","Match,No Match","html-keyboard-response","94","279820","0.0-7.0-5.11","","null","","<div class='trialBorder'><div class='vertical-center'><img src='img/error.jpg'></div><div class='respDiv'><div class='respDivL'>Match<br>(e)</div><div class='respDivR'><font style='color:orange'>No Match<br>(i)</font></div></div></div>","null","FEEDBACK","","","","","","","","","","",""
"","","","","","5c9bfbfa325c3d001ad360a8","bdp_wmem","Wed Mar 15 2023 20:40:00 GMT-0700 (Pacific Daylight Time)","621293","Match,No Match","html-keyboard-response","95","280322","0.0-7.0-1.12","","null","","<div class='trialBorder'><div class='vertical-center'><img src='img/fixation2_sml.jpg'</img></div></div>","null","FIX","","","","","","","","","","",""
"","","","","","5c9bfbfa325c3d001ad360a8","bdp_wmem","Wed Mar 15 2023 20:40:00 GMT-0700 (Pacific Daylight Time)","621293","Match,No Match","html-keyboard-response","96","283336","0.0-7.0-2.12","","null","","<div class='trialBorder'><div class='vertical-center'><img style='vertical-align:center; align:center' src='img/fixation2_sml.jpg'></div><div class='arrayDiv2'><div class='tl'><img class='introPic' src='trustrating_stim/white_mw070.bmp'><br><font color='red'><strong>Keep</strong></font></div><div class='tr'><img class='introPic' src='trustrating_stim/white_mw013.bmp'><br><font color='green'><strong>Share</strong></font></div></div></div>","null","ARRAY","2","trustrating_stim/white_mw070.bmp,trustrating_stim/white_mw013.bmp","0,1","noMatchFace","i","3000","","","","",""
"","","","","","5c9bfbfa325c3d001ad360a8","bdp_wmem","Wed Mar 15 2023 20:40:00 GMT-0700 (Pacific Daylight Time)","621293","Match,No Match","html-keyboard-response","97","287338","0.0-7.0-3.12","","null","","<div class='trialBorder'><div class='vertical-center'><img src='img/fixation2_sml.jpg'</img></div></div>","null","DELAY","","","","","","","","","","",""
"","","","","","5c9bfbfa325c3d001ad360a8","bdp_wmem","Wed Mar 15 2023 20:40:00 GMT-0700 (Pacific Daylight Time)","621293","Match,No Match","html-keyboard-response","98","288554","0.0-7.0-4.12","","1214","","<div class='trialBorder'><div class='targDiv'><div class='tc'><img class='introPic' src='trustrating_stim/white_mw078.bmp'><br><font color='red'><strong>Keep</strong></font></div></div><div class='respDiv'><div class='respDivL'>Match<br>(e)</div><div class='respDivR'>No Match<br>(i)</div></div></div>","i","TARGET","2","trustrating_stim/white_mw070.bmp,trustrating_stim/white_mw013.bmp","0,1","noMatchFace","i","3000","trustrating_stim/white_mw078.bmp","red","Keep","REAL","1"
"","","","","","5c9bfbfa325c3d001ad360a8","bdp_wmem","Wed Mar 15 2023 20:40:00 GMT-0700 (Pacific Daylight Time)","621293","Match,No Match","html-keyboard-response","99","289064","0.0-7.0-5.12","","null","","<div class='trialBorder'><div class='vertical-center'><img src='img/correct.jpg'></div><div class='respDiv'><div class='respDivL'>Match<br>(e)</div><div class='respDivR'><font style='color:orange'>No Match<br>(i)</font></div></div></div>","null","FEEDBACK","","","","","","","","","","",""
"","","","","","5c9bfbfa325c3d001ad360a8","bdp_wmem","Wed Mar 15 2023 20:40:00 GMT-0700 (Pacific Daylight Time)","621293","Match,No Match","html-keyboard-response","100","289573","0.0-7.0-1.13","","null","","<div class='trialBorder'><div class='vertical-center'><img src='img/fixation2_sml.jpg'</img></div></div>","null","FIX","","","","","","","","","","",""
"","","","","","5c9bfbfa325c3d001ad360a8","bdp_wmem","Wed Mar 15 2023 20:40:00 GMT-0700 (Pacific Daylight Time)","621293","Match,No Match","html-keyboard-response","101","294080","0.0-7.0-2.13","","null","","<div class='trialBorder'><div class='vertical-center'><img style='vertical-align:center; align:center' src='img/fixation2_sml.jpg'></div><div class='arrayDiv3'><div class='tl'><img class='introPic' src='trustrating_stim/white_mw092.bmp'><br><font color='red'><strong>Keep</strong></font></div><div class='tc'><img class='introPic' src='trustrating_stim/white_mw085.bmp'><br><font color='green'><strong>Share</strong></font></div><div class='tr'><img class='introPic' src='trustrating_stim/white_mw091.bmp'><br><font color='green'><strong>Share</strong></font></div></div></div>","null","ARRAY","3","trustrating_stim/white_mw092.bmp,trustrating_stim/white_mw085.bmp,trustrating_stim/white_mw091.bmp","0,1,1","Match","e","4500","","","","",""
"","","","","","5c9bfbfa325c3d001ad360a8","bdp_wmem","Wed Mar 15 2023 20:40:00 GMT-0700 (Pacific Daylight Time)","621293","Match,No Match","html-keyboard-response","102","298086","0.0-7.0-3.13","","null","","<div class='trialBorder'><div class='vertical-center'><img src='img/fixation2_sml.jpg'</img></div></div>","null","DELAY","","","","","","","","","","",""
"","","","","","5c9bfbfa325c3d001ad360a8","bdp_wmem","Wed Mar 15 2023 20:40:00 GMT-0700 (Pacific Daylight Time)","621293","Match,No Match","html-keyboard-response","103","299443","0.0-7.0-4.13","","1354","","<div class='trialBorder'><div class='targDiv'><div class='tc'><img class='introPic' src='trustrating_stim/white_mw085.bmp'><br><font color='green'><strong>Share</strong></font></div></div><div class='respDiv'><div class='respDivL'>Match<br>(e)</div><div class='respDivR'>No Match<br>(i)</div></div></div>","e","TARGET","3","trustrating_stim/white_mw092.bmp,trustrating_stim/white_mw085.bmp,trustrating_stim/white_mw091.bmp","0,1,1","Match","e","4500","trustrating_stim/white_mw085.bmp","green","Share","REAL","1"
"","","","","","5c9bfbfa325c3d001ad360a8","bdp_wmem","Wed Mar 15 2023 20:40:00 GMT-0700 (Pacific Daylight Time)","621293","Match,No Match","html-keyboard-response","104","299951","0.0-7.0-5.13","","null","","<div class='trialBorder'><div class='vertical-center'><img src='img/correct.jpg'></div><div class='respDiv'><div class='respDivL'><font style='color:orange'>Match<br>(e)</font></div><div class='respDivR'>No Match<br>(i)</div></div></div>","null","FEEDBACK","","","","","","","","","","",""
"","","","","","5c9bfbfa325c3d001ad360a8","bdp_wmem","Wed Mar 15 2023 20:40:00 GMT-0700 (Pacific Daylight Time)","621293","Match,No Match","html-keyboard-response","105","300455","0.0-7.0-1.14","","null","","<div class='trialBorder'><div class='vertical-center'><img src='img/fixation2_sml.jpg'</img></div></div>","null","FIX","","","","","","","","","","",""
"","","","","","5c9bfbfa325c3d001ad360a8","bdp_wmem","Wed Mar 15 2023 20:40:00 GMT-0700 (Pacific Daylight Time)","621293","Match,No Match","html-keyboard-response","106","303460","0.0-7.0-2.14","","null","","<div class='trialBorder'><div class='vertical-center'><img style='vertical-align:center; align:center' src='img/fixation2_sml.jpg'></div><div class='arrayDiv2'><div class='tl'><img class='introPic' src='trustrating_stim/white_mw092.bmp'><br><font color='green'><strong>Share</strong></font></div><div class='tr'><img class='introPic' src='trustrating_stim/white_mw038.bmp'><br><font color='red'><strong>Keep</strong></font></div></div></div>","null","ARRAY","2","trustrating_stim/white_mw092.bmp,trustrating_stim/white_mw038.bmp","1,0","Match","e","3000","","","","",""
"","","","","","5c9bfbfa325c3d001ad360a8","bdp_wmem","Wed Mar 15 2023 20:40:00 GMT-0700 (Pacific Daylight Time)","621293","Match,No Match","html-keyboard-response","107","307464","0.0-7.0-3.14","","null","","<div class='trialBorder'><div class='vertical-center'><img src='img/fixation2_sml.jpg'</img></div></div>","null","DELAY","","","","","","","","","","",""
"","","","","","5c9bfbfa325c3d001ad360a8","bdp_wmem","Wed Mar 15 2023 20:40:00 GMT-0700 (Pacific Daylight Time)","621293","Match,No Match","html-keyboard-response","108","308555","0.0-7.0-4.14","","1089","","<div class='trialBorder'><div class='targDiv'><div class='tc'><img class='introPic' src='trustrating_stim/white_mw092.bmp'><br><font color='green'><strong>Share</strong></font></div></div><div class='respDiv'><div class='respDivL'>Match<br>(e)</div><div class='respDivR'>No Match<br>(i)</div></div></div>","e","TARGET","2","trustrating_stim/white_mw092.bmp,trustrating_stim/white_mw038.bmp","1,0","Match","e","3000","trustrating_stim/white_mw092.bmp","green","Share","REAL","1"
"","","","","","5c9bfbfa325c3d001ad360a8","bdp_wmem","Wed Mar 15 2023 20:40:00 GMT-0700 (Pacific Daylight Time)","621293","Match,No Match","html-keyboard-response","109","309060","0.0-7.0-5.14","","null","","<div class='trialBorder'><div class='vertical-center'><img src='img/correct.jpg'></div><div class='respDiv'><div class='respDivL'><font style='color:orange'>Match<br>(e)</font></div><div class='respDivR'>No Match<br>(i)</div></div></div>","null","FEEDBACK","","","","","","","","","","",""
"","","","","","5c9bfbfa325c3d001ad360a8","bdp_wmem","Wed Mar 15 2023 20:40:00 GMT-0700 (Pacific Daylight Time)","621293","Match,No Match","html-keyboard-response","110","309561","0.0-7.0-1.15","","null","","<div class='trialBorder'><div class='vertical-center'><img src='img/fixation2_sml.jpg'</img></div></div>","null","FIX","","","","","","","","","","",""
"","","","","","5c9bfbfa325c3d001ad360a8","bdp_wmem","Wed Mar 15 2023 20:40:00 GMT-0700 (Pacific Daylight Time)","621293","Match,No Match","html-keyboard-response","111","311066","0.0-7.0-2.15","","null","","<div class='trialBorder'><div class='vertical-center'><img style='vertical-align:center; align:center' src='img/fixation2_sml.jpg'></div><div class='arrayDiv1'><div class='tc'><img class='introPic' src='trustrating_stim/white_mw010.bmp'><br><font color='red'><strong>Keep</strong></font></div></div></div>","null","ARRAY","1","trustrating_stim/white_mw010.bmp","0","noMatchFace","i","1500","","","","",""
"","","","","","5c9bfbfa325c3d001ad360a8","bdp_wmem","Wed Mar 15 2023 20:40:00 GMT-0700 (Pacific Daylight Time)","621293","Match,No Match","html-keyboard-response","112","315071","0.0-7.0-3.15","","null","","<div class='trialBorder'><div class='vertical-center'><img src='img/fixation2_sml.jpg'</img></div></div>","null","DELAY","","","","","","","","","","",""
"","","","","","5c9bfbfa325c3d001ad360a8","bdp_wmem","Wed Mar 15 2023 20:40:00 GMT-0700 (Pacific Daylight Time)","621293","Match,No Match","html-keyboard-response","113","316155","0.0-7.0-4.15","","1082","","<div class='trialBorder'><div class='targDiv'><div class='tc'><img class='introPic' src='trustrating_stim/white_mw003.bmp'><br><font color='red'><strong>Keep</strong></font></div></div><div class='respDiv'><div class='respDivL'>Match<br>(e)</div><div class='respDivR'>No Match<br>(i)</div></div></div>","i","TARGET","1","trustrating_stim/white_mw010.bmp","0","noMatchFace","i","1500","trustrating_stim/white_mw003.bmp","red","Keep","REAL","1"
"","","","","","5c9bfbfa325c3d001ad360a8","bdp_wmem","Wed Mar 15 2023 20:40:00 GMT-0700 (Pacific Daylight Time)","621293","Match,No Match","html-keyboard-response","114","316659","0.0-7.0-5.15","","null","","<div class='trialBorder'><div class='vertical-center'><img src='img/correct.jpg'></div><div class='respDiv'><div class='respDivL'>Match<br>(e)</div><div class='respDivR'><font style='color:orange'>No Match<br>(i)</font></div></div></div>","null","FEEDBACK","","","","","","","","","","",""
"","","","","","5c9bfbfa325c3d001ad360a8","bdp_wmem","Wed Mar 15 2023 20:40:00 GMT-0700 (Pacific Daylight Time)","621293","Match,No Match","html-keyboard-response","115","317167","0.0-7.0-1.16","","null","","<div class='trialBorder'><div class='vertical-center'><img src='img/fixation2_sml.jpg'</img></div></div>","null","FIX","","","","","","","","","","",""
"","","","","","5c9bfbfa325c3d001ad360a8","bdp_wmem","Wed Mar 15 2023 20:40:00 GMT-0700 (Pacific Daylight Time)","621293","Match,No Match","html-keyboard-response","116","318675","0.0-7.0-2.16","","null","","<div class='trialBorder'><div class='vertical-center'><img style='vertical-align:center; align:center' src='img/fixation2_sml.jpg'></div><div class='arrayDiv1'><div class='tc'><img class='introPic' src='trustrating_stim/white_mw038.bmp'><br><font color='red'><strong>Keep</strong></font></div></div></div>","null","ARRAY","1","trustrating_stim/white_mw038.bmp","0","noMatchFace","i","1500","","","","",""
"","","","","","5c9bfbfa325c3d001ad360a8","bdp_wmem","Wed Mar 15 2023 20:40:00 GMT-0700 (Pacific Daylight Time)","621293","Match,No Match","html-keyboard-response","117","322684","0.0-7.0-3.16","","null","","<div class='trialBorder'><div class='vertical-center'><img src='img/fixation2_sml.jpg'</img></div></div>","null","DELAY","","","","","","","","","","",""
"","","","","","5c9bfbfa325c3d001ad360a8","bdp_wmem","Wed Mar 15 2023 20:40:00 GMT-0700 (Pacific Daylight Time)","621293","Match,No Match","html-keyboard-response","118","323626","0.0-7.0-4.16","","941","","<div class='trialBorder'><div class='targDiv'><div class='tc'><img class='introPic' src='trustrating_stim/white_mw042.bmp'><br><font color='red'><strong>Keep</strong></font></div></div><div class='respDiv'><div class='respDivL'>Match<br>(e)</div><div class='respDivR'>No Match<br>(i)</div></div></div>","i","TARGET","1","trustrating_stim/white_mw038.bmp","0","noMatchFace","i","1500","trustrating_stim/white_mw042.bmp","red","Keep","REAL","1"
"","","","","","5c9bfbfa325c3d001ad360a8","bdp_wmem","Wed Mar 15 2023 20:40:00 GMT-0700 (Pacific Daylight Time)","621293","Match,No Match","html-keyboard-response","119","324135","0.0-7.0-5.16","","null","","<div class='trialBorder'><div class='vertical-center'><img src='img/correct.jpg'></div><div class='respDiv'><div class='respDivL'>Match<br>(e)</div><div class='respDivR'><font style='color:orange'>No Match<br>(i)</font></div></div></div>","null","FEEDBACK","","","","","","","","","","",""
"","","","","","5c9bfbfa325c3d001ad360a8","bdp_wmem","Wed Mar 15 2023 20:40:00 GMT-0700 (Pacific Daylight Time)","621293","Match,No Match","html-keyboard-response","120","324637","0.0-7.0-1.17","","null","","<div class='trialBorder'><div class='vertical-center'><img src='img/fixation2_sml.jpg'</img></div></div>","null","FIX","","","","","","","","","","",""
"","","","","","5c9bfbfa325c3d001ad360a8","bdp_wmem","Wed Mar 15 2023 20:40:00 GMT-0700 (Pacific Daylight Time)","621293","Match,No Match","html-keyboard-response","121","326152","0.0-7.0-2.17","","null","","<div class='trialBorder'><div class='vertical-center'><img style='vertical-align:center; align:center' src='img/fixation2_sml.jpg'></div><div class='arrayDiv1'><div class='tc'><img class='introPic' src='trustrating_stim/white_mw042.bmp'><br><font color='red'><strong>Keep</strong></font></div></div></div>","null","ARRAY","1","trustrating_stim/white_mw042.bmp","0","Match","e","1500","","","","",""
"","","","","","5c9bfbfa325c3d001ad360a8","bdp_wmem","Wed Mar 15 2023 20:40:00 GMT-0700 (Pacific Daylight Time)","621293","Match,No Match","html-keyboard-response","122","330159","0.0-7.0-3.17","","null","","<div class='trialBorder'><div class='vertical-center'><img src='img/fixation2_sml.jpg'</img></div></div>","null","DELAY","","","","","","","","","","",""
"","","","","","5c9bfbfa325c3d001ad360a8","bdp_wmem","Wed Mar 15 2023 20:40:00 GMT-0700 (Pacific Daylight Time)","621293","Match,No Match","html-keyboard-response","123","331346","0.0-7.0-4.17","","1184","","<div class='trialBorder'><div class='targDiv'><div class='tc'><img class='introPic' src='trustrating_stim/white_mw042.bmp'><br><font color='red'><strong>Keep</strong></font></div></div><div class='respDiv'><div class='respDivL'>Match<br>(e)</div><div class='respDivR'>No Match<br>(i)</div></div></div>","e","TARGET","1","trustrating_stim/white_mw042.bmp","0","Match","e","1500","trustrating_stim/white_mw042.bmp","red","Keep","REAL","1"
"","","","","","5c9bfbfa325c3d001ad360a8","bdp_wmem","Wed Mar 15 2023 20:40:00 GMT-0700 (Pacific Daylight Time)","621293","Match,No Match","html-keyboard-response","124","331849","0.0-7.0-5.17","","null","","<div class='trialBorder'><div class='vertical-center'><img src='img/correct.jpg'></div><div class='respDiv'><div class='respDivL'><font style='color:orange'>Match<br>(e)</font></div><div class='respDivR'>No Match<br>(i)</div></div></div>","null","FEEDBACK","","","","","","","","","","",""
"","","","","","5c9bfbfa325c3d001ad360a8","bdp_wmem","Wed Mar 15 2023 20:40:00 GMT-0700 (Pacific Daylight Time)","621293","Match,No Match","html-keyboard-response","125","332356","0.0-7.0-1.18","","null","","<div class='trialBorder'><div class='vertical-center'><img src='img/fixation2_sml.jpg'</img></div></div>","null","FIX","","","","","","","","","","",""
"","","","","","5c9bfbfa325c3d001ad360a8","bdp_wmem","Wed Mar 15 2023 20:40:00 GMT-0700 (Pacific Daylight Time)","621293","Match,No Match","html-keyboard-response","126","335359","0.0-7.0-2.18","","null","","<div class='trialBorder'><div class='vertical-center'><img style='vertical-align:center; align:center' src='img/fixation2_sml.jpg'></div><div class='arrayDiv2'><div class='tl'><img class='introPic' src='trustrating_stim/white_mw038.bmp'><br><font color='red'><strong>Keep</strong></font></div><div class='tr'><img class='introPic' src='trustrating_stim/white_mw010.bmp'><br><font color='green'><strong>Share</strong></font></div></div></div>","null","ARRAY","2","trustrating_stim/white_mw038.bmp,trustrating_stim/white_mw010.bmp","0,1","noMatchFace","i","3000","","","","",""
"","","","","","5c9bfbfa325c3d001ad360a8","bdp_wmem","Wed Mar 15 2023 20:40:00 GMT-0700 (Pacific Daylight Time)","621293","Match,No Match","html-keyboard-response","127","339364","0.0-7.0-3.18","","null","","<div class='trialBorder'><div class='vertical-center'><img src='img/fixation2_sml.jpg'</img></div></div>","null","DELAY","","","","","","","","","","",""
"","","","","","5c9bfbfa325c3d001ad360a8","bdp_wmem","Wed Mar 15 2023 20:40:00 GMT-0700 (Pacific Daylight Time)","621293","Match,No Match","html-keyboard-response","128","340471","0.0-7.0-4.18","","1105","","<div class='trialBorder'><div class='targDiv'><div class='tc'><img class='introPic' src='trustrating_stim/white_mw003.bmp'><br><font color='red'><strong>Keep</strong></font></div></div><div class='respDiv'><div class='respDivL'>Match<br>(e)</div><div class='respDivR'>No Match<br>(i)</div></div></div>","i","TARGET","2","trustrating_stim/white_mw038.bmp,trustrating_stim/white_mw010.bmp","0,1","noMatchFace","i","3000","trustrating_stim/white_mw003.bmp","red","Keep","REAL","1"
"","","","","","5c9bfbfa325c3d001ad360a8","bdp_wmem","Wed Mar 15 2023 20:40:00 GMT-0700 (Pacific Daylight Time)","621293","Match,No Match","html-keyboard-response","129","340976","0.0-7.0-5.18","","null","","<div class='trialBorder'><div class='vertical-center'><img src='img/correct.jpg'></div><div class='respDiv'><div class='respDivL'>Match<br>(e)</div><div class='respDivR'><font style='color:orange'>No Match<br>(i)</font></div></div></div>","null","FEEDBACK","","","","","","","","","","",""
"","","","","","5c9bfbfa325c3d001ad360a8","bdp_wmem","Wed Mar 15 2023 20:40:00 GMT-0700 (Pacific Daylight Time)","621293","Match,No Match","html-keyboard-response","130","341479","0.0-7.0-1.19","","null","","<div class='trialBorder'><div class='vertical-center'><img src='img/fixation2_sml.jpg'</img></div></div>","null","FIX","","","","","","","","","","",""
"","","","","","5c9bfbfa325c3d001ad360a8","bdp_wmem","Wed Mar 15 2023 20:40:00 GMT-0700 (Pacific Daylight Time)","621293","Match,No Match","html-keyboard-response","131","344497","0.0-7.0-2.19","","null","","<div class='trialBorder'><div class='vertical-center'><img style='vertical-align:center; align:center' src='img/fixation2_sml.jpg'></div><div class='arrayDiv2'><div class='tl'><img class='introPic' src='trustrating_stim/white_mw085.bmp'><br><font color='red'><strong>Keep</strong></font></div><div class='tr'><img class='introPic' src='trustrating_stim/white_mw003.bmp'><br><font color='green'><strong>Share</strong></font></div></div></div>","null","ARRAY","2","trustrating_stim/white_mw085.bmp,trustrating_stim/white_mw003.bmp","0,1","Match","e","3000","","","","",""
"","","","","","5c9bfbfa325c3d001ad360a8","bdp_wmem","Wed Mar 15 2023 20:40:00 GMT-0700 (Pacific Daylight Time)","621293","Match,No Match","html-keyboard-response","132","348508","0.0-7.0-3.19","","null","","<div class='trialBorder'><div class='vertical-center'><img src='img/fixation2_sml.jpg'</img></div></div>","null","DELAY","","","","","","","","","","",""
"","","","","","5c9bfbfa325c3d001ad360a8","bdp_wmem","Wed Mar 15 2023 20:40:00 GMT-0700 (Pacific Daylight Time)","621293","Match,No Match","html-keyboard-response","133","350221","0.0-7.0-4.19","","1711","","<div class='trialBorder'><div class='targDiv'><div class='tc'><img class='introPic' src='trustrating_stim/white_mw003.bmp'><br><font color='green'><strong>Share</strong></font></div></div><div class='respDiv'><div class='respDivL'>Match<br>(e)</div><div class='respDivR'>No Match<br>(i)</div></div></div>","e","TARGET","2","trustrating_stim/white_mw085.bmp,trustrating_stim/white_mw003.bmp","0,1","Match","e","3000","trustrating_stim/white_mw003.bmp","green","Share","REAL","1"
"","","","","","5c9bfbfa325c3d001ad360a8","bdp_wmem","Wed Mar 15 2023 20:40:00 GMT-0700 (Pacific Daylight Time)","621293","Match,No Match","html-keyboard-response","134","350724","0.0-7.0-5.19","","null","","<div class='trialBorder'><div class='vertical-center'><img src='img/correct.jpg'></div><div class='respDiv'><div class='respDivL'><font style='color:orange'>Match<br>(e)</font></div><div class='respDivR'>No Match<br>(i)</div></div></div>","null","FEEDBACK","","","","","","","","","","",""
"","","","","","5c9bfbfa325c3d001ad360a8","bdp_wmem","Wed Mar 15 2023 20:40:00 GMT-0700 (Pacific Daylight Time)","621293","Match,No Match","html-keyboard-response","135","351226","0.0-7.0-1.20","","null","","<div class='trialBorder'><div class='vertical-center'><img src='img/fixation2_sml.jpg'</img></div></div>","null","FIX","","","","","","","","","","",""
"","","","","","5c9bfbfa325c3d001ad360a8","bdp_wmem","Wed Mar 15 2023 20:40:00 GMT-0700 (Pacific Daylight Time)","621293","Match,No Match","html-keyboard-response","136","352731","0.0-7.0-2.20","","null","","<div class='trialBorder'><div class='vertical-center'><img style='vertical-align:center; align:center' src='img/fixation2_sml.jpg'></div><div class='arrayDiv1'><div class='tc'><img class='introPic' src='trustrating_stim/white_mw040.bmp'><br><font color='red'><strong>Keep</strong></font></div></div></div>","null","ARRAY","1","trustrating_stim/white_mw040.bmp","0","Match","e","1500","","","","",""
"","","","","","5c9bfbfa325c3d001ad360a8","bdp_wmem","Wed Mar 15 2023 20:40:00 GMT-0700 (Pacific Daylight Time)","621293","Match,No Match","html-keyboard-response","137","356733","0.0-7.0-3.20","","null","","<div class='trialBorder'><div class='vertical-center'><img src='img/fixation2_sml.jpg'</img></div></div>","null","DELAY","","","","","","","","","","",""
"","","","","","5c9bfbfa325c3d001ad360a8","bdp_wmem","Wed Mar 15 2023 20:40:00 GMT-0700 (Pacific Daylight Time)","621293","Match,No Match","html-keyboard-response","138","357610","0.0-7.0-4.20","","875","","<div class='trialBorder'><div class='targDiv'><div class='tc'><img class='introPic' src='trustrating_stim/white_mw040.bmp'><br><font color='red'><strong>Keep</strong></font></div></div><div class='respDiv'><div class='respDivL'>Match<br>(e)</div><div class='respDivR'>No Match<br>(i)</div></div></div>","e","TARGET","1","trustrating_stim/white_mw040.bmp","0","Match","e","1500","trustrating_stim/white_mw040.bmp","red","Keep","REAL","1"
"","","","","","5c9bfbfa325c3d001ad360a8","bdp_wmem","Wed Mar 15 2023 20:40:00 GMT-0700 (Pacific Daylight Time)","621293","Match,No Match","html-keyboard-response","139","358117","0.0-7.0-5.20","","null","","<div class='trialBorder'><div class='vertical-center'><img src='img/correct.jpg'></div><div class='respDiv'><div class='respDivL'><font style='color:orange'>Match<br>(e)</font></div><div class='respDivR'>No Match<br>(i)</div></div></div>","null","FEEDBACK","","","","","","","","","","",""
"","","","","","5c9bfbfa325c3d001ad360a8","bdp_wmem","Wed Mar 15 2023 20:40:00 GMT-0700 (Pacific Daylight Time)","621293","Match,No Match","html-keyboard-response","140","358625","0.0-7.0-1.21","","null","","<div class='trialBorder'><div class='vertical-center'><img src='img/fixation2_sml.jpg'</img></div></div>","null","FIX","","","","","","","","","","",""
"","","","","","5c9bfbfa325c3d001ad360a8","bdp_wmem","Wed Mar 15 2023 20:40:00 GMT-0700 (Pacific Daylight Time)","621293","Match,No Match","html-keyboard-response","141","363129","0.0-7.0-2.21","","null","","<div class='trialBorder'><div class='vertical-center'><img style='vertical-align:center; align:center' src='img/fixation2_sml.jpg'></div><div class='arrayDiv3'><div class='tl'><img class='introPic' src='trustrating_stim/white_mw078.bmp'><br><font color='green'><strong>Share</strong></font></div><div class='tc'><img class='introPic' src='trustrating_stim/white_mw040.bmp'><br><font color='green'><strong>Share</strong></font></div><div class='tr'><img class='introPic' src='trustrating_stim/white_mw038.bmp'><br><font color='red'><strong>Keep</strong></font></div></div></div>","null","ARRAY","3","trustrating_stim/white_mw078.bmp,trustrating_stim/white_mw040.bmp,trustrating_stim/white_mw038.bmp","1,1,0","noMatchOutcome","i","4500","","","","",""
"","","","","","5c9bfbfa325c3d001ad360a8","bdp_wmem","Wed Mar 15 2023 20:40:00 GMT-0700 (Pacific Daylight Time)","621293","Match,No Match","html-keyboard-response","142","367132","0.0-7.0-3.21","","null","","<div class='trialBorder'><div class='vertical-center'><img src='img/fixation2_sml.jpg'</img></div></div>","null","DELAY","","","","","","","","","","",""
"","","","","","5c9bfbfa325c3d001ad360a8","bdp_wmem","Wed Mar 15 2023 20:40:00 GMT-0700 (Pacific Daylight Time)","621293","Match,No Match","html-keyboard-response","143","368146","0.0-7.0-4.21","","1012","","<div class='trialBorder'><div class='targDiv'><div class='tc'><img class='introPic' src='trustrating_stim/white_mw078.bmp'><br><font color='red'><strong>Keep</strong></font></div></div><div class='respDiv'><div class='respDivL'>Match<br>(e)</div><div class='respDivR'>No Match<br>(i)</div></div></div>","i","TARGET","3","trustrating_stim/white_mw078.bmp,trustrating_stim/white_mw040.bmp,trustrating_stim/white_mw038.bmp","1,1,0","noMatchOutcome","i","4500","trustrating_stim/white_mw078.bmp","red","Keep","REAL","1"
"","","","","","5c9bfbfa325c3d001ad360a8","bdp_wmem","Wed Mar 15 2023 20:40:00 GMT-0700 (Pacific Daylight Time)","621293","Match,No Match","html-keyboard-response","144","368649","0.0-7.0-5.21","","null","","<div class='trialBorder'><div class='vertical-center'><img src='img/correct.jpg'></div><div class='respDiv'><div class='respDivL'>Match<br>(e)</div><div class='respDivR'><font style='color:orange'>No Match<br>(i)</font></div></div></div>","null","FEEDBACK","","","","","","","","","","",""
"","","","","","5c9bfbfa325c3d001ad360a8","bdp_wmem","Wed Mar 15 2023 20:40:00 GMT-0700 (Pacific Daylight Time)","621293","Match,No Match","html-keyboard-response","145","369154","0.0-7.0-1.22","","null","","<div class='trialBorder'><div class='vertical-center'><img src='img/fixation2_sml.jpg'</img></div></div>","null","FIX","","","","","","","","","","",""
"","","","","","5c9bfbfa325c3d001ad360a8","bdp_wmem","Wed Mar 15 2023 20:40:00 GMT-0700 (Pacific Daylight Time)","621293","Match,No Match","html-keyboard-response","146","372164","0.0-7.0-2.22","","null","","<div class='trialBorder'><div class='vertical-center'><img style='vertical-align:center; align:center' src='img/fixation2_sml.jpg'></div><div class='arrayDiv2'><div class='tl'><img class='introPic' src='trustrating_stim/white_mw012.bmp'><br><font color='red'><strong>Keep</strong></font></div><div class='tr'><img class='introPic' src='trustrating_stim/white_mw003.bmp'><br><font color='green'><strong>Share</strong></font></div></div></div>","null","ARRAY","2","trustrating_stim/white_mw012.bmp,trustrating_stim/white_mw003.bmp","0,1","noMatchFace","i","3000","","","","",""
"","","","","","5c9bfbfa325c3d001ad360a8","bdp_wmem","Wed Mar 15 2023 20:40:00 GMT-0700 (Pacific Daylight Time)","621293","Match,No Match","html-keyboard-response","147","376168","0.0-7.0-3.22","","null","","<div class='trialBorder'><div class='vertical-center'><img src='img/fixation2_sml.jpg'</img></div></div>","null","DELAY","","","","","","","","","","",""
"","","","","","5c9bfbfa325c3d001ad360a8","bdp_wmem","Wed Mar 15 2023 20:40:00 GMT-0700 (Pacific Daylight Time)","621293","Match,No Match","html-keyboard-response","148","377787","0.0-7.0-4.22","","1617","","<div class='trialBorder'><div class='targDiv'><div class='tc'><img class='introPic' src='trustrating_stim/white_mw038.bmp'><br><font color='green'><strong>Share</strong></font></div></div><div class='respDiv'><div class='respDivL'>Match<br>(e)</div><div class='respDivR'>No Match<br>(i)</div></div></div>","i","TARGET","2","trustrating_stim/white_mw012.bmp,trustrating_stim/white_mw003.bmp","0,1","noMatchFace","i","3000","trustrating_stim/white_mw038.bmp","green","Share","REAL","1"
"","","","","","5c9bfbfa325c3d001ad360a8","bdp_wmem","Wed Mar 15 2023 20:40:00 GMT-0700 (Pacific Daylight Time)","621293","Match,No Match","html-keyboard-response","149","378294","0.0-7.0-5.22","","null","","<div class='trialBorder'><div class='vertical-center'><img src='img/correct.jpg'></div><div class='respDiv'><div class='respDivL'>Match<br>(e)</div><div class='respDivR'><font style='color:orange'>No Match<br>(i)</font></div></div></div>","null","FEEDBACK","","","","","","","","","","",""
"","","","","","5c9bfbfa325c3d001ad360a8","bdp_wmem","Wed Mar 15 2023 20:40:00 GMT-0700 (Pacific Daylight Time)","621293","Match,No Match","html-keyboard-response","150","378796","0.0-7.0-1.23","","null","","<div class='trialBorder'><div class='vertical-center'><img src='img/fixation2_sml.jpg'</img></div></div>","null","FIX","","","","","","","","","","",""
"","","","","","5c9bfbfa325c3d001ad360a8","bdp_wmem","Wed Mar 15 2023 20:40:00 GMT-0700 (Pacific Daylight Time)","621293","Match,No Match","html-keyboard-response","151","380304","0.0-7.0-2.23","","null","","<div class='trialBorder'><div class='vertical-center'><img style='vertical-align:center; align:center' src='img/fixation2_sml.jpg'></div><div class='arrayDiv1'><div class='tc'><img class='introPic' src='trustrating_stim/white_mw070.bmp'><br><font color='red'><strong>Keep</strong></font></div></div></div>","null","ARRAY","1","trustrating_stim/white_mw070.bmp","0","noMatchFace","i","1500","","","","",""
"","","","","","5c9bfbfa325c3d001ad360a8","bdp_wmem","Wed Mar 15 2023 20:40:00 GMT-0700 (Pacific Daylight Time)","621293","Match,No Match","html-keyboard-response","152","384312","0.0-7.0-3.23","","null","","<div class='trialBorder'><div class='vertical-center'><img src='img/fixation2_sml.jpg'</img></div></div>","null","DELAY","","","","","","","","","","",""
"","","","","","5c9bfbfa325c3d001ad360a8","bdp_wmem","Wed Mar 15 2023 20:40:00 GMT-0700 (Pacific Daylight Time)","621293","Match,No Match","html-keyboard-response","153","385663","0.0-7.0-4.23","","1348","","<div class='trialBorder'><div class='targDiv'><div class='tc'><img class='introPic' src='trustrating_stim/white_mw078.bmp'><br><font color='red'><strong>Keep</strong></font></div></div><div class='respDiv'><div class='respDivL'>Match<br>(e)</div><div class='respDivR'>No Match<br>(i)</div></div></div>","i","TARGET","1","trustrating_stim/white_mw070.bmp","0","noMatchFace","i","1500","trustrating_stim/white_mw078.bmp","red","Keep","REAL","1"
"","","","","","5c9bfbfa325c3d001ad360a8","bdp_wmem","Wed Mar 15 2023 20:40:00 GMT-0700 (Pacific Daylight Time)","621293","Match,No Match","html-keyboard-response","154","386166","0.0-7.0-5.23","","null","","<div class='trialBorder'><div class='vertical-center'><img src='img/correct.jpg'></div><div class='respDiv'><div class='respDivL'>Match<br>(e)</div><div class='respDivR'><font style='color:orange'>No Match<br>(i)</font></div></div></div>","null","FEEDBACK","","","","","","","","","","",""
"","","","","","5c9bfbfa325c3d001ad360a8","bdp_wmem","Wed Mar 15 2023 20:40:00 GMT-0700 (Pacific Daylight Time)","621293","Match,No Match","html-keyboard-response","155","386671","0.0-7.0-1.24","","null","","<div class='trialBorder'><div class='vertical-center'><img src='img/fixation2_sml.jpg'</img></div></div>","null","FIX","","","","","","","","","","",""
"","","","","","5c9bfbfa325c3d001ad360a8","bdp_wmem","Wed Mar 15 2023 20:40:00 GMT-0700 (Pacific Daylight Time)","621293","Match,No Match","html-keyboard-response","156","388178","0.0-7.0-2.24","","null","","<div class='trialBorder'><div class='vertical-center'><img style='vertical-align:center; align:center' src='img/fixation2_sml.jpg'></div><div class='arrayDiv1'><div class='tc'><img class='introPic' src='trustrating_stim/white_mw091.bmp'><br><font color='green'><strong>Share</strong></font></div></div></div>","null","ARRAY","1","trustrating_stim/white_mw091.bmp","1","Match","e","1500","","","","",""
"","","","","","5c9bfbfa325c3d001ad360a8","bdp_wmem","Wed Mar 15 2023 20:40:00 GMT-0700 (Pacific Daylight Time)","621293","Match,No Match","html-keyboard-response","157","392183","0.0-7.0-3.24","","null","","<div class='trialBorder'><div class='vertical-center'><img src='img/fixation2_sml.jpg'</img></div></div>","null","DELAY","","","","","","","","","","",""
"","","","","","5c9bfbfa325c3d001ad360a8","bdp_wmem","Wed Mar 15 2023 20:40:00 GMT-0700 (Pacific Daylight Time)","621293","Match,No Match","html-keyboard-response","158","393124","0.0-7.0-4.24","","938","","<div class='trialBorder'><div class='targDiv'><div class='tc'><img class='introPic' src='trustrating_stim/white_mw091.bmp'><br><font color='green'><strong>Share</strong></font></div></div><div class='respDiv'><div class='respDivL'>Match<br>(e)</div><div class='respDivR'>No Match<br>(i)</div></div></div>","e","TARGET","1","trustrating_stim/white_mw091.bmp","1","Match","e","1500","trustrating_stim/white_mw091.bmp","green","Share","REAL","1"
"","","","","","5c9bfbfa325c3d001ad360a8","bdp_wmem","Wed Mar 15 2023 20:40:00 GMT-0700 (Pacific Daylight Time)","621293","Match,No Match","html-keyboard-response","159","393625","0.0-7.0-5.24","","null","","<div class='trialBorder'><div class='vertical-center'><img src='img/correct.jpg'></div><div class='respDiv'><div class='respDivL'><font style='color:orange'>Match<br>(e)</font></div><div class='respDivR'>No Match<br>(i)</div></div></div>","null","FEEDBACK","","","","","","","","","","",""
"","","","","","5c9bfbfa325c3d001ad360a8","bdp_wmem","Wed Mar 15 2023 20:40:00 GMT-0700 (Pacific Daylight Time)","621293","Match,No Match","html-keyboard-response","160","394133","0.0-7.0-1.25","","null","","<div class='trialBorder'><div class='vertical-center'><img src='img/fixation2_sml.jpg'</img></div></div>","null","FIX","","","","","","","","","","",""
"","","","","","5c9bfbfa325c3d001ad360a8","bdp_wmem","Wed Mar 15 2023 20:40:00 GMT-0700 (Pacific Daylight Time)","621293","Match,No Match","html-keyboard-response","161","398636","0.0-7.0-2.25","","null","","<div class='trialBorder'><div class='vertical-center'><img style='vertical-align:center; align:center' src='img/fixation2_sml.jpg'></div><div class='arrayDiv3'><div class='tl'><img class='introPic' src='trustrating_stim/white_mw070.bmp'><br><font color='green'><strong>Share</strong></font></div><div class='tc'><img class='introPic' src='trustrating_stim/white_mw038.bmp'><br><font color='red'><strong>Keep</strong></font></div><div class='tr'><img class='introPic' src='trustrating_stim/white_mw091.bmp'><br><font color='red'><strong>Keep</strong></font></div></div></div>","null","ARRAY","3","trustrating_stim/white_mw070.bmp,trustrating_stim/white_mw038.bmp,trustrating_stim/white_mw091.bmp","1,0,0","Match","e","4500","","","","",""
"","","","","","5c9bfbfa325c3d001ad360a8","bdp_wmem","Wed Mar 15 2023 20:40:00 GMT-0700 (Pacific Daylight Time)","621293","Match,No Match","html-keyboard-response","162","402643","0.0-7.0-3.25","","null","","<div class='trialBorder'><div class='vertical-center'><img src='img/fixation2_sml.jpg'</img></div></div>","null","DELAY","","","","","","","","","","",""
"","","","","","5c9bfbfa325c3d001ad360a8","bdp_wmem","Wed Mar 15 2023 20:40:00 GMT-0700 (Pacific Daylight Time)","621293","Match,No Match","html-keyboard-response","163","405773","0.0-7.0-4.25","","3128","","<div class='trialBorder'><div class='targDiv'><div class='tc'><img class='introPic' src='trustrating_stim/white_mw038.bmp'><br><font color='red'><strong>Keep</strong></font></div></div><div class='respDiv'><div class='respDivL'>Match<br>(e)</div><div class='respDivR'>No Match<br>(i)</div></div></div>","i","TARGET","3","trustrating_stim/white_mw070.bmp,trustrating_stim/white_mw038.bmp,trustrating_stim/white_mw091.bmp","1,0,0","Match","e","4500","trustrating_stim/white_mw038.bmp","red","Keep","REAL","0"
"","","","","","5c9bfbfa325c3d001ad360a8","bdp_wmem","Wed Mar 15 2023 20:40:00 GMT-0700 (Pacific Daylight Time)","621293","Match,No Match","html-keyboard-response","164","406279","0.0-7.0-5.25","","null","","<div class='trialBorder'><div class='vertical-center'><img src='img/error.jpg'></div><div class='respDiv'><div class='respDivL'>Match<br>(e)</div><div class='respDivR'><font style='color:orange'>No Match<br>(i)</font></div></div></div>","null","FEEDBACK","","","","","","","","","","",""
"","","","","","5c9bfbfa325c3d001ad360a8","bdp_wmem","Wed Mar 15 2023 20:40:00 GMT-0700 (Pacific Daylight Time)","621293","Match,No Match","html-keyboard-response","165","406781","0.0-7.0-1.26","","null","","<div class='trialBorder'><div class='vertical-center'><img src='img/fixation2_sml.jpg'</img></div></div>","null","FIX","","","","","","","","","","",""
"","","","","","5c9bfbfa325c3d001ad360a8","bdp_wmem","Wed Mar 15 2023 20:40:00 GMT-0700 (Pacific Daylight Time)","621293","Match,No Match","html-keyboard-response","166","411285","0.0-7.0-2.26","","null","","<div class='trialBorder'><div class='vertical-center'><img style='vertical-align:center; align:center' src='img/fixation2_sml.jpg'></div><div class='arrayDiv3'><div class='tl'><img class='introPic' src='trustrating_stim/white_mw085.bmp'><br><font color='green'><strong>Share</strong></font></div><div class='tc'><img class='introPic' src='trustrating_stim/white_mw078.bmp'><br><font color='red'><strong>Keep</strong></font></div><div class='tr'><img class='introPic' src='trustrating_stim/white_mw040.bmp'><br><font color='red'><strong>Keep</strong></font></div></div></div>","null","ARRAY","3","trustrating_stim/white_mw085.bmp,trustrating_stim/white_mw078.bmp,trustrating_stim/white_mw040.bmp","1,0,0","Match","e","4500","","","","",""
"","","","","","5c9bfbfa325c3d001ad360a8","bdp_wmem","Wed Mar 15 2023 20:40:00 GMT-0700 (Pacific Daylight Time)","621293","Match,No Match","html-keyboard-response","167","415289","0.0-7.0-3.26","","null","","<div class='trialBorder'><div class='vertical-center'><img src='img/fixation2_sml.jpg'</img></div></div>","null","DELAY","","","","","","","","","","",""
"","","","","","5c9bfbfa325c3d001ad360a8","bdp_wmem","Wed Mar 15 2023 20:40:00 GMT-0700 (Pacific Daylight Time)","621293","Match,No Match","html-keyboard-response","168","416249","0.0-7.0-4.26","","959","","<div class='trialBorder'><div class='targDiv'><div class='tc'><img class='introPic' src='trustrating_stim/white_mw085.bmp'><br><font color='green'><strong>Share</strong></font></div></div><div class='respDiv'><div class='respDivL'>Match<br>(e)</div><div class='respDivR'>No Match<br>(i)</div></div></div>","e","TARGET","3","trustrating_stim/white_mw085.bmp,trustrating_stim/white_mw078.bmp,trustrating_stim/white_mw040.bmp","1,0,0","Match","e","4500","trustrating_stim/white_mw085.bmp","green","Share","REAL","1"
"","","","","","5c9bfbfa325c3d001ad360a8","bdp_wmem","Wed Mar 15 2023 20:40:00 GMT-0700 (Pacific Daylight Time)","621293","Match,No Match","html-keyboard-response","169","416761","0.0-7.0-5.26","","null","","<div class='trialBorder'><div class='vertical-center'><img src='img/correct.jpg'></div><div class='respDiv'><div class='respDivL'><font style='color:orange'>Match<br>(e)</font></div><div class='respDivR'>No Match<br>(i)</div></div></div>","null","FEEDBACK","","","","","","","","","","",""
"","","","","","5c9bfbfa325c3d001ad360a8","bdp_wmem","Wed Mar 15 2023 20:40:00 GMT-0700 (Pacific Daylight Time)","621293","Match,No Match","html-keyboard-response","170","417269","0.0-7.0-1.27","","null","","<div class='trialBorder'><div class='vertical-center'><img src='img/fixation2_sml.jpg'</img></div></div>","null","FIX","","","","","","","","","","",""
"","","","","","5c9bfbfa325c3d001ad360a8","bdp_wmem","Wed Mar 15 2023 20:40:00 GMT-0700 (Pacific Daylight Time)","621293","Match,No Match","html-keyboard-response","171","420280","0.0-7.0-2.27","","null","","<div class='trialBorder'><div class='vertical-center'><img style='vertical-align:center; align:center' src='img/fixation2_sml.jpg'></div><div class='arrayDiv2'><div class='tl'><img class='introPic' src='trustrating_stim/white_mw003.bmp'><br><font color='red'><strong>Keep</strong></font></div><div class='tr'><img class='introPic' src='trustrating_stim/white_mw012.bmp'><br><font color='green'><strong>Share</strong></font></div></div></div>","null","ARRAY","2","trustrating_stim/white_mw003.bmp,trustrating_stim/white_mw012.bmp","0,1","Match","e","3000","","","","",""
"","","","","","5c9bfbfa325c3d001ad360a8","bdp_wmem","Wed Mar 15 2023 20:40:00 GMT-0700 (Pacific Daylight Time)","621293","Match,No Match","html-keyboard-response","172","424288","0.0-7.0-3.27","","null","","<div class='trialBorder'><div class='vertical-center'><img src='img/fixation2_sml.jpg'</img></div></div>","null","DELAY","","","","","","","","","","",""
"","","","","","5c9bfbfa325c3d001ad360a8","bdp_wmem","Wed Mar 15 2023 20:40:00 GMT-0700 (Pacific Daylight Time)","621293","Match,No Match","html-keyboard-response","173","425272","0.0-7.0-4.27","","982","","<div class='trialBorder'><div class='targDiv'><div class='tc'><img class='introPic' src='trustrating_stim/white_mw012.bmp'><br><font color='green'><strong>Share</strong></font></div></div><div class='respDiv'><div class='respDivL'>Match<br>(e)</div><div class='respDivR'>No Match<br>(i)</div></div></div>","e","TARGET","2","trustrating_stim/white_mw003.bmp,trustrating_stim/white_mw012.bmp","0,1","Match","e","3000","trustrating_stim/white_mw012.bmp","green","Share","REAL","1"
"","","","","","5c9bfbfa325c3d001ad360a8","bdp_wmem","Wed Mar 15 2023 20:40:00 GMT-0700 (Pacific Daylight Time)","621293","Match,No Match","html-keyboard-response","174","425778","0.0-7.0-5.27","","null","","<div class='trialBorder'><div class='vertical-center'><img src='img/correct.jpg'></div><div class='respDiv'><div class='respDivL'><font style='color:orange'>Match<br>(e)</font></div><div class='respDivR'>No Match<br>(i)</div></div></div>","null","FEEDBACK","","","","","","","","","","",""
"","","","","","5c9bfbfa325c3d001ad360a8","bdp_wmem","Wed Mar 15 2023 20:40:00 GMT-0700 (Pacific Daylight Time)","621293","Match,No Match","html-keyboard-response","175","426285","0.0-7.0-1.28","","null","","<div class='trialBorder'><div class='vertical-center'><img src='img/fixation2_sml.jpg'</img></div></div>","null","FIX","","","","","","","","","","",""
"","","","","","5c9bfbfa325c3d001ad360a8","bdp_wmem","Wed Mar 15 2023 20:40:00 GMT-0700 (Pacific Daylight Time)","621293","Match,No Match","html-keyboard-response","176","427788","0.0-7.0-2.28","","null","","<div class='trialBorder'><div class='vertical-center'><img style='vertical-align:center; align:center' src='img/fixation2_sml.jpg'></div><div class='arrayDiv1'><div class='tc'><img class='introPic' src='trustrating_stim/white_mw013.bmp'><br><font color='red'><strong>Keep</strong></font></div></div></div>","null","ARRAY","1","trustrating_stim/white_mw013.bmp","0","Match","e","1500","","","","",""
"","","","","","5c9bfbfa325c3d001ad360a8","bdp_wmem","Wed Mar 15 2023 20:40:00 GMT-0700 (Pacific Daylight Time)","621293","Match,No Match","html-keyboard-response","177","431792","0.0-7.0-3.28","","null","","<div class='trialBorder'><div class='vertical-center'><img src='img/fixation2_sml.jpg'</img></div></div>","null","DELAY","","","","","","","","","","",""
"","","","","","5c9bfbfa325c3d001ad360a8","bdp_wmem","Wed Mar 15 2023 20:40:00 GMT-0700 (Pacific Daylight Time)","621293","Match,No Match","html-keyboard-response","178","433019","0.0-7.0-4.28","","1226","","<div class='trialBorder'><div class='targDiv'><div class='tc'><img class='introPic' src='trustrating_stim/white_mw013.bmp'><br><font color='red'><strong>Keep</strong></font></div></div><div class='respDiv'><div class='respDivL'>Match<br>(e)</div><div class='respDivR'>No Match<br>(i)</div></div></div>","e","TARGET","1","trustrating_stim/white_mw013.bmp","0","Match","e","1500","trustrating_stim/white_mw013.bmp","red","Keep","REAL","1"
"","","","","","5c9bfbfa325c3d001ad360a8","bdp_wmem","Wed Mar 15 2023 20:40:00 GMT-0700 (Pacific Daylight Time)","621293","Match,No Match","html-keyboard-response","179","433528","0.0-7.0-5.28","","null","","<div class='trialBorder'><div class='vertical-center'><img src='img/correct.jpg'></div><div class='respDiv'><div class='respDivL'><font style='color:orange'>Match<br>(e)</font></div><div class='respDivR'>No Match<br>(i)</div></div></div>","null","FEEDBACK","","","","","","","","","","",""
"","","","","","5c9bfbfa325c3d001ad360a8","bdp_wmem","Wed Mar 15 2023 20:40:00 GMT-0700 (Pacific Daylight Time)","621293","Match,No Match","html-keyboard-response","180","434037","0.0-7.0-1.29","","null","","<div class='trialBorder'><div class='vertical-center'><img src='img/fixation2_sml.jpg'</img></div></div>","null","FIX","","","","","","","","","","",""
"","","","","","5c9bfbfa325c3d001ad360a8","bdp_wmem","Wed Mar 15 2023 20:40:00 GMT-0700 (Pacific Daylight Time)","621293","Match,No Match","html-keyboard-response","181","438540","0.0-7.0-2.29","","null","","<div class='trialBorder'><div class='vertical-center'><img style='vertical-align:center; align:center' src='img/fixation2_sml.jpg'></div><div class='arrayDiv3'><div class='tl'><img class='introPic' src='trustrating_stim/white_mw013.bmp'><br><font color='green'><strong>Share</strong></font></div><div class='tc'><img class='introPic' src='trustrating_stim/white_mw085.bmp'><br><font color='red'><strong>Keep</strong></font></div><div class='tr'><img class='introPic' src='trustrating_stim/white_mw092.bmp'><br><font color='red'><strong>Keep</strong></font></div></div></div>","null","ARRAY","3","trustrating_stim/white_mw013.bmp,trustrating_stim/white_mw085.bmp,trustrating_stim/white_mw092.bmp","1,0,0","noMatchFace","i","4500","","","","",""
"","","","","","5c9bfbfa325c3d001ad360a8","bdp_wmem","Wed Mar 15 2023 20:40:00 GMT-0700 (Pacific Daylight Time)","621293","Match,No Match","html-keyboard-response","182","442550","0.0-7.0-3.29","","null","","<div class='trialBorder'><div class='vertical-center'><img src='img/fixation2_sml.jpg'</img></div></div>","null","DELAY","","","","","","","","","","",""
"","","","","","5c9bfbfa325c3d001ad360a8","bdp_wmem","Wed Mar 15 2023 20:40:00 GMT-0700 (Pacific Daylight Time)","621293","Match,No Match","html-keyboard-response","183","443706","0.0-7.0-4.29","","1154","","<div class='trialBorder'><div class='targDiv'><div class='tc'><img class='introPic' src='trustrating_stim/white_mw038.bmp'><br><font color='red'><strong>Keep</strong></font></div></div><div class='respDiv'><div class='respDivL'>Match<br>(e)</div><div class='respDivR'>No Match<br>(i)</div></div></div>","i","TARGET","3","trustrating_stim/white_mw013.bmp,trustrating_stim/white_mw085.bmp,trustrating_stim/white_mw092.bmp","1,0,0","noMatchFace","i","4500","trustrating_stim/white_mw038.bmp","red","Keep","REAL","1"
"","","","","","5c9bfbfa325c3d001ad360a8","bdp_wmem","Wed Mar 15 2023 20:40:00 GMT-0700 (Pacific Daylight Time)","621293","Match,No Match","html-keyboard-response","184","444215","0.0-7.0-5.29","","null","","<div class='trialBorder'><div class='vertical-center'><img src='img/correct.jpg'></div><div class='respDiv'><div class='respDivL'>Match<br>(e)</div><div class='respDivR'><font style='color:orange'>No Match<br>(i)</font></div></div></div>","null","FEEDBACK","","","","","","","","","","",""
"","","","","","5c9bfbfa325c3d001ad360a8","bdp_wmem","Wed Mar 15 2023 20:40:00 GMT-0700 (Pacific Daylight Time)","621293","Match,No Match","html-keyboard-response","185","444718","0.0-7.0-1.30","","null","","<div class='trialBorder'><div class='vertical-center'><img src='img/fixation2_sml.jpg'</img></div></div>","null","FIX","","","","","","","","","","",""
"","","","","","5c9bfbfa325c3d001ad360a8","bdp_wmem","Wed Mar 15 2023 20:40:00 GMT-0700 (Pacific Daylight Time)","621293","Match,No Match","html-keyboard-response","186","449224","0.0-7.0-2.30","","null","","<div class='trialBorder'><div class='vertical-center'><img style='vertical-align:center; align:center' src='img/fixation2_sml.jpg'></div><div class='arrayDiv3'><div class='tl'><img class='introPic' src='trustrating_stim/white_mw040.bmp'><br><font color='green'><strong>Share</strong></font></div><div class='tc'><img class='introPic' src='trustrating_stim/white_mw042.bmp'><br><font color='red'><strong>Keep</strong></font></div><div class='tr'><img class='introPic' src='trustrating_stim/white_mw078.bmp'><br><font color='green'><strong>Share</strong></font></div></div></div>","null","ARRAY","3","trustrating_stim/white_mw040.bmp,trustrating_stim/white_mw042.bmp,trustrating_stim/white_mw078.bmp","1,0,1","Match","e","4500","","","","",""
"","","","","","5c9bfbfa325c3d001ad360a8","bdp_wmem","Wed Mar 15 2023 20:40:00 GMT-0700 (Pacific Daylight Time)","621293","Match,No Match","html-keyboard-response","187","453240","0.0-7.0-3.30","","null","","<div class='trialBorder'><div class='vertical-center'><img src='img/fixation2_sml.jpg'</img></div></div>","null","DELAY","","","","","","","","","","",""
