"trial_type","trial_index","time_elapsed","internal_node_id","subject_id","task","startTime","totalTime","labels","view_history","rt","event","trial","time","trialtype","numBlurs","success","stimulus","key_press","stimType","arraySize","arrayFaces","arrayOutcomes","matchType","corrResp","arrayDur","targFace","targCol","targOutcome","trialType","corr"
"pavlovia","0","3","0.0-0.0","608d0831835bd8f85ac9237e","bdp_wmem","Sun Mar 12 2023 23:20:05 GMT-0400 (Eastern Daylight Time)","851644","Match,No Match","","","","","","","","","","","","","","","","","","","","","",""
"instructions","1","6469","0.0-1.0","608d0831835bd8f85ac9237e","bdp_wmem","Sun Mar 12 2023 23:20:05 GMT-0400 (Eastern Daylight Time)","851644","Match,No Match","[{""page_index"":0,""viewing_time"":6465}]","6466","","","","","","","","","","","","","","","","","","","",""
"","","","","608d0831835bd8f85ac9237e","bdp_wmem","Sun Mar 12 2023 23:20:05 GMT-0400 (Eastern Daylight Time)","851644","Match,No Match","","","blur","2","8848","blurevent","1","","","","","","","","","","","","","","",""
"","","","","608d0831835bd8f85ac9237e","bdp_wmem","Sun Mar 12 2023 23:20:05 GMT-0400 (Eastern Daylight Time)","851644","Match,No Match","","","focus","2","14758","focusevent","","","","","","","","","","","","","","","",""
"","","","","608d0831835bd8f85ac9237e","bdp_wmem","Sun Mar 12 2023 23:20:05 GMT-0400 (Eastern Daylight Time)","851644","Match,No Match","","","fullscreenenter","2","15853","fullscreenenter","","","","","","","","","","","","","","","",""
"fullscreen","2","16841","0.0-2.0","608d0831835bd8f85ac9237e","bdp_wmem","Sun Mar 12 2023 23:20:05 GMT-0400 (Eastern Daylight Time)","851644","Match,No Match","","","","","","","","true","","","","","","","","","","","","","",""
"instructions","3","322689","0.0-4.0","608d0831835bd8f85ac9237e","bdp_wmem","Sun Mar 12 2023 23:20:05 GMT-0400 (Eastern Daylight Time)","851644","Match,No Match","[{""page_index"":0,""viewing_time"":61782},{""page_index"":1,""viewing_time"":140415},{""page_index"":2,""viewing_time"":36954},{""page_index"":3,""viewing_time"":27054},{""page_index"":4,""viewing_time"":39641}]","305846","","","","","","","","","","","","","","","","","","","",""
"html-keyboard-response","4","323193","0.0-5.0-1.0","608d0831835bd8f85ac9237e","bdp_wmem","Sun Mar 12 2023 23:20:05 GMT-0400 (Eastern Daylight Time)","851644","Match,No Match","","null","","","","","","","<div class='trialBorder'><div class='vertical-center'><img src='img/fixation2_sml.jpg'</img></div></div>","null","FIX","","","","","","","","","","",""
"html-keyboard-response","5","327696","0.0-5.0-2.0","608d0831835bd8f85ac9237e","bdp_wmem","Sun Mar 12 2023 23:20:05 GMT-0400 (Eastern Daylight Time)","851644","Match,No Match","","null","","","","","","","<div class='trialBorder'><div class='vertical-center'><img style='vertical-align:center; align:center' src='img/fixation2_sml.jpg'></div><div class='arrayDiv3'><div class='tl'><img class='introPic' src='trustrating_stim/white_mw010.bmp'><br><font color='green'><strong>Share</strong></font></div><div class='tc'><img class='introPic' src='trustrating_stim/white_mw013.bmp'><br><font color='red'><strong>Keep</strong></font></div><div class='tr'><img class='introPic' src='trustrating_stim/white_mw085.bmp'><br><font color='red'><strong>Keep</strong></font></div></div></div>","null","ARRAY","3","trustrating_stim/white_mw010.bmp,trustrating_stim/white_mw013.bmp,trustrating_stim/white_mw085.bmp","1,0,0","Match","e","4500","","","","",""
"html-keyboard-response","6","331699","0.0-5.0-3.0","608d0831835bd8f85ac9237e","bdp_wmem","Sun Mar 12 2023 23:20:05 GMT-0400 (Eastern Daylight Time)","851644","Match,No Match","","null","","","","","","","<div class='trialBorder'><div class='vertical-center'><img src='img/fixation2_sml.jpg'</img></div></div>","null","DELAY","","","","","","","","","","",""
"html-keyboard-response","7","334634","0.0-5.0-4.0","608d0831835bd8f85ac9237e","bdp_wmem","Sun Mar 12 2023 23:20:05 GMT-0400 (Eastern Daylight Time)","851644","Match,No Match","","2931","","","","","","","<div class='trialBorder'><div class='targDiv'><div class='tc'><img class='introPic' src='trustrating_stim/white_mw010.bmp'><br><font color='green'><strong>Share</strong></font></div></div><div class='respDiv'><div class='respDivL'>Match<br>(e)</div><div class='respDivR'>No Match<br>(i)</div></div></div>","e","TARGET","3","trustrating_stim/white_mw010.bmp,trustrating_stim/white_mw013.bmp,trustrating_stim/white_mw085.bmp","1,0,0","Match","e","4500","trustrating_stim/white_mw010.bmp","green","Share","PRACTICE","1"
"html-keyboard-response","8","335136","0.0-5.0-5.0","608d0831835bd8f85ac9237e","bdp_wmem","Sun Mar 12 2023 23:20:05 GMT-0400 (Eastern Daylight Time)","851644","Match,No Match","","null","","","","","","","<div class='trialBorder'><div class='vertical-center'><img src='img/correct.jpg'></div><div class='respDiv'><div class='respDivL'><font style='color:orange'>Match<br>(e)</font></div><div class='respDivR'>No Match<br>(i)</div></div></div>","null","FEEDBACK","","","","","","","","","","",""
"html-keyboard-response","9","335638","0.0-5.0-1.1","608d0831835bd8f85ac9237e","bdp_wmem","Sun Mar 12 2023 23:20:05 GMT-0400 (Eastern Daylight Time)","851644","Match,No Match","","null","","","","","","","<div class='trialBorder'><div class='vertical-center'><img src='img/fixation2_sml.jpg'</img></div></div>","null","FIX","","","","","","","","","","",""
"html-keyboard-response","10","338641","0.0-5.0-2.1","608d0831835bd8f85ac9237e","bdp_wmem","Sun Mar 12 2023 23:20:05 GMT-0400 (Eastern Daylight Time)","851644","Match,No Match","","null","","","","","","","<div class='trialBorder'><div class='vertical-center'><img style='vertical-align:center; align:center' src='img/fixation2_sml.jpg'></div><div class='arrayDiv2'><div class='tl'><img class='introPic' src='trustrating_stim/white_mw040.bmp'><br><font color='green'><strong>Share</strong></font></div><div class='tr'><img class='introPic' src='trustrating_stim/white_mw013.bmp'><br><font color='red'><strong>Keep</strong></font></div></div></div>","null","ARRAY","2","trustrating_stim/white_mw040.bmp,trustrating_stim/white_mw013.bmp","1,0","Match","e","3000","","","","",""
"html-keyboard-response","11","342642","0.0-5.0-3.1","608d0831835bd8f85ac9237e","bdp_wmem","Sun Mar 12 2023 23:20:05 GMT-0400 (Eastern Daylight Time)","851644","Match,No Match","","null","","","","","","","<div class='trialBorder'><div class='vertical-center'><img src='img/fixation2_sml.jpg'</img></div></div>","null","DELAY","","","","","","","","","","",""
"html-keyboard-response","12","346473","0.0-5.0-4.1","608d0831835bd8f85ac9237e","bdp_wmem","Sun Mar 12 2023 23:20:05 GMT-0400 (Eastern Daylight Time)","851644","Match,No Match","","3829","","","","","","","<div class='trialBorder'><div class='targDiv'><div class='tc'><img class='introPic' src='trustrating_stim/white_mw040.bmp'><br><font color='green'><strong>Share</strong></font></div></div><div class='respDiv'><div class='respDivL'>Match<br>(e)</div><div class='respDivR'>No Match<br>(i)</div></div></div>","i","TARGET","2","trustrating_stim/white_mw040.bmp,trustrating_stim/white_mw013.bmp","1,0","Match","e","3000","trustrating_stim/white_mw040.bmp","green","Share","PRACTICE","0"
"html-keyboard-response","13","346976","0.0-5.0-5.1","608d0831835bd8f85ac9237e","bdp_wmem","Sun Mar 12 2023 23:20:05 GMT-0400 (Eastern Daylight Time)","851644","Match,No Match","","null","","","","","","","<div class='trialBorder'><div class='vertical-center'><img src='img/error.jpg'></div><div class='respDiv'><div class='respDivL'>Match<br>(e)</div><div class='respDivR'><font style='color:orange'>No Match<br>(i)</font></div></div></div>","null","FEEDBACK","","","","","","","","","","",""
"html-keyboard-response","14","347480","0.0-5.0-1.2","608d0831835bd8f85ac9237e","bdp_wmem","Sun Mar 12 2023 23:20:05 GMT-0400 (Eastern Daylight Time)","851644","Match,No Match","","null","","","","","","","<div class='trialBorder'><div class='vertical-center'><img src='img/fixation2_sml.jpg'</img></div></div>","null","FIX","","","","","","","","","","",""
"html-keyboard-response","15","351985","0.0-5.0-2.2","608d0831835bd8f85ac9237e","bdp_wmem","Sun Mar 12 2023 23:20:05 GMT-0400 (Eastern Daylight Time)","851644","Match,No Match","","null","","","","","","","<div class='trialBorder'><div class='vertical-center'><img style='vertical-align:center; align:center' src='img/fixation2_sml.jpg'></div><div class='arrayDiv3'><div class='tl'><img class='introPic' src='trustrating_stim/white_mw042.bmp'><br><font color='green'><strong>Share</strong></font></div><div class='tc'><img class='introPic' src='trustrating_stim/white_mw012.bmp'><br><font color='red'><strong>Keep</strong></font></div><div class='tr'><img class='introPic' src='trustrating_stim/white_mw092.bmp'><br><font color='green'><strong>Share</strong></font></div></div></div>","null","ARRAY","3","trustrating_stim/white_mw042.bmp,trustrating_stim/white_mw012.bmp,trustrating_stim/white_mw092.bmp","1,0,1","noMatchOutcome","i","4500","","","","",""
"html-keyboard-response","16","355987","0.0-5.0-3.2","608d0831835bd8f85ac9237e","bdp_wmem","Sun Mar 12 2023 23:20:05 GMT-0400 (Eastern Daylight Time)","851644","Match,No Match","","null","","","","","","","<div class='trialBorder'><div class='vertical-center'><img src='img/fixation2_sml.jpg'</img></div></div>","null","DELAY","","","","","","","","","","",""
"html-keyboard-response","17","358288","0.0-5.0-4.2","608d0831835bd8f85ac9237e","bdp_wmem","Sun Mar 12 2023 23:20:05 GMT-0400 (Eastern Daylight Time)","851644","Match,No Match","","2299","","","","","","","<div class='trialBorder'><div class='targDiv'><div class='tc'><img class='introPic' src='trustrating_stim/white_mw092.bmp'><br><font color='red'><strong>Keep</strong></font></div></div><div class='respDiv'><div class='respDivL'>Match<br>(e)</div><div class='respDivR'>No Match<br>(i)</div></div></div>","i","TARGET","3","trustrating_stim/white_mw042.bmp,trustrating_stim/white_mw012.bmp,trustrating_stim/white_mw092.bmp","1,0,1","noMatchOutcome","i","4500","trustrating_stim/white_mw092.bmp","red","Keep","PRACTICE","1"
"html-keyboard-response","18","358790","0.0-5.0-5.2","608d0831835bd8f85ac9237e","bdp_wmem","Sun Mar 12 2023 23:20:05 GMT-0400 (Eastern Daylight Time)","851644","Match,No Match","","null","","","","","","","<div class='trialBorder'><div class='vertical-center'><img src='img/correct.jpg'></div><div class='respDiv'><div class='respDivL'>Match<br>(e)</div><div class='respDivR'><font style='color:orange'>No Match<br>(i)</font></div></div></div>","null","FEEDBACK","","","","","","","","","","",""
"html-keyboard-response","19","359292","0.0-5.0-1.3","608d0831835bd8f85ac9237e","bdp_wmem","Sun Mar 12 2023 23:20:05 GMT-0400 (Eastern Daylight Time)","851644","Match,No Match","","null","","","","","","","<div class='trialBorder'><div class='vertical-center'><img src='img/fixation2_sml.jpg'</img></div></div>","null","FIX","","","","","","","","","","",""
"html-keyboard-response","20","360794","0.0-5.0-2.3","608d0831835bd8f85ac9237e","bdp_wmem","Sun Mar 12 2023 23:20:05 GMT-0400 (Eastern Daylight Time)","851644","Match,No Match","","null","","","","","","","<div class='trialBorder'><div class='vertical-center'><img style='vertical-align:center; align:center' src='img/fixation2_sml.jpg'></div><div class='arrayDiv1'><div class='tc'><img class='introPic' src='trustrating_stim/white_mw012.bmp'><br><font color='red'><strong>Keep</strong></font></div></div></div>","null","ARRAY","1","trustrating_stim/white_mw012.bmp","0","Match","e","1500","","","","",""
"html-keyboard-response","21","364796","0.0-5.0-3.3","608d0831835bd8f85ac9237e","bdp_wmem","Sun Mar 12 2023 23:20:05 GMT-0400 (Eastern Daylight Time)","851644","Match,No Match","","null","","","","","","","<div class='trialBorder'><div class='vertical-center'><img src='img/fixation2_sml.jpg'</img></div></div>","null","DELAY","","","","","","","","","","",""
"html-keyboard-response","22","367264","0.0-5.0-4.3","608d0831835bd8f85ac9237e","bdp_wmem","Sun Mar 12 2023 23:20:05 GMT-0400 (Eastern Daylight Time)","851644","Match,No Match","","2466","","","","","","","<div class='trialBorder'><div class='targDiv'><div class='tc'><img class='introPic' src='trustrating_stim/white_mw012.bmp'><br><font color='red'><strong>Keep</strong></font></div></div><div class='respDiv'><div class='respDivL'>Match<br>(e)</div><div class='respDivR'>No Match<br>(i)</div></div></div>","e","TARGET","1","trustrating_stim/white_mw012.bmp","0","Match","e","1500","trustrating_stim/white_mw012.bmp","red","Keep","PRACTICE","1"
"html-keyboard-response","23","367767","0.0-5.0-5.3","608d0831835bd8f85ac9237e","bdp_wmem","Sun Mar 12 2023 23:20:05 GMT-0400 (Eastern Daylight Time)","851644","Match,No Match","","null","","","","","","","<div class='trialBorder'><div class='vertical-center'><img src='img/correct.jpg'></div><div class='respDiv'><div class='respDivL'><font style='color:orange'>Match<br>(e)</font></div><div class='respDivR'>No Match<br>(i)</div></div></div>","null","FEEDBACK","","","","","","","","","","",""
"html-keyboard-response","24","368269","0.0-5.0-1.4","608d0831835bd8f85ac9237e","bdp_wmem","Sun Mar 12 2023 23:20:05 GMT-0400 (Eastern Daylight Time)","851644","Match,No Match","","null","","","","","","","<div class='trialBorder'><div class='vertical-center'><img src='img/fixation2_sml.jpg'</img></div></div>","null","FIX","","","","","","","","","","",""
"html-keyboard-response","25","369771","0.0-5.0-2.4","608d0831835bd8f85ac9237e","bdp_wmem","Sun Mar 12 2023 23:20:05 GMT-0400 (Eastern Daylight Time)","851644","Match,No Match","","null","","","","","","","<div class='trialBorder'><div class='vertical-center'><img style='vertical-align:center; align:center' src='img/fixation2_sml.jpg'></div><div class='arrayDiv1'><div class='tc'><img class='introPic' src='trustrating_stim/white_mw038.bmp'><br><font color='green'><strong>Share</strong></font></div></div></div>","null","ARRAY","1","trustrating_stim/white_mw038.bmp","1","noMatchFace","i","1500","","","","",""
"html-keyboard-response","26","373772","0.0-5.0-3.4","608d0831835bd8f85ac9237e","bdp_wmem","Sun Mar 12 2023 23:20:05 GMT-0400 (Eastern Daylight Time)","851644","Match,No Match","","null","","","","","","","<div class='trialBorder'><div class='vertical-center'><img src='img/fixation2_sml.jpg'</img></div></div>","null","DELAY","","","","","","","","","","",""
"html-keyboard-response","27","374895","0.0-5.0-4.4","608d0831835bd8f85ac9237e","bdp_wmem","Sun Mar 12 2023 23:20:05 GMT-0400 (Eastern Daylight Time)","851644","Match,No Match","","1121","","","","","","","<div class='trialBorder'><div class='targDiv'><div class='tc'><img class='introPic' src='trustrating_stim/white_mw092.bmp'><br><font color='green'><strong>Share</strong></font></div></div><div class='respDiv'><div class='respDivL'>Match<br>(e)</div><div class='respDivR'>No Match<br>(i)</div></div></div>","i","TARGET","1","trustrating_stim/white_mw038.bmp","1","noMatchFace","i","1500","trustrating_stim/white_mw092.bmp","green","Share","PRACTICE","1"
"html-keyboard-response","28","375397","0.0-5.0-5.4","608d0831835bd8f85ac9237e","bdp_wmem","Sun Mar 12 2023 23:20:05 GMT-0400 (Eastern Daylight Time)","851644","Match,No Match","","null","","","","","","","<div class='trialBorder'><div class='vertical-center'><img src='img/correct.jpg'></div><div class='respDiv'><div class='respDivL'>Match<br>(e)</div><div class='respDivR'><font style='color:orange'>No Match<br>(i)</font></div></div></div>","null","FEEDBACK","","","","","","","","","","",""
"html-keyboard-response","29","375899","0.0-5.0-1.5","608d0831835bd8f85ac9237e","bdp_wmem","Sun Mar 12 2023 23:20:05 GMT-0400 (Eastern Daylight Time)","851644","Match,No Match","","null","","","","","","","<div class='trialBorder'><div class='vertical-center'><img src='img/fixation2_sml.jpg'</img></div></div>","null","FIX","","","","","","","","","","",""
"html-keyboard-response","30","378900","0.0-5.0-2.5","608d0831835bd8f85ac9237e","bdp_wmem","Sun Mar 12 2023 23:20:05 GMT-0400 (Eastern Daylight Time)","851644","Match,No Match","","null","","","","","","","<div class='trialBorder'><div class='vertical-center'><img style='vertical-align:center; align:center' src='img/fixation2_sml.jpg'></div><div class='arrayDiv2'><div class='tl'><img class='introPic' src='trustrating_stim/white_mw013.bmp'><br><font color='red'><strong>Keep</strong></font></div><div class='tr'><img class='introPic' src='trustrating_stim/white_mw012.bmp'><br><font color='green'><strong>Share</strong></font></div></div></div>","null","ARRAY","2","trustrating_stim/white_mw013.bmp,trustrating_stim/white_mw012.bmp","0,1","noMatchOutcome","i","3000","","","","",""
"html-keyboard-response","31","382903","0.0-5.0-3.5","608d0831835bd8f85ac9237e","bdp_wmem","Sun Mar 12 2023 23:20:05 GMT-0400 (Eastern Daylight Time)","851644","Match,No Match","","null","","","","","","","<div class='trialBorder'><div class='vertical-center'><img src='img/fixation2_sml.jpg'</img></div></div>","null","DELAY","","","","","","","","","","",""
"html-keyboard-response","32","384256","0.0-5.0-4.5","608d0831835bd8f85ac9237e","bdp_wmem","Sun Mar 12 2023 23:20:05 GMT-0400 (Eastern Daylight Time)","851644","Match,No Match","","1351","","","","","","","<div class='trialBorder'><div class='targDiv'><div class='tc'><img class='introPic' src='trustrating_stim/white_mw013.bmp'><br><font color='green'><strong>Share</strong></font></div></div><div class='respDiv'><div class='respDivL'>Match<br>(e)</div><div class='respDivR'>No Match<br>(i)</div></div></div>","i","TARGET","2","trustrating_stim/white_mw013.bmp,trustrating_stim/white_mw012.bmp","0,1","noMatchOutcome","i","3000","trustrating_stim/white_mw013.bmp","green","Share","PRACTICE","1"
"html-keyboard-response","33","384758","0.0-5.0-5.5","608d0831835bd8f85ac9237e","bdp_wmem","Sun Mar 12 2023 23:20:05 GMT-0400 (Eastern Daylight Time)","851644","Match,No Match","","null","","","","","","","<div class='trialBorder'><div class='vertical-center'><img src='img/correct.jpg'></div><div class='respDiv'><div class='respDivL'>Match<br>(e)</div><div class='respDivR'><font style='color:orange'>No Match<br>(i)</font></div></div></div>","null","FEEDBACK","","","","","","","","","","",""
"instructions","34","388017","0.0-6.0","608d0831835bd8f85ac9237e","bdp_wmem","Sun Mar 12 2023 23:20:05 GMT-0400 (Eastern Daylight Time)","851644","Match,No Match","[{""page_index"":0,""viewing_time"":3258}]","3258","","","","","","","","","","","","","","","","","","","",""
"html-keyboard-response","35","388518","0.0-7.0-1.0","608d0831835bd8f85ac9237e","bdp_wmem","Sun Mar 12 2023 23:20:05 GMT-0400 (Eastern Daylight Time)","851644","Match,No Match","","null","","","","","","","<div class='trialBorder'><div class='vertical-center'><img src='img/fixation2_sml.jpg'</img></div></div>","null","FIX","","","","","","","","","","",""
"html-keyboard-response","36","390023","0.0-7.0-2.0","608d0831835bd8f85ac9237e","bdp_wmem","Sun Mar 12 2023 23:20:05 GMT-0400 (Eastern Daylight Time)","851644","Match,No Match","","null","","","","","","","<div class='trialBorder'><div class='vertical-center'><img style='vertical-align:center; align:center' src='img/fixation2_sml.jpg'></div><div class='arrayDiv1'><div class='tc'><img class='introPic' src='trustrating_stim/white_mw070.bmp'><br><font color='red'><strong>Keep</strong></font></div></div></div>","null","ARRAY","1","trustrating_stim/white_mw070.bmp","0","noMatchOutcome","i","1500","","","","",""
"html-keyboard-response","37","394024","0.0-7.0-3.0","608d0831835bd8f85ac9237e","bdp_wmem","Sun Mar 12 2023 23:20:05 GMT-0400 (Eastern Daylight Time)","851644","Match,No Match","","null","","","","","","","<div class='trialBorder'><div class='vertical-center'><img src='img/fixation2_sml.jpg'</img></div></div>","null","DELAY","","","","","","","","","","",""
"html-keyboard-response","38","395095","0.0-7.0-4.0","608d0831835bd8f85ac9237e","bdp_wmem","Sun Mar 12 2023 23:20:05 GMT-0400 (Eastern Daylight Time)","851644","Match,No Match","","1070","","","","","","","<div class='trialBorder'><div class='targDiv'><div class='tc'><img class='introPic' src='trustrating_stim/white_mw070.bmp'><br><font color='green'><strong>Share</strong></font></div></div><div class='respDiv'><div class='respDivL'>Match<br>(e)</div><div class='respDivR'>No Match<br>(i)</div></div></div>","i","TARGET","1","trustrating_stim/white_mw070.bmp","0","noMatchOutcome","i","1500","trustrating_stim/white_mw070.bmp","green","Share","REAL","1"
"html-keyboard-response","39","395597","0.0-7.0-5.0","608d0831835bd8f85ac9237e","bdp_wmem","Sun Mar 12 2023 23:20:05 GMT-0400 (Eastern Daylight Time)","851644","Match,No Match","","null","","","","","","","<div class='trialBorder'><div class='vertical-center'><img src='img/correct.jpg'></div><div class='respDiv'><div class='respDivL'>Match<br>(e)</div><div class='respDivR'><font style='color:orange'>No Match<br>(i)</font></div></div></div>","null","FEEDBACK","","","","","","","","","","",""
"html-keyboard-response","40","396098","0.0-7.0-1.1","608d0831835bd8f85ac9237e","bdp_wmem","Sun Mar 12 2023 23:20:05 GMT-0400 (Eastern Daylight Time)","851644","Match,No Match","","null","","","","","","","<div class='trialBorder'><div class='vertical-center'><img src='img/fixation2_sml.jpg'</img></div></div>","null","FIX","","","","","","","","","","",""
"html-keyboard-response","41","397600","0.0-7.0-2.1","608d0831835bd8f85ac9237e","bdp_wmem","Sun Mar 12 2023 23:20:05 GMT-0400 (Eastern Daylight Time)","851644","Match,No Match","","null","","","","","","","<div class='trialBorder'><div class='vertical-center'><img style='vertical-align:center; align:center' src='img/fixation2_sml.jpg'></div><div class='arrayDiv1'><div class='tc'><img class='introPic' src='trustrating_stim/white_mw010.bmp'><br><font color='green'><strong>Share</strong></font></div></div></div>","null","ARRAY","1","trustrating_stim/white_mw010.bmp","1","Match","e","1500","","","","",""
"html-keyboard-response","42","401602","0.0-7.0-3.1","608d0831835bd8f85ac9237e","bdp_wmem","Sun Mar 12 2023 23:20:05 GMT-0400 (Eastern Daylight Time)","851644","Match,No Match","","null","","","","","","","<div class='trialBorder'><div class='vertical-center'><img src='img/fixation2_sml.jpg'</img></div></div>","null","DELAY","","","","","","","","","","",""
"html-keyboard-response","43","402777","0.0-7.0-4.1","608d0831835bd8f85ac9237e","bdp_wmem","Sun Mar 12 2023 23:20:05 GMT-0400 (Eastern Daylight Time)","851644","Match,No Match","","1173","","","","","","","<div class='trialBorder'><div class='targDiv'><div class='tc'><img class='introPic' src='trustrating_stim/white_mw010.bmp'><br><font color='green'><strong>Share</strong></font></div></div><div class='respDiv'><div class='respDivL'>Match<br>(e)</div><div class='respDivR'>No Match<br>(i)</div></div></div>","e","TARGET","1","trustrating_stim/white_mw010.bmp","1","Match","e","1500","trustrating_stim/white_mw010.bmp","green","Share","REAL","1"
"html-keyboard-response","44","403279","0.0-7.0-5.1","608d0831835bd8f85ac9237e","bdp_wmem","Sun Mar 12 2023 23:20:05 GMT-0400 (Eastern Daylight Time)","851644","Match,No Match","","null","","","","","","","<div class='trialBorder'><div class='vertical-center'><img src='img/correct.jpg'></div><div class='respDiv'><div class='respDivL'><font style='color:orange'>Match<br>(e)</font></div><div class='respDivR'>No Match<br>(i)</div></div></div>","null","FEEDBACK","","","","","","","","","","",""
"html-keyboard-response","45","403781","0.0-7.0-1.2","608d0831835bd8f85ac9237e","bdp_wmem","Sun Mar 12 2023 23:20:05 GMT-0400 (Eastern Daylight Time)","851644","Match,No Match","","null","","","","","","","<div class='trialBorder'><div class='vertical-center'><img src='img/fixation2_sml.jpg'</img></div></div>","null","FIX","","","","","","","","","","",""
"html-keyboard-response","46","408284","0.0-7.0-2.2","608d0831835bd8f85ac9237e","bdp_wmem","Sun Mar 12 2023 23:20:05 GMT-0400 (Eastern Daylight Time)","851644","Match,No Match","","null","","","","","","","<div class='trialBorder'><div class='vertical-center'><img style='vertical-align:center; align:center' src='img/fixation2_sml.jpg'></div><div class='arrayDiv3'><div class='tl'><img class='introPic' src='trustrating_stim/white_mw042.bmp'><br><font color='green'><strong>Share</strong></font></div><div class='tc'><img class='introPic' src='trustrating_stim/white_mw040.bmp'><br><font color='green'><strong>Share</strong></font></div><div class='tr'><img class='introPic' src='trustrating_stim/white_mw012.bmp'><br><font color='red'><strong>Keep</strong></font></div></div></div>","null","ARRAY","3","trustrating_stim/white_mw042.bmp,trustrating_stim/white_mw040.bmp,trustrating_stim/white_mw012.bmp","1,1,0","Match","e","4500","","","","",""
"html-keyboard-response","47","412287","0.0-7.0-3.2","608d0831835bd8f85ac9237e","bdp_wmem","Sun Mar 12 2023 23:20:05 GMT-0400 (Eastern Daylight Time)","851644","Match,No Match","","null","","","","","","","<div class='trialBorder'><div class='vertical-center'><img src='img/fixation2_sml.jpg'</img></div></div>","null","DELAY","","","","","","","","","","",""
"html-keyboard-response","48","414219","0.0-7.0-4.2","608d0831835bd8f85ac9237e","bdp_wmem","Sun Mar 12 2023 23:20:05 GMT-0400 (Eastern Daylight Time)","851644","Match,No Match","","1929","","","","","","","<div class='trialBorder'><div class='targDiv'><div class='tc'><img class='introPic' src='trustrating_stim/white_mw042.bmp'><br><font color='green'><strong>Share</strong></font></div></div><div class='respDiv'><div class='respDivL'>Match<br>(e)</div><div class='respDivR'>No Match<br>(i)</div></div></div>","e","TARGET","3","trustrating_stim/white_mw042.bmp,trustrating_stim/white_mw040.bmp,trustrating_stim/white_mw012.bmp","1,1,0","Match","e","4500","trustrating_stim/white_mw042.bmp","green","Share","REAL","1"
"html-keyboard-response","49","414721","0.0-7.0-5.2","608d0831835bd8f85ac9237e","bdp_wmem","Sun Mar 12 2023 23:20:05 GMT-0400 (Eastern Daylight Time)","851644","Match,No Match","","null","","","","","","","<div class='trialBorder'><div class='vertical-center'><img src='img/correct.jpg'></div><div class='respDiv'><div class='respDivL'><font style='color:orange'>Match<br>(e)</font></div><div class='respDivR'>No Match<br>(i)</div></div></div>","null","FEEDBACK","","","","","","","","","","",""
"html-keyboard-response","50","415223","0.0-7.0-1.3","608d0831835bd8f85ac9237e","bdp_wmem","Sun Mar 12 2023 23:20:05 GMT-0400 (Eastern Daylight Time)","851644","Match,No Match","","null","","","","","","","<div class='trialBorder'><div class='vertical-center'><img src='img/fixation2_sml.jpg'</img></div></div>","null","FIX","","","","","","","","","","",""
"html-keyboard-response","51","416727","0.0-7.0-2.3","608d0831835bd8f85ac9237e","bdp_wmem","Sun Mar 12 2023 23:20:05 GMT-0400 (Eastern Daylight Time)","851644","Match,No Match","","null","","","","","","","<div class='trialBorder'><div class='vertical-center'><img style='vertical-align:center; align:center' src='img/fixation2_sml.jpg'></div><div class='arrayDiv1'><div class='tc'><img class='introPic' src='trustrating_stim/white_mw003.bmp'><br><font color='green'><strong>Share</strong></font></div></div></div>","null","ARRAY","1","trustrating_stim/white_mw003.bmp","1","Match","e","1500","","","","",""
"html-keyboard-response","52","420729","0.0-7.0-3.3","608d0831835bd8f85ac9237e","bdp_wmem","Sun Mar 12 2023 23:20:05 GMT-0400 (Eastern Daylight Time)","851644","Match,No Match","","null","","","","","","","<div class='trialBorder'><div class='vertical-center'><img src='img/fixation2_sml.jpg'</img></div></div>","null","DELAY","","","","","","","","","","",""
"html-keyboard-response","53","421674","0.0-7.0-4.3","608d0831835bd8f85ac9237e","bdp_wmem","Sun Mar 12 2023 23:20:05 GMT-0400 (Eastern Daylight Time)","851644","Match,No Match","","942","","","","","","","<div class='trialBorder'><div class='targDiv'><div class='tc'><img class='introPic' src='trustrating_stim/white_mw003.bmp'><br><font color='green'><strong>Share</strong></font></div></div><div class='respDiv'><div class='respDivL'>Match<br>(e)</div><div class='respDivR'>No Match<br>(i)</div></div></div>","e","TARGET","1","trustrating_stim/white_mw003.bmp","1","Match","e","1500","trustrating_stim/white_mw003.bmp","green","Share","REAL","1"
"html-keyboard-response","54","422176","0.0-7.0-5.3","608d0831835bd8f85ac9237e","bdp_wmem","Sun Mar 12 2023 23:20:05 GMT-0400 (Eastern Daylight Time)","851644","Match,No Match","","null","","","","","","","<div class='trialBorder'><div class='vertical-center'><img src='img/correct.jpg'></div><div class='respDiv'><div class='respDivL'><font style='color:orange'>Match<br>(e)</font></div><div class='respDivR'>No Match<br>(i)</div></div></div>","null","FEEDBACK","","","","","","","","","","",""
"html-keyboard-response","55","422679","0.0-7.0-1.4","608d0831835bd8f85ac9237e","bdp_wmem","Sun Mar 12 2023 23:20:05 GMT-0400 (Eastern Daylight Time)","851644","Match,No Match","","null","","","","","","","<div class='trialBorder'><div class='vertical-center'><img src='img/fixation2_sml.jpg'</img></div></div>","null","FIX","","","","","","","","","","",""
"html-keyboard-response","56","427182","0.0-7.0-2.4","608d0831835bd8f85ac9237e","bdp_wmem","Sun Mar 12 2023 23:20:05 GMT-0400 (Eastern Daylight Time)","851644","Match,No Match","","null","","","","","","","<div class='trialBorder'><div class='vertical-center'><img style='vertical-align:center; align:center' src='img/fixation2_sml.jpg'></div><div class='arrayDiv3'><div class='tl'><img class='introPic' src='trustrating_stim/white_mw013.bmp'><br><font color='red'><strong>Keep</strong></font></div><div class='tc'><img class='introPic' src='trustrating_stim/white_mw070.bmp'><br><font color='green'><strong>Share</strong></font></div><div class='tr'><img class='introPic' src='trustrating_stim/white_mw038.bmp'><br><font color='red'><strong>Keep</strong></font></div></div></div>","null","ARRAY","3","trustrating_stim/white_mw013.bmp,trustrating_stim/white_mw070.bmp,trustrating_stim/white_mw038.bmp","0,1,0","noMatchFace","i","4500","","","","",""
"html-keyboard-response","57","431184","0.0-7.0-3.4","608d0831835bd8f85ac9237e","bdp_wmem","Sun Mar 12 2023 23:20:05 GMT-0400 (Eastern Daylight Time)","851644","Match,No Match","","null","","","","","","","<div class='trialBorder'><div class='vertical-center'><img src='img/fixation2_sml.jpg'</img></div></div>","null","DELAY","","","","","","","","","","",""
"html-keyboard-response","58","432401","0.0-7.0-4.4","608d0831835bd8f85ac9237e","bdp_wmem","Sun Mar 12 2023 23:20:05 GMT-0400 (Eastern Daylight Time)","851644","Match,No Match","","1215","","","","","","","<div class='trialBorder'><div class='targDiv'><div class='tc'><img class='introPic' src='trustrating_stim/white_mw085.bmp'><br><font color='green'><strong>Share</strong></font></div></div><div class='respDiv'><div class='respDivL'>Match<br>(e)</div><div class='respDivR'>No Match<br>(i)</div></div></div>","i","TARGET","3","trustrating_stim/white_mw013.bmp,trustrating_stim/white_mw070.bmp,trustrating_stim/white_mw038.bmp","0,1,0","noMatchFace","i","4500","trustrating_stim/white_mw085.bmp","green","Share","REAL","1"
"html-keyboard-response","59","432904","0.0-7.0-5.4","608d0831835bd8f85ac9237e","bdp_wmem","Sun Mar 12 2023 23:20:05 GMT-0400 (Eastern Daylight Time)","851644","Match,No Match","","null","","","","","","","<div class='trialBorder'><div class='vertical-center'><img src='img/correct.jpg'></div><div class='respDiv'><div class='respDivL'>Match<br>(e)</div><div class='respDivR'><font style='color:orange'>No Match<br>(i)</font></div></div></div>","null","FEEDBACK","","","","","","","","","","",""
"html-keyboard-response","60","433407","0.0-7.0-1.5","608d0831835bd8f85ac9237e","bdp_wmem","Sun Mar 12 2023 23:20:05 GMT-0400 (Eastern Daylight Time)","851644","Match,No Match","","null","","","","","","","<div class='trialBorder'><div class='vertical-center'><img src='img/fixation2_sml.jpg'</img></div></div>","null","FIX","","","","","","","","","","",""
"html-keyboard-response","61","436410","0.0-7.0-2.5","608d0831835bd8f85ac9237e","bdp_wmem","Sun Mar 12 2023 23:20:05 GMT-0400 (Eastern Daylight Time)","851644","Match,No Match","","null","","","","","","","<div class='trialBorder'><div class='vertical-center'><img style='vertical-align:center; align:center' src='img/fixation2_sml.jpg'></div><div class='arrayDiv2'><div class='tl'><img class='introPic' src='trustrating_stim/white_mw091.bmp'><br><font color='green'><strong>Share</strong></font></div><div class='tr'><img class='introPic' src='trustrating_stim/white_mw092.bmp'><br><font color='red'><strong>Keep</strong></font></div></div></div>","null","ARRAY","2","trustrating_stim/white_mw091.bmp,trustrating_stim/white_mw092.bmp","1,0","noMatchFace","i","3000","","","","",""
"html-keyboard-response","62","440413","0.0-7.0-3.5","608d0831835bd8f85ac9237e","bdp_wmem","Sun Mar 12 2023 23:20:05 GMT-0400 (Eastern Daylight Time)","851644","Match,No Match","","null","","","","","","","<div class='trialBorder'><div class='vertical-center'><img src='img/fixation2_sml.jpg'</img></div></div>","null","DELAY","","","","","","","","","","",""
"html-keyboard-response","63","441784","0.0-7.0-4.5","608d0831835bd8f85ac9237e","bdp_wmem","Sun Mar 12 2023 23:20:05 GMT-0400 (Eastern Daylight Time)","851644","Match,No Match","","1369","","","","","","","<div class='trialBorder'><div class='targDiv'><div class='tc'><img class='introPic' src='trustrating_stim/white_mw042.bmp'><br><font color='red'><strong>Keep</strong></font></div></div><div class='respDiv'><div class='respDivL'>Match<br>(e)</div><div class='respDivR'>No Match<br>(i)</div></div></div>","i","TARGET","2","trustrating_stim/white_mw091.bmp,trustrating_stim/white_mw092.bmp","1,0","noMatchFace","i","3000","trustrating_stim/white_mw042.bmp","red","Keep","REAL","1"
"html-keyboard-response","64","442286","0.0-7.0-5.5","608d0831835bd8f85ac9237e","bdp_wmem","Sun Mar 12 2023 23:20:05 GMT-0400 (Eastern Daylight Time)","851644","Match,No Match","","null","","","","","","","<div class='trialBorder'><div class='vertical-center'><img src='img/correct.jpg'></div><div class='respDiv'><div class='respDivL'>Match<br>(e)</div><div class='respDivR'><font style='color:orange'>No Match<br>(i)</font></div></div></div>","null","FEEDBACK","","","","","","","","","","",""
"html-keyboard-response","65","442788","0.0-7.0-1.6","608d0831835bd8f85ac9237e","bdp_wmem","Sun Mar 12 2023 23:20:05 GMT-0400 (Eastern Daylight Time)","851644","Match,No Match","","null","","","","","","","<div class='trialBorder'><div class='vertical-center'><img src='img/fixation2_sml.jpg'</img></div></div>","null","FIX","","","","","","","","","","",""
"html-keyboard-response","66","447292","0.0-7.0-2.6","608d0831835bd8f85ac9237e","bdp_wmem","Sun Mar 12 2023 23:20:05 GMT-0400 (Eastern Daylight Time)","851644","Match,No Match","","null","","","","","","","<div class='trialBorder'><div class='vertical-center'><img style='vertical-align:center; align:center' src='img/fixation2_sml.jpg'></div><div class='arrayDiv3'><div class='tl'><img class='introPic' src='trustrating_stim/white_mw092.bmp'><br><font color='red'><strong>Keep</strong></font></div><div class='tc'><img class='introPic' src='trustrating_stim/white_mw010.bmp'><br><font color='red'><strong>Keep</strong></font></div><div class='tr'><img class='introPic' src='trustrating_stim/white_mw070.bmp'><br><font color='green'><strong>Share</strong></font></div></div></div>","null","ARRAY","3","trustrating_stim/white_mw092.bmp,trustrating_stim/white_mw010.bmp,trustrating_stim/white_mw070.bmp","0,0,1","Match","e","4500","","","","",""
"html-keyboard-response","67","451294","0.0-7.0-3.6","608d0831835bd8f85ac9237e","bdp_wmem","Sun Mar 12 2023 23:20:05 GMT-0400 (Eastern Daylight Time)","851644","Match,No Match","","null","","","","","","","<div class='trialBorder'><div class='vertical-center'><img src='img/fixation2_sml.jpg'</img></div></div>","null","DELAY","","","","","","","","","","",""
"html-keyboard-response","68","452929","0.0-7.0-4.6","608d0831835bd8f85ac9237e","bdp_wmem","Sun Mar 12 2023 23:20:05 GMT-0400 (Eastern Daylight Time)","851644","Match,No Match","","1633","","","","","","","<div class='trialBorder'><div class='targDiv'><div class='tc'><img class='introPic' src='trustrating_stim/white_mw092.bmp'><br><font color='red'><strong>Keep</strong></font></div></div><div class='respDiv'><div class='respDivL'>Match<br>(e)</div><div class='respDivR'>No Match<br>(i)</div></div></div>","e","TARGET","3","trustrating_stim/white_mw092.bmp,trustrating_stim/white_mw010.bmp,trustrating_stim/white_mw070.bmp","0,0,1","Match","e","4500","trustrating_stim/white_mw092.bmp","red","Keep","REAL","1"
"html-keyboard-response","69","453431","0.0-7.0-5.6","608d0831835bd8f85ac9237e","bdp_wmem","Sun Mar 12 2023 23:20:05 GMT-0400 (Eastern Daylight Time)","851644","Match,No Match","","null","","","","","","","<div class='trialBorder'><div class='vertical-center'><img src='img/correct.jpg'></div><div class='respDiv'><div class='respDivL'><font style='color:orange'>Match<br>(e)</font></div><div class='respDivR'>No Match<br>(i)</div></div></div>","null","FEEDBACK","","","","","","","","","","",""
"html-keyboard-response","70","453933","0.0-7.0-1.7","608d0831835bd8f85ac9237e","bdp_wmem","Sun Mar 12 2023 23:20:05 GMT-0400 (Eastern Daylight Time)","851644","Match,No Match","","null","","","","","","","<div class='trialBorder'><div class='vertical-center'><img src='img/fixation2_sml.jpg'</img></div></div>","null","FIX","","","","","","","","","","",""
"html-keyboard-response","71","458435","0.0-7.0-2.7","608d0831835bd8f85ac9237e","bdp_wmem","Sun Mar 12 2023 23:20:05 GMT-0400 (Eastern Daylight Time)","851644","Match,No Match","","null","","","","","","","<div class='trialBorder'><div class='vertical-center'><img style='vertical-align:center; align:center' src='img/fixation2_sml.jpg'></div><div class='arrayDiv3'><div class='tl'><img class='introPic' src='trustrating_stim/white_mw010.bmp'><br><font color='red'><strong>Keep</strong></font></div><div class='tc'><img class='introPic' src='trustrating_stim/white_mw040.bmp'><br><font color='green'><strong>Share</strong></font></div><div class='tr'><img class='introPic' src='trustrating_stim/white_mw003.bmp'><br><font color='red'><strong>Keep</strong></font></div></div></div>","null","ARRAY","3","trustrating_stim/white_mw010.bmp,trustrating_stim/white_mw040.bmp,trustrating_stim/white_mw003.bmp","0,1,0","Match","e","4500","","","","",""
"html-keyboard-response","72","462437","0.0-7.0-3.7","608d0831835bd8f85ac9237e","bdp_wmem","Sun Mar 12 2023 23:20:05 GMT-0400 (Eastern Daylight Time)","851644","Match,No Match","","null","","","","","","","<div class='trialBorder'><div class='vertical-center'><img src='img/fixation2_sml.jpg'</img></div></div>","null","DELAY","","","","","","","","","","",""
"html-keyboard-response","73","464697","0.0-7.0-4.7","608d0831835bd8f85ac9237e","bdp_wmem","Sun Mar 12 2023 23:20:05 GMT-0400 (Eastern Daylight Time)","851644","Match,No Match","","2258","","","","","","","<div class='trialBorder'><div class='targDiv'><div class='tc'><img class='introPic' src='trustrating_stim/white_mw010.bmp'><br><font color='red'><strong>Keep</strong></font></div></div><div class='respDiv'><div class='respDivL'>Match<br>(e)</div><div class='respDivR'>No Match<br>(i)</div></div></div>","e","TARGET","3","trustrating_stim/white_mw010.bmp,trustrating_stim/white_mw040.bmp,trustrating_stim/white_mw003.bmp","0,1,0","Match","e","4500","trustrating_stim/white_mw010.bmp","red","Keep","REAL","1"
"html-keyboard-response","74","465201","0.0-7.0-5.7","608d0831835bd8f85ac9237e","bdp_wmem","Sun Mar 12 2023 23:20:05 GMT-0400 (Eastern Daylight Time)","851644","Match,No Match","","null","","","","","","","<div class='trialBorder'><div class='vertical-center'><img src='img/correct.jpg'></div><div class='respDiv'><div class='respDivL'><font style='color:orange'>Match<br>(e)</font></div><div class='respDivR'>No Match<br>(i)</div></div></div>","null","FEEDBACK","","","","","","","","","","",""
"html-keyboard-response","75","465703","0.0-7.0-1.8","608d0831835bd8f85ac9237e","bdp_wmem","Sun Mar 12 2023 23:20:05 GMT-0400 (Eastern Daylight Time)","851644","Match,No Match","","null","","","","","","","<div class='trialBorder'><div class='vertical-center'><img src='img/fixation2_sml.jpg'</img></div></div>","null","FIX","","","","","","","","","","",""
"html-keyboard-response","76","468706","0.0-7.0-2.8","608d0831835bd8f85ac9237e","bdp_wmem","Sun Mar 12 2023 23:20:05 GMT-0400 (Eastern Daylight Time)","851644","Match,No Match","","null","","","","","","","<div class='trialBorder'><div class='vertical-center'><img style='vertical-align:center; align:center' src='img/fixation2_sml.jpg'></div><div class='arrayDiv2'><div class='tl'><img class='introPic' src='trustrating_stim/white_mw040.bmp'><br><font color='red'><strong>Keep</strong></font></div><div class='tr'><img class='introPic' src='trustrating_stim/white_mw042.bmp'><br><font color='green'><strong>Share</strong></font></div></div></div>","null","ARRAY","2","trustrating_stim/white_mw040.bmp,trustrating_stim/white_mw042.bmp","0,1","noMatchOutcome","i","3000","","","","",""
"html-keyboard-response","77","472709","0.0-7.0-3.8","608d0831835bd8f85ac9237e","bdp_wmem","Sun Mar 12 2023 23:20:05 GMT-0400 (Eastern Daylight Time)","851644","Match,No Match","","null","","","","","","","<div class='trialBorder'><div class='vertical-center'><img src='img/fixation2_sml.jpg'</img></div></div>","null","DELAY","","","","","","","","","","",""
"html-keyboard-response","78","473753","0.0-7.0-4.8","608d0831835bd8f85ac9237e","bdp_wmem","Sun Mar 12 2023 23:20:05 GMT-0400 (Eastern Daylight Time)","851644","Match,No Match","","1042","","","","","","","<div class='trialBorder'><div class='targDiv'><div class='tc'><img class='introPic' src='trustrating_stim/white_mw040.bmp'><br><font color='green'><strong>Share</strong></font></div></div><div class='respDiv'><div class='respDivL'>Match<br>(e)</div><div class='respDivR'>No Match<br>(i)</div></div></div>","i","TARGET","2","trustrating_stim/white_mw040.bmp,trustrating_stim/white_mw042.bmp","0,1","noMatchOutcome","i","3000","trustrating_stim/white_mw040.bmp","green","Share","REAL","1"
"html-keyboard-response","79","474255","0.0-7.0-5.8","608d0831835bd8f85ac9237e","bdp_wmem","Sun Mar 12 2023 23:20:05 GMT-0400 (Eastern Daylight Time)","851644","Match,No Match","","null","","","","","","","<div class='trialBorder'><div class='vertical-center'><img src='img/correct.jpg'></div><div class='respDiv'><div class='respDivL'>Match<br>(e)</div><div class='respDivR'><font style='color:orange'>No Match<br>(i)</font></div></div></div>","null","FEEDBACK","","","","","","","","","","",""
"html-keyboard-response","80","474759","0.0-7.0-1.9","608d0831835bd8f85ac9237e","bdp_wmem","Sun Mar 12 2023 23:20:05 GMT-0400 (Eastern Daylight Time)","851644","Match,No Match","","null","","","","","","","<div class='trialBorder'><div class='vertical-center'><img src='img/fixation2_sml.jpg'</img></div></div>","null","FIX","","","","","","","","","","",""
"html-keyboard-response","81","476263","0.0-7.0-2.9","608d0831835bd8f85ac9237e","bdp_wmem","Sun Mar 12 2023 23:20:05 GMT-0400 (Eastern Daylight Time)","851644","Match,No Match","","null","","","","","","","<div class='trialBorder'><div class='vertical-center'><img style='vertical-align:center; align:center' src='img/fixation2_sml.jpg'></div><div class='arrayDiv1'><div class='tc'><img class='introPic' src='trustrating_stim/white_mw078.bmp'><br><font color='red'><strong>Keep</strong></font></div></div></div>","null","ARRAY","1","trustrating_stim/white_mw078.bmp","0","Match","e","1500","","","","",""
"html-keyboard-response","82","480265","0.0-7.0-3.9","608d0831835bd8f85ac9237e","bdp_wmem","Sun Mar 12 2023 23:20:05 GMT-0400 (Eastern Daylight Time)","851644","Match,No Match","","null","","","","","","","<div class='trialBorder'><div class='vertical-center'><img src='img/fixation2_sml.jpg'</img></div></div>","null","DELAY","","","","","","","","","","",""
"html-keyboard-response","83","481305","0.0-7.0-4.9","608d0831835bd8f85ac9237e","bdp_wmem","Sun Mar 12 2023 23:20:05 GMT-0400 (Eastern Daylight Time)","851644","Match,No Match","","1037","","","","","","","<div class='trialBorder'><div class='targDiv'><div class='tc'><img class='introPic' src='trustrating_stim/white_mw078.bmp'><br><font color='red'><strong>Keep</strong></font></div></div><div class='respDiv'><div class='respDivL'>Match<br>(e)</div><div class='respDivR'>No Match<br>(i)</div></div></div>","e","TARGET","1","trustrating_stim/white_mw078.bmp","0","Match","e","1500","trustrating_stim/white_mw078.bmp","red","Keep","REAL","1"
"html-keyboard-response","84","481808","0.0-7.0-5.9","608d0831835bd8f85ac9237e","bdp_wmem","Sun Mar 12 2023 23:20:05 GMT-0400 (Eastern Daylight Time)","851644","Match,No Match","","null","","","","","","","<div class='trialBorder'><div class='vertical-center'><img src='img/correct.jpg'></div><div class='respDiv'><div class='respDivL'><font style='color:orange'>Match<br>(e)</font></div><div class='respDivR'>No Match<br>(i)</div></div></div>","null","FEEDBACK","","","","","","","","","","",""
"html-keyboard-response","85","482310","0.0-7.0-1.10","608d0831835bd8f85ac9237e","bdp_wmem","Sun Mar 12 2023 23:20:05 GMT-0400 (Eastern Daylight Time)","851644","Match,No Match","","null","","","","","","","<div class='trialBorder'><div class='vertical-center'><img src='img/fixation2_sml.jpg'</img></div></div>","null","FIX","","","","","","","","","","",""
"html-keyboard-response","86","485312","0.0-7.0-2.10","608d0831835bd8f85ac9237e","bdp_wmem","Sun Mar 12 2023 23:20:05 GMT-0400 (Eastern Daylight Time)","851644","Match,No Match","","null","","","","","","","<div class='trialBorder'><div class='vertical-center'><img style='vertical-align:center; align:center' src='img/fixation2_sml.jpg'></div><div class='arrayDiv2'><div class='tl'><img class='introPic' src='trustrating_stim/white_mw042.bmp'><br><font color='red'><strong>Keep</strong></font></div><div class='tr'><img class='introPic' src='trustrating_stim/white_mw070.bmp'><br><font color='green'><strong>Share</strong></font></div></div></div>","null","ARRAY","2","trustrating_stim/white_mw042.bmp,trustrating_stim/white_mw070.bmp","0,1","noMatchOutcome","i","3000","","","","",""
"html-keyboard-response","87","489314","0.0-7.0-3.10","608d0831835bd8f85ac9237e","bdp_wmem","Sun Mar 12 2023 23:20:05 GMT-0400 (Eastern Daylight Time)","851644","Match,No Match","","null","","","","","","","<div class='trialBorder'><div class='vertical-center'><img src='img/fixation2_sml.jpg'</img></div></div>","null","DELAY","","","","","","","","","","",""
"html-keyboard-response","88","490841","0.0-7.0-4.10","608d0831835bd8f85ac9237e","bdp_wmem","Sun Mar 12 2023 23:20:05 GMT-0400 (Eastern Daylight Time)","851644","Match,No Match","","1525","","","","","","","<div class='trialBorder'><div class='targDiv'><div class='tc'><img class='introPic' src='trustrating_stim/white_mw070.bmp'><br><font color='red'><strong>Keep</strong></font></div></div><div class='respDiv'><div class='respDivL'>Match<br>(e)</div><div class='respDivR'>No Match<br>(i)</div></div></div>","e","TARGET","2","trustrating_stim/white_mw042.bmp,trustrating_stim/white_mw070.bmp","0,1","noMatchOutcome","i","3000","trustrating_stim/white_mw070.bmp","red","Keep","REAL","0"
"html-keyboard-response","89","491343","0.0-7.0-5.10","608d0831835bd8f85ac9237e","bdp_wmem","Sun Mar 12 2023 23:20:05 GMT-0400 (Eastern Daylight Time)","851644","Match,No Match","","null","","","","","","","<div class='trialBorder'><div class='vertical-center'><img src='img/error.jpg'></div><div class='respDiv'><div class='respDivL'><font style='color:orange'>Match<br>(e)</font></div><div class='respDivR'>No Match<br>(i)</div></div></div>","null","FEEDBACK","","","","","","","","","","",""
"html-keyboard-response","90","491845","0.0-7.0-1.11","608d0831835bd8f85ac9237e","bdp_wmem","Sun Mar 12 2023 23:20:05 GMT-0400 (Eastern Daylight Time)","851644","Match,No Match","","null","","","","","","","<div class='trialBorder'><div class='vertical-center'><img src='img/fixation2_sml.jpg'</img></div></div>","null","FIX","","","","","","","","","","",""
"html-keyboard-response","91","496347","0.0-7.0-2.11","608d0831835bd8f85ac9237e","bdp_wmem","Sun Mar 12 2023 23:20:05 GMT-0400 (Eastern Daylight Time)","851644","Match,No Match","","null","","","","","","","<div class='trialBorder'><div class='vertical-center'><img style='vertical-align:center; align:center' src='img/fixation2_sml.jpg'></div><div class='arrayDiv3'><div class='tl'><img class='introPic' src='trustrating_stim/white_mw013.bmp'><br><font color='red'><strong>Keep</strong></font></div><div class='tc'><img class='introPic' src='trustrating_stim/white_mw078.bmp'><br><font color='green'><strong>Share</strong></font></div><div class='tr'><img class='introPic' src='trustrating_stim/white_mw038.bmp'><br><font color='red'><strong>Keep</strong></font></div></div></div>","null","ARRAY","3","trustrating_stim/white_mw013.bmp,trustrating_stim/white_mw078.bmp,trustrating_stim/white_mw038.bmp","0,1,0","Match","e","4500","","","","",""
"html-keyboard-response","92","500350","0.0-7.0-3.11","608d0831835bd8f85ac9237e","bdp_wmem","Sun Mar 12 2023 23:20:05 GMT-0400 (Eastern Daylight Time)","851644","Match,No Match","","null","","","","","","","<div class='trialBorder'><div class='vertical-center'><img src='img/fixation2_sml.jpg'</img></div></div>","null","DELAY","","","","","","","","","","",""
"html-keyboard-response","93","501737","0.0-7.0-4.11","608d0831835bd8f85ac9237e","bdp_wmem","Sun Mar 12 2023 23:20:05 GMT-0400 (Eastern Daylight Time)","851644","Match,No Match","","1385","","","","","","","<div class='trialBorder'><div class='targDiv'><div class='tc'><img class='introPic' src='trustrating_stim/white_mw078.bmp'><br><font color='green'><strong>Share</strong></font></div></div><div class='respDiv'><div class='respDivL'>Match<br>(e)</div><div class='respDivR'>No Match<br>(i)</div></div></div>","e","TARGET","3","trustrating_stim/white_mw013.bmp,trustrating_stim/white_mw078.bmp,trustrating_stim/white_mw038.bmp","0,1,0","Match","e","4500","trustrating_stim/white_mw078.bmp","green","Share","REAL","1"
"html-keyboard-response","94","502239","0.0-7.0-5.11","608d0831835bd8f85ac9237e","bdp_wmem","Sun Mar 12 2023 23:20:05 GMT-0400 (Eastern Daylight Time)","851644","Match,No Match","","null","","","","","","","<div class='trialBorder'><div class='vertical-center'><img src='img/correct.jpg'></div><div class='respDiv'><div class='respDivL'><font style='color:orange'>Match<br>(e)</font></div><div class='respDivR'>No Match<br>(i)</div></div></div>","null","FEEDBACK","","","","","","","","","","",""
"html-keyboard-response","95","502741","0.0-7.0-1.12","608d0831835bd8f85ac9237e","bdp_wmem","Sun Mar 12 2023 23:20:05 GMT-0400 (Eastern Daylight Time)","851644","Match,No Match","","null","","","","","","","<div class='trialBorder'><div class='vertical-center'><img src='img/fixation2_sml.jpg'</img></div></div>","null","FIX","","","","","","","","","","",""
"html-keyboard-response","96","505744","0.0-7.0-2.12","608d0831835bd8f85ac9237e","bdp_wmem","Sun Mar 12 2023 23:20:05 GMT-0400 (Eastern Daylight Time)","851644","Match,No Match","","null","","","","","","","<div class='trialBorder'><div class='vertical-center'><img style='vertical-align:center; align:center' src='img/fixation2_sml.jpg'></div><div class='arrayDiv2'><div class='tl'><img class='introPic' src='trustrating_stim/white_mw038.bmp'><br><font color='green'><strong>Share</strong></font></div><div class='tr'><img class='introPic' src='trustrating_stim/white_mw003.bmp'><br><font color='red'><strong>Keep</strong></font></div></div></div>","null","ARRAY","2","trustrating_stim/white_mw038.bmp,trustrating_stim/white_mw003.bmp","1,0","Match","e","3000","","","","",""
"html-keyboard-response","97","509745","0.0-7.0-3.12","608d0831835bd8f85ac9237e","bdp_wmem","Sun Mar 12 2023 23:20:05 GMT-0400 (Eastern Daylight Time)","851644","Match,No Match","","null","","","","","","","<div class='trialBorder'><div class='vertical-center'><img src='img/fixation2_sml.jpg'</img></div></div>","null","DELAY","","","","","","","","","","",""
"html-keyboard-response","98","510897","0.0-7.0-4.12","608d0831835bd8f85ac9237e","bdp_wmem","Sun Mar 12 2023 23:20:05 GMT-0400 (Eastern Daylight Time)","851644","Match,No Match","","1149","","","","","","","<div class='trialBorder'><div class='targDiv'><div class='tc'><img class='introPic' src='trustrating_stim/white_mw038.bmp'><br><font color='green'><strong>Share</strong></font></div></div><div class='respDiv'><div class='respDivL'>Match<br>(e)</div><div class='respDivR'>No Match<br>(i)</div></div></div>","e","TARGET","2","trustrating_stim/white_mw038.bmp,trustrating_stim/white_mw003.bmp","1,0","Match","e","3000","trustrating_stim/white_mw038.bmp","green","Share","REAL","1"
"html-keyboard-response","99","511398","0.0-7.0-5.12","608d0831835bd8f85ac9237e","bdp_wmem","Sun Mar 12 2023 23:20:05 GMT-0400 (Eastern Daylight Time)","851644","Match,No Match","","null","","","","","","","<div class='trialBorder'><div class='vertical-center'><img src='img/correct.jpg'></div><div class='respDiv'><div class='respDivL'><font style='color:orange'>Match<br>(e)</font></div><div class='respDivR'>No Match<br>(i)</div></div></div>","null","FEEDBACK","","","","","","","","","","",""
"html-keyboard-response","100","511900","0.0-7.0-1.13","608d0831835bd8f85ac9237e","bdp_wmem","Sun Mar 12 2023 23:20:05 GMT-0400 (Eastern Daylight Time)","851644","Match,No Match","","null","","","","","","","<div class='trialBorder'><div class='vertical-center'><img src='img/fixation2_sml.jpg'</img></div></div>","null","FIX","","","","","","","","","","",""
"html-keyboard-response","101","514903","0.0-7.0-2.13","608d0831835bd8f85ac9237e","bdp_wmem","Sun Mar 12 2023 23:20:05 GMT-0400 (Eastern Daylight Time)","851644","Match,No Match","","null","","","","","","","<div class='trialBorder'><div class='vertical-center'><img style='vertical-align:center; align:center' src='img/fixation2_sml.jpg'></div><div class='arrayDiv2'><div class='tl'><img class='introPic' src='trustrating_stim/white_mw042.bmp'><br><font color='red'><strong>Keep</strong></font></div><div class='tr'><img class='introPic' src='trustrating_stim/white_mw038.bmp'><br><font color='green'><strong>Share</strong></font></div></div></div>","null","ARRAY","2","trustrating_stim/white_mw042.bmp,trustrating_stim/white_mw038.bmp","0,1","Match","e","3000","","","","",""
"html-keyboard-response","102","518905","0.0-7.0-3.13","608d0831835bd8f85ac9237e","bdp_wmem","Sun Mar 12 2023 23:20:05 GMT-0400 (Eastern Daylight Time)","851644","Match,No Match","","null","","","","","","","<div class='trialBorder'><div class='vertical-center'><img src='img/fixation2_sml.jpg'</img></div></div>","null","DELAY","","","","","","","","","","",""
"html-keyboard-response","103","520081","0.0-7.0-4.13","608d0831835bd8f85ac9237e","bdp_wmem","Sun Mar 12 2023 23:20:05 GMT-0400 (Eastern Daylight Time)","851644","Match,No Match","","1174","","","","","","","<div class='trialBorder'><div class='targDiv'><div class='tc'><img class='introPic' src='trustrating_stim/white_mw038.bmp'><br><font color='green'><strong>Share</strong></font></div></div><div class='respDiv'><div class='respDivL'>Match<br>(e)</div><div class='respDivR'>No Match<br>(i)</div></div></div>","e","TARGET","2","trustrating_stim/white_mw042.bmp,trustrating_stim/white_mw038.bmp","0,1","Match","e","3000","trustrating_stim/white_mw038.bmp","green","Share","REAL","1"
"html-keyboard-response","104","520583","0.0-7.0-5.13","608d0831835bd8f85ac9237e","bdp_wmem","Sun Mar 12 2023 23:20:05 GMT-0400 (Eastern Daylight Time)","851644","Match,No Match","","null","","","","","","","<div class='trialBorder'><div class='vertical-center'><img src='img/correct.jpg'></div><div class='respDiv'><div class='respDivL'><font style='color:orange'>Match<br>(e)</font></div><div class='respDivR'>No Match<br>(i)</div></div></div>","null","FEEDBACK","","","","","","","","","","",""
"html-keyboard-response","105","521086","0.0-7.0-1.14","608d0831835bd8f85ac9237e","bdp_wmem","Sun Mar 12 2023 23:20:05 GMT-0400 (Eastern Daylight Time)","851644","Match,No Match","","null","","","","","","","<div class='trialBorder'><div class='vertical-center'><img src='img/fixation2_sml.jpg'</img></div></div>","null","FIX","","","","","","","","","","",""
"html-keyboard-response","106","522589","0.0-7.0-2.14","608d0831835bd8f85ac9237e","bdp_wmem","Sun Mar 12 2023 23:20:05 GMT-0400 (Eastern Daylight Time)","851644","Match,No Match","","null","","","","","","","<div class='trialBorder'><div class='vertical-center'><img style='vertical-align:center; align:center' src='img/fixation2_sml.jpg'></div><div class='arrayDiv1'><div class='tc'><img class='introPic' src='trustrating_stim/white_mw078.bmp'><br><font color='red'><strong>Keep</strong></font></div></div></div>","null","ARRAY","1","trustrating_stim/white_mw078.bmp","0","noMatchOutcome","i","1500","","","","",""
"html-keyboard-response","107","526591","0.0-7.0-3.14","608d0831835bd8f85ac9237e","bdp_wmem","Sun Mar 12 2023 23:20:05 GMT-0400 (Eastern Daylight Time)","851644","Match,No Match","","null","","","","","","","<div class='trialBorder'><div class='vertical-center'><img src='img/fixation2_sml.jpg'</img></div></div>","null","DELAY","","","","","","","","","","",""
"html-keyboard-response","108","527689","0.0-7.0-4.14","608d0831835bd8f85ac9237e","bdp_wmem","Sun Mar 12 2023 23:20:05 GMT-0400 (Eastern Daylight Time)","851644","Match,No Match","","1096","","","","","","","<div class='trialBorder'><div class='targDiv'><div class='tc'><img class='introPic' src='trustrating_stim/white_mw078.bmp'><br><font color='green'><strong>Share</strong></font></div></div><div class='respDiv'><div class='respDivL'>Match<br>(e)</div><div class='respDivR'>No Match<br>(i)</div></div></div>","i","TARGET","1","trustrating_stim/white_mw078.bmp","0","noMatchOutcome","i","1500","trustrating_stim/white_mw078.bmp","green","Share","REAL","1"
"html-keyboard-response","109","528192","0.0-7.0-5.14","608d0831835bd8f85ac9237e","bdp_wmem","Sun Mar 12 2023 23:20:05 GMT-0400 (Eastern Daylight Time)","851644","Match,No Match","","null","","","","","","","<div class='trialBorder'><div class='vertical-center'><img src='img/correct.jpg'></div><div class='respDiv'><div class='respDivL'>Match<br>(e)</div><div class='respDivR'><font style='color:orange'>No Match<br>(i)</font></div></div></div>","null","FEEDBACK","","","","","","","","","","",""
"html-keyboard-response","110","528693","0.0-7.0-1.15","608d0831835bd8f85ac9237e","bdp_wmem","Sun Mar 12 2023 23:20:05 GMT-0400 (Eastern Daylight Time)","851644","Match,No Match","","null","","","","","","","<div class='trialBorder'><div class='vertical-center'><img src='img/fixation2_sml.jpg'</img></div></div>","null","FIX","","","","","","","","","","",""
"html-keyboard-response","111","533196","0.0-7.0-2.15","608d0831835bd8f85ac9237e","bdp_wmem","Sun Mar 12 2023 23:20:05 GMT-0400 (Eastern Daylight Time)","851644","Match,No Match","","null","","","","","","","<div class='trialBorder'><div class='vertical-center'><img style='vertical-align:center; align:center' src='img/fixation2_sml.jpg'></div><div class='arrayDiv3'><div class='tl'><img class='introPic' src='trustrating_stim/white_mw078.bmp'><br><font color='green'><strong>Share</strong></font></div><div class='tc'><img class='introPic' src='trustrating_stim/white_mw003.bmp'><br><font color='green'><strong>Share</strong></font></div><div class='tr'><img class='introPic' src='trustrating_stim/white_mw070.bmp'><br><font color='red'><strong>Keep</strong></font></div></div></div>","null","ARRAY","3","trustrating_stim/white_mw078.bmp,trustrating_stim/white_mw003.bmp,trustrating_stim/white_mw070.bmp","1,1,0","noMatchOutcome","i","4500","","","","",""
"html-keyboard-response","112","537197","0.0-7.0-3.15","608d0831835bd8f85ac9237e","bdp_wmem","Sun Mar 12 2023 23:20:05 GMT-0400 (Eastern Daylight Time)","851644","Match,No Match","","null","","","","","","","<div class='trialBorder'><div class='vertical-center'><img src='img/fixation2_sml.jpg'</img></div></div>","null","DELAY","","","","","","","","","","",""
"html-keyboard-response","113","539290","0.0-7.0-4.15","608d0831835bd8f85ac9237e","bdp_wmem","Sun Mar 12 2023 23:20:05 GMT-0400 (Eastern Daylight Time)","851644","Match,No Match","","2093","","","","","","","<div class='trialBorder'><div class='targDiv'><div class='tc'><img class='introPic' src='trustrating_stim/white_mw078.bmp'><br><font color='red'><strong>Keep</strong></font></div></div><div class='respDiv'><div class='respDivL'>Match<br>(e)</div><div class='respDivR'>No Match<br>(i)</div></div></div>","i","TARGET","3","trustrating_stim/white_mw078.bmp,trustrating_stim/white_mw003.bmp,trustrating_stim/white_mw070.bmp","1,1,0","noMatchOutcome","i","4500","trustrating_stim/white_mw078.bmp","red","Keep","REAL","1"
"html-keyboard-response","114","539792","0.0-7.0-5.15","608d0831835bd8f85ac9237e","bdp_wmem","Sun Mar 12 2023 23:20:05 GMT-0400 (Eastern Daylight Time)","851644","Match,No Match","","null","","","","","","","<div class='trialBorder'><div class='vertical-center'><img src='img/correct.jpg'></div><div class='respDiv'><div class='respDivL'>Match<br>(e)</div><div class='respDivR'><font style='color:orange'>No Match<br>(i)</font></div></div></div>","null","FEEDBACK","","","","","","","","","","",""
"html-keyboard-response","115","540294","0.0-7.0-1.16","608d0831835bd8f85ac9237e","bdp_wmem","Sun Mar 12 2023 23:20:05 GMT-0400 (Eastern Daylight Time)","851644","Match,No Match","","null","","","","","","","<div class='trialBorder'><div class='vertical-center'><img src='img/fixation2_sml.jpg'</img></div></div>","null","FIX","","","","","","","","","","",""
"html-keyboard-response","116","541797","0.0-7.0-2.16","608d0831835bd8f85ac9237e","bdp_wmem","Sun Mar 12 2023 23:20:05 GMT-0400 (Eastern Daylight Time)","851644","Match,No Match","","null","","","","","","","<div class='trialBorder'><div class='vertical-center'><img style='vertical-align:center; align:center' src='img/fixation2_sml.jpg'></div><div class='arrayDiv1'><div class='tc'><img class='introPic' src='trustrating_stim/white_mw070.bmp'><br><font color='green'><strong>Share</strong></font></div></div></div>","null","ARRAY","1","trustrating_stim/white_mw070.bmp","1","Match","e","1500","","","","",""
"html-keyboard-response","117","545799","0.0-7.0-3.16","608d0831835bd8f85ac9237e","bdp_wmem","Sun Mar 12 2023 23:20:05 GMT-0400 (Eastern Daylight Time)","851644","Match,No Match","","null","","","","","","","<div class='trialBorder'><div class='vertical-center'><img src='img/fixation2_sml.jpg'</img></div></div>","null","DELAY","","","","","","","","","","",""
"html-keyboard-response","118","546951","0.0-7.0-4.16","608d0831835bd8f85ac9237e","bdp_wmem","Sun Mar 12 2023 23:20:05 GMT-0400 (Eastern Daylight Time)","851644","Match,No Match","","1150","","","","","","","<div class='trialBorder'><div class='targDiv'><div class='tc'><img class='introPic' src='trustrating_stim/white_mw070.bmp'><br><font color='green'><strong>Share</strong></font></div></div><div class='respDiv'><div class='respDivL'>Match<br>(e)</div><div class='respDivR'>No Match<br>(i)</div></div></div>","e","TARGET","1","trustrating_stim/white_mw070.bmp","1","Match","e","1500","trustrating_stim/white_mw070.bmp","green","Share","REAL","1"
"html-keyboard-response","119","547453","0.0-7.0-5.16","608d0831835bd8f85ac9237e","bdp_wmem","Sun Mar 12 2023 23:20:05 GMT-0400 (Eastern Daylight Time)","851644","Match,No Match","","null","","","","","","","<div class='trialBorder'><div class='vertical-center'><img src='img/correct.jpg'></div><div class='respDiv'><div class='respDivL'><font style='color:orange'>Match<br>(e)</font></div><div class='respDivR'>No Match<br>(i)</div></div></div>","null","FEEDBACK","","","","","","","","","","",""
"html-keyboard-response","120","547955","0.0-7.0-1.17","608d0831835bd8f85ac9237e","bdp_wmem","Sun Mar 12 2023 23:20:05 GMT-0400 (Eastern Daylight Time)","851644","Match,No Match","","null","","","","","","","<div class='trialBorder'><div class='vertical-center'><img src='img/fixation2_sml.jpg'</img></div></div>","null","FIX","","","","","","","","","","",""
"html-keyboard-response","121","550959","0.0-7.0-2.17","608d0831835bd8f85ac9237e","bdp_wmem","Sun Mar 12 2023 23:20:05 GMT-0400 (Eastern Daylight Time)","851644","Match,No Match","","null","","","","","","","<div class='trialBorder'><div class='vertical-center'><img style='vertical-align:center; align:center' src='img/fixation2_sml.jpg'></div><div class='arrayDiv2'><div class='tl'><img class='introPic' src='trustrating_stim/white_mw091.bmp'><br><font color='red'><strong>Keep</strong></font></div><div class='tr'><img class='introPic' src='trustrating_stim/white_mw012.bmp'><br><font color='green'><strong>Share</strong></font></div></div></div>","null","ARRAY","2","trustrating_stim/white_mw091.bmp,trustrating_stim/white_mw012.bmp","0,1","noMatchOutcome","i","3000","","","","",""
"html-keyboard-response","122","554962","0.0-7.0-3.17","608d0831835bd8f85ac9237e","bdp_wmem","Sun Mar 12 2023 23:20:05 GMT-0400 (Eastern Daylight Time)","851644","Match,No Match","","null","","","","","","","<div class='trialBorder'><div class='vertical-center'><img src='img/fixation2_sml.jpg'</img></div></div>","null","DELAY","","","","","","","","","","",""
"html-keyboard-response","123","556161","0.0-7.0-4.17","608d0831835bd8f85ac9237e","bdp_wmem","Sun Mar 12 2023 23:20:05 GMT-0400 (Eastern Daylight Time)","851644","Match,No Match","","1197","","","","","","","<div class='trialBorder'><div class='targDiv'><div class='tc'><img class='introPic' src='trustrating_stim/white_mw012.bmp'><br><font color='red'><strong>Keep</strong></font></div></div><div class='respDiv'><div class='respDivL'>Match<br>(e)</div><div class='respDivR'>No Match<br>(i)</div></div></div>","i","TARGET","2","trustrating_stim/white_mw091.bmp,trustrating_stim/white_mw012.bmp","0,1","noMatchOutcome","i","3000","trustrating_stim/white_mw012.bmp","red","Keep","REAL","1"
"html-keyboard-response","124","556664","0.0-7.0-5.17","608d0831835bd8f85ac9237e","bdp_wmem","Sun Mar 12 2023 23:20:05 GMT-0400 (Eastern Daylight Time)","851644","Match,No Match","","null","","","","","","","<div class='trialBorder'><div class='vertical-center'><img src='img/correct.jpg'></div><div class='respDiv'><div class='respDivL'>Match<br>(e)</div><div class='respDivR'><font style='color:orange'>No Match<br>(i)</font></div></div></div>","null","FEEDBACK","","","","","","","","","","",""
"html-keyboard-response","125","557166","0.0-7.0-1.18","608d0831835bd8f85ac9237e","bdp_wmem","Sun Mar 12 2023 23:20:05 GMT-0400 (Eastern Daylight Time)","851644","Match,No Match","","null","","","","","","","<div class='trialBorder'><div class='vertical-center'><img src='img/fixation2_sml.jpg'</img></div></div>","null","FIX","","","","","","","","","","",""
"html-keyboard-response","126","561668","0.0-7.0-2.18","608d0831835bd8f85ac9237e","bdp_wmem","Sun Mar 12 2023 23:20:05 GMT-0400 (Eastern Daylight Time)","851644","Match,No Match","","null","","","","","","","<div class='trialBorder'><div class='vertical-center'><img style='vertical-align:center; align:center' src='img/fixation2_sml.jpg'></div><div class='arrayDiv3'><div class='tl'><img class='introPic' src='trustrating_stim/white_mw038.bmp'><br><font color='green'><strong>Share</strong></font></div><div class='tc'><img class='introPic' src='trustrating_stim/white_mw040.bmp'><br><font color='red'><strong>Keep</strong></font></div><div class='tr'><img class='introPic' src='trustrating_stim/white_mw091.bmp'><br><font color='red'><strong>Keep</strong></font></div></div></div>","null","ARRAY","3","trustrating_stim/white_mw038.bmp,trustrating_stim/white_mw040.bmp,trustrating_stim/white_mw091.bmp","1,0,0","noMatchFace","i","4500","","","","",""
"html-keyboard-response","127","565671","0.0-7.0-3.18","608d0831835bd8f85ac9237e","bdp_wmem","Sun Mar 12 2023 23:20:05 GMT-0400 (Eastern Daylight Time)","851644","Match,No Match","","null","","","","","","","<div class='trialBorder'><div class='vertical-center'><img src='img/fixation2_sml.jpg'</img></div></div>","null","DELAY","","","","","","","","","","",""
"html-keyboard-response","128","567946","0.0-7.0-4.18","608d0831835bd8f85ac9237e","bdp_wmem","Sun Mar 12 2023 23:20:05 GMT-0400 (Eastern Daylight Time)","851644","Match,No Match","","2272","","","","","","","<div class='trialBorder'><div class='targDiv'><div class='tc'><img class='introPic' src='trustrating_stim/white_mw042.bmp'><br><font color='green'><strong>Share</strong></font></div></div><div class='respDiv'><div class='respDivL'>Match<br>(e)</div><div class='respDivR'>No Match<br>(i)</div></div></div>","i","TARGET","3","trustrating_stim/white_mw038.bmp,trustrating_stim/white_mw040.bmp,trustrating_stim/white_mw091.bmp","1,0,0","noMatchFace","i","4500","trustrating_stim/white_mw042.bmp","green","Share","REAL","1"
"html-keyboard-response","129","568447","0.0-7.0-5.18","608d0831835bd8f85ac9237e","bdp_wmem","Sun Mar 12 2023 23:20:05 GMT-0400 (Eastern Daylight Time)","851644","Match,No Match","","null","","","","","","","<div class='trialBorder'><div class='vertical-center'><img src='img/correct.jpg'></div><div class='respDiv'><div class='respDivL'>Match<br>(e)</div><div class='respDivR'><font style='color:orange'>No Match<br>(i)</font></div></div></div>","null","FEEDBACK","","","","","","","","","","",""
"html-keyboard-response","130","568949","0.0-7.0-1.19","608d0831835bd8f85ac9237e","bdp_wmem","Sun Mar 12 2023 23:20:05 GMT-0400 (Eastern Daylight Time)","851644","Match,No Match","","null","","","","","","","<div class='trialBorder'><div class='vertical-center'><img src='img/fixation2_sml.jpg'</img></div></div>","null","FIX","","","","","","","","","","",""
"html-keyboard-response","131","571952","0.0-7.0-2.19","608d0831835bd8f85ac9237e","bdp_wmem","Sun Mar 12 2023 23:20:05 GMT-0400 (Eastern Daylight Time)","851644","Match,No Match","","null","","","","","","","<div class='trialBorder'><div class='vertical-center'><img style='vertical-align:center; align:center' src='img/fixation2_sml.jpg'></div><div class='arrayDiv2'><div class='tl'><img class='introPic' src='trustrating_stim/white_mw078.bmp'><br><font color='green'><strong>Share</strong></font></div><div class='tr'><img class='introPic' src='trustrating_stim/white_mw040.bmp'><br><font color='red'><strong>Keep</strong></font></div></div></div>","null","ARRAY","2","trustrating_stim/white_mw078.bmp,trustrating_stim/white_mw040.bmp","1,0","Match","e","3000","","","","",""
"html-keyboard-response","132","575954","0.0-7.0-3.19","608d0831835bd8f85ac9237e","bdp_wmem","Sun Mar 12 2023 23:20:05 GMT-0400 (Eastern Daylight Time)","851644","Match,No Match","","null","","","","","","","<div class='trialBorder'><div class='vertical-center'><img src='img/fixation2_sml.jpg'</img></div></div>","null","DELAY","","","","","","","","","","",""
"html-keyboard-response","133","576753","0.0-7.0-4.19","608d0831835bd8f85ac9237e","bdp_wmem","Sun Mar 12 2023 23:20:05 GMT-0400 (Eastern Daylight Time)","851644","Match,No Match","","797","","","","","","","<div class='trialBorder'><div class='targDiv'><div class='tc'><img class='introPic' src='trustrating_stim/white_mw078.bmp'><br><font color='green'><strong>Share</strong></font></div></div><div class='respDiv'><div class='respDivL'>Match<br>(e)</div><div class='respDivR'>No Match<br>(i)</div></div></div>","e","TARGET","2","trustrating_stim/white_mw078.bmp,trustrating_stim/white_mw040.bmp","1,0","Match","e","3000","trustrating_stim/white_mw078.bmp","green","Share","REAL","1"
"html-keyboard-response","134","577256","0.0-7.0-5.19","608d0831835bd8f85ac9237e","bdp_wmem","Sun Mar 12 2023 23:20:05 GMT-0400 (Eastern Daylight Time)","851644","Match,No Match","","null","","","","","","","<div class='trialBorder'><div class='vertical-center'><img src='img/correct.jpg'></div><div class='respDiv'><div class='respDivL'><font style='color:orange'>Match<br>(e)</font></div><div class='respDivR'>No Match<br>(i)</div></div></div>","null","FEEDBACK","","","","","","","","","","",""
"html-keyboard-response","135","577757","0.0-7.0-1.20","608d0831835bd8f85ac9237e","bdp_wmem","Sun Mar 12 2023 23:20:05 GMT-0400 (Eastern Daylight Time)","851644","Match,No Match","","null","","","","","","","<div class='trialBorder'><div class='vertical-center'><img src='img/fixation2_sml.jpg'</img></div></div>","null","FIX","","","","","","","","","","",""
"html-keyboard-response","136","579259","0.0-7.0-2.20","608d0831835bd8f85ac9237e","bdp_wmem","Sun Mar 12 2023 23:20:05 GMT-0400 (Eastern Daylight Time)","851644","Match,No Match","","null","","","","","","","<div class='trialBorder'><div class='vertical-center'><img style='vertical-align:center; align:center' src='img/fixation2_sml.jpg'></div><div class='arrayDiv1'><div class='tc'><img class='introPic' src='trustrating_stim/white_mw078.bmp'><br><font color='red'><strong>Keep</strong></font></div></div></div>","null","ARRAY","1","trustrating_stim/white_mw078.bmp","0","Match","e","1500","","","","",""
"html-keyboard-response","137","583261","0.0-7.0-3.20","608d0831835bd8f85ac9237e","bdp_wmem","Sun Mar 12 2023 23:20:05 GMT-0400 (Eastern Daylight Time)","851644","Match,No Match","","null","","","","","","","<div class='trialBorder'><div class='vertical-center'><img src='img/fixation2_sml.jpg'</img></div></div>","null","DELAY","","","","","","","","","","",""
"html-keyboard-response","138","584145","0.0-7.0-4.20","608d0831835bd8f85ac9237e","bdp_wmem","Sun Mar 12 2023 23:20:05 GMT-0400 (Eastern Daylight Time)","851644","Match,No Match","","882","","","","","","","<div class='trialBorder'><div class='targDiv'><div class='tc'><img class='introPic' src='trustrating_stim/white_mw078.bmp'><br><font color='red'><strong>Keep</strong></font></div></div><div class='respDiv'><div class='respDivL'>Match<br>(e)</div><div class='respDivR'>No Match<br>(i)</div></div></div>","e","TARGET","1","trustrating_stim/white_mw078.bmp","0","Match","e","1500","trustrating_stim/white_mw078.bmp","red","Keep","REAL","1"
"html-keyboard-response","139","584647","0.0-7.0-5.20","608d0831835bd8f85ac9237e","bdp_wmem","Sun Mar 12 2023 23:20:05 GMT-0400 (Eastern Daylight Time)","851644","Match,No Match","","null","","","","","","","<div class='trialBorder'><div class='vertical-center'><img src='img/correct.jpg'></div><div class='respDiv'><div class='respDivL'><font style='color:orange'>Match<br>(e)</font></div><div class='respDivR'>No Match<br>(i)</div></div></div>","null","FEEDBACK","","","","","","","","","","",""
"html-keyboard-response","140","585150","0.0-7.0-1.21","608d0831835bd8f85ac9237e","bdp_wmem","Sun Mar 12 2023 23:20:05 GMT-0400 (Eastern Daylight Time)","851644","Match,No Match","","null","","","","","","","<div class='trialBorder'><div class='vertical-center'><img src='img/fixation2_sml.jpg'</img></div></div>","null","FIX","","","","","","","","","","",""
"html-keyboard-response","141","586652","0.0-7.0-2.21","608d0831835bd8f85ac9237e","bdp_wmem","Sun Mar 12 2023 23:20:05 GMT-0400 (Eastern Daylight Time)","851644","Match,No Match","","null","","","","","","","<div class='trialBorder'><div class='vertical-center'><img style='vertical-align:center; align:center' src='img/fixation2_sml.jpg'></div><div class='arrayDiv1'><div class='tc'><img class='introPic' src='trustrating_stim/white_mw070.bmp'><br><font color='red'><strong>Keep</strong></font></div></div></div>","null","ARRAY","1","trustrating_stim/white_mw070.bmp","0","Match","e","1500","","","","",""
"html-keyboard-response","142","590654","0.0-7.0-3.21","608d0831835bd8f85ac9237e","bdp_wmem","Sun Mar 12 2023 23:20:05 GMT-0400 (Eastern Daylight Time)","851644","Match,No Match","","null","","","","","","","<div class='trialBorder'><div class='vertical-center'><img src='img/fixation2_sml.jpg'</img></div></div>","null","DELAY","","","","","","","","","","",""
"html-keyboard-response","143","592634","0.0-7.0-4.21","608d0831835bd8f85ac9237e","bdp_wmem","Sun Mar 12 2023 23:20:05 GMT-0400 (Eastern Daylight Time)","851644","Match,No Match","","1977","","","","","","","<div class='trialBorder'><div class='targDiv'><div class='tc'><img class='introPic' src='trustrating_stim/white_mw070.bmp'><br><font color='red'><strong>Keep</strong></font></div></div><div class='respDiv'><div class='respDivL'>Match<br>(e)</div><div class='respDivR'>No Match<br>(i)</div></div></div>","e","TARGET","1","trustrating_stim/white_mw070.bmp","0","Match","e","1500","trustrating_stim/white_mw070.bmp","red","Keep","REAL","1"
"html-keyboard-response","144","593136","0.0-7.0-5.21","608d0831835bd8f85ac9237e","bdp_wmem","Sun Mar 12 2023 23:20:05 GMT-0400 (Eastern Daylight Time)","851644","Match,No Match","","null","","","","","","","<div class='trialBorder'><div class='vertical-center'><img src='img/correct.jpg'></div><div class='respDiv'><div class='respDivL'><font style='color:orange'>Match<br>(e)</font></div><div class='respDivR'>No Match<br>(i)</div></div></div>","null","FEEDBACK","","","","","","","","","","",""
"html-keyboard-response","145","593637","0.0-7.0-1.22","608d0831835bd8f85ac9237e","bdp_wmem","Sun Mar 12 2023 23:20:05 GMT-0400 (Eastern Daylight Time)","851644","Match,No Match","","null","","","","","","","<div class='trialBorder'><div class='vertical-center'><img src='img/fixation2_sml.jpg'</img></div></div>","null","FIX","","","","","","","","","","",""
"html-keyboard-response","146","598142","0.0-7.0-2.22","608d0831835bd8f85ac9237e","bdp_wmem","Sun Mar 12 2023 23:20:05 GMT-0400 (Eastern Daylight Time)","851644","Match,No Match","","null","","","","","","","<div class='trialBorder'><div class='vertical-center'><img style='vertical-align:center; align:center' src='img/fixation2_sml.jpg'></div><div class='arrayDiv3'><div class='tl'><img class='introPic' src='trustrating_stim/white_mw092.bmp'><br><font color='red'><strong>Keep</strong></font></div><div class='tc'><img class='introPic' src='trustrating_stim/white_mw078.bmp'><br><font color='green'><strong>Share</strong></font></div><div class='tr'><img class='introPic' src='trustrating_stim/white_mw012.bmp'><br><font color='red'><strong>Keep</strong></font></div></div></div>","null","ARRAY","3","trustrating_stim/white_mw092.bmp,trustrating_stim/white_mw078.bmp,trustrating_stim/white_mw012.bmp","0,1,0","Match","e","4500","","","","",""
"html-keyboard-response","147","602144","0.0-7.0-3.22","608d0831835bd8f85ac9237e","bdp_wmem","Sun Mar 12 2023 23:20:05 GMT-0400 (Eastern Daylight Time)","851644","Match,No Match","","null","","","","","","","<div class='trialBorder'><div class='vertical-center'><img src='img/fixation2_sml.jpg'</img></div></div>","null","DELAY","","","","","","","","","","",""
"html-keyboard-response","148","604506","0.0-7.0-4.22","608d0831835bd8f85ac9237e","bdp_wmem","Sun Mar 12 2023 23:20:05 GMT-0400 (Eastern Daylight Time)","851644","Match,No Match","","2359","","","","","","","<div class='trialBorder'><div class='targDiv'><div class='tc'><img class='introPic' src='trustrating_stim/white_mw092.bmp'><br><font color='red'><strong>Keep</strong></font></div></div><div class='respDiv'><div class='respDivL'>Match<br>(e)</div><div class='respDivR'>No Match<br>(i)</div></div></div>","i","TARGET","3","trustrating_stim/white_mw092.bmp,trustrating_stim/white_mw078.bmp,trustrating_stim/white_mw012.bmp","0,1,0","Match","e","4500","trustrating_stim/white_mw092.bmp","red","Keep","REAL","0"
"html-keyboard-response","149","605009","0.0-7.0-5.22","608d0831835bd8f85ac9237e","bdp_wmem","Sun Mar 12 2023 23:20:05 GMT-0400 (Eastern Daylight Time)","851644","Match,No Match","","null","","","","","","","<div class='trialBorder'><div class='vertical-center'><img src='img/error.jpg'></div><div class='respDiv'><div class='respDivL'>Match<br>(e)</div><div class='respDivR'><font style='color:orange'>No Match<br>(i)</font></div></div></div>","null","FEEDBACK","","","","","","","","","","",""
"html-keyboard-response","150","605511","0.0-7.0-1.23","608d0831835bd8f85ac9237e","bdp_wmem","Sun Mar 12 2023 23:20:05 GMT-0400 (Eastern Daylight Time)","851644","Match,No Match","","null","","","","","","","<div class='trialBorder'><div class='vertical-center'><img src='img/fixation2_sml.jpg'</img></div></div>","null","FIX","","","","","","","","","","",""
"html-keyboard-response","151","608514","0.0-7.0-2.23","608d0831835bd8f85ac9237e","bdp_wmem","Sun Mar 12 2023 23:20:05 GMT-0400 (Eastern Daylight Time)","851644","Match,No Match","","null","","","","","","","<div class='trialBorder'><div class='vertical-center'><img style='vertical-align:center; align:center' src='img/fixation2_sml.jpg'></div><div class='arrayDiv2'><div class='tl'><img class='introPic' src='trustrating_stim/white_mw092.bmp'><br><font color='green'><strong>Share</strong></font></div><div class='tr'><img class='introPic' src='trustrating_stim/white_mw070.bmp'><br><font color='red'><strong>Keep</strong></font></div></div></div>","null","ARRAY","2","trustrating_stim/white_mw092.bmp,trustrating_stim/white_mw070.bmp","1,0","Match","e","3000","","","","",""
"html-keyboard-response","152","612516","0.0-7.0-3.23","608d0831835bd8f85ac9237e","bdp_wmem","Sun Mar 12 2023 23:20:05 GMT-0400 (Eastern Daylight Time)","851644","Match,No Match","","null","","","","","","","<div class='trialBorder'><div class='vertical-center'><img src='img/fixation2_sml.jpg'</img></div></div>","null","DELAY","","","","","","","","","","",""
"html-keyboard-response","153","613952","0.0-7.0-4.23","608d0831835bd8f85ac9237e","bdp_wmem","Sun Mar 12 2023 23:20:05 GMT-0400 (Eastern Daylight Time)","851644","Match,No Match","","1434","","","","","","","<div class='trialBorder'><div class='targDiv'><div class='tc'><img class='introPic' src='trustrating_stim/white_mw070.bmp'><br><font color='red'><strong>Keep</strong></font></div></div><div class='respDiv'><div class='respDivL'>Match<br>(e)</div><div class='respDivR'>No Match<br>(i)</div></div></div>","e","TARGET","2","trustrating_stim/white_mw092.bmp,trustrating_stim/white_mw070.bmp","1,0","Match","e","3000","trustrating_stim/white_mw070.bmp","red","Keep","REAL","1"
"html-keyboard-response","154","614454","0.0-7.0-5.23","608d0831835bd8f85ac9237e","bdp_wmem","Sun Mar 12 2023 23:20:05 GMT-0400 (Eastern Daylight Time)","851644","Match,No Match","","null","","","","","","","<div class='trialBorder'><div class='vertical-center'><img src='img/correct.jpg'></div><div class='respDiv'><div class='respDivL'><font style='color:orange'>Match<br>(e)</font></div><div class='respDivR'>No Match<br>(i)</div></div></div>","null","FEEDBACK","","","","","","","","","","",""
"html-keyboard-response","155","614957","0.0-7.0-1.24","608d0831835bd8f85ac9237e","bdp_wmem","Sun Mar 12 2023 23:20:05 GMT-0400 (Eastern Daylight Time)","851644","Match,No Match","","null","","","","","","","<div class='trialBorder'><div class='vertical-center'><img src='img/fixation2_sml.jpg'</img></div></div>","null","FIX","","","","","","","","","","",""
"html-keyboard-response","156","617959","0.0-7.0-2.24","608d0831835bd8f85ac9237e","bdp_wmem","Sun Mar 12 2023 23:20:05 GMT-0400 (Eastern Daylight Time)","851644","Match,No Match","","null","","","","","","","<div class='trialBorder'><div class='vertical-center'><img style='vertical-align:center; align:center' src='img/fixation2_sml.jpg'></div><div class='arrayDiv2'><div class='tl'><img class='introPic' src='trustrating_stim/white_mw040.bmp'><br><font color='red'><strong>Keep</strong></font></div><div class='tr'><img class='introPic' src='trustrating_stim/white_mw003.bmp'><br><font color='green'><strong>Share</strong></font></div></div></div>","null","ARRAY","2","trustrating_stim/white_mw040.bmp,trustrating_stim/white_mw003.bmp","0,1","Match","e","3000","","","","",""
"html-keyboard-response","157","621962","0.0-7.0-3.24","608d0831835bd8f85ac9237e","bdp_wmem","Sun Mar 12 2023 23:20:05 GMT-0400 (Eastern Daylight Time)","851644","Match,No Match","","null","","","","","","","<div class='trialBorder'><div class='vertical-center'><img src='img/fixation2_sml.jpg'</img></div></div>","null","DELAY","","","","","","","","","","",""
"html-keyboard-response","158","623530","0.0-7.0-4.24","608d0831835bd8f85ac9237e","bdp_wmem","Sun Mar 12 2023 23:20:05 GMT-0400 (Eastern Daylight Time)","851644","Match,No Match","","1565","","","","","","","<div class='trialBorder'><div class='targDiv'><div class='tc'><img class='introPic' src='trustrating_stim/white_mw040.bmp'><br><font color='red'><strong>Keep</strong></font></div></div><div class='respDiv'><div class='respDivL'>Match<br>(e)</div><div class='respDivR'>No Match<br>(i)</div></div></div>","e","TARGET","2","trustrating_stim/white_mw040.bmp,trustrating_stim/white_mw003.bmp","0,1","Match","e","3000","trustrating_stim/white_mw040.bmp","red","Keep","REAL","1"
"html-keyboard-response","159","624033","0.0-7.0-5.24","608d0831835bd8f85ac9237e","bdp_wmem","Sun Mar 12 2023 23:20:05 GMT-0400 (Eastern Daylight Time)","851644","Match,No Match","","null","","","","","","","<div class='trialBorder'><div class='vertical-center'><img src='img/correct.jpg'></div><div class='respDiv'><div class='respDivL'><font style='color:orange'>Match<br>(e)</font></div><div class='respDivR'>No Match<br>(i)</div></div></div>","null","FEEDBACK","","","","","","","","","","",""
"html-keyboard-response","160","624533","0.0-7.0-1.25","608d0831835bd8f85ac9237e","bdp_wmem","Sun Mar 12 2023 23:20:05 GMT-0400 (Eastern Daylight Time)","851644","Match,No Match","","null","","","","","","","<div class='trialBorder'><div class='vertical-center'><img src='img/fixation2_sml.jpg'</img></div></div>","null","FIX","","","","","","","","","","",""
"html-keyboard-response","161","626035","0.0-7.0-2.25","608d0831835bd8f85ac9237e","bdp_wmem","Sun Mar 12 2023 23:20:05 GMT-0400 (Eastern Daylight Time)","851644","Match,No Match","","null","","","","","","","<div class='trialBorder'><div class='vertical-center'><img style='vertical-align:center; align:center' src='img/fixation2_sml.jpg'></div><div class='arrayDiv1'><div class='tc'><img class='introPic' src='trustrating_stim/white_mw040.bmp'><br><font color='green'><strong>Share</strong></font></div></div></div>","null","ARRAY","1","trustrating_stim/white_mw040.bmp","1","noMatchFace","i","1500","","","","",""
"html-keyboard-response","162","630037","0.0-7.0-3.25","608d0831835bd8f85ac9237e","bdp_wmem","Sun Mar 12 2023 23:20:05 GMT-0400 (Eastern Daylight Time)","851644","Match,No Match","","null","","","","","","","<div class='trialBorder'><div class='vertical-center'><img src='img/fixation2_sml.jpg'</img></div></div>","null","DELAY","","","","","","","","","","",""
"html-keyboard-response","163","631184","0.0-7.0-4.25","608d0831835bd8f85ac9237e","bdp_wmem","Sun Mar 12 2023 23:20:05 GMT-0400 (Eastern Daylight Time)","851644","Match,No Match","","1145","","","","","","","<div class='trialBorder'><div class='targDiv'><div class='tc'><img class='introPic' src='trustrating_stim/white_mw013.bmp'><br><font color='green'><strong>Share</strong></font></div></div><div class='respDiv'><div class='respDivL'>Match<br>(e)</div><div class='respDivR'>No Match<br>(i)</div></div></div>","i","TARGET","1","trustrating_stim/white_mw040.bmp","1","noMatchFace","i","1500","trustrating_stim/white_mw013.bmp","green","Share","REAL","1"
"html-keyboard-response","164","631688","0.0-7.0-5.25","608d0831835bd8f85ac9237e","bdp_wmem","Sun Mar 12 2023 23:20:05 GMT-0400 (Eastern Daylight Time)","851644","Match,No Match","","null","","","","","","","<div class='trialBorder'><div class='vertical-center'><img src='img/correct.jpg'></div><div class='respDiv'><div class='respDivL'>Match<br>(e)</div><div class='respDivR'><font style='color:orange'>No Match<br>(i)</font></div></div></div>","null","FEEDBACK","","","","","","","","","","",""
"html-keyboard-response","165","632190","0.0-7.0-1.26","608d0831835bd8f85ac9237e","bdp_wmem","Sun Mar 12 2023 23:20:05 GMT-0400 (Eastern Daylight Time)","851644","Match,No Match","","null","","","","","","","<div class='trialBorder'><div class='vertical-center'><img src='img/fixation2_sml.jpg'</img></div></div>","null","FIX","","","","","","","","","","",""
"html-keyboard-response","166","636693","0.0-7.0-2.26","608d0831835bd8f85ac9237e","bdp_wmem","Sun Mar 12 2023 23:20:05 GMT-0400 (Eastern Daylight Time)","851644","Match,No Match","","null","","","","","","","<div class='trialBorder'><div class='vertical-center'><img style='vertical-align:center; align:center' src='img/fixation2_sml.jpg'></div><div class='arrayDiv3'><div class='tl'><img class='introPic' src='trustrating_stim/white_mw038.bmp'><br><font color='green'><strong>Share</strong></font></div><div class='tc'><img class='introPic' src='trustrating_stim/white_mw078.bmp'><br><font color='red'><strong>Keep</strong></font></div><div class='tr'><img class='introPic' src='trustrating_stim/white_mw091.bmp'><br><font color='green'><strong>Share</strong></font></div></div></div>","null","ARRAY","3","trustrating_stim/white_mw038.bmp,trustrating_stim/white_mw078.bmp,trustrating_stim/white_mw091.bmp","1,0,1","noMatchOutcome","i","4500","","","","",""
"html-keyboard-response","167","640696","0.0-7.0-3.26","608d0831835bd8f85ac9237e","bdp_wmem","Sun Mar 12 2023 23:20:05 GMT-0400 (Eastern Daylight Time)","851644","Match,No Match","","null","","","","","","","<div class='trialBorder'><div class='vertical-center'><img src='img/fixation2_sml.jpg'</img></div></div>","null","DELAY","","","","","","","","","","",""
"html-keyboard-response","168","643978","0.0-7.0-4.26","608d0831835bd8f85ac9237e","bdp_wmem","Sun Mar 12 2023 23:20:05 GMT-0400 (Eastern Daylight Time)","851644","Match,No Match","","3280","","","","","","","<div class='trialBorder'><div class='targDiv'><div class='tc'><img class='introPic' src='trustrating_stim/white_mw078.bmp'><br><font color='green'><strong>Share</strong></font></div></div><div class='respDiv'><div class='respDivL'>Match<br>(e)</div><div class='respDivR'>No Match<br>(i)</div></div></div>","e","TARGET","3","trustrating_stim/white_mw038.bmp,trustrating_stim/white_mw078.bmp,trustrating_stim/white_mw091.bmp","1,0,1","noMatchOutcome","i","4500","trustrating_stim/white_mw078.bmp","green","Share","REAL","0"
"html-keyboard-response","169","644480","0.0-7.0-5.26","608d0831835bd8f85ac9237e","bdp_wmem","Sun Mar 12 2023 23:20:05 GMT-0400 (Eastern Daylight Time)","851644","Match,No Match","","null","","","","","","","<div class='trialBorder'><div class='vertical-center'><img src='img/error.jpg'></div><div class='respDiv'><div class='respDivL'><font style='color:orange'>Match<br>(e)</font></div><div class='respDivR'>No Match<br>(i)</div></div></div>","null","FEEDBACK","","","","","","","","","","",""
"html-keyboard-response","170","644983","0.0-7.0-1.27","608d0831835bd8f85ac9237e","bdp_wmem","Sun Mar 12 2023 23:20:05 GMT-0400 (Eastern Daylight Time)","851644","Match,No Match","","null","","","","","","","<div class='trialBorder'><div class='vertical-center'><img src='img/fixation2_sml.jpg'</img></div></div>","null","FIX","","","","","","","","","","",""
"html-keyboard-response","171","646485","0.0-7.0-2.27","608d0831835bd8f85ac9237e","bdp_wmem","Sun Mar 12 2023 23:20:05 GMT-0400 (Eastern Daylight Time)","851644","Match,No Match","","null","","","","","","","<div class='trialBorder'><div class='vertical-center'><img style='vertical-align:center; align:center' src='img/fixation2_sml.jpg'></div><div class='arrayDiv1'><div class='tc'><img class='introPic' src='trustrating_stim/white_mw003.bmp'><br><font color='red'><strong>Keep</strong></font></div></div></div>","null","ARRAY","1","trustrating_stim/white_mw003.bmp","0","noMatchOutcome","i","1500","","","","",""
"html-keyboard-response","172","650488","0.0-7.0-3.27","608d0831835bd8f85ac9237e","bdp_wmem","Sun Mar 12 2023 23:20:05 GMT-0400 (Eastern Daylight Time)","851644","Match,No Match","","null","","","","","","","<div class='trialBorder'><div class='vertical-center'><img src='img/fixation2_sml.jpg'</img></div></div>","null","DELAY","","","","","","","","","","",""
"html-keyboard-response","173","652656","0.0-7.0-4.27","608d0831835bd8f85ac9237e","bdp_wmem","Sun Mar 12 2023 23:20:05 GMT-0400 (Eastern Daylight Time)","851644","Match,No Match","","2166","","","","","","","<div class='trialBorder'><div class='targDiv'><div class='tc'><img class='introPic' src='trustrating_stim/white_mw003.bmp'><br><font color='green'><strong>Share</strong></font></div></div><div class='respDiv'><div class='respDivL'>Match<br>(e)</div><div class='respDivR'>No Match<br>(i)</div></div></div>","i","TARGET","1","trustrating_stim/white_mw003.bmp","0","noMatchOutcome","i","1500","trustrating_stim/white_mw003.bmp","green","Share","REAL","1"
"html-keyboard-response","174","653158","0.0-7.0-5.27","608d0831835bd8f85ac9237e","bdp_wmem","Sun Mar 12 2023 23:20:05 GMT-0400 (Eastern Daylight Time)","851644","Match,No Match","","null","","","","","","","<div class='trialBorder'><div class='vertical-center'><img src='img/correct.jpg'></div><div class='respDiv'><div class='respDivL'>Match<br>(e)</div><div class='respDivR'><font style='color:orange'>No Match<br>(i)</font></div></div></div>","null","FEEDBACK","","","","","","","","","","",""
"html-keyboard-response","175","653660","0.0-7.0-1.28","608d0831835bd8f85ac9237e","bdp_wmem","Sun Mar 12 2023 23:20:05 GMT-0400 (Eastern Daylight Time)","851644","Match,No Match","","null","","","","","","","<div class='trialBorder'><div class='vertical-center'><img src='img/fixation2_sml.jpg'</img></div></div>","null","FIX","","","","","","","","","","",""
"html-keyboard-response","176","658163","0.0-7.0-2.28","608d0831835bd8f85ac9237e","bdp_wmem","Sun Mar 12 2023 23:20:05 GMT-0400 (Eastern Daylight Time)","851644","Match,No Match","","null","","","","","","","<div class='trialBorder'><div class='vertical-center'><img style='vertical-align:center; align:center' src='img/fixation2_sml.jpg'></div><div class='arrayDiv3'><div class='tl'><img class='introPic' src='trustrating_stim/white_mw012.bmp'><br><font color='green'><strong>Share</strong></font></div><div class='tc'><img class='introPic' src='trustrating_stim/white_mw085.bmp'><br><font color='green'><strong>Share</strong></font></div><div class='tr'><img class='introPic' src='trustrating_stim/white_mw040.bmp'><br><font color='red'><strong>Keep</strong></font></div></div></div>","null","ARRAY","3","trustrating_stim/white_mw012.bmp,trustrating_stim/white_mw085.bmp,trustrating_stim/white_mw040.bmp","1,1,0","noMatchOutcome","i","4500","","","","",""
"html-keyboard-response","177","662165","0.0-7.0-3.28","608d0831835bd8f85ac9237e","bdp_wmem","Sun Mar 12 2023 23:20:05 GMT-0400 (Eastern Daylight Time)","851644","Match,No Match","","null","","","","","","","<div class='trialBorder'><div class='vertical-center'><img src='img/fixation2_sml.jpg'</img></div></div>","null","DELAY","","","","","","","","","","",""
"html-keyboard-response","178","664545","0.0-7.0-4.28","608d0831835bd8f85ac9237e","bdp_wmem","Sun Mar 12 2023 23:20:05 GMT-0400 (Eastern Daylight Time)","851644","Match,No Match","","2377","","","","","","","<div class='trialBorder'><div class='targDiv'><div class='tc'><img class='introPic' src='trustrating_stim/white_mw085.bmp'><br><font color='red'><strong>Keep</strong></font></div></div><div class='respDiv'><div class='respDivL'>Match<br>(e)</div><div class='respDivR'>No Match<br>(i)</div></div></div>","e","TARGET","3","trustrating_stim/white_mw012.bmp,trustrating_stim/white_mw085.bmp,trustrating_stim/white_mw040.bmp","1,1,0","noMatchOutcome","i","4500","trustrating_stim/white_mw085.bmp","red","Keep","REAL","0"
"html-keyboard-response","179","665047","0.0-7.0-5.28","608d0831835bd8f85ac9237e","bdp_wmem","Sun Mar 12 2023 23:20:05 GMT-0400 (Eastern Daylight Time)","851644","Match,No Match","","null","","","","","","","<div class='trialBorder'><div class='vertical-center'><img src='img/error.jpg'></div><div class='respDiv'><div class='respDivL'><font style='color:orange'>Match<br>(e)</font></div><div class='respDivR'>No Match<br>(i)</div></div></div>","null","FEEDBACK","","","","","","","","","","",""
"html-keyboard-response","180","665549","0.0-7.0-1.29","608d0831835bd8f85ac9237e","bdp_wmem","Sun Mar 12 2023 23:20:05 GMT-0400 (Eastern Daylight Time)","851644","Match,No Match","","null","","","","","","","<div class='trialBorder'><div class='vertical-center'><img src='img/fixation2_sml.jpg'</img></div></div>","null","FIX","","","","","","","","","","",""
"html-keyboard-response","181","667052","0.0-7.0-2.29","608d0831835bd8f85ac9237e","bdp_wmem","Sun Mar 12 2023 23:20:05 GMT-0400 (Eastern Daylight Time)","851644","Match,No Match","","null","","","","","","","<div class='trialBorder'><div class='vertical-center'><img style='vertical-align:center; align:center' src='img/fixation2_sml.jpg'></div><div class='arrayDiv1'><div class='tc'><img class='introPic' src='trustrating_stim/white_mw038.bmp'><br><font color='green'><strong>Share</strong></font></div></div></div>","null","ARRAY","1","trustrating_stim/white_mw038.bmp","1","Match","e","1500","","","","",""
"html-keyboard-response","182","671054","0.0-7.0-3.29","608d0831835bd8f85ac9237e","bdp_wmem","Sun Mar 12 2023 23:20:05 GMT-0400 (Eastern Daylight Time)","851644","Match,No Match","","null","","","","","","","<div class='trialBorder'><div class='vertical-center'><img src='img/fixation2_sml.jpg'</img></div></div>","null","DELAY","","","","","","","","","","",""
"html-keyboard-response","183","672194","0.0-7.0-4.29","608d0831835bd8f85ac9237e","bdp_wmem","Sun Mar 12 2023 23:20:05 GMT-0400 (Eastern Daylight Time)","851644","Match,No Match","","1138","","","","","","","<div class='trialBorder'><div class='targDiv'><div class='tc'><img class='introPic' src='trustrating_stim/white_mw038.bmp'><br><font color='green'><strong>Share</strong></font></div></div><div class='respDiv'><div class='respDivL'>Match<br>(e)</div><div class='respDivR'>No Match<br>(i)</div></div></div>","e","TARGET","1","trustrating_stim/white_mw038.bmp","1","Match","e","1500","trustrating_stim/white_mw038.bmp","green","Share","REAL","1"
"html-keyboard-response","184","672696","0.0-7.0-5.29","608d0831835bd8f85ac9237e","bdp_wmem","Sun Mar 12 2023 23:20:05 GMT-0400 (Eastern Daylight Time)","851644","Match,No Match","","null","","","","","","","<div class='trialBorder'><div class='vertical-center'><img src='img/correct.jpg'></div><div class='respDiv'><div class='respDivL'><font style='color:orange'>Match<br>(e)</font></div><div class='respDivR'>No Match<br>(i)</div></div></div>","null","FEEDBACK","","","","","","","","","","",""
"html-keyboard-response","185","673199","0.0-7.0-1.30","608d0831835bd8f85ac9237e","bdp_wmem","Sun Mar 12 2023 23:20:05 GMT-0400 (Eastern Daylight Time)","851644","Match,No Match","","null","","","","","","","<div class='trialBorder'><div class='vertical-center'><img src='img/fixation2_sml.jpg'</img></div></div>","null","FIX","","","","","","","","","","",""
