"trial_type","trial_index","time_elapsed","internal_node_id","subject_id","task","startTime","totalTime","labels","view_history","rt","event","trial","time","trialtype","success","numBlurs","stimulus","key_press","stimType","arraySize","arrayFaces","arrayOutcomes","matchType","corrResp","arrayDur","targFace","targCol","targOutcome","trialType","corr"
"pavlovia","0","7","0.0-0.0","63d3fb1c82d319ac2f752d80","bdp_wmem","Thu Mar 16 2023 00:28:48 GMT-0400 (Eastern Daylight Time)","1093747","Match,No Match","","","","","","","","","","","","","","","","","","","","","",""
"instructions","1","1690","0.0-1.0","63d3fb1c82d319ac2f752d80","bdp_wmem","Thu Mar 16 2023 00:28:48 GMT-0400 (Eastern Daylight Time)","1093747","Match,No Match","[{""page_index"":0,""viewing_time"":1681}]","1681","","","","","","","","","","","","","","","","","","","",""
"","","","","63d3fb1c82d319ac2f752d80","bdp_wmem","Thu Mar 16 2023 00:28:48 GMT-0400 (Eastern Daylight Time)","1093747","Match,No Match","","","fullscreenenter","2","3049","fullscreenenter","","","","","","","","","","","","","","","",""
"fullscreen","2","4021","0.0-2.0","63d3fb1c82d319ac2f752d80","bdp_wmem","Thu Mar 16 2023 00:28:48 GMT-0400 (Eastern Daylight Time)","1093747","Match,No Match","","","","","","","true","","","","","","","","","","","","","","",""
"","","","","63d3fb1c82d319ac2f752d80","bdp_wmem","Thu Mar 16 2023 00:28:48 GMT-0400 (Eastern Daylight Time)","1093747","Match,No Match","","","blur","3","254127","blurevent","","1","","","","","","","","","","","","","",""
"","","","","63d3fb1c82d319ac2f752d80","bdp_wmem","Thu Mar 16 2023 00:28:48 GMT-0400 (Eastern Daylight Time)","1093747","Match,No Match","","","focus","3","347244","focusevent","","","","","","","","","","","","","","","",""
"instructions","3","425526","0.0-4.0","63d3fb1c82d319ac2f752d80","bdp_wmem","Thu Mar 16 2023 00:28:48 GMT-0400 (Eastern Daylight Time)","1093747","Match,No Match","[{""page_index"":0,""viewing_time"":27898},{""page_index"":1,""viewing_time"":32719},{""page_index"":2,""viewing_time"":2575},{""page_index"":3,""viewing_time"":6397},{""page_index"":4,""viewing_time"":351914}]","421504","","","","","","","","","","","","","","","","","","","",""
"html-keyboard-response","4","426029","0.0-5.0-1.0","63d3fb1c82d319ac2f752d80","bdp_wmem","Thu Mar 16 2023 00:28:48 GMT-0400 (Eastern Daylight Time)","1093747","Match,No Match","","null","","","","","","","<div class='trialBorder'><div class='vertical-center'><img src='img/fixation2_sml.jpg'</img></div></div>","null","FIX","","","","","","","","","","",""
"html-keyboard-response","5","430532","0.0-5.0-2.0","63d3fb1c82d319ac2f752d80","bdp_wmem","Thu Mar 16 2023 00:28:48 GMT-0400 (Eastern Daylight Time)","1093747","Match,No Match","","null","","","","","","","<div class='trialBorder'><div class='vertical-center'><img style='vertical-align:center; align:center' src='img/fixation2_sml.jpg'></div><div class='arrayDiv3'><div class='tl'><img class='introPic' src='trustrating_stim/white_mw085.bmp'><br><font color='green'><strong>Share</strong></font></div><div class='tc'><img class='introPic' src='trustrating_stim/white_mw013.bmp'><br><font color='red'><strong>Keep</strong></font></div><div class='tr'><img class='introPic' src='trustrating_stim/white_mw078.bmp'><br><font color='red'><strong>Keep</strong></font></div></div></div>","null","ARRAY","3","trustrating_stim/white_mw085.bmp,trustrating_stim/white_mw013.bmp,trustrating_stim/white_mw078.bmp","1,0,0","noMatchOutcome","i","4500","","","","",""
"html-keyboard-response","6","434536","0.0-5.0-3.0","63d3fb1c82d319ac2f752d80","bdp_wmem","Thu Mar 16 2023 00:28:48 GMT-0400 (Eastern Daylight Time)","1093747","Match,No Match","","null","","","","","","","<div class='trialBorder'><div class='vertical-center'><img src='img/fixation2_sml.jpg'</img></div></div>","null","DELAY","","","","","","","","","","",""
"html-keyboard-response","7","439279","0.0-5.0-4.0","63d3fb1c82d319ac2f752d80","bdp_wmem","Thu Mar 16 2023 00:28:48 GMT-0400 (Eastern Daylight Time)","1093747","Match,No Match","","4740","","","","","","","<div class='trialBorder'><div class='targDiv'><div class='tc'><img class='introPic' src='trustrating_stim/white_mw085.bmp'><br><font color='red'><strong>Keep</strong></font></div></div><div class='respDiv'><div class='respDivL'>Match<br>(e)</div><div class='respDivR'>No Match<br>(i)</div></div></div>","e","TARGET","3","trustrating_stim/white_mw085.bmp,trustrating_stim/white_mw013.bmp,trustrating_stim/white_mw078.bmp","1,0,0","noMatchOutcome","i","4500","trustrating_stim/white_mw085.bmp","red","Keep","PRACTICE","0"
"html-keyboard-response","8","439780","0.0-5.0-5.0","63d3fb1c82d319ac2f752d80","bdp_wmem","Thu Mar 16 2023 00:28:48 GMT-0400 (Eastern Daylight Time)","1093747","Match,No Match","","null","","","","","","","<div class='trialBorder'><div class='vertical-center'><img src='img/error.jpg'></div><div class='respDiv'><div class='respDivL'><font style='color:orange'>Match<br>(e)</font></div><div class='respDivR'>No Match<br>(i)</div></div></div>","null","FEEDBACK","","","","","","","","","","",""
"html-keyboard-response","9","440283","0.0-5.0-1.1","63d3fb1c82d319ac2f752d80","bdp_wmem","Thu Mar 16 2023 00:28:48 GMT-0400 (Eastern Daylight Time)","1093747","Match,No Match","","null","","","","","","","<div class='trialBorder'><div class='vertical-center'><img src='img/fixation2_sml.jpg'</img></div></div>","null","FIX","","","","","","","","","","",""
"html-keyboard-response","10","443287","0.0-5.0-2.1","63d3fb1c82d319ac2f752d80","bdp_wmem","Thu Mar 16 2023 00:28:48 GMT-0400 (Eastern Daylight Time)","1093747","Match,No Match","","null","","","","","","","<div class='trialBorder'><div class='vertical-center'><img style='vertical-align:center; align:center' src='img/fixation2_sml.jpg'></div><div class='arrayDiv2'><div class='tl'><img class='introPic' src='trustrating_stim/white_mw012.bmp'><br><font color='green'><strong>Share</strong></font></div><div class='tr'><img class='introPic' src='trustrating_stim/white_mw013.bmp'><br><font color='red'><strong>Keep</strong></font></div></div></div>","null","ARRAY","2","trustrating_stim/white_mw012.bmp,trustrating_stim/white_mw013.bmp","1,0","Match","e","3000","","","","",""
"html-keyboard-response","11","447290","0.0-5.0-3.1","63d3fb1c82d319ac2f752d80","bdp_wmem","Thu Mar 16 2023 00:28:48 GMT-0400 (Eastern Daylight Time)","1093747","Match,No Match","","null","","","","","","","<div class='trialBorder'><div class='vertical-center'><img src='img/fixation2_sml.jpg'</img></div></div>","null","DELAY","","","","","","","","","","",""
"html-keyboard-response","12","448499","0.0-5.0-4.1","63d3fb1c82d319ac2f752d80","bdp_wmem","Thu Mar 16 2023 00:28:48 GMT-0400 (Eastern Daylight Time)","1093747","Match,No Match","","1206","","","","","","","<div class='trialBorder'><div class='targDiv'><div class='tc'><img class='introPic' src='trustrating_stim/white_mw012.bmp'><br><font color='green'><strong>Share</strong></font></div></div><div class='respDiv'><div class='respDivL'>Match<br>(e)</div><div class='respDivR'>No Match<br>(i)</div></div></div>","e","TARGET","2","trustrating_stim/white_mw012.bmp,trustrating_stim/white_mw013.bmp","1,0","Match","e","3000","trustrating_stim/white_mw012.bmp","green","Share","PRACTICE","1"
"html-keyboard-response","13","449002","0.0-5.0-5.1","63d3fb1c82d319ac2f752d80","bdp_wmem","Thu Mar 16 2023 00:28:48 GMT-0400 (Eastern Daylight Time)","1093747","Match,No Match","","null","","","","","","","<div class='trialBorder'><div class='vertical-center'><img src='img/correct.jpg'></div><div class='respDiv'><div class='respDivL'><font style='color:orange'>Match<br>(e)</font></div><div class='respDivR'>No Match<br>(i)</div></div></div>","null","FEEDBACK","","","","","","","","","","",""
"html-keyboard-response","14","449504","0.0-5.0-1.2","63d3fb1c82d319ac2f752d80","bdp_wmem","Thu Mar 16 2023 00:28:48 GMT-0400 (Eastern Daylight Time)","1093747","Match,No Match","","null","","","","","","","<div class='trialBorder'><div class='vertical-center'><img src='img/fixation2_sml.jpg'</img></div></div>","null","FIX","","","","","","","","","","",""
"html-keyboard-response","15","452507","0.0-5.0-2.2","63d3fb1c82d319ac2f752d80","bdp_wmem","Thu Mar 16 2023 00:28:48 GMT-0400 (Eastern Daylight Time)","1093747","Match,No Match","","null","","","","","","","<div class='trialBorder'><div class='vertical-center'><img style='vertical-align:center; align:center' src='img/fixation2_sml.jpg'></div><div class='arrayDiv2'><div class='tl'><img class='introPic' src='trustrating_stim/white_mw070.bmp'><br><font color='red'><strong>Keep</strong></font></div><div class='tr'><img class='introPic' src='trustrating_stim/white_mw091.bmp'><br><font color='green'><strong>Share</strong></font></div></div></div>","null","ARRAY","2","trustrating_stim/white_mw070.bmp,trustrating_stim/white_mw091.bmp","0,1","noMatchOutcome","i","3000","","","","",""
"html-keyboard-response","16","456509","0.0-5.0-3.2","63d3fb1c82d319ac2f752d80","bdp_wmem","Thu Mar 16 2023 00:28:48 GMT-0400 (Eastern Daylight Time)","1093747","Match,No Match","","null","","","","","","","<div class='trialBorder'><div class='vertical-center'><img src='img/fixation2_sml.jpg'</img></div></div>","null","DELAY","","","","","","","","","","",""
"html-keyboard-response","17","458507","0.0-5.0-4.2","63d3fb1c82d319ac2f752d80","bdp_wmem","Thu Mar 16 2023 00:28:48 GMT-0400 (Eastern Daylight Time)","1093747","Match,No Match","","1994","","","","","","","<div class='trialBorder'><div class='targDiv'><div class='tc'><img class='introPic' src='trustrating_stim/white_mw091.bmp'><br><font color='red'><strong>Keep</strong></font></div></div><div class='respDiv'><div class='respDivL'>Match<br>(e)</div><div class='respDivR'>No Match<br>(i)</div></div></div>","e","TARGET","2","trustrating_stim/white_mw070.bmp,trustrating_stim/white_mw091.bmp","0,1","noMatchOutcome","i","3000","trustrating_stim/white_mw091.bmp","red","Keep","PRACTICE","0"
"html-keyboard-response","18","459009","0.0-5.0-5.2","63d3fb1c82d319ac2f752d80","bdp_wmem","Thu Mar 16 2023 00:28:48 GMT-0400 (Eastern Daylight Time)","1093747","Match,No Match","","null","","","","","","","<div class='trialBorder'><div class='vertical-center'><img src='img/error.jpg'></div><div class='respDiv'><div class='respDivL'><font style='color:orange'>Match<br>(e)</font></div><div class='respDivR'>No Match<br>(i)</div></div></div>","null","FEEDBACK","","","","","","","","","","",""
"html-keyboard-response","19","459511","0.0-5.0-1.3","63d3fb1c82d319ac2f752d80","bdp_wmem","Thu Mar 16 2023 00:28:48 GMT-0400 (Eastern Daylight Time)","1093747","Match,No Match","","null","","","","","","","<div class='trialBorder'><div class='vertical-center'><img src='img/fixation2_sml.jpg'</img></div></div>","null","FIX","","","","","","","","","","",""
"html-keyboard-response","20","464014","0.0-5.0-2.3","63d3fb1c82d319ac2f752d80","bdp_wmem","Thu Mar 16 2023 00:28:48 GMT-0400 (Eastern Daylight Time)","1093747","Match,No Match","","null","","","","","","","<div class='trialBorder'><div class='vertical-center'><img style='vertical-align:center; align:center' src='img/fixation2_sml.jpg'></div><div class='arrayDiv3'><div class='tl'><img class='introPic' src='trustrating_stim/white_mw078.bmp'><br><font color='green'><strong>Share</strong></font></div><div class='tc'><img class='introPic' src='trustrating_stim/white_mw042.bmp'><br><font color='green'><strong>Share</strong></font></div><div class='tr'><img class='introPic' src='trustrating_stim/white_mw012.bmp'><br><font color='red'><strong>Keep</strong></font></div></div></div>","null","ARRAY","3","trustrating_stim/white_mw078.bmp,trustrating_stim/white_mw042.bmp,trustrating_stim/white_mw012.bmp","1,1,0","Match","e","4500","","","","",""
"html-keyboard-response","21","468017","0.0-5.0-3.3","63d3fb1c82d319ac2f752d80","bdp_wmem","Thu Mar 16 2023 00:28:48 GMT-0400 (Eastern Daylight Time)","1093747","Match,No Match","","null","","","","","","","<div class='trialBorder'><div class='vertical-center'><img src='img/fixation2_sml.jpg'</img></div></div>","null","DELAY","","","","","","","","","","",""
"html-keyboard-response","22","471037","0.0-5.0-4.3","63d3fb1c82d319ac2f752d80","bdp_wmem","Thu Mar 16 2023 00:28:48 GMT-0400 (Eastern Daylight Time)","1093747","Match,No Match","","3017","","","","","","","<div class='trialBorder'><div class='targDiv'><div class='tc'><img class='introPic' src='trustrating_stim/white_mw078.bmp'><br><font color='green'><strong>Share</strong></font></div></div><div class='respDiv'><div class='respDivL'>Match<br>(e)</div><div class='respDivR'>No Match<br>(i)</div></div></div>","i","TARGET","3","trustrating_stim/white_mw078.bmp,trustrating_stim/white_mw042.bmp,trustrating_stim/white_mw012.bmp","1,1,0","Match","e","4500","trustrating_stim/white_mw078.bmp","green","Share","PRACTICE","0"
"html-keyboard-response","23","471539","0.0-5.0-5.3","63d3fb1c82d319ac2f752d80","bdp_wmem","Thu Mar 16 2023 00:28:48 GMT-0400 (Eastern Daylight Time)","1093747","Match,No Match","","null","","","","","","","<div class='trialBorder'><div class='vertical-center'><img src='img/error.jpg'></div><div class='respDiv'><div class='respDivL'>Match<br>(e)</div><div class='respDivR'><font style='color:orange'>No Match<br>(i)</font></div></div></div>","null","FEEDBACK","","","","","","","","","","",""
"html-keyboard-response","24","472041","0.0-5.0-1.4","63d3fb1c82d319ac2f752d80","bdp_wmem","Thu Mar 16 2023 00:28:48 GMT-0400 (Eastern Daylight Time)","1093747","Match,No Match","","null","","","","","","","<div class='trialBorder'><div class='vertical-center'><img src='img/fixation2_sml.jpg'</img></div></div>","null","FIX","","","","","","","","","","",""
"html-keyboard-response","25","473543","0.0-5.0-2.4","63d3fb1c82d319ac2f752d80","bdp_wmem","Thu Mar 16 2023 00:28:48 GMT-0400 (Eastern Daylight Time)","1093747","Match,No Match","","null","","","","","","","<div class='trialBorder'><div class='vertical-center'><img style='vertical-align:center; align:center' src='img/fixation2_sml.jpg'></div><div class='arrayDiv1'><div class='tc'><img class='introPic' src='trustrating_stim/white_mw092.bmp'><br><font color='red'><strong>Keep</strong></font></div></div></div>","null","ARRAY","1","trustrating_stim/white_mw092.bmp","0","noMatchFace","i","1500","","","","",""
"html-keyboard-response","26","477547","0.0-5.0-3.4","63d3fb1c82d319ac2f752d80","bdp_wmem","Thu Mar 16 2023 00:28:48 GMT-0400 (Eastern Daylight Time)","1093747","Match,No Match","","null","","","","","","","<div class='trialBorder'><div class='vertical-center'><img src='img/fixation2_sml.jpg'</img></div></div>","null","DELAY","","","","","","","","","","",""
"html-keyboard-response","27","479344","0.0-5.0-4.4","63d3fb1c82d319ac2f752d80","bdp_wmem","Thu Mar 16 2023 00:28:48 GMT-0400 (Eastern Daylight Time)","1093747","Match,No Match","","1795","","","","","","","<div class='trialBorder'><div class='targDiv'><div class='tc'><img class='introPic' src='trustrating_stim/white_mw010.bmp'><br><font color='red'><strong>Keep</strong></font></div></div><div class='respDiv'><div class='respDivL'>Match<br>(e)</div><div class='respDivR'>No Match<br>(i)</div></div></div>","i","TARGET","1","trustrating_stim/white_mw092.bmp","0","noMatchFace","i","1500","trustrating_stim/white_mw010.bmp","red","Keep","PRACTICE","1"
"html-keyboard-response","28","479846","0.0-5.0-5.4","63d3fb1c82d319ac2f752d80","bdp_wmem","Thu Mar 16 2023 00:28:48 GMT-0400 (Eastern Daylight Time)","1093747","Match,No Match","","null","","","","","","","<div class='trialBorder'><div class='vertical-center'><img src='img/correct.jpg'></div><div class='respDiv'><div class='respDivL'>Match<br>(e)</div><div class='respDivR'><font style='color:orange'>No Match<br>(i)</font></div></div></div>","null","FEEDBACK","","","","","","","","","","",""
"html-keyboard-response","29","480348","0.0-5.0-1.5","63d3fb1c82d319ac2f752d80","bdp_wmem","Thu Mar 16 2023 00:28:48 GMT-0400 (Eastern Daylight Time)","1093747","Match,No Match","","null","","","","","","","<div class='trialBorder'><div class='vertical-center'><img src='img/fixation2_sml.jpg'</img></div></div>","null","FIX","","","","","","","","","","",""
"html-keyboard-response","30","481851","0.0-5.0-2.5","63d3fb1c82d319ac2f752d80","bdp_wmem","Thu Mar 16 2023 00:28:48 GMT-0400 (Eastern Daylight Time)","1093747","Match,No Match","","null","","","","","","","<div class='trialBorder'><div class='vertical-center'><img style='vertical-align:center; align:center' src='img/fixation2_sml.jpg'></div><div class='arrayDiv1'><div class='tc'><img class='introPic' src='trustrating_stim/white_mw078.bmp'><br><font color='green'><strong>Share</strong></font></div></div></div>","null","ARRAY","1","trustrating_stim/white_mw078.bmp","1","Match","e","1500","","","","",""
"html-keyboard-response","31","485853","0.0-5.0-3.5","63d3fb1c82d319ac2f752d80","bdp_wmem","Thu Mar 16 2023 00:28:48 GMT-0400 (Eastern Daylight Time)","1093747","Match,No Match","","null","","","","","","","<div class='trialBorder'><div class='vertical-center'><img src='img/fixation2_sml.jpg'</img></div></div>","null","DELAY","","","","","","","","","","",""
"html-keyboard-response","32","486947","0.0-5.0-4.5","63d3fb1c82d319ac2f752d80","bdp_wmem","Thu Mar 16 2023 00:28:48 GMT-0400 (Eastern Daylight Time)","1093747","Match,No Match","","1093","","","","","","","<div class='trialBorder'><div class='targDiv'><div class='tc'><img class='introPic' src='trustrating_stim/white_mw078.bmp'><br><font color='green'><strong>Share</strong></font></div></div><div class='respDiv'><div class='respDivL'>Match<br>(e)</div><div class='respDivR'>No Match<br>(i)</div></div></div>","e","TARGET","1","trustrating_stim/white_mw078.bmp","1","Match","e","1500","trustrating_stim/white_mw078.bmp","green","Share","PRACTICE","1"
"html-keyboard-response","33","487450","0.0-5.0-5.5","63d3fb1c82d319ac2f752d80","bdp_wmem","Thu Mar 16 2023 00:28:48 GMT-0400 (Eastern Daylight Time)","1093747","Match,No Match","","null","","","","","","","<div class='trialBorder'><div class='vertical-center'><img src='img/correct.jpg'></div><div class='respDiv'><div class='respDivL'><font style='color:orange'>Match<br>(e)</font></div><div class='respDivR'>No Match<br>(i)</div></div></div>","null","FEEDBACK","","","","","","","","","","",""
"instructions","34","557558","0.0-6.0","63d3fb1c82d319ac2f752d80","bdp_wmem","Thu Mar 16 2023 00:28:48 GMT-0400 (Eastern Daylight Time)","1093747","Match,No Match","[{""page_index"":0,""viewing_time"":70108}]","70108","","","","","","","","","","","","","","","","","","","",""
"html-keyboard-response","35","558060","0.0-7.0-1.0","63d3fb1c82d319ac2f752d80","bdp_wmem","Thu Mar 16 2023 00:28:48 GMT-0400 (Eastern Daylight Time)","1093747","Match,No Match","","null","","","","","","","<div class='trialBorder'><div class='vertical-center'><img src='img/fixation2_sml.jpg'</img></div></div>","null","FIX","","","","","","","","","","",""
"html-keyboard-response","36","561063","0.0-7.0-2.0","63d3fb1c82d319ac2f752d80","bdp_wmem","Thu Mar 16 2023 00:28:48 GMT-0400 (Eastern Daylight Time)","1093747","Match,No Match","","null","","","","","","","<div class='trialBorder'><div class='vertical-center'><img style='vertical-align:center; align:center' src='img/fixation2_sml.jpg'></div><div class='arrayDiv2'><div class='tl'><img class='introPic' src='trustrating_stim/white_mw040.bmp'><br><font color='red'><strong>Keep</strong></font></div><div class='tr'><img class='introPic' src='trustrating_stim/white_mw003.bmp'><br><font color='green'><strong>Share</strong></font></div></div></div>","null","ARRAY","2","trustrating_stim/white_mw040.bmp,trustrating_stim/white_mw003.bmp","0,1","Match","e","3000","","","","",""
"html-keyboard-response","37","565065","0.0-7.0-3.0","63d3fb1c82d319ac2f752d80","bdp_wmem","Thu Mar 16 2023 00:28:48 GMT-0400 (Eastern Daylight Time)","1093747","Match,No Match","","null","","","","","","","<div class='trialBorder'><div class='vertical-center'><img src='img/fixation2_sml.jpg'</img></div></div>","null","DELAY","","","","","","","","","","",""
"html-keyboard-response","38","566195","0.0-7.0-4.0","63d3fb1c82d319ac2f752d80","bdp_wmem","Thu Mar 16 2023 00:28:48 GMT-0400 (Eastern Daylight Time)","1093747","Match,No Match","","1127","","","","","","","<div class='trialBorder'><div class='targDiv'><div class='tc'><img class='introPic' src='trustrating_stim/white_mw003.bmp'><br><font color='green'><strong>Share</strong></font></div></div><div class='respDiv'><div class='respDivL'>Match<br>(e)</div><div class='respDivR'>No Match<br>(i)</div></div></div>","e","TARGET","2","trustrating_stim/white_mw040.bmp,trustrating_stim/white_mw003.bmp","0,1","Match","e","3000","trustrating_stim/white_mw003.bmp","green","Share","REAL","1"
"html-keyboard-response","39","566697","0.0-7.0-5.0","63d3fb1c82d319ac2f752d80","bdp_wmem","Thu Mar 16 2023 00:28:48 GMT-0400 (Eastern Daylight Time)","1093747","Match,No Match","","null","","","","","","","<div class='trialBorder'><div class='vertical-center'><img src='img/correct.jpg'></div><div class='respDiv'><div class='respDivL'><font style='color:orange'>Match<br>(e)</font></div><div class='respDivR'>No Match<br>(i)</div></div></div>","null","FEEDBACK","","","","","","","","","","",""
"html-keyboard-response","40","567199","0.0-7.0-1.1","63d3fb1c82d319ac2f752d80","bdp_wmem","Thu Mar 16 2023 00:28:48 GMT-0400 (Eastern Daylight Time)","1093747","Match,No Match","","null","","","","","","","<div class='trialBorder'><div class='vertical-center'><img src='img/fixation2_sml.jpg'</img></div></div>","null","FIX","","","","","","","","","","",""
"html-keyboard-response","41","568701","0.0-7.0-2.1","63d3fb1c82d319ac2f752d80","bdp_wmem","Thu Mar 16 2023 00:28:48 GMT-0400 (Eastern Daylight Time)","1093747","Match,No Match","","null","","","","","","","<div class='trialBorder'><div class='vertical-center'><img style='vertical-align:center; align:center' src='img/fixation2_sml.jpg'></div><div class='arrayDiv1'><div class='tc'><img class='introPic' src='trustrating_stim/white_mw091.bmp'><br><font color='green'><strong>Share</strong></font></div></div></div>","null","ARRAY","1","trustrating_stim/white_mw091.bmp","1","Match","e","1500","","","","",""
"html-keyboard-response","42","572704","0.0-7.0-3.1","63d3fb1c82d319ac2f752d80","bdp_wmem","Thu Mar 16 2023 00:28:48 GMT-0400 (Eastern Daylight Time)","1093747","Match,No Match","","null","","","","","","","<div class='trialBorder'><div class='vertical-center'><img src='img/fixation2_sml.jpg'</img></div></div>","null","DELAY","","","","","","","","","","",""
"html-keyboard-response","43","573586","0.0-7.0-4.1","63d3fb1c82d319ac2f752d80","bdp_wmem","Thu Mar 16 2023 00:28:48 GMT-0400 (Eastern Daylight Time)","1093747","Match,No Match","","879","","","","","","","<div class='trialBorder'><div class='targDiv'><div class='tc'><img class='introPic' src='trustrating_stim/white_mw091.bmp'><br><font color='green'><strong>Share</strong></font></div></div><div class='respDiv'><div class='respDivL'>Match<br>(e)</div><div class='respDivR'>No Match<br>(i)</div></div></div>","e","TARGET","1","trustrating_stim/white_mw091.bmp","1","Match","e","1500","trustrating_stim/white_mw091.bmp","green","Share","REAL","1"
"html-keyboard-response","44","574088","0.0-7.0-5.1","63d3fb1c82d319ac2f752d80","bdp_wmem","Thu Mar 16 2023 00:28:48 GMT-0400 (Eastern Daylight Time)","1093747","Match,No Match","","null","","","","","","","<div class='trialBorder'><div class='vertical-center'><img src='img/correct.jpg'></div><div class='respDiv'><div class='respDivL'><font style='color:orange'>Match<br>(e)</font></div><div class='respDivR'>No Match<br>(i)</div></div></div>","null","FEEDBACK","","","","","","","","","","",""
"html-keyboard-response","45","574590","0.0-7.0-1.2","63d3fb1c82d319ac2f752d80","bdp_wmem","Thu Mar 16 2023 00:28:48 GMT-0400 (Eastern Daylight Time)","1093747","Match,No Match","","null","","","","","","","<div class='trialBorder'><div class='vertical-center'><img src='img/fixation2_sml.jpg'</img></div></div>","null","FIX","","","","","","","","","","",""
"html-keyboard-response","46","576093","0.0-7.0-2.2","63d3fb1c82d319ac2f752d80","bdp_wmem","Thu Mar 16 2023 00:28:48 GMT-0400 (Eastern Daylight Time)","1093747","Match,No Match","","null","","","","","","","<div class='trialBorder'><div class='vertical-center'><img style='vertical-align:center; align:center' src='img/fixation2_sml.jpg'></div><div class='arrayDiv1'><div class='tc'><img class='introPic' src='trustrating_stim/white_mw003.bmp'><br><font color='green'><strong>Share</strong></font></div></div></div>","null","ARRAY","1","trustrating_stim/white_mw003.bmp","1","Match","e","1500","","","","",""
"html-keyboard-response","47","580095","0.0-7.0-3.2","63d3fb1c82d319ac2f752d80","bdp_wmem","Thu Mar 16 2023 00:28:48 GMT-0400 (Eastern Daylight Time)","1093747","Match,No Match","","null","","","","","","","<div class='trialBorder'><div class='vertical-center'><img src='img/fixation2_sml.jpg'</img></div></div>","null","DELAY","","","","","","","","","","",""
"html-keyboard-response","48","580725","0.0-7.0-4.2","63d3fb1c82d319ac2f752d80","bdp_wmem","Thu Mar 16 2023 00:28:48 GMT-0400 (Eastern Daylight Time)","1093747","Match,No Match","","628","","","","","","","<div class='trialBorder'><div class='targDiv'><div class='tc'><img class='introPic' src='trustrating_stim/white_mw003.bmp'><br><font color='green'><strong>Share</strong></font></div></div><div class='respDiv'><div class='respDivL'>Match<br>(e)</div><div class='respDivR'>No Match<br>(i)</div></div></div>","e","TARGET","1","trustrating_stim/white_mw003.bmp","1","Match","e","1500","trustrating_stim/white_mw003.bmp","green","Share","REAL","1"
"html-keyboard-response","49","581227","0.0-7.0-5.2","63d3fb1c82d319ac2f752d80","bdp_wmem","Thu Mar 16 2023 00:28:48 GMT-0400 (Eastern Daylight Time)","1093747","Match,No Match","","null","","","","","","","<div class='trialBorder'><div class='vertical-center'><img src='img/correct.jpg'></div><div class='respDiv'><div class='respDivL'><font style='color:orange'>Match<br>(e)</font></div><div class='respDivR'>No Match<br>(i)</div></div></div>","null","FEEDBACK","","","","","","","","","","",""
"html-keyboard-response","50","581729","0.0-7.0-1.3","63d3fb1c82d319ac2f752d80","bdp_wmem","Thu Mar 16 2023 00:28:48 GMT-0400 (Eastern Daylight Time)","1093747","Match,No Match","","null","","","","","","","<div class='trialBorder'><div class='vertical-center'><img src='img/fixation2_sml.jpg'</img></div></div>","null","FIX","","","","","","","","","","",""
"html-keyboard-response","51","586231","0.0-7.0-2.3","63d3fb1c82d319ac2f752d80","bdp_wmem","Thu Mar 16 2023 00:28:48 GMT-0400 (Eastern Daylight Time)","1093747","Match,No Match","","null","","","","","","","<div class='trialBorder'><div class='vertical-center'><img style='vertical-align:center; align:center' src='img/fixation2_sml.jpg'></div><div class='arrayDiv3'><div class='tl'><img class='introPic' src='trustrating_stim/white_mw013.bmp'><br><font color='red'><strong>Keep</strong></font></div><div class='tc'><img class='introPic' src='trustrating_stim/white_mw070.bmp'><br><font color='green'><strong>Share</strong></font></div><div class='tr'><img class='introPic' src='trustrating_stim/white_mw042.bmp'><br><font color='red'><strong>Keep</strong></font></div></div></div>","null","ARRAY","3","trustrating_stim/white_mw013.bmp,trustrating_stim/white_mw070.bmp,trustrating_stim/white_mw042.bmp","0,1,0","Match","e","4500","","","","",""
"html-keyboard-response","52","590233","0.0-7.0-3.3","63d3fb1c82d319ac2f752d80","bdp_wmem","Thu Mar 16 2023 00:28:48 GMT-0400 (Eastern Daylight Time)","1093747","Match,No Match","","null","","","","","","","<div class='trialBorder'><div class='vertical-center'><img src='img/fixation2_sml.jpg'</img></div></div>","null","DELAY","","","","","","","","","","",""
"html-keyboard-response","53","591916","0.0-7.0-4.3","63d3fb1c82d319ac2f752d80","bdp_wmem","Thu Mar 16 2023 00:28:48 GMT-0400 (Eastern Daylight Time)","1093747","Match,No Match","","1679","","","","","","","<div class='trialBorder'><div class='targDiv'><div class='tc'><img class='introPic' src='trustrating_stim/white_mw070.bmp'><br><font color='green'><strong>Share</strong></font></div></div><div class='respDiv'><div class='respDivL'>Match<br>(e)</div><div class='respDivR'>No Match<br>(i)</div></div></div>","e","TARGET","3","trustrating_stim/white_mw013.bmp,trustrating_stim/white_mw070.bmp,trustrating_stim/white_mw042.bmp","0,1,0","Match","e","4500","trustrating_stim/white_mw070.bmp","green","Share","REAL","1"
"html-keyboard-response","54","592417","0.0-7.0-5.3","63d3fb1c82d319ac2f752d80","bdp_wmem","Thu Mar 16 2023 00:28:48 GMT-0400 (Eastern Daylight Time)","1093747","Match,No Match","","null","","","","","","","<div class='trialBorder'><div class='vertical-center'><img src='img/correct.jpg'></div><div class='respDiv'><div class='respDivL'><font style='color:orange'>Match<br>(e)</font></div><div class='respDivR'>No Match<br>(i)</div></div></div>","null","FEEDBACK","","","","","","","","","","",""
"html-keyboard-response","55","592919","0.0-7.0-1.4","63d3fb1c82d319ac2f752d80","bdp_wmem","Thu Mar 16 2023 00:28:48 GMT-0400 (Eastern Daylight Time)","1093747","Match,No Match","","null","","","","","","","<div class='trialBorder'><div class='vertical-center'><img src='img/fixation2_sml.jpg'</img></div></div>","null","FIX","","","","","","","","","","",""
"html-keyboard-response","56","595922","0.0-7.0-2.4","63d3fb1c82d319ac2f752d80","bdp_wmem","Thu Mar 16 2023 00:28:48 GMT-0400 (Eastern Daylight Time)","1093747","Match,No Match","","null","","","","","","","<div class='trialBorder'><div class='vertical-center'><img style='vertical-align:center; align:center' src='img/fixation2_sml.jpg'></div><div class='arrayDiv2'><div class='tl'><img class='introPic' src='trustrating_stim/white_mw078.bmp'><br><font color='green'><strong>Share</strong></font></div><div class='tr'><img class='introPic' src='trustrating_stim/white_mw010.bmp'><br><font color='red'><strong>Keep</strong></font></div></div></div>","null","ARRAY","2","trustrating_stim/white_mw078.bmp,trustrating_stim/white_mw010.bmp","1,0","Match","e","3000","","","","",""
"html-keyboard-response","57","599924","0.0-7.0-3.4","63d3fb1c82d319ac2f752d80","bdp_wmem","Thu Mar 16 2023 00:28:48 GMT-0400 (Eastern Daylight Time)","1093747","Match,No Match","","null","","","","","","","<div class='trialBorder'><div class='vertical-center'><img src='img/fixation2_sml.jpg'</img></div></div>","null","DELAY","","","","","","","","","","",""
"html-keyboard-response","58","602357","0.0-7.0-4.4","63d3fb1c82d319ac2f752d80","bdp_wmem","Thu Mar 16 2023 00:28:48 GMT-0400 (Eastern Daylight Time)","1093747","Match,No Match","","2431","","","","","","","<div class='trialBorder'><div class='targDiv'><div class='tc'><img class='introPic' src='trustrating_stim/white_mw010.bmp'><br><font color='red'><strong>Keep</strong></font></div></div><div class='respDiv'><div class='respDivL'>Match<br>(e)</div><div class='respDivR'>No Match<br>(i)</div></div></div>","e","TARGET","2","trustrating_stim/white_mw078.bmp,trustrating_stim/white_mw010.bmp","1,0","Match","e","3000","trustrating_stim/white_mw010.bmp","red","Keep","REAL","1"
"html-keyboard-response","59","602859","0.0-7.0-5.4","63d3fb1c82d319ac2f752d80","bdp_wmem","Thu Mar 16 2023 00:28:48 GMT-0400 (Eastern Daylight Time)","1093747","Match,No Match","","null","","","","","","","<div class='trialBorder'><div class='vertical-center'><img src='img/correct.jpg'></div><div class='respDiv'><div class='respDivL'><font style='color:orange'>Match<br>(e)</font></div><div class='respDivR'>No Match<br>(i)</div></div></div>","null","FEEDBACK","","","","","","","","","","",""
"html-keyboard-response","60","603360","0.0-7.0-1.5","63d3fb1c82d319ac2f752d80","bdp_wmem","Thu Mar 16 2023 00:28:48 GMT-0400 (Eastern Daylight Time)","1093747","Match,No Match","","null","","","","","","","<div class='trialBorder'><div class='vertical-center'><img src='img/fixation2_sml.jpg'</img></div></div>","null","FIX","","","","","","","","","","",""
"html-keyboard-response","61","606364","0.0-7.0-2.5","63d3fb1c82d319ac2f752d80","bdp_wmem","Thu Mar 16 2023 00:28:48 GMT-0400 (Eastern Daylight Time)","1093747","Match,No Match","","null","","","","","","","<div class='trialBorder'><div class='vertical-center'><img style='vertical-align:center; align:center' src='img/fixation2_sml.jpg'></div><div class='arrayDiv2'><div class='tl'><img class='introPic' src='trustrating_stim/white_mw012.bmp'><br><font color='green'><strong>Share</strong></font></div><div class='tr'><img class='introPic' src='trustrating_stim/white_mw070.bmp'><br><font color='red'><strong>Keep</strong></font></div></div></div>","null","ARRAY","2","trustrating_stim/white_mw012.bmp,trustrating_stim/white_mw070.bmp","1,0","noMatchFace","i","3000","","","","",""
"html-keyboard-response","62","610367","0.0-7.0-3.5","63d3fb1c82d319ac2f752d80","bdp_wmem","Thu Mar 16 2023 00:28:48 GMT-0400 (Eastern Daylight Time)","1093747","Match,No Match","","null","","","","","","","<div class='trialBorder'><div class='vertical-center'><img src='img/fixation2_sml.jpg'</img></div></div>","null","DELAY","","","","","","","","","","",""
"html-keyboard-response","63","611700","0.0-7.0-4.5","63d3fb1c82d319ac2f752d80","bdp_wmem","Thu Mar 16 2023 00:28:48 GMT-0400 (Eastern Daylight Time)","1093747","Match,No Match","","1329","","","","","","","<div class='trialBorder'><div class='targDiv'><div class='tc'><img class='introPic' src='trustrating_stim/white_mw078.bmp'><br><font color='red'><strong>Keep</strong></font></div></div><div class='respDiv'><div class='respDivL'>Match<br>(e)</div><div class='respDivR'>No Match<br>(i)</div></div></div>","i","TARGET","2","trustrating_stim/white_mw012.bmp,trustrating_stim/white_mw070.bmp","1,0","noMatchFace","i","3000","trustrating_stim/white_mw078.bmp","red","Keep","REAL","1"
"html-keyboard-response","64","612204","0.0-7.0-5.5","63d3fb1c82d319ac2f752d80","bdp_wmem","Thu Mar 16 2023 00:28:48 GMT-0400 (Eastern Daylight Time)","1093747","Match,No Match","","null","","","","","","","<div class='trialBorder'><div class='vertical-center'><img src='img/correct.jpg'></div><div class='respDiv'><div class='respDivL'>Match<br>(e)</div><div class='respDivR'><font style='color:orange'>No Match<br>(i)</font></div></div></div>","null","FEEDBACK","","","","","","","","","","",""
"html-keyboard-response","65","612707","0.0-7.0-1.6","63d3fb1c82d319ac2f752d80","bdp_wmem","Thu Mar 16 2023 00:28:48 GMT-0400 (Eastern Daylight Time)","1093747","Match,No Match","","null","","","","","","","<div class='trialBorder'><div class='vertical-center'><img src='img/fixation2_sml.jpg'</img></div></div>","null","FIX","","","","","","","","","","",""
"html-keyboard-response","66","615710","0.0-7.0-2.6","63d3fb1c82d319ac2f752d80","bdp_wmem","Thu Mar 16 2023 00:28:48 GMT-0400 (Eastern Daylight Time)","1093747","Match,No Match","","null","","","","","","","<div class='trialBorder'><div class='vertical-center'><img style='vertical-align:center; align:center' src='img/fixation2_sml.jpg'></div><div class='arrayDiv2'><div class='tl'><img class='introPic' src='trustrating_stim/white_mw013.bmp'><br><font color='red'><strong>Keep</strong></font></div><div class='tr'><img class='introPic' src='trustrating_stim/white_mw038.bmp'><br><font color='green'><strong>Share</strong></font></div></div></div>","null","ARRAY","2","trustrating_stim/white_mw013.bmp,trustrating_stim/white_mw038.bmp","0,1","Match","e","3000","","","","",""
"html-keyboard-response","67","619711","0.0-7.0-3.6","63d3fb1c82d319ac2f752d80","bdp_wmem","Thu Mar 16 2023 00:28:48 GMT-0400 (Eastern Daylight Time)","1093747","Match,No Match","","null","","","","","","","<div class='trialBorder'><div class='vertical-center'><img src='img/fixation2_sml.jpg'</img></div></div>","null","DELAY","","","","","","","","","","",""
"html-keyboard-response","68","621556","0.0-7.0-4.6","63d3fb1c82d319ac2f752d80","bdp_wmem","Thu Mar 16 2023 00:28:48 GMT-0400 (Eastern Daylight Time)","1093747","Match,No Match","","1842","","","","","","","<div class='trialBorder'><div class='targDiv'><div class='tc'><img class='introPic' src='trustrating_stim/white_mw038.bmp'><br><font color='green'><strong>Share</strong></font></div></div><div class='respDiv'><div class='respDivL'>Match<br>(e)</div><div class='respDivR'>No Match<br>(i)</div></div></div>","e","TARGET","2","trustrating_stim/white_mw013.bmp,trustrating_stim/white_mw038.bmp","0,1","Match","e","3000","trustrating_stim/white_mw038.bmp","green","Share","REAL","1"
"html-keyboard-response","69","622058","0.0-7.0-5.6","63d3fb1c82d319ac2f752d80","bdp_wmem","Thu Mar 16 2023 00:28:48 GMT-0400 (Eastern Daylight Time)","1093747","Match,No Match","","null","","","","","","","<div class='trialBorder'><div class='vertical-center'><img src='img/correct.jpg'></div><div class='respDiv'><div class='respDivL'><font style='color:orange'>Match<br>(e)</font></div><div class='respDivR'>No Match<br>(i)</div></div></div>","null","FEEDBACK","","","","","","","","","","",""
"html-keyboard-response","70","622561","0.0-7.0-1.7","63d3fb1c82d319ac2f752d80","bdp_wmem","Thu Mar 16 2023 00:28:48 GMT-0400 (Eastern Daylight Time)","1093747","Match,No Match","","null","","","","","","","<div class='trialBorder'><div class='vertical-center'><img src='img/fixation2_sml.jpg'</img></div></div>","null","FIX","","","","","","","","","","",""
"html-keyboard-response","71","627063","0.0-7.0-2.7","63d3fb1c82d319ac2f752d80","bdp_wmem","Thu Mar 16 2023 00:28:48 GMT-0400 (Eastern Daylight Time)","1093747","Match,No Match","","null","","","","","","","<div class='trialBorder'><div class='vertical-center'><img style='vertical-align:center; align:center' src='img/fixation2_sml.jpg'></div><div class='arrayDiv3'><div class='tl'><img class='introPic' src='trustrating_stim/white_mw070.bmp'><br><font color='green'><strong>Share</strong></font></div><div class='tc'><img class='introPic' src='trustrating_stim/white_mw092.bmp'><br><font color='green'><strong>Share</strong></font></div><div class='tr'><img class='introPic' src='trustrating_stim/white_mw091.bmp'><br><font color='red'><strong>Keep</strong></font></div></div></div>","null","ARRAY","3","trustrating_stim/white_mw070.bmp,trustrating_stim/white_mw092.bmp,trustrating_stim/white_mw091.bmp","1,1,0","Match","e","4500","","","","",""
"html-keyboard-response","72","631067","0.0-7.0-3.7","63d3fb1c82d319ac2f752d80","bdp_wmem","Thu Mar 16 2023 00:28:48 GMT-0400 (Eastern Daylight Time)","1093747","Match,No Match","","null","","","","","","","<div class='trialBorder'><div class='vertical-center'><img src='img/fixation2_sml.jpg'</img></div></div>","null","DELAY","","","","","","","","","","",""
"html-keyboard-response","73","632463","0.0-7.0-4.7","63d3fb1c82d319ac2f752d80","bdp_wmem","Thu Mar 16 2023 00:28:48 GMT-0400 (Eastern Daylight Time)","1093747","Match,No Match","","1393","","","","","","","<div class='trialBorder'><div class='targDiv'><div class='tc'><img class='introPic' src='trustrating_stim/white_mw070.bmp'><br><font color='green'><strong>Share</strong></font></div></div><div class='respDiv'><div class='respDivL'>Match<br>(e)</div><div class='respDivR'>No Match<br>(i)</div></div></div>","i","TARGET","3","trustrating_stim/white_mw070.bmp,trustrating_stim/white_mw092.bmp,trustrating_stim/white_mw091.bmp","1,1,0","Match","e","4500","trustrating_stim/white_mw070.bmp","green","Share","REAL","0"
"html-keyboard-response","74","632965","0.0-7.0-5.7","63d3fb1c82d319ac2f752d80","bdp_wmem","Thu Mar 16 2023 00:28:48 GMT-0400 (Eastern Daylight Time)","1093747","Match,No Match","","null","","","","","","","<div class='trialBorder'><div class='vertical-center'><img src='img/error.jpg'></div><div class='respDiv'><div class='respDivL'>Match<br>(e)</div><div class='respDivR'><font style='color:orange'>No Match<br>(i)</font></div></div></div>","null","FEEDBACK","","","","","","","","","","",""
"html-keyboard-response","75","633466","0.0-7.0-1.8","63d3fb1c82d319ac2f752d80","bdp_wmem","Thu Mar 16 2023 00:28:48 GMT-0400 (Eastern Daylight Time)","1093747","Match,No Match","","null","","","","","","","<div class='trialBorder'><div class='vertical-center'><img src='img/fixation2_sml.jpg'</img></div></div>","null","FIX","","","","","","","","","","",""
"html-keyboard-response","76","636470","0.0-7.0-2.8","63d3fb1c82d319ac2f752d80","bdp_wmem","Thu Mar 16 2023 00:28:48 GMT-0400 (Eastern Daylight Time)","1093747","Match,No Match","","null","","","","","","","<div class='trialBorder'><div class='vertical-center'><img style='vertical-align:center; align:center' src='img/fixation2_sml.jpg'></div><div class='arrayDiv2'><div class='tl'><img class='introPic' src='trustrating_stim/white_mw038.bmp'><br><font color='green'><strong>Share</strong></font></div><div class='tr'><img class='introPic' src='trustrating_stim/white_mw003.bmp'><br><font color='red'><strong>Keep</strong></font></div></div></div>","null","ARRAY","2","trustrating_stim/white_mw038.bmp,trustrating_stim/white_mw003.bmp","1,0","Match","e","3000","","","","",""
"html-keyboard-response","77","640472","0.0-7.0-3.8","63d3fb1c82d319ac2f752d80","bdp_wmem","Thu Mar 16 2023 00:28:48 GMT-0400 (Eastern Daylight Time)","1093747","Match,No Match","","null","","","","","","","<div class='trialBorder'><div class='vertical-center'><img src='img/fixation2_sml.jpg'</img></div></div>","null","DELAY","","","","","","","","","","",""
"html-keyboard-response","78","642405","0.0-7.0-4.8","63d3fb1c82d319ac2f752d80","bdp_wmem","Thu Mar 16 2023 00:28:48 GMT-0400 (Eastern Daylight Time)","1093747","Match,No Match","","1930","","","","","","","<div class='trialBorder'><div class='targDiv'><div class='tc'><img class='introPic' src='trustrating_stim/white_mw003.bmp'><br><font color='red'><strong>Keep</strong></font></div></div><div class='respDiv'><div class='respDivL'>Match<br>(e)</div><div class='respDivR'>No Match<br>(i)</div></div></div>","e","TARGET","2","trustrating_stim/white_mw038.bmp,trustrating_stim/white_mw003.bmp","1,0","Match","e","3000","trustrating_stim/white_mw003.bmp","red","Keep","REAL","1"
"html-keyboard-response","79","642908","0.0-7.0-5.8","63d3fb1c82d319ac2f752d80","bdp_wmem","Thu Mar 16 2023 00:28:48 GMT-0400 (Eastern Daylight Time)","1093747","Match,No Match","","null","","","","","","","<div class='trialBorder'><div class='vertical-center'><img src='img/correct.jpg'></div><div class='respDiv'><div class='respDivL'><font style='color:orange'>Match<br>(e)</font></div><div class='respDivR'>No Match<br>(i)</div></div></div>","null","FEEDBACK","","","","","","","","","","",""
"html-keyboard-response","80","643410","0.0-7.0-1.9","63d3fb1c82d319ac2f752d80","bdp_wmem","Thu Mar 16 2023 00:28:48 GMT-0400 (Eastern Daylight Time)","1093747","Match,No Match","","null","","","","","","","<div class='trialBorder'><div class='vertical-center'><img src='img/fixation2_sml.jpg'</img></div></div>","null","FIX","","","","","","","","","","",""
"html-keyboard-response","81","647912","0.0-7.0-2.9","63d3fb1c82d319ac2f752d80","bdp_wmem","Thu Mar 16 2023 00:28:48 GMT-0400 (Eastern Daylight Time)","1093747","Match,No Match","","null","","","","","","","<div class='trialBorder'><div class='vertical-center'><img style='vertical-align:center; align:center' src='img/fixation2_sml.jpg'></div><div class='arrayDiv3'><div class='tl'><img class='introPic' src='trustrating_stim/white_mw003.bmp'><br><font color='red'><strong>Keep</strong></font></div><div class='tc'><img class='introPic' src='trustrating_stim/white_mw078.bmp'><br><font color='green'><strong>Share</strong></font></div><div class='tr'><img class='introPic' src='trustrating_stim/white_mw085.bmp'><br><font color='red'><strong>Keep</strong></font></div></div></div>","null","ARRAY","3","trustrating_stim/white_mw003.bmp,trustrating_stim/white_mw078.bmp,trustrating_stim/white_mw085.bmp","0,1,0","noMatchOutcome","i","4500","","","","",""
"html-keyboard-response","82","651916","0.0-7.0-3.9","63d3fb1c82d319ac2f752d80","bdp_wmem","Thu Mar 16 2023 00:28:48 GMT-0400 (Eastern Daylight Time)","1093747","Match,No Match","","null","","","","","","","<div class='trialBorder'><div class='vertical-center'><img src='img/fixation2_sml.jpg'</img></div></div>","null","DELAY","","","","","","","","","","",""
"html-keyboard-response","83","653728","0.0-7.0-4.9","63d3fb1c82d319ac2f752d80","bdp_wmem","Thu Mar 16 2023 00:28:48 GMT-0400 (Eastern Daylight Time)","1093747","Match,No Match","","1809","","","","","","","<div class='trialBorder'><div class='targDiv'><div class='tc'><img class='introPic' src='trustrating_stim/white_mw078.bmp'><br><font color='red'><strong>Keep</strong></font></div></div><div class='respDiv'><div class='respDivL'>Match<br>(e)</div><div class='respDivR'>No Match<br>(i)</div></div></div>","i","TARGET","3","trustrating_stim/white_mw003.bmp,trustrating_stim/white_mw078.bmp,trustrating_stim/white_mw085.bmp","0,1,0","noMatchOutcome","i","4500","trustrating_stim/white_mw078.bmp","red","Keep","REAL","1"
"html-keyboard-response","84","654231","0.0-7.0-5.9","63d3fb1c82d319ac2f752d80","bdp_wmem","Thu Mar 16 2023 00:28:48 GMT-0400 (Eastern Daylight Time)","1093747","Match,No Match","","null","","","","","","","<div class='trialBorder'><div class='vertical-center'><img src='img/correct.jpg'></div><div class='respDiv'><div class='respDivL'>Match<br>(e)</div><div class='respDivR'><font style='color:orange'>No Match<br>(i)</font></div></div></div>","null","FEEDBACK","","","","","","","","","","",""
"html-keyboard-response","85","654733","0.0-7.0-1.10","63d3fb1c82d319ac2f752d80","bdp_wmem","Thu Mar 16 2023 00:28:48 GMT-0400 (Eastern Daylight Time)","1093747","Match,No Match","","null","","","","","","","<div class='trialBorder'><div class='vertical-center'><img src='img/fixation2_sml.jpg'</img></div></div>","null","FIX","","","","","","","","","","",""
"html-keyboard-response","86","659237","0.0-7.0-2.10","63d3fb1c82d319ac2f752d80","bdp_wmem","Thu Mar 16 2023 00:28:48 GMT-0400 (Eastern Daylight Time)","1093747","Match,No Match","","null","","","","","","","<div class='trialBorder'><div class='vertical-center'><img style='vertical-align:center; align:center' src='img/fixation2_sml.jpg'></div><div class='arrayDiv3'><div class='tl'><img class='introPic' src='trustrating_stim/white_mw042.bmp'><br><font color='green'><strong>Share</strong></font></div><div class='tc'><img class='introPic' src='trustrating_stim/white_mw078.bmp'><br><font color='red'><strong>Keep</strong></font></div><div class='tr'><img class='introPic' src='trustrating_stim/white_mw040.bmp'><br><font color='green'><strong>Share</strong></font></div></div></div>","null","ARRAY","3","trustrating_stim/white_mw042.bmp,trustrating_stim/white_mw078.bmp,trustrating_stim/white_mw040.bmp","1,0,1","Match","e","4500","","","","",""
"html-keyboard-response","87","663240","0.0-7.0-3.10","63d3fb1c82d319ac2f752d80","bdp_wmem","Thu Mar 16 2023 00:28:48 GMT-0400 (Eastern Daylight Time)","1093747","Match,No Match","","null","","","","","","","<div class='trialBorder'><div class='vertical-center'><img src='img/fixation2_sml.jpg'</img></div></div>","null","DELAY","","","","","","","","","","",""
"html-keyboard-response","88","665736","0.0-7.0-4.10","63d3fb1c82d319ac2f752d80","bdp_wmem","Thu Mar 16 2023 00:28:48 GMT-0400 (Eastern Daylight Time)","1093747","Match,No Match","","2494","","","","","","","<div class='trialBorder'><div class='targDiv'><div class='tc'><img class='introPic' src='trustrating_stim/white_mw040.bmp'><br><font color='green'><strong>Share</strong></font></div></div><div class='respDiv'><div class='respDivL'>Match<br>(e)</div><div class='respDivR'>No Match<br>(i)</div></div></div>","e","TARGET","3","trustrating_stim/white_mw042.bmp,trustrating_stim/white_mw078.bmp,trustrating_stim/white_mw040.bmp","1,0,1","Match","e","4500","trustrating_stim/white_mw040.bmp","green","Share","REAL","1"
"html-keyboard-response","89","666238","0.0-7.0-5.10","63d3fb1c82d319ac2f752d80","bdp_wmem","Thu Mar 16 2023 00:28:48 GMT-0400 (Eastern Daylight Time)","1093747","Match,No Match","","null","","","","","","","<div class='trialBorder'><div class='vertical-center'><img src='img/correct.jpg'></div><div class='respDiv'><div class='respDivL'><font style='color:orange'>Match<br>(e)</font></div><div class='respDivR'>No Match<br>(i)</div></div></div>","null","FEEDBACK","","","","","","","","","","",""
"html-keyboard-response","90","666740","0.0-7.0-1.11","63d3fb1c82d319ac2f752d80","bdp_wmem","Thu Mar 16 2023 00:28:48 GMT-0400 (Eastern Daylight Time)","1093747","Match,No Match","","null","","","","","","","<div class='trialBorder'><div class='vertical-center'><img src='img/fixation2_sml.jpg'</img></div></div>","null","FIX","","","","","","","","","","",""
"html-keyboard-response","91","668242","0.0-7.0-2.11","63d3fb1c82d319ac2f752d80","bdp_wmem","Thu Mar 16 2023 00:28:48 GMT-0400 (Eastern Daylight Time)","1093747","Match,No Match","","null","","","","","","","<div class='trialBorder'><div class='vertical-center'><img style='vertical-align:center; align:center' src='img/fixation2_sml.jpg'></div><div class='arrayDiv1'><div class='tc'><img class='introPic' src='trustrating_stim/white_mw040.bmp'><br><font color='red'><strong>Keep</strong></font></div></div></div>","null","ARRAY","1","trustrating_stim/white_mw040.bmp","0","Match","e","1500","","","","",""
"html-keyboard-response","92","672244","0.0-7.0-3.11","63d3fb1c82d319ac2f752d80","bdp_wmem","Thu Mar 16 2023 00:28:48 GMT-0400 (Eastern Daylight Time)","1093747","Match,No Match","","null","","","","","","","<div class='trialBorder'><div class='vertical-center'><img src='img/fixation2_sml.jpg'</img></div></div>","null","DELAY","","","","","","","","","","",""
"html-keyboard-response","93","674475","0.0-7.0-4.11","63d3fb1c82d319ac2f752d80","bdp_wmem","Thu Mar 16 2023 00:28:48 GMT-0400 (Eastern Daylight Time)","1093747","Match,No Match","","2229","","","","","","","<div class='trialBorder'><div class='targDiv'><div class='tc'><img class='introPic' src='trustrating_stim/white_mw040.bmp'><br><font color='red'><strong>Keep</strong></font></div></div><div class='respDiv'><div class='respDivL'>Match<br>(e)</div><div class='respDivR'>No Match<br>(i)</div></div></div>","e","TARGET","1","trustrating_stim/white_mw040.bmp","0","Match","e","1500","trustrating_stim/white_mw040.bmp","red","Keep","REAL","1"
"html-keyboard-response","94","674978","0.0-7.0-5.11","63d3fb1c82d319ac2f752d80","bdp_wmem","Thu Mar 16 2023 00:28:48 GMT-0400 (Eastern Daylight Time)","1093747","Match,No Match","","null","","","","","","","<div class='trialBorder'><div class='vertical-center'><img src='img/correct.jpg'></div><div class='respDiv'><div class='respDivL'><font style='color:orange'>Match<br>(e)</font></div><div class='respDivR'>No Match<br>(i)</div></div></div>","null","FEEDBACK","","","","","","","","","","",""
"html-keyboard-response","95","675479","0.0-7.0-1.12","63d3fb1c82d319ac2f752d80","bdp_wmem","Thu Mar 16 2023 00:28:48 GMT-0400 (Eastern Daylight Time)","1093747","Match,No Match","","null","","","","","","","<div class='trialBorder'><div class='vertical-center'><img src='img/fixation2_sml.jpg'</img></div></div>","null","FIX","","","","","","","","","","",""
"html-keyboard-response","96","679982","0.0-7.0-2.12","63d3fb1c82d319ac2f752d80","bdp_wmem","Thu Mar 16 2023 00:28:48 GMT-0400 (Eastern Daylight Time)","1093747","Match,No Match","","null","","","","","","","<div class='trialBorder'><div class='vertical-center'><img style='vertical-align:center; align:center' src='img/fixation2_sml.jpg'></div><div class='arrayDiv3'><div class='tl'><img class='introPic' src='trustrating_stim/white_mw010.bmp'><br><font color='green'><strong>Share</strong></font></div><div class='tc'><img class='introPic' src='trustrating_stim/white_mw091.bmp'><br><font color='red'><strong>Keep</strong></font></div><div class='tr'><img class='introPic' src='trustrating_stim/white_mw042.bmp'><br><font color='red'><strong>Keep</strong></font></div></div></div>","null","ARRAY","3","trustrating_stim/white_mw010.bmp,trustrating_stim/white_mw091.bmp,trustrating_stim/white_mw042.bmp","1,0,0","Match","e","4500","","","","",""
"html-keyboard-response","97","683985","0.0-7.0-3.12","63d3fb1c82d319ac2f752d80","bdp_wmem","Thu Mar 16 2023 00:28:48 GMT-0400 (Eastern Daylight Time)","1093747","Match,No Match","","null","","","","","","","<div class='trialBorder'><div class='vertical-center'><img src='img/fixation2_sml.jpg'</img></div></div>","null","DELAY","","","","","","","","","","",""
"html-keyboard-response","98","684714","0.0-7.0-4.12","63d3fb1c82d319ac2f752d80","bdp_wmem","Thu Mar 16 2023 00:28:48 GMT-0400 (Eastern Daylight Time)","1093747","Match,No Match","","726","","","","","","","<div class='trialBorder'><div class='targDiv'><div class='tc'><img class='introPic' src='trustrating_stim/white_mw010.bmp'><br><font color='green'><strong>Share</strong></font></div></div><div class='respDiv'><div class='respDivL'>Match<br>(e)</div><div class='respDivR'>No Match<br>(i)</div></div></div>","i","TARGET","3","trustrating_stim/white_mw010.bmp,trustrating_stim/white_mw091.bmp,trustrating_stim/white_mw042.bmp","1,0,0","Match","e","4500","trustrating_stim/white_mw010.bmp","green","Share","REAL","0"
"html-keyboard-response","99","685216","0.0-7.0-5.12","63d3fb1c82d319ac2f752d80","bdp_wmem","Thu Mar 16 2023 00:28:48 GMT-0400 (Eastern Daylight Time)","1093747","Match,No Match","","null","","","","","","","<div class='trialBorder'><div class='vertical-center'><img src='img/error.jpg'></div><div class='respDiv'><div class='respDivL'>Match<br>(e)</div><div class='respDivR'><font style='color:orange'>No Match<br>(i)</font></div></div></div>","null","FEEDBACK","","","","","","","","","","",""
"html-keyboard-response","100","685719","0.0-7.0-1.13","63d3fb1c82d319ac2f752d80","bdp_wmem","Thu Mar 16 2023 00:28:48 GMT-0400 (Eastern Daylight Time)","1093747","Match,No Match","","null","","","","","","","<div class='trialBorder'><div class='vertical-center'><img src='img/fixation2_sml.jpg'</img></div></div>","null","FIX","","","","","","","","","","",""
"html-keyboard-response","101","688729","0.0-7.0-2.13","63d3fb1c82d319ac2f752d80","bdp_wmem","Thu Mar 16 2023 00:28:48 GMT-0400 (Eastern Daylight Time)","1093747","Match,No Match","","null","","","","","","","<div class='trialBorder'><div class='vertical-center'><img style='vertical-align:center; align:center' src='img/fixation2_sml.jpg'></div><div class='arrayDiv2'><div class='tl'><img class='introPic' src='trustrating_stim/white_mw091.bmp'><br><font color='red'><strong>Keep</strong></font></div><div class='tr'><img class='introPic' src='trustrating_stim/white_mw070.bmp'><br><font color='green'><strong>Share</strong></font></div></div></div>","null","ARRAY","2","trustrating_stim/white_mw091.bmp,trustrating_stim/white_mw070.bmp","0,1","Match","e","3000","","","","",""
"html-keyboard-response","102","692731","0.0-7.0-3.13","63d3fb1c82d319ac2f752d80","bdp_wmem","Thu Mar 16 2023 00:28:48 GMT-0400 (Eastern Daylight Time)","1093747","Match,No Match","","null","","","","","","","<div class='trialBorder'><div class='vertical-center'><img src='img/fixation2_sml.jpg'</img></div></div>","null","DELAY","","","","","","","","","","",""
"html-keyboard-response","103","693637","0.0-7.0-4.13","63d3fb1c82d319ac2f752d80","bdp_wmem","Thu Mar 16 2023 00:28:48 GMT-0400 (Eastern Daylight Time)","1093747","Match,No Match","","901","","","","","","","<div class='trialBorder'><div class='targDiv'><div class='tc'><img class='introPic' src='trustrating_stim/white_mw070.bmp'><br><font color='green'><strong>Share</strong></font></div></div><div class='respDiv'><div class='respDivL'>Match<br>(e)</div><div class='respDivR'>No Match<br>(i)</div></div></div>","i","TARGET","2","trustrating_stim/white_mw091.bmp,trustrating_stim/white_mw070.bmp","0,1","Match","e","3000","trustrating_stim/white_mw070.bmp","green","Share","REAL","0"
"html-keyboard-response","104","694145","0.0-7.0-5.13","63d3fb1c82d319ac2f752d80","bdp_wmem","Thu Mar 16 2023 00:28:48 GMT-0400 (Eastern Daylight Time)","1093747","Match,No Match","","null","","","","","","","<div class='trialBorder'><div class='vertical-center'><img src='img/error.jpg'></div><div class='respDiv'><div class='respDivL'>Match<br>(e)</div><div class='respDivR'><font style='color:orange'>No Match<br>(i)</font></div></div></div>","null","FEEDBACK","","","","","","","","","","",""
"html-keyboard-response","105","694646","0.0-7.0-1.14","63d3fb1c82d319ac2f752d80","bdp_wmem","Thu Mar 16 2023 00:28:48 GMT-0400 (Eastern Daylight Time)","1093747","Match,No Match","","null","","","","","","","<div class='trialBorder'><div class='vertical-center'><img src='img/fixation2_sml.jpg'</img></div></div>","null","FIX","","","","","","","","","","",""
"html-keyboard-response","106","699149","0.0-7.0-2.14","63d3fb1c82d319ac2f752d80","bdp_wmem","Thu Mar 16 2023 00:28:48 GMT-0400 (Eastern Daylight Time)","1093747","Match,No Match","","null","","","","","","","<div class='trialBorder'><div class='vertical-center'><img style='vertical-align:center; align:center' src='img/fixation2_sml.jpg'></div><div class='arrayDiv3'><div class='tl'><img class='introPic' src='trustrating_stim/white_mw085.bmp'><br><font color='red'><strong>Keep</strong></font></div><div class='tc'><img class='introPic' src='trustrating_stim/white_mw010.bmp'><br><font color='red'><strong>Keep</strong></font></div><div class='tr'><img class='introPic' src='trustrating_stim/white_mw013.bmp'><br><font color='green'><strong>Share</strong></font></div></div></div>","null","ARRAY","3","trustrating_stim/white_mw085.bmp,trustrating_stim/white_mw010.bmp,trustrating_stim/white_mw013.bmp","0,0,1","noMatchOutcome","i","4500","","","","",""
"html-keyboard-response","107","703153","0.0-7.0-3.14","63d3fb1c82d319ac2f752d80","bdp_wmem","Thu Mar 16 2023 00:28:48 GMT-0400 (Eastern Daylight Time)","1093747","Match,No Match","","null","","","","","","","<div class='trialBorder'><div class='vertical-center'><img src='img/fixation2_sml.jpg'</img></div></div>","null","DELAY","","","","","","","","","","",""
"html-keyboard-response","108","704231","0.0-7.0-4.14","63d3fb1c82d319ac2f752d80","bdp_wmem","Thu Mar 16 2023 00:28:48 GMT-0400 (Eastern Daylight Time)","1093747","Match,No Match","","1075","","","","","","","<div class='trialBorder'><div class='targDiv'><div class='tc'><img class='introPic' src='trustrating_stim/white_mw085.bmp'><br><font color='green'><strong>Share</strong></font></div></div><div class='respDiv'><div class='respDivL'>Match<br>(e)</div><div class='respDivR'>No Match<br>(i)</div></div></div>","i","TARGET","3","trustrating_stim/white_mw085.bmp,trustrating_stim/white_mw010.bmp,trustrating_stim/white_mw013.bmp","0,0,1","noMatchOutcome","i","4500","trustrating_stim/white_mw085.bmp","green","Share","REAL","1"
"html-keyboard-response","109","704733","0.0-7.0-5.14","63d3fb1c82d319ac2f752d80","bdp_wmem","Thu Mar 16 2023 00:28:48 GMT-0400 (Eastern Daylight Time)","1093747","Match,No Match","","null","","","","","","","<div class='trialBorder'><div class='vertical-center'><img src='img/correct.jpg'></div><div class='respDiv'><div class='respDivL'>Match<br>(e)</div><div class='respDivR'><font style='color:orange'>No Match<br>(i)</font></div></div></div>","null","FEEDBACK","","","","","","","","","","",""
"html-keyboard-response","110","705236","0.0-7.0-1.15","63d3fb1c82d319ac2f752d80","bdp_wmem","Thu Mar 16 2023 00:28:48 GMT-0400 (Eastern Daylight Time)","1093747","Match,No Match","","null","","","","","","","<div class='trialBorder'><div class='vertical-center'><img src='img/fixation2_sml.jpg'</img></div></div>","null","FIX","","","","","","","","","","",""
"html-keyboard-response","111","708239","0.0-7.0-2.15","63d3fb1c82d319ac2f752d80","bdp_wmem","Thu Mar 16 2023 00:28:48 GMT-0400 (Eastern Daylight Time)","1093747","Match,No Match","","null","","","","","","","<div class='trialBorder'><div class='vertical-center'><img style='vertical-align:center; align:center' src='img/fixation2_sml.jpg'></div><div class='arrayDiv2'><div class='tl'><img class='introPic' src='trustrating_stim/white_mw038.bmp'><br><font color='red'><strong>Keep</strong></font></div><div class='tr'><img class='introPic' src='trustrating_stim/white_mw010.bmp'><br><font color='green'><strong>Share</strong></font></div></div></div>","null","ARRAY","2","trustrating_stim/white_mw038.bmp,trustrating_stim/white_mw010.bmp","0,1","Match","e","3000","","","","",""
"html-keyboard-response","112","712241","0.0-7.0-3.15","63d3fb1c82d319ac2f752d80","bdp_wmem","Thu Mar 16 2023 00:28:48 GMT-0400 (Eastern Daylight Time)","1093747","Match,No Match","","null","","","","","","","<div class='trialBorder'><div class='vertical-center'><img src='img/fixation2_sml.jpg'</img></div></div>","null","DELAY","","","","","","","","","","",""
"html-keyboard-response","113","714060","0.0-7.0-4.15","63d3fb1c82d319ac2f752d80","bdp_wmem","Thu Mar 16 2023 00:28:48 GMT-0400 (Eastern Daylight Time)","1093747","Match,No Match","","1816","","","","","","","<div class='trialBorder'><div class='targDiv'><div class='tc'><img class='introPic' src='trustrating_stim/white_mw038.bmp'><br><font color='red'><strong>Keep</strong></font></div></div><div class='respDiv'><div class='respDivL'>Match<br>(e)</div><div class='respDivR'>No Match<br>(i)</div></div></div>","e","TARGET","2","trustrating_stim/white_mw038.bmp,trustrating_stim/white_mw010.bmp","0,1","Match","e","3000","trustrating_stim/white_mw038.bmp","red","Keep","REAL","1"
"html-keyboard-response","114","714562","0.0-7.0-5.15","63d3fb1c82d319ac2f752d80","bdp_wmem","Thu Mar 16 2023 00:28:48 GMT-0400 (Eastern Daylight Time)","1093747","Match,No Match","","null","","","","","","","<div class='trialBorder'><div class='vertical-center'><img src='img/correct.jpg'></div><div class='respDiv'><div class='respDivL'><font style='color:orange'>Match<br>(e)</font></div><div class='respDivR'>No Match<br>(i)</div></div></div>","null","FEEDBACK","","","","","","","","","","",""
"html-keyboard-response","115","715063","0.0-7.0-1.16","63d3fb1c82d319ac2f752d80","bdp_wmem","Thu Mar 16 2023 00:28:48 GMT-0400 (Eastern Daylight Time)","1093747","Match,No Match","","null","","","","","","","<div class='trialBorder'><div class='vertical-center'><img src='img/fixation2_sml.jpg'</img></div></div>","null","FIX","","","","","","","","","","",""
"html-keyboard-response","116","719567","0.0-7.0-2.16","63d3fb1c82d319ac2f752d80","bdp_wmem","Thu Mar 16 2023 00:28:48 GMT-0400 (Eastern Daylight Time)","1093747","Match,No Match","","null","","","","","","","<div class='trialBorder'><div class='vertical-center'><img style='vertical-align:center; align:center' src='img/fixation2_sml.jpg'></div><div class='arrayDiv3'><div class='tl'><img class='introPic' src='trustrating_stim/white_mw092.bmp'><br><font color='red'><strong>Keep</strong></font></div><div class='tc'><img class='introPic' src='trustrating_stim/white_mw040.bmp'><br><font color='green'><strong>Share</strong></font></div><div class='tr'><img class='introPic' src='trustrating_stim/white_mw010.bmp'><br><font color='green'><strong>Share</strong></font></div></div></div>","null","ARRAY","3","trustrating_stim/white_mw092.bmp,trustrating_stim/white_mw040.bmp,trustrating_stim/white_mw010.bmp","0,1,1","Match","e","4500","","","","",""
"html-keyboard-response","117","723569","0.0-7.0-3.16","63d3fb1c82d319ac2f752d80","bdp_wmem","Thu Mar 16 2023 00:28:48 GMT-0400 (Eastern Daylight Time)","1093747","Match,No Match","","null","","","","","","","<div class='trialBorder'><div class='vertical-center'><img src='img/fixation2_sml.jpg'</img></div></div>","null","DELAY","","","","","","","","","","",""
"html-keyboard-response","118","757063","0.0-7.0-4.16","63d3fb1c82d319ac2f752d80","bdp_wmem","Thu Mar 16 2023 00:28:48 GMT-0400 (Eastern Daylight Time)","1093747","Match,No Match","","33491","","","","","","","<div class='trialBorder'><div class='targDiv'><div class='tc'><img class='introPic' src='trustrating_stim/white_mw040.bmp'><br><font color='green'><strong>Share</strong></font></div></div><div class='respDiv'><div class='respDivL'>Match<br>(e)</div><div class='respDivR'>No Match<br>(i)</div></div></div>","i","TARGET","3","trustrating_stim/white_mw092.bmp,trustrating_stim/white_mw040.bmp,trustrating_stim/white_mw010.bmp","0,1,1","Match","e","4500","trustrating_stim/white_mw040.bmp","green","Share","REAL","0"
"html-keyboard-response","119","757566","0.0-7.0-5.16","63d3fb1c82d319ac2f752d80","bdp_wmem","Thu Mar 16 2023 00:28:48 GMT-0400 (Eastern Daylight Time)","1093747","Match,No Match","","null","","","","","","","<div class='trialBorder'><div class='vertical-center'><img src='img/error.jpg'></div><div class='respDiv'><div class='respDivL'>Match<br>(e)</div><div class='respDivR'><font style='color:orange'>No Match<br>(i)</font></div></div></div>","null","FEEDBACK","","","","","","","","","","",""
"html-keyboard-response","120","758068","0.0-7.0-1.17","63d3fb1c82d319ac2f752d80","bdp_wmem","Thu Mar 16 2023 00:28:48 GMT-0400 (Eastern Daylight Time)","1093747","Match,No Match","","null","","","","","","","<div class='trialBorder'><div class='vertical-center'><img src='img/fixation2_sml.jpg'</img></div></div>","null","FIX","","","","","","","","","","",""
"html-keyboard-response","121","762571","0.0-7.0-2.17","63d3fb1c82d319ac2f752d80","bdp_wmem","Thu Mar 16 2023 00:28:48 GMT-0400 (Eastern Daylight Time)","1093747","Match,No Match","","null","","","","","","","<div class='trialBorder'><div class='vertical-center'><img style='vertical-align:center; align:center' src='img/fixation2_sml.jpg'></div><div class='arrayDiv3'><div class='tl'><img class='introPic' src='trustrating_stim/white_mw092.bmp'><br><font color='red'><strong>Keep</strong></font></div><div class='tc'><img class='introPic' src='trustrating_stim/white_mw070.bmp'><br><font color='green'><strong>Share</strong></font></div><div class='tr'><img class='introPic' src='trustrating_stim/white_mw010.bmp'><br><font color='green'><strong>Share</strong></font></div></div></div>","null","ARRAY","3","trustrating_stim/white_mw092.bmp,trustrating_stim/white_mw070.bmp,trustrating_stim/white_mw010.bmp","0,1,1","Match","e","4500","","","","",""
"html-keyboard-response","122","766573","0.0-7.0-3.17","63d3fb1c82d319ac2f752d80","bdp_wmem","Thu Mar 16 2023 00:28:48 GMT-0400 (Eastern Daylight Time)","1093747","Match,No Match","","null","","","","","","","<div class='trialBorder'><div class='vertical-center'><img src='img/fixation2_sml.jpg'</img></div></div>","null","DELAY","","","","","","","","","","",""
"html-keyboard-response","123","768644","0.0-7.0-4.17","63d3fb1c82d319ac2f752d80","bdp_wmem","Thu Mar 16 2023 00:28:48 GMT-0400 (Eastern Daylight Time)","1093747","Match,No Match","","2070","","","","","","","<div class='trialBorder'><div class='targDiv'><div class='tc'><img class='introPic' src='trustrating_stim/white_mw070.bmp'><br><font color='green'><strong>Share</strong></font></div></div><div class='respDiv'><div class='respDivL'>Match<br>(e)</div><div class='respDivR'>No Match<br>(i)</div></div></div>","e","TARGET","3","trustrating_stim/white_mw092.bmp,trustrating_stim/white_mw070.bmp,trustrating_stim/white_mw010.bmp","0,1,1","Match","e","4500","trustrating_stim/white_mw070.bmp","green","Share","REAL","1"
"html-keyboard-response","124","769147","0.0-7.0-5.17","63d3fb1c82d319ac2f752d80","bdp_wmem","Thu Mar 16 2023 00:28:48 GMT-0400 (Eastern Daylight Time)","1093747","Match,No Match","","null","","","","","","","<div class='trialBorder'><div class='vertical-center'><img src='img/correct.jpg'></div><div class='respDiv'><div class='respDivL'><font style='color:orange'>Match<br>(e)</font></div><div class='respDivR'>No Match<br>(i)</div></div></div>","null","FEEDBACK","","","","","","","","","","",""
"html-keyboard-response","125","769649","0.0-7.0-1.18","63d3fb1c82d319ac2f752d80","bdp_wmem","Thu Mar 16 2023 00:28:48 GMT-0400 (Eastern Daylight Time)","1093747","Match,No Match","","null","","","","","","","<div class='trialBorder'><div class='vertical-center'><img src='img/fixation2_sml.jpg'</img></div></div>","null","FIX","","","","","","","","","","",""
"html-keyboard-response","126","774153","0.0-7.0-2.18","63d3fb1c82d319ac2f752d80","bdp_wmem","Thu Mar 16 2023 00:28:48 GMT-0400 (Eastern Daylight Time)","1093747","Match,No Match","","null","","","","","","","<div class='trialBorder'><div class='vertical-center'><img style='vertical-align:center; align:center' src='img/fixation2_sml.jpg'></div><div class='arrayDiv3'><div class='tl'><img class='introPic' src='trustrating_stim/white_mw070.bmp'><br><font color='red'><strong>Keep</strong></font></div><div class='tc'><img class='introPic' src='trustrating_stim/white_mw038.bmp'><br><font color='red'><strong>Keep</strong></font></div><div class='tr'><img class='introPic' src='trustrating_stim/white_mw013.bmp'><br><font color='green'><strong>Share</strong></font></div></div></div>","null","ARRAY","3","trustrating_stim/white_mw070.bmp,trustrating_stim/white_mw038.bmp,trustrating_stim/white_mw013.bmp","0,0,1","noMatchFace","i","4500","","","","",""
"html-keyboard-response","127","778156","0.0-7.0-3.18","63d3fb1c82d319ac2f752d80","bdp_wmem","Thu Mar 16 2023 00:28:48 GMT-0400 (Eastern Daylight Time)","1093747","Match,No Match","","null","","","","","","","<div class='trialBorder'><div class='vertical-center'><img src='img/fixation2_sml.jpg'</img></div></div>","null","DELAY","","","","","","","","","","",""
"html-keyboard-response","128","780688","0.0-7.0-4.18","63d3fb1c82d319ac2f752d80","bdp_wmem","Thu Mar 16 2023 00:28:48 GMT-0400 (Eastern Daylight Time)","1093747","Match,No Match","","2530","","","","","","","<div class='trialBorder'><div class='targDiv'><div class='tc'><img class='introPic' src='trustrating_stim/white_mw085.bmp'><br><font color='green'><strong>Share</strong></font></div></div><div class='respDiv'><div class='respDivL'>Match<br>(e)</div><div class='respDivR'>No Match<br>(i)</div></div></div>","i","TARGET","3","trustrating_stim/white_mw070.bmp,trustrating_stim/white_mw038.bmp,trustrating_stim/white_mw013.bmp","0,0,1","noMatchFace","i","4500","trustrating_stim/white_mw085.bmp","green","Share","REAL","1"
"html-keyboard-response","129","781190","0.0-7.0-5.18","63d3fb1c82d319ac2f752d80","bdp_wmem","Thu Mar 16 2023 00:28:48 GMT-0400 (Eastern Daylight Time)","1093747","Match,No Match","","null","","","","","","","<div class='trialBorder'><div class='vertical-center'><img src='img/correct.jpg'></div><div class='respDiv'><div class='respDivL'>Match<br>(e)</div><div class='respDivR'><font style='color:orange'>No Match<br>(i)</font></div></div></div>","null","FEEDBACK","","","","","","","","","","",""
"html-keyboard-response","130","781692","0.0-7.0-1.19","63d3fb1c82d319ac2f752d80","bdp_wmem","Thu Mar 16 2023 00:28:48 GMT-0400 (Eastern Daylight Time)","1093747","Match,No Match","","null","","","","","","","<div class='trialBorder'><div class='vertical-center'><img src='img/fixation2_sml.jpg'</img></div></div>","null","FIX","","","","","","","","","","",""
"html-keyboard-response","131","783196","0.0-7.0-2.19","63d3fb1c82d319ac2f752d80","bdp_wmem","Thu Mar 16 2023 00:28:48 GMT-0400 (Eastern Daylight Time)","1093747","Match,No Match","","null","","","","","","","<div class='trialBorder'><div class='vertical-center'><img style='vertical-align:center; align:center' src='img/fixation2_sml.jpg'></div><div class='arrayDiv1'><div class='tc'><img class='introPic' src='trustrating_stim/white_mw042.bmp'><br><font color='red'><strong>Keep</strong></font></div></div></div>","null","ARRAY","1","trustrating_stim/white_mw042.bmp","0","noMatchFace","i","1500","","","","",""
"html-keyboard-response","132","787198","0.0-7.0-3.19","63d3fb1c82d319ac2f752d80","bdp_wmem","Thu Mar 16 2023 00:28:48 GMT-0400 (Eastern Daylight Time)","1093747","Match,No Match","","null","","","","","","","<div class='trialBorder'><div class='vertical-center'><img src='img/fixation2_sml.jpg'</img></div></div>","null","DELAY","","","","","","","","","","",""
"html-keyboard-response","133","788802","0.0-7.0-4.19","63d3fb1c82d319ac2f752d80","bdp_wmem","Thu Mar 16 2023 00:28:48 GMT-0400 (Eastern Daylight Time)","1093747","Match,No Match","","1601","","","","","","","<div class='trialBorder'><div class='targDiv'><div class='tc'><img class='introPic' src='trustrating_stim/white_mw085.bmp'><br><font color='red'><strong>Keep</strong></font></div></div><div class='respDiv'><div class='respDivL'>Match<br>(e)</div><div class='respDivR'>No Match<br>(i)</div></div></div>","i","TARGET","1","trustrating_stim/white_mw042.bmp","0","noMatchFace","i","1500","trustrating_stim/white_mw085.bmp","red","Keep","REAL","1"
"html-keyboard-response","134","789305","0.0-7.0-5.19","63d3fb1c82d319ac2f752d80","bdp_wmem","Thu Mar 16 2023 00:28:48 GMT-0400 (Eastern Daylight Time)","1093747","Match,No Match","","null","","","","","","","<div class='trialBorder'><div class='vertical-center'><img src='img/correct.jpg'></div><div class='respDiv'><div class='respDivL'>Match<br>(e)</div><div class='respDivR'><font style='color:orange'>No Match<br>(i)</font></div></div></div>","null","FEEDBACK","","","","","","","","","","",""
"html-keyboard-response","135","789807","0.0-7.0-1.20","63d3fb1c82d319ac2f752d80","bdp_wmem","Thu Mar 16 2023 00:28:48 GMT-0400 (Eastern Daylight Time)","1093747","Match,No Match","","null","","","","","","","<div class='trialBorder'><div class='vertical-center'><img src='img/fixation2_sml.jpg'</img></div></div>","null","FIX","","","","","","","","","","",""
"html-keyboard-response","136","791310","0.0-7.0-2.20","63d3fb1c82d319ac2f752d80","bdp_wmem","Thu Mar 16 2023 00:28:48 GMT-0400 (Eastern Daylight Time)","1093747","Match,No Match","","null","","","","","","","<div class='trialBorder'><div class='vertical-center'><img style='vertical-align:center; align:center' src='img/fixation2_sml.jpg'></div><div class='arrayDiv1'><div class='tc'><img class='introPic' src='trustrating_stim/white_mw010.bmp'><br><font color='green'><strong>Share</strong></font></div></div></div>","null","ARRAY","1","trustrating_stim/white_mw010.bmp","1","noMatchFace","i","1500","","","","",""
"html-keyboard-response","137","795311","0.0-7.0-3.20","63d3fb1c82d319ac2f752d80","bdp_wmem","Thu Mar 16 2023 00:28:48 GMT-0400 (Eastern Daylight Time)","1093747","Match,No Match","","null","","","","","","","<div class='trialBorder'><div class='vertical-center'><img src='img/fixation2_sml.jpg'</img></div></div>","null","DELAY","","","","","","","","","","",""
"html-keyboard-response","138","797097","0.0-7.0-4.20","63d3fb1c82d319ac2f752d80","bdp_wmem","Thu Mar 16 2023 00:28:48 GMT-0400 (Eastern Daylight Time)","1093747","Match,No Match","","1782","","","","","","","<div class='trialBorder'><div class='targDiv'><div class='tc'><img class='introPic' src='trustrating_stim/white_mw013.bmp'><br><font color='green'><strong>Share</strong></font></div></div><div class='respDiv'><div class='respDivL'>Match<br>(e)</div><div class='respDivR'>No Match<br>(i)</div></div></div>","i","TARGET","1","trustrating_stim/white_mw010.bmp","1","noMatchFace","i","1500","trustrating_stim/white_mw013.bmp","green","Share","REAL","1"
"html-keyboard-response","139","797598","0.0-7.0-5.20","63d3fb1c82d319ac2f752d80","bdp_wmem","Thu Mar 16 2023 00:28:48 GMT-0400 (Eastern Daylight Time)","1093747","Match,No Match","","null","","","","","","","<div class='trialBorder'><div class='vertical-center'><img src='img/correct.jpg'></div><div class='respDiv'><div class='respDivL'>Match<br>(e)</div><div class='respDivR'><font style='color:orange'>No Match<br>(i)</font></div></div></div>","null","FEEDBACK","","","","","","","","","","",""
"html-keyboard-response","140","798100","0.0-7.0-1.21","63d3fb1c82d319ac2f752d80","bdp_wmem","Thu Mar 16 2023 00:28:48 GMT-0400 (Eastern Daylight Time)","1093747","Match,No Match","","null","","","","","","","<div class='trialBorder'><div class='vertical-center'><img src='img/fixation2_sml.jpg'</img></div></div>","null","FIX","","","","","","","","","","",""
"html-keyboard-response","141","799602","0.0-7.0-2.21","63d3fb1c82d319ac2f752d80","bdp_wmem","Thu Mar 16 2023 00:28:48 GMT-0400 (Eastern Daylight Time)","1093747","Match,No Match","","null","","","","","","","<div class='trialBorder'><div class='vertical-center'><img style='vertical-align:center; align:center' src='img/fixation2_sml.jpg'></div><div class='arrayDiv1'><div class='tc'><img class='introPic' src='trustrating_stim/white_mw010.bmp'><br><font color='green'><strong>Share</strong></font></div></div></div>","null","ARRAY","1","trustrating_stim/white_mw010.bmp","1","Match","e","1500","","","","",""
"html-keyboard-response","142","803604","0.0-7.0-3.21","63d3fb1c82d319ac2f752d80","bdp_wmem","Thu Mar 16 2023 00:28:48 GMT-0400 (Eastern Daylight Time)","1093747","Match,No Match","","null","","","","","","","<div class='trialBorder'><div class='vertical-center'><img src='img/fixation2_sml.jpg'</img></div></div>","null","DELAY","","","","","","","","","","",""
"html-keyboard-response","143","805924","0.0-7.0-4.21","63d3fb1c82d319ac2f752d80","bdp_wmem","Thu Mar 16 2023 00:28:48 GMT-0400 (Eastern Daylight Time)","1093747","Match,No Match","","2318","","","","","","","<div class='trialBorder'><div class='targDiv'><div class='tc'><img class='introPic' src='trustrating_stim/white_mw010.bmp'><br><font color='green'><strong>Share</strong></font></div></div><div class='respDiv'><div class='respDivL'>Match<br>(e)</div><div class='respDivR'>No Match<br>(i)</div></div></div>","e","TARGET","1","trustrating_stim/white_mw010.bmp","1","Match","e","1500","trustrating_stim/white_mw010.bmp","green","Share","REAL","1"
"html-keyboard-response","144","806426","0.0-7.0-5.21","63d3fb1c82d319ac2f752d80","bdp_wmem","Thu Mar 16 2023 00:28:48 GMT-0400 (Eastern Daylight Time)","1093747","Match,No Match","","null","","","","","","","<div class='trialBorder'><div class='vertical-center'><img src='img/correct.jpg'></div><div class='respDiv'><div class='respDivL'><font style='color:orange'>Match<br>(e)</font></div><div class='respDivR'>No Match<br>(i)</div></div></div>","null","FEEDBACK","","","","","","","","","","",""
"html-keyboard-response","145","806929","0.0-7.0-1.22","63d3fb1c82d319ac2f752d80","bdp_wmem","Thu Mar 16 2023 00:28:48 GMT-0400 (Eastern Daylight Time)","1093747","Match,No Match","","null","","","","","","","<div class='trialBorder'><div class='vertical-center'><img src='img/fixation2_sml.jpg'</img></div></div>","null","FIX","","","","","","","","","","",""
"html-keyboard-response","146","808431","0.0-7.0-2.22","63d3fb1c82d319ac2f752d80","bdp_wmem","Thu Mar 16 2023 00:28:48 GMT-0400 (Eastern Daylight Time)","1093747","Match,No Match","","null","","","","","","","<div class='trialBorder'><div class='vertical-center'><img style='vertical-align:center; align:center' src='img/fixation2_sml.jpg'></div><div class='arrayDiv1'><div class='tc'><img class='introPic' src='trustrating_stim/white_mw092.bmp'><br><font color='green'><strong>Share</strong></font></div></div></div>","null","ARRAY","1","trustrating_stim/white_mw092.bmp","1","noMatchFace","i","1500","","","","",""
"html-keyboard-response","147","812434","0.0-7.0-3.22","63d3fb1c82d319ac2f752d80","bdp_wmem","Thu Mar 16 2023 00:28:48 GMT-0400 (Eastern Daylight Time)","1093747","Match,No Match","","null","","","","","","","<div class='trialBorder'><div class='vertical-center'><img src='img/fixation2_sml.jpg'</img></div></div>","null","DELAY","","","","","","","","","","",""
"html-keyboard-response","148","814264","0.0-7.0-4.22","63d3fb1c82d319ac2f752d80","bdp_wmem","Thu Mar 16 2023 00:28:48 GMT-0400 (Eastern Daylight Time)","1093747","Match,No Match","","1827","","","","","","","<div class='trialBorder'><div class='targDiv'><div class='tc'><img class='introPic' src='trustrating_stim/white_mw003.bmp'><br><font color='green'><strong>Share</strong></font></div></div><div class='respDiv'><div class='respDivL'>Match<br>(e)</div><div class='respDivR'>No Match<br>(i)</div></div></div>","i","TARGET","1","trustrating_stim/white_mw092.bmp","1","noMatchFace","i","1500","trustrating_stim/white_mw003.bmp","green","Share","REAL","1"
"html-keyboard-response","149","814767","0.0-7.0-5.22","63d3fb1c82d319ac2f752d80","bdp_wmem","Thu Mar 16 2023 00:28:48 GMT-0400 (Eastern Daylight Time)","1093747","Match,No Match","","null","","","","","","","<div class='trialBorder'><div class='vertical-center'><img src='img/correct.jpg'></div><div class='respDiv'><div class='respDivL'>Match<br>(e)</div><div class='respDivR'><font style='color:orange'>No Match<br>(i)</font></div></div></div>","null","FEEDBACK","","","","","","","","","","",""
"html-keyboard-response","150","815269","0.0-7.0-1.23","63d3fb1c82d319ac2f752d80","bdp_wmem","Thu Mar 16 2023 00:28:48 GMT-0400 (Eastern Daylight Time)","1093747","Match,No Match","","null","","","","","","","<div class='trialBorder'><div class='vertical-center'><img src='img/fixation2_sml.jpg'</img></div></div>","null","FIX","","","","","","","","","","",""
"html-keyboard-response","151","819773","0.0-7.0-2.23","63d3fb1c82d319ac2f752d80","bdp_wmem","Thu Mar 16 2023 00:28:48 GMT-0400 (Eastern Daylight Time)","1093747","Match,No Match","","null","","","","","","","<div class='trialBorder'><div class='vertical-center'><img style='vertical-align:center; align:center' src='img/fixation2_sml.jpg'></div><div class='arrayDiv3'><div class='tl'><img class='introPic' src='trustrating_stim/white_mw078.bmp'><br><font color='red'><strong>Keep</strong></font></div><div class='tc'><img class='introPic' src='trustrating_stim/white_mw038.bmp'><br><font color='red'><strong>Keep</strong></font></div><div class='tr'><img class='introPic' src='trustrating_stim/white_mw010.bmp'><br><font color='green'><strong>Share</strong></font></div></div></div>","null","ARRAY","3","trustrating_stim/white_mw078.bmp,trustrating_stim/white_mw038.bmp,trustrating_stim/white_mw010.bmp","0,0,1","noMatchFace","i","4500","","","","",""
"html-keyboard-response","152","823775","0.0-7.0-3.23","63d3fb1c82d319ac2f752d80","bdp_wmem","Thu Mar 16 2023 00:28:48 GMT-0400 (Eastern Daylight Time)","1093747","Match,No Match","","null","","","","","","","<div class='trialBorder'><div class='vertical-center'><img src='img/fixation2_sml.jpg'</img></div></div>","null","DELAY","","","","","","","","","","",""
"html-keyboard-response","153","825937","0.0-7.0-4.23","63d3fb1c82d319ac2f752d80","bdp_wmem","Thu Mar 16 2023 00:28:48 GMT-0400 (Eastern Daylight Time)","1093747","Match,No Match","","2160","","","","","","","<div class='trialBorder'><div class='targDiv'><div class='tc'><img class='introPic' src='trustrating_stim/white_mw013.bmp'><br><font color='green'><strong>Share</strong></font></div></div><div class='respDiv'><div class='respDivL'>Match<br>(e)</div><div class='respDivR'>No Match<br>(i)</div></div></div>","i","TARGET","3","trustrating_stim/white_mw078.bmp,trustrating_stim/white_mw038.bmp,trustrating_stim/white_mw010.bmp","0,0,1","noMatchFace","i","4500","trustrating_stim/white_mw013.bmp","green","Share","REAL","1"
"html-keyboard-response","154","826450","0.0-7.0-5.23","63d3fb1c82d319ac2f752d80","bdp_wmem","Thu Mar 16 2023 00:28:48 GMT-0400 (Eastern Daylight Time)","1093747","Match,No Match","","null","","","","","","","<div class='trialBorder'><div class='vertical-center'><img src='img/correct.jpg'></div><div class='respDiv'><div class='respDivL'>Match<br>(e)</div><div class='respDivR'><font style='color:orange'>No Match<br>(i)</font></div></div></div>","null","FEEDBACK","","","","","","","","","","",""
"html-keyboard-response","155","826951","0.0-7.0-1.24","63d3fb1c82d319ac2f752d80","bdp_wmem","Thu Mar 16 2023 00:28:48 GMT-0400 (Eastern Daylight Time)","1093747","Match,No Match","","null","","","","","","","<div class='trialBorder'><div class='vertical-center'><img src='img/fixation2_sml.jpg'</img></div></div>","null","FIX","","","","","","","","","","",""
"html-keyboard-response","156","828453","0.0-7.0-2.24","63d3fb1c82d319ac2f752d80","bdp_wmem","Thu Mar 16 2023 00:28:48 GMT-0400 (Eastern Daylight Time)","1093747","Match,No Match","","null","","","","","","","<div class='trialBorder'><div class='vertical-center'><img style='vertical-align:center; align:center' src='img/fixation2_sml.jpg'></div><div class='arrayDiv1'><div class='tc'><img class='introPic' src='trustrating_stim/white_mw013.bmp'><br><font color='red'><strong>Keep</strong></font></div></div></div>","null","ARRAY","1","trustrating_stim/white_mw013.bmp","0","noMatchOutcome","i","1500","","","","",""
"html-keyboard-response","157","832455","0.0-7.0-3.24","63d3fb1c82d319ac2f752d80","bdp_wmem","Thu Mar 16 2023 00:28:48 GMT-0400 (Eastern Daylight Time)","1093747","Match,No Match","","null","","","","","","","<div class='trialBorder'><div class='vertical-center'><img src='img/fixation2_sml.jpg'</img></div></div>","null","DELAY","","","","","","","","","","",""
"html-keyboard-response","158","835073","0.0-7.0-4.24","63d3fb1c82d319ac2f752d80","bdp_wmem","Thu Mar 16 2023 00:28:48 GMT-0400 (Eastern Daylight Time)","1093747","Match,No Match","","2615","","","","","","","<div class='trialBorder'><div class='targDiv'><div class='tc'><img class='introPic' src='trustrating_stim/white_mw013.bmp'><br><font color='green'><strong>Share</strong></font></div></div><div class='respDiv'><div class='respDivL'>Match<br>(e)</div><div class='respDivR'>No Match<br>(i)</div></div></div>","e","TARGET","1","trustrating_stim/white_mw013.bmp","0","noMatchOutcome","i","1500","trustrating_stim/white_mw013.bmp","green","Share","REAL","0"
"html-keyboard-response","159","835577","0.0-7.0-5.24","63d3fb1c82d319ac2f752d80","bdp_wmem","Thu Mar 16 2023 00:28:48 GMT-0400 (Eastern Daylight Time)","1093747","Match,No Match","","null","","","","","","","<div class='trialBorder'><div class='vertical-center'><img src='img/error.jpg'></div><div class='respDiv'><div class='respDivL'><font style='color:orange'>Match<br>(e)</font></div><div class='respDivR'>No Match<br>(i)</div></div></div>","null","FEEDBACK","","","","","","","","","","",""
"html-keyboard-response","160","836080","0.0-7.0-1.25","63d3fb1c82d319ac2f752d80","bdp_wmem","Thu Mar 16 2023 00:28:48 GMT-0400 (Eastern Daylight Time)","1093747","Match,No Match","","null","","","","","","","<div class='trialBorder'><div class='vertical-center'><img src='img/fixation2_sml.jpg'</img></div></div>","null","FIX","","","","","","","","","","",""
"html-keyboard-response","161","837583","0.0-7.0-2.25","63d3fb1c82d319ac2f752d80","bdp_wmem","Thu Mar 16 2023 00:28:48 GMT-0400 (Eastern Daylight Time)","1093747","Match,No Match","","null","","","","","","","<div class='trialBorder'><div class='vertical-center'><img style='vertical-align:center; align:center' src='img/fixation2_sml.jpg'></div><div class='arrayDiv1'><div class='tc'><img class='introPic' src='trustrating_stim/white_mw078.bmp'><br><font color='red'><strong>Keep</strong></font></div></div></div>","null","ARRAY","1","trustrating_stim/white_mw078.bmp","0","noMatchOutcome","i","1500","","","","",""
"html-keyboard-response","162","841585","0.0-7.0-3.25","63d3fb1c82d319ac2f752d80","bdp_wmem","Thu Mar 16 2023 00:28:48 GMT-0400 (Eastern Daylight Time)","1093747","Match,No Match","","null","","","","","","","<div class='trialBorder'><div class='vertical-center'><img src='img/fixation2_sml.jpg'</img></div></div>","null","DELAY","","","","","","","","","","",""
"html-keyboard-response","163","843924","0.0-7.0-4.25","63d3fb1c82d319ac2f752d80","bdp_wmem","Thu Mar 16 2023 00:28:48 GMT-0400 (Eastern Daylight Time)","1093747","Match,No Match","","2337","","","","","","","<div class='trialBorder'><div class='targDiv'><div class='tc'><img class='introPic' src='trustrating_stim/white_mw078.bmp'><br><font color='green'><strong>Share</strong></font></div></div><div class='respDiv'><div class='respDivL'>Match<br>(e)</div><div class='respDivR'>No Match<br>(i)</div></div></div>","e","TARGET","1","trustrating_stim/white_mw078.bmp","0","noMatchOutcome","i","1500","trustrating_stim/white_mw078.bmp","green","Share","REAL","0"
"html-keyboard-response","164","844427","0.0-7.0-5.25","63d3fb1c82d319ac2f752d80","bdp_wmem","Thu Mar 16 2023 00:28:48 GMT-0400 (Eastern Daylight Time)","1093747","Match,No Match","","null","","","","","","","<div class='trialBorder'><div class='vertical-center'><img src='img/error.jpg'></div><div class='respDiv'><div class='respDivL'><font style='color:orange'>Match<br>(e)</font></div><div class='respDivR'>No Match<br>(i)</div></div></div>","null","FEEDBACK","","","","","","","","","","",""
"html-keyboard-response","165","844929","0.0-7.0-1.26","63d3fb1c82d319ac2f752d80","bdp_wmem","Thu Mar 16 2023 00:28:48 GMT-0400 (Eastern Daylight Time)","1093747","Match,No Match","","null","","","","","","","<div class='trialBorder'><div class='vertical-center'><img src='img/fixation2_sml.jpg'</img></div></div>","null","FIX","","","","","","","","","","",""
"html-keyboard-response","166","847932","0.0-7.0-2.26","63d3fb1c82d319ac2f752d80","bdp_wmem","Thu Mar 16 2023 00:28:48 GMT-0400 (Eastern Daylight Time)","1093747","Match,No Match","","null","","","","","","","<div class='trialBorder'><div class='vertical-center'><img style='vertical-align:center; align:center' src='img/fixation2_sml.jpg'></div><div class='arrayDiv2'><div class='tl'><img class='introPic' src='trustrating_stim/white_mw085.bmp'><br><font color='green'><strong>Share</strong></font></div><div class='tr'><img class='introPic' src='trustrating_stim/white_mw040.bmp'><br><font color='red'><strong>Keep</strong></font></div></div></div>","null","ARRAY","2","trustrating_stim/white_mw085.bmp,trustrating_stim/white_mw040.bmp","1,0","noMatchOutcome","i","3000","","","","",""
"html-keyboard-response","167","851935","0.0-7.0-3.26","63d3fb1c82d319ac2f752d80","bdp_wmem","Thu Mar 16 2023 00:28:48 GMT-0400 (Eastern Daylight Time)","1093747","Match,No Match","","null","","","","","","","<div class='trialBorder'><div class='vertical-center'><img src='img/fixation2_sml.jpg'</img></div></div>","null","DELAY","","","","","","","","","","",""
"html-keyboard-response","168","853953","0.0-7.0-4.26","63d3fb1c82d319ac2f752d80","bdp_wmem","Thu Mar 16 2023 00:28:48 GMT-0400 (Eastern Daylight Time)","1093747","Match,No Match","","2016","","","","","","","<div class='trialBorder'><div class='targDiv'><div class='tc'><img class='introPic' src='trustrating_stim/white_mw040.bmp'><br><font color='green'><strong>Share</strong></font></div></div><div class='respDiv'><div class='respDivL'>Match<br>(e)</div><div class='respDivR'>No Match<br>(i)</div></div></div>","i","TARGET","2","trustrating_stim/white_mw085.bmp,trustrating_stim/white_mw040.bmp","1,0","noMatchOutcome","i","3000","trustrating_stim/white_mw040.bmp","green","Share","REAL","1"
"html-keyboard-response","169","854456","0.0-7.0-5.26","63d3fb1c82d319ac2f752d80","bdp_wmem","Thu Mar 16 2023 00:28:48 GMT-0400 (Eastern Daylight Time)","1093747","Match,No Match","","null","","","","","","","<div class='trialBorder'><div class='vertical-center'><img src='img/correct.jpg'></div><div class='respDiv'><div class='respDivL'>Match<br>(e)</div><div class='respDivR'><font style='color:orange'>No Match<br>(i)</font></div></div></div>","null","FEEDBACK","","","","","","","","","","",""
"html-keyboard-response","170","854959","0.0-7.0-1.27","63d3fb1c82d319ac2f752d80","bdp_wmem","Thu Mar 16 2023 00:28:48 GMT-0400 (Eastern Daylight Time)","1093747","Match,No Match","","null","","","","","","","<div class='trialBorder'><div class='vertical-center'><img src='img/fixation2_sml.jpg'</img></div></div>","null","FIX","","","","","","","","","","",""
"html-keyboard-response","171","856461","0.0-7.0-2.27","63d3fb1c82d319ac2f752d80","bdp_wmem","Thu Mar 16 2023 00:28:48 GMT-0400 (Eastern Daylight Time)","1093747","Match,No Match","","null","","","","","","","<div class='trialBorder'><div class='vertical-center'><img style='vertical-align:center; align:center' src='img/fixation2_sml.jpg'></div><div class='arrayDiv1'><div class='tc'><img class='introPic' src='trustrating_stim/white_mw078.bmp'><br><font color='red'><strong>Keep</strong></font></div></div></div>","null","ARRAY","1","trustrating_stim/white_mw078.bmp","0","Match","e","1500","","","","",""
"html-keyboard-response","172","860463","0.0-7.0-3.27","63d3fb1c82d319ac2f752d80","bdp_wmem","Thu Mar 16 2023 00:28:48 GMT-0400 (Eastern Daylight Time)","1093747","Match,No Match","","null","","","","","","","<div class='trialBorder'><div class='vertical-center'><img src='img/fixation2_sml.jpg'</img></div></div>","null","DELAY","","","","","","","","","","",""
"html-keyboard-response","173","862916","0.0-7.0-4.27","63d3fb1c82d319ac2f752d80","bdp_wmem","Thu Mar 16 2023 00:28:48 GMT-0400 (Eastern Daylight Time)","1093747","Match,No Match","","2450","","","","","","","<div class='trialBorder'><div class='targDiv'><div class='tc'><img class='introPic' src='trustrating_stim/white_mw078.bmp'><br><font color='red'><strong>Keep</strong></font></div></div><div class='respDiv'><div class='respDivL'>Match<br>(e)</div><div class='respDivR'>No Match<br>(i)</div></div></div>","e","TARGET","1","trustrating_stim/white_mw078.bmp","0","Match","e","1500","trustrating_stim/white_mw078.bmp","red","Keep","REAL","1"
"html-keyboard-response","174","863418","0.0-7.0-5.27","63d3fb1c82d319ac2f752d80","bdp_wmem","Thu Mar 16 2023 00:28:48 GMT-0400 (Eastern Daylight Time)","1093747","Match,No Match","","null","","","","","","","<div class='trialBorder'><div class='vertical-center'><img src='img/correct.jpg'></div><div class='respDiv'><div class='respDivL'><font style='color:orange'>Match<br>(e)</font></div><div class='respDivR'>No Match<br>(i)</div></div></div>","null","FEEDBACK","","","","","","","","","","",""
"html-keyboard-response","175","863920","0.0-7.0-1.28","63d3fb1c82d319ac2f752d80","bdp_wmem","Thu Mar 16 2023 00:28:48 GMT-0400 (Eastern Daylight Time)","1093747","Match,No Match","","null","","","","","","","<div class='trialBorder'><div class='vertical-center'><img src='img/fixation2_sml.jpg'</img></div></div>","null","FIX","","","","","","","","","","",""
"html-keyboard-response","176","866922","0.0-7.0-2.28","63d3fb1c82d319ac2f752d80","bdp_wmem","Thu Mar 16 2023 00:28:48 GMT-0400 (Eastern Daylight Time)","1093747","Match,No Match","","null","","","","","","","<div class='trialBorder'><div class='vertical-center'><img style='vertical-align:center; align:center' src='img/fixation2_sml.jpg'></div><div class='arrayDiv2'><div class='tl'><img class='introPic' src='trustrating_stim/white_mw003.bmp'><br><font color='red'><strong>Keep</strong></font></div><div class='tr'><img class='introPic' src='trustrating_stim/white_mw010.bmp'><br><font color='green'><strong>Share</strong></font></div></div></div>","null","ARRAY","2","trustrating_stim/white_mw003.bmp,trustrating_stim/white_mw010.bmp","0,1","noMatchFace","i","3000","","","","",""
"html-keyboard-response","177","870925","0.0-7.0-3.28","63d3fb1c82d319ac2f752d80","bdp_wmem","Thu Mar 16 2023 00:28:48 GMT-0400 (Eastern Daylight Time)","1093747","Match,No Match","","null","","","","","","","<div class='trialBorder'><div class='vertical-center'><img src='img/fixation2_sml.jpg'</img></div></div>","null","DELAY","","","","","","","","","","",""
"html-keyboard-response","178","873619","0.0-7.0-4.28","63d3fb1c82d319ac2f752d80","bdp_wmem","Thu Mar 16 2023 00:28:48 GMT-0400 (Eastern Daylight Time)","1093747","Match,No Match","","2692","","","","","","","<div class='trialBorder'><div class='targDiv'><div class='tc'><img class='introPic' src='trustrating_stim/white_mw040.bmp'><br><font color='green'><strong>Share</strong></font></div></div><div class='respDiv'><div class='respDivL'>Match<br>(e)</div><div class='respDivR'>No Match<br>(i)</div></div></div>","i","TARGET","2","trustrating_stim/white_mw003.bmp,trustrating_stim/white_mw010.bmp","0,1","noMatchFace","i","3000","trustrating_stim/white_mw040.bmp","green","Share","REAL","1"
"html-keyboard-response","179","874130","0.0-7.0-5.28","63d3fb1c82d319ac2f752d80","bdp_wmem","Thu Mar 16 2023 00:28:48 GMT-0400 (Eastern Daylight Time)","1093747","Match,No Match","","null","","","","","","","<div class='trialBorder'><div class='vertical-center'><img src='img/correct.jpg'></div><div class='respDiv'><div class='respDivL'>Match<br>(e)</div><div class='respDivR'><font style='color:orange'>No Match<br>(i)</font></div></div></div>","null","FEEDBACK","","","","","","","","","","",""
"html-keyboard-response","180","874634","0.0-7.0-1.29","63d3fb1c82d319ac2f752d80","bdp_wmem","Thu Mar 16 2023 00:28:48 GMT-0400 (Eastern Daylight Time)","1093747","Match,No Match","","null","","","","","","","<div class='trialBorder'><div class='vertical-center'><img src='img/fixation2_sml.jpg'</img></div></div>","null","FIX","","","","","","","","","","",""
"html-keyboard-response","181","877637","0.0-7.0-2.29","63d3fb1c82d319ac2f752d80","bdp_wmem","Thu Mar 16 2023 00:28:48 GMT-0400 (Eastern Daylight Time)","1093747","Match,No Match","","null","","","","","","","<div class='trialBorder'><div class='vertical-center'><img style='vertical-align:center; align:center' src='img/fixation2_sml.jpg'></div><div class='arrayDiv2'><div class='tl'><img class='introPic' src='trustrating_stim/white_mw040.bmp'><br><font color='red'><strong>Keep</strong></font></div><div class='tr'><img class='introPic' src='trustrating_stim/white_mw070.bmp'><br><font color='green'><strong>Share</strong></font></div></div></div>","null","ARRAY","2","trustrating_stim/white_mw040.bmp,trustrating_stim/white_mw070.bmp","0,1","Match","e","3000","","","","",""
"html-keyboard-response","182","881640","0.0-7.0-3.29","63d3fb1c82d319ac2f752d80","bdp_wmem","Thu Mar 16 2023 00:28:48 GMT-0400 (Eastern Daylight Time)","1093747","Match,No Match","","null","","","","","","","<div class='trialBorder'><div class='vertical-center'><img src='img/fixation2_sml.jpg'</img></div></div>","null","DELAY","","","","","","","","","","",""
"html-keyboard-response","183","884478","0.0-7.0-4.29","63d3fb1c82d319ac2f752d80","bdp_wmem","Thu Mar 16 2023 00:28:48 GMT-0400 (Eastern Daylight Time)","1093747","Match,No Match","","2835","","","","","","","<div class='trialBorder'><div class='targDiv'><div class='tc'><img class='introPic' src='trustrating_stim/white_mw040.bmp'><br><font color='red'><strong>Keep</strong></font></div></div><div class='respDiv'><div class='respDivL'>Match<br>(e)</div><div class='respDivR'>No Match<br>(i)</div></div></div>","e","TARGET","2","trustrating_stim/white_mw040.bmp,trustrating_stim/white_mw070.bmp","0,1","Match","e","3000","trustrating_stim/white_mw040.bmp","red","Keep","REAL","1"
"html-keyboard-response","184","884981","0.0-7.0-5.29","63d3fb1c82d319ac2f752d80","bdp_wmem","Thu Mar 16 2023 00:28:48 GMT-0400 (Eastern Daylight Time)","1093747","Match,No Match","","null","","","","","","","<div class='trialBorder'><div class='vertical-center'><img src='img/correct.jpg'></div><div class='respDiv'><div class='respDivL'><font style='color:orange'>Match<br>(e)</font></div><div class='respDivR'>No Match<br>(i)</div></div></div>","null","FEEDBACK","","","","","","","","","","",""
"html-keyboard-response","185","885483","0.0-7.0-1.30","63d3fb1c82d319ac2f752d80","bdp_wmem","Thu Mar 16 2023 00:28:48 GMT-0400 (Eastern Daylight Time)","1093747","Match,No Match","","null","","","","","","","<div class='trialBorder'><div class='vertical-center'><img src='img/fixation2_sml.jpg'</img></div></div>","null","FIX","","","","","","","","","","",""
