"trial_type","trial_index","time_elapsed","internal_node_id","subject_id","task","startTime","totalTime","labels","view_history","rt","event","trial","time","trialtype","success","stimulus","key_press","stimType","arraySize","arrayFaces","arrayOutcomes","matchType","corrResp","arrayDur","targFace","targCol","targOutcome","trialType","corr"
"pavlovia","0","4","0.0-0.0","60beba435afc451476fa7781","bdp_wmem","Mon Mar 13 2023 11:29:19 GMT-0700 (Pacific Daylight Time)","713529","Match,No Match","","","","","","","","","","","","","","","","","","","","",""
"instructions","1","7801","0.0-1.0","60beba435afc451476fa7781","bdp_wmem","Mon Mar 13 2023 11:29:19 GMT-0700 (Pacific Daylight Time)","713529","Match,No Match","[{""page_index"":0,""viewing_time"":7796}]","7797","","","","","","","","","","","","","","","","","","",""
"","","","","60beba435afc451476fa7781","bdp_wmem","Mon Mar 13 2023 11:29:19 GMT-0700 (Pacific Daylight Time)","713529","Match,No Match","","","fullscreenenter","2","9969","fullscreenenter","","","","","","","","","","","","","","",""
"fullscreen","2","10965","0.0-2.0","60beba435afc451476fa7781","bdp_wmem","Mon Mar 13 2023 11:29:19 GMT-0700 (Pacific Daylight Time)","713529","Match,No Match","","","","","","","true","","","","","","","","","","","","","",""
"instructions","3","180467","0.0-4.0","60beba435afc451476fa7781","bdp_wmem","Mon Mar 13 2023 11:29:19 GMT-0700 (Pacific Daylight Time)","713529","Match,No Match","[{""page_index"":0,""viewing_time"":57954},{""page_index"":1,""viewing_time"":8354},{""page_index"":0,""viewing_time"":26986},{""page_index"":1,""viewing_time"":40434},{""page_index"":2,""viewing_time"":23269},{""page_index"":3,""viewing_time"":9033},{""page_index"":4,""viewing_time"":3471}]","169501","","","","","","","","","","","","","","","","","","",""
"html-keyboard-response","4","180971","0.0-5.0-1.0","60beba435afc451476fa7781","bdp_wmem","Mon Mar 13 2023 11:29:19 GMT-0700 (Pacific Daylight Time)","713529","Match,No Match","","null","","","","","","<div class='trialBorder'><div class='vertical-center'><img src='img/fixation2_sml.jpg'</img></div></div>","null","FIX","","","","","","","","","","",""
"html-keyboard-response","5","185473","0.0-5.0-2.0","60beba435afc451476fa7781","bdp_wmem","Mon Mar 13 2023 11:29:19 GMT-0700 (Pacific Daylight Time)","713529","Match,No Match","","null","","","","","","<div class='trialBorder'><div class='vertical-center'><img style='vertical-align:center; align:center' src='img/fixation2_sml.jpg'></div><div class='arrayDiv3'><div class='tl'><img class='introPic' src='trustrating_stim/white_mw013.bmp'><br><font color='green'><strong>Share</strong></font></div><div class='tc'><img class='introPic' src='trustrating_stim/white_mw070.bmp'><br><font color='green'><strong>Share</strong></font></div><div class='tr'><img class='introPic' src='trustrating_stim/white_mw040.bmp'><br><font color='red'><strong>Keep</strong></font></div></div></div>","null","ARRAY","3","trustrating_stim/white_mw013.bmp,trustrating_stim/white_mw070.bmp,trustrating_stim/white_mw040.bmp","1,1,0","Match","e","4500","","","","",""
"html-keyboard-response","6","189476","0.0-5.0-3.0","60beba435afc451476fa7781","bdp_wmem","Mon Mar 13 2023 11:29:19 GMT-0700 (Pacific Daylight Time)","713529","Match,No Match","","null","","","","","","<div class='trialBorder'><div class='vertical-center'><img src='img/fixation2_sml.jpg'</img></div></div>","null","DELAY","","","","","","","","","","",""
"html-keyboard-response","7","190825","0.0-5.0-4.0","60beba435afc451476fa7781","bdp_wmem","Mon Mar 13 2023 11:29:19 GMT-0700 (Pacific Daylight Time)","713529","Match,No Match","","1347","","","","","","<div class='trialBorder'><div class='targDiv'><div class='tc'><img class='introPic' src='trustrating_stim/white_mw013.bmp'><br><font color='green'><strong>Share</strong></font></div></div><div class='respDiv'><div class='respDivL'>Match<br>(e)</div><div class='respDivR'>No Match<br>(i)</div></div></div>","e","TARGET","3","trustrating_stim/white_mw013.bmp,trustrating_stim/white_mw070.bmp,trustrating_stim/white_mw040.bmp","1,1,0","Match","e","4500","trustrating_stim/white_mw013.bmp","green","Share","PRACTICE","1"
"html-keyboard-response","8","191328","0.0-5.0-5.0","60beba435afc451476fa7781","bdp_wmem","Mon Mar 13 2023 11:29:19 GMT-0700 (Pacific Daylight Time)","713529","Match,No Match","","null","","","","","","<div class='trialBorder'><div class='vertical-center'><img src='img/correct.jpg'></div><div class='respDiv'><div class='respDivL'><font style='color:orange'>Match<br>(e)</font></div><div class='respDivR'>No Match<br>(i)</div></div></div>","null","FEEDBACK","","","","","","","","","","",""
"html-keyboard-response","9","191830","0.0-5.0-1.1","60beba435afc451476fa7781","bdp_wmem","Mon Mar 13 2023 11:29:19 GMT-0700 (Pacific Daylight Time)","713529","Match,No Match","","null","","","","","","<div class='trialBorder'><div class='vertical-center'><img src='img/fixation2_sml.jpg'</img></div></div>","null","FIX","","","","","","","","","","",""
"html-keyboard-response","10","193332","0.0-5.0-2.1","60beba435afc451476fa7781","bdp_wmem","Mon Mar 13 2023 11:29:19 GMT-0700 (Pacific Daylight Time)","713529","Match,No Match","","null","","","","","","<div class='trialBorder'><div class='vertical-center'><img style='vertical-align:center; align:center' src='img/fixation2_sml.jpg'></div><div class='arrayDiv1'><div class='tc'><img class='introPic' src='trustrating_stim/white_mw078.bmp'><br><font color='green'><strong>Share</strong></font></div></div></div>","null","ARRAY","1","trustrating_stim/white_mw078.bmp","1","Match","e","1500","","","","",""
"html-keyboard-response","11","197334","0.0-5.0-3.1","60beba435afc451476fa7781","bdp_wmem","Mon Mar 13 2023 11:29:19 GMT-0700 (Pacific Daylight Time)","713529","Match,No Match","","null","","","","","","<div class='trialBorder'><div class='vertical-center'><img src='img/fixation2_sml.jpg'</img></div></div>","null","DELAY","","","","","","","","","","",""
"html-keyboard-response","12","198190","0.0-5.0-4.1","60beba435afc451476fa7781","bdp_wmem","Mon Mar 13 2023 11:29:19 GMT-0700 (Pacific Daylight Time)","713529","Match,No Match","","854","","","","","","<div class='trialBorder'><div class='targDiv'><div class='tc'><img class='introPic' src='trustrating_stim/white_mw078.bmp'><br><font color='green'><strong>Share</strong></font></div></div><div class='respDiv'><div class='respDivL'>Match<br>(e)</div><div class='respDivR'>No Match<br>(i)</div></div></div>","e","TARGET","1","trustrating_stim/white_mw078.bmp","1","Match","e","1500","trustrating_stim/white_mw078.bmp","green","Share","PRACTICE","1"
"html-keyboard-response","13","198693","0.0-5.0-5.1","60beba435afc451476fa7781","bdp_wmem","Mon Mar 13 2023 11:29:19 GMT-0700 (Pacific Daylight Time)","713529","Match,No Match","","null","","","","","","<div class='trialBorder'><div class='vertical-center'><img src='img/correct.jpg'></div><div class='respDiv'><div class='respDivL'><font style='color:orange'>Match<br>(e)</font></div><div class='respDivR'>No Match<br>(i)</div></div></div>","null","FEEDBACK","","","","","","","","","","",""
"html-keyboard-response","14","199195","0.0-5.0-1.2","60beba435afc451476fa7781","bdp_wmem","Mon Mar 13 2023 11:29:19 GMT-0700 (Pacific Daylight Time)","713529","Match,No Match","","null","","","","","","<div class='trialBorder'><div class='vertical-center'><img src='img/fixation2_sml.jpg'</img></div></div>","null","FIX","","","","","","","","","","",""
"html-keyboard-response","15","202198","0.0-5.0-2.2","60beba435afc451476fa7781","bdp_wmem","Mon Mar 13 2023 11:29:19 GMT-0700 (Pacific Daylight Time)","713529","Match,No Match","","null","","","","","","<div class='trialBorder'><div class='vertical-center'><img style='vertical-align:center; align:center' src='img/fixation2_sml.jpg'></div><div class='arrayDiv2'><div class='tl'><img class='introPic' src='trustrating_stim/white_mw091.bmp'><br><font color='red'><strong>Keep</strong></font></div><div class='tr'><img class='introPic' src='trustrating_stim/white_mw078.bmp'><br><font color='green'><strong>Share</strong></font></div></div></div>","null","ARRAY","2","trustrating_stim/white_mw091.bmp,trustrating_stim/white_mw078.bmp","0,1","Match","e","3000","","","","",""
"html-keyboard-response","16","206200","0.0-5.0-3.2","60beba435afc451476fa7781","bdp_wmem","Mon Mar 13 2023 11:29:19 GMT-0700 (Pacific Daylight Time)","713529","Match,No Match","","null","","","","","","<div class='trialBorder'><div class='vertical-center'><img src='img/fixation2_sml.jpg'</img></div></div>","null","DELAY","","","","","","","","","","",""
"html-keyboard-response","17","207493","0.0-5.0-4.2","60beba435afc451476fa7781","bdp_wmem","Mon Mar 13 2023 11:29:19 GMT-0700 (Pacific Daylight Time)","713529","Match,No Match","","1292","","","","","","<div class='trialBorder'><div class='targDiv'><div class='tc'><img class='introPic' src='trustrating_stim/white_mw091.bmp'><br><font color='red'><strong>Keep</strong></font></div></div><div class='respDiv'><div class='respDivL'>Match<br>(e)</div><div class='respDivR'>No Match<br>(i)</div></div></div>","e","TARGET","2","trustrating_stim/white_mw091.bmp,trustrating_stim/white_mw078.bmp","0,1","Match","e","3000","trustrating_stim/white_mw091.bmp","red","Keep","PRACTICE","1"
"html-keyboard-response","18","207994","0.0-5.0-5.2","60beba435afc451476fa7781","bdp_wmem","Mon Mar 13 2023 11:29:19 GMT-0700 (Pacific Daylight Time)","713529","Match,No Match","","null","","","","","","<div class='trialBorder'><div class='vertical-center'><img src='img/correct.jpg'></div><div class='respDiv'><div class='respDivL'><font style='color:orange'>Match<br>(e)</font></div><div class='respDivR'>No Match<br>(i)</div></div></div>","null","FEEDBACK","","","","","","","","","","",""
"html-keyboard-response","19","208496","0.0-5.0-1.3","60beba435afc451476fa7781","bdp_wmem","Mon Mar 13 2023 11:29:19 GMT-0700 (Pacific Daylight Time)","713529","Match,No Match","","null","","","","","","<div class='trialBorder'><div class='vertical-center'><img src='img/fixation2_sml.jpg'</img></div></div>","null","FIX","","","","","","","","","","",""
"html-keyboard-response","20","212998","0.0-5.0-2.3","60beba435afc451476fa7781","bdp_wmem","Mon Mar 13 2023 11:29:19 GMT-0700 (Pacific Daylight Time)","713529","Match,No Match","","null","","","","","","<div class='trialBorder'><div class='vertical-center'><img style='vertical-align:center; align:center' src='img/fixation2_sml.jpg'></div><div class='arrayDiv3'><div class='tl'><img class='introPic' src='trustrating_stim/white_mw078.bmp'><br><font color='red'><strong>Keep</strong></font></div><div class='tc'><img class='introPic' src='trustrating_stim/white_mw085.bmp'><br><font color='green'><strong>Share</strong></font></div><div class='tr'><img class='introPic' src='trustrating_stim/white_mw010.bmp'><br><font color='green'><strong>Share</strong></font></div></div></div>","null","ARRAY","3","trustrating_stim/white_mw078.bmp,trustrating_stim/white_mw085.bmp,trustrating_stim/white_mw010.bmp","0,1,1","noMatchOutcome","i","4500","","","","",""
"html-keyboard-response","21","217000","0.0-5.0-3.3","60beba435afc451476fa7781","bdp_wmem","Mon Mar 13 2023 11:29:19 GMT-0700 (Pacific Daylight Time)","713529","Match,No Match","","null","","","","","","<div class='trialBorder'><div class='vertical-center'><img src='img/fixation2_sml.jpg'</img></div></div>","null","DELAY","","","","","","","","","","",""
"html-keyboard-response","22","218678","0.0-5.0-4.3","60beba435afc451476fa7781","bdp_wmem","Mon Mar 13 2023 11:29:19 GMT-0700 (Pacific Daylight Time)","713529","Match,No Match","","1675","","","","","","<div class='trialBorder'><div class='targDiv'><div class='tc'><img class='introPic' src='trustrating_stim/white_mw085.bmp'><br><font color='red'><strong>Keep</strong></font></div></div><div class='respDiv'><div class='respDivL'>Match<br>(e)</div><div class='respDivR'>No Match<br>(i)</div></div></div>","e","TARGET","3","trustrating_stim/white_mw078.bmp,trustrating_stim/white_mw085.bmp,trustrating_stim/white_mw010.bmp","0,1,1","noMatchOutcome","i","4500","trustrating_stim/white_mw085.bmp","red","Keep","PRACTICE","0"
"html-keyboard-response","23","219179","0.0-5.0-5.3","60beba435afc451476fa7781","bdp_wmem","Mon Mar 13 2023 11:29:19 GMT-0700 (Pacific Daylight Time)","713529","Match,No Match","","null","","","","","","<div class='trialBorder'><div class='vertical-center'><img src='img/error.jpg'></div><div class='respDiv'><div class='respDivL'><font style='color:orange'>Match<br>(e)</font></div><div class='respDivR'>No Match<br>(i)</div></div></div>","null","FEEDBACK","","","","","","","","","","",""
"html-keyboard-response","24","219681","0.0-5.0-1.4","60beba435afc451476fa7781","bdp_wmem","Mon Mar 13 2023 11:29:19 GMT-0700 (Pacific Daylight Time)","713529","Match,No Match","","null","","","","","","<div class='trialBorder'><div class='vertical-center'><img src='img/fixation2_sml.jpg'</img></div></div>","null","FIX","","","","","","","","","","",""
"html-keyboard-response","25","221183","0.0-5.0-2.4","60beba435afc451476fa7781","bdp_wmem","Mon Mar 13 2023 11:29:19 GMT-0700 (Pacific Daylight Time)","713529","Match,No Match","","null","","","","","","<div class='trialBorder'><div class='vertical-center'><img style='vertical-align:center; align:center' src='img/fixation2_sml.jpg'></div><div class='arrayDiv1'><div class='tc'><img class='introPic' src='trustrating_stim/white_mw085.bmp'><br><font color='red'><strong>Keep</strong></font></div></div></div>","null","ARRAY","1","trustrating_stim/white_mw085.bmp","0","noMatchFace","i","1500","","","","",""
"html-keyboard-response","26","225185","0.0-5.0-3.4","60beba435afc451476fa7781","bdp_wmem","Mon Mar 13 2023 11:29:19 GMT-0700 (Pacific Daylight Time)","713529","Match,No Match","","null","","","","","","<div class='trialBorder'><div class='vertical-center'><img src='img/fixation2_sml.jpg'</img></div></div>","null","DELAY","","","","","","","","","","",""
"html-keyboard-response","27","226207","0.0-5.0-4.4","60beba435afc451476fa7781","bdp_wmem","Mon Mar 13 2023 11:29:19 GMT-0700 (Pacific Daylight Time)","713529","Match,No Match","","1019","","","","","","<div class='trialBorder'><div class='targDiv'><div class='tc'><img class='introPic' src='trustrating_stim/white_mw038.bmp'><br><font color='red'><strong>Keep</strong></font></div></div><div class='respDiv'><div class='respDivL'>Match<br>(e)</div><div class='respDivR'>No Match<br>(i)</div></div></div>","i","TARGET","1","trustrating_stim/white_mw085.bmp","0","noMatchFace","i","1500","trustrating_stim/white_mw038.bmp","red","Keep","PRACTICE","1"
"html-keyboard-response","28","226708","0.0-5.0-5.4","60beba435afc451476fa7781","bdp_wmem","Mon Mar 13 2023 11:29:19 GMT-0700 (Pacific Daylight Time)","713529","Match,No Match","","null","","","","","","<div class='trialBorder'><div class='vertical-center'><img src='img/correct.jpg'></div><div class='respDiv'><div class='respDivL'>Match<br>(e)</div><div class='respDivR'><font style='color:orange'>No Match<br>(i)</font></div></div></div>","null","FEEDBACK","","","","","","","","","","",""
"html-keyboard-response","29","227211","0.0-5.0-1.5","60beba435afc451476fa7781","bdp_wmem","Mon Mar 13 2023 11:29:19 GMT-0700 (Pacific Daylight Time)","713529","Match,No Match","","null","","","","","","<div class='trialBorder'><div class='vertical-center'><img src='img/fixation2_sml.jpg'</img></div></div>","null","FIX","","","","","","","","","","",""
"html-keyboard-response","30","230213","0.0-5.0-2.5","60beba435afc451476fa7781","bdp_wmem","Mon Mar 13 2023 11:29:19 GMT-0700 (Pacific Daylight Time)","713529","Match,No Match","","null","","","","","","<div class='trialBorder'><div class='vertical-center'><img style='vertical-align:center; align:center' src='img/fixation2_sml.jpg'></div><div class='arrayDiv2'><div class='tl'><img class='introPic' src='trustrating_stim/white_mw040.bmp'><br><font color='red'><strong>Keep</strong></font></div><div class='tr'><img class='introPic' src='trustrating_stim/white_mw010.bmp'><br><font color='green'><strong>Share</strong></font></div></div></div>","null","ARRAY","2","trustrating_stim/white_mw040.bmp,trustrating_stim/white_mw010.bmp","0,1","noMatchFace","i","3000","","","","",""
"html-keyboard-response","31","234215","0.0-5.0-3.5","60beba435afc451476fa7781","bdp_wmem","Mon Mar 13 2023 11:29:19 GMT-0700 (Pacific Daylight Time)","713529","Match,No Match","","null","","","","","","<div class='trialBorder'><div class='vertical-center'><img src='img/fixation2_sml.jpg'</img></div></div>","null","DELAY","","","","","","","","","","",""
"html-keyboard-response","32","235712","0.0-5.0-4.5","60beba435afc451476fa7781","bdp_wmem","Mon Mar 13 2023 11:29:19 GMT-0700 (Pacific Daylight Time)","713529","Match,No Match","","1494","","","","","","<div class='trialBorder'><div class='targDiv'><div class='tc'><img class='introPic' src='trustrating_stim/white_mw070.bmp'><br><font color='green'><strong>Share</strong></font></div></div><div class='respDiv'><div class='respDivL'>Match<br>(e)</div><div class='respDivR'>No Match<br>(i)</div></div></div>","i","TARGET","2","trustrating_stim/white_mw040.bmp,trustrating_stim/white_mw010.bmp","0,1","noMatchFace","i","3000","trustrating_stim/white_mw070.bmp","green","Share","PRACTICE","1"
"html-keyboard-response","33","236213","0.0-5.0-5.5","60beba435afc451476fa7781","bdp_wmem","Mon Mar 13 2023 11:29:19 GMT-0700 (Pacific Daylight Time)","713529","Match,No Match","","null","","","","","","<div class='trialBorder'><div class='vertical-center'><img src='img/correct.jpg'></div><div class='respDiv'><div class='respDivL'>Match<br>(e)</div><div class='respDivR'><font style='color:orange'>No Match<br>(i)</font></div></div></div>","null","FEEDBACK","","","","","","","","","","",""
"instructions","34","256436","0.0-6.0","60beba435afc451476fa7781","bdp_wmem","Mon Mar 13 2023 11:29:19 GMT-0700 (Pacific Daylight Time)","713529","Match,No Match","[{""page_index"":0,""viewing_time"":20222}]","20222","","","","","","","","","","","","","","","","","","",""
"html-keyboard-response","35","256938","0.0-7.0-1.0","60beba435afc451476fa7781","bdp_wmem","Mon Mar 13 2023 11:29:19 GMT-0700 (Pacific Daylight Time)","713529","Match,No Match","","null","","","","","","<div class='trialBorder'><div class='vertical-center'><img src='img/fixation2_sml.jpg'</img></div></div>","null","FIX","","","","","","","","","","",""
"html-keyboard-response","36","258441","0.0-7.0-2.0","60beba435afc451476fa7781","bdp_wmem","Mon Mar 13 2023 11:29:19 GMT-0700 (Pacific Daylight Time)","713529","Match,No Match","","null","","","","","","<div class='trialBorder'><div class='vertical-center'><img style='vertical-align:center; align:center' src='img/fixation2_sml.jpg'></div><div class='arrayDiv1'><div class='tc'><img class='introPic' src='trustrating_stim/white_mw092.bmp'><br><font color='red'><strong>Keep</strong></font></div></div></div>","null","ARRAY","1","trustrating_stim/white_mw092.bmp","0","Match","e","1500","","","","",""
"html-keyboard-response","37","262442","0.0-7.0-3.0","60beba435afc451476fa7781","bdp_wmem","Mon Mar 13 2023 11:29:19 GMT-0700 (Pacific Daylight Time)","713529","Match,No Match","","null","","","","","","<div class='trialBorder'><div class='vertical-center'><img src='img/fixation2_sml.jpg'</img></div></div>","null","DELAY","","","","","","","","","","",""
"html-keyboard-response","38","263166","0.0-7.0-4.0","60beba435afc451476fa7781","bdp_wmem","Mon Mar 13 2023 11:29:19 GMT-0700 (Pacific Daylight Time)","713529","Match,No Match","","723","","","","","","<div class='trialBorder'><div class='targDiv'><div class='tc'><img class='introPic' src='trustrating_stim/white_mw092.bmp'><br><font color='red'><strong>Keep</strong></font></div></div><div class='respDiv'><div class='respDivL'>Match<br>(e)</div><div class='respDivR'>No Match<br>(i)</div></div></div>","e","TARGET","1","trustrating_stim/white_mw092.bmp","0","Match","e","1500","trustrating_stim/white_mw092.bmp","red","Keep","REAL","1"
"html-keyboard-response","39","263668","0.0-7.0-5.0","60beba435afc451476fa7781","bdp_wmem","Mon Mar 13 2023 11:29:19 GMT-0700 (Pacific Daylight Time)","713529","Match,No Match","","null","","","","","","<div class='trialBorder'><div class='vertical-center'><img src='img/correct.jpg'></div><div class='respDiv'><div class='respDivL'><font style='color:orange'>Match<br>(e)</font></div><div class='respDivR'>No Match<br>(i)</div></div></div>","null","FEEDBACK","","","","","","","","","","",""
"html-keyboard-response","40","264170","0.0-7.0-1.1","60beba435afc451476fa7781","bdp_wmem","Mon Mar 13 2023 11:29:19 GMT-0700 (Pacific Daylight Time)","713529","Match,No Match","","null","","","","","","<div class='trialBorder'><div class='vertical-center'><img src='img/fixation2_sml.jpg'</img></div></div>","null","FIX","","","","","","","","","","",""
"html-keyboard-response","41","268673","0.0-7.0-2.1","60beba435afc451476fa7781","bdp_wmem","Mon Mar 13 2023 11:29:19 GMT-0700 (Pacific Daylight Time)","713529","Match,No Match","","null","","","","","","<div class='trialBorder'><div class='vertical-center'><img style='vertical-align:center; align:center' src='img/fixation2_sml.jpg'></div><div class='arrayDiv3'><div class='tl'><img class='introPic' src='trustrating_stim/white_mw040.bmp'><br><font color='red'><strong>Keep</strong></font></div><div class='tc'><img class='introPic' src='trustrating_stim/white_mw091.bmp'><br><font color='red'><strong>Keep</strong></font></div><div class='tr'><img class='introPic' src='trustrating_stim/white_mw070.bmp'><br><font color='green'><strong>Share</strong></font></div></div></div>","null","ARRAY","3","trustrating_stim/white_mw040.bmp,trustrating_stim/white_mw091.bmp,trustrating_stim/white_mw070.bmp","0,0,1","Match","e","4500","","","","",""
"html-keyboard-response","42","272674","0.0-7.0-3.1","60beba435afc451476fa7781","bdp_wmem","Mon Mar 13 2023 11:29:19 GMT-0700 (Pacific Daylight Time)","713529","Match,No Match","","null","","","","","","<div class='trialBorder'><div class='vertical-center'><img src='img/fixation2_sml.jpg'</img></div></div>","null","DELAY","","","","","","","","","","",""
"html-keyboard-response","43","273564","0.0-7.0-4.1","60beba435afc451476fa7781","bdp_wmem","Mon Mar 13 2023 11:29:19 GMT-0700 (Pacific Daylight Time)","713529","Match,No Match","","888","","","","","","<div class='trialBorder'><div class='targDiv'><div class='tc'><img class='introPic' src='trustrating_stim/white_mw091.bmp'><br><font color='red'><strong>Keep</strong></font></div></div><div class='respDiv'><div class='respDivL'>Match<br>(e)</div><div class='respDivR'>No Match<br>(i)</div></div></div>","e","TARGET","3","trustrating_stim/white_mw040.bmp,trustrating_stim/white_mw091.bmp,trustrating_stim/white_mw070.bmp","0,0,1","Match","e","4500","trustrating_stim/white_mw091.bmp","red","Keep","REAL","1"
"html-keyboard-response","44","274066","0.0-7.0-5.1","60beba435afc451476fa7781","bdp_wmem","Mon Mar 13 2023 11:29:19 GMT-0700 (Pacific Daylight Time)","713529","Match,No Match","","null","","","","","","<div class='trialBorder'><div class='vertical-center'><img src='img/correct.jpg'></div><div class='respDiv'><div class='respDivL'><font style='color:orange'>Match<br>(e)</font></div><div class='respDivR'>No Match<br>(i)</div></div></div>","null","FEEDBACK","","","","","","","","","","",""
"html-keyboard-response","45","274567","0.0-7.0-1.2","60beba435afc451476fa7781","bdp_wmem","Mon Mar 13 2023 11:29:19 GMT-0700 (Pacific Daylight Time)","713529","Match,No Match","","null","","","","","","<div class='trialBorder'><div class='vertical-center'><img src='img/fixation2_sml.jpg'</img></div></div>","null","FIX","","","","","","","","","","",""
"html-keyboard-response","46","276069","0.0-7.0-2.2","60beba435afc451476fa7781","bdp_wmem","Mon Mar 13 2023 11:29:19 GMT-0700 (Pacific Daylight Time)","713529","Match,No Match","","null","","","","","","<div class='trialBorder'><div class='vertical-center'><img style='vertical-align:center; align:center' src='img/fixation2_sml.jpg'></div><div class='arrayDiv1'><div class='tc'><img class='introPic' src='trustrating_stim/white_mw070.bmp'><br><font color='red'><strong>Keep</strong></font></div></div></div>","null","ARRAY","1","trustrating_stim/white_mw070.bmp","0","Match","e","1500","","","","",""
"html-keyboard-response","47","280070","0.0-7.0-3.2","60beba435afc451476fa7781","bdp_wmem","Mon Mar 13 2023 11:29:19 GMT-0700 (Pacific Daylight Time)","713529","Match,No Match","","null","","","","","","<div class='trialBorder'><div class='vertical-center'><img src='img/fixation2_sml.jpg'</img></div></div>","null","DELAY","","","","","","","","","","",""
"html-keyboard-response","48","280916","0.0-7.0-4.2","60beba435afc451476fa7781","bdp_wmem","Mon Mar 13 2023 11:29:19 GMT-0700 (Pacific Daylight Time)","713529","Match,No Match","","844","","","","","","<div class='trialBorder'><div class='targDiv'><div class='tc'><img class='introPic' src='trustrating_stim/white_mw070.bmp'><br><font color='red'><strong>Keep</strong></font></div></div><div class='respDiv'><div class='respDivL'>Match<br>(e)</div><div class='respDivR'>No Match<br>(i)</div></div></div>","e","TARGET","1","trustrating_stim/white_mw070.bmp","0","Match","e","1500","trustrating_stim/white_mw070.bmp","red","Keep","REAL","1"
"html-keyboard-response","49","281418","0.0-7.0-5.2","60beba435afc451476fa7781","bdp_wmem","Mon Mar 13 2023 11:29:19 GMT-0700 (Pacific Daylight Time)","713529","Match,No Match","","null","","","","","","<div class='trialBorder'><div class='vertical-center'><img src='img/correct.jpg'></div><div class='respDiv'><div class='respDivL'><font style='color:orange'>Match<br>(e)</font></div><div class='respDivR'>No Match<br>(i)</div></div></div>","null","FEEDBACK","","","","","","","","","","",""
"html-keyboard-response","50","281920","0.0-7.0-1.3","60beba435afc451476fa7781","bdp_wmem","Mon Mar 13 2023 11:29:19 GMT-0700 (Pacific Daylight Time)","713529","Match,No Match","","null","","","","","","<div class='trialBorder'><div class='vertical-center'><img src='img/fixation2_sml.jpg'</img></div></div>","null","FIX","","","","","","","","","","",""
"html-keyboard-response","51","283422","0.0-7.0-2.3","60beba435afc451476fa7781","bdp_wmem","Mon Mar 13 2023 11:29:19 GMT-0700 (Pacific Daylight Time)","713529","Match,No Match","","null","","","","","","<div class='trialBorder'><div class='vertical-center'><img style='vertical-align:center; align:center' src='img/fixation2_sml.jpg'></div><div class='arrayDiv1'><div class='tc'><img class='introPic' src='trustrating_stim/white_mw003.bmp'><br><font color='red'><strong>Keep</strong></font></div></div></div>","null","ARRAY","1","trustrating_stim/white_mw003.bmp","0","Match","e","1500","","","","",""
"html-keyboard-response","52","287424","0.0-7.0-3.3","60beba435afc451476fa7781","bdp_wmem","Mon Mar 13 2023 11:29:19 GMT-0700 (Pacific Daylight Time)","713529","Match,No Match","","null","","","","","","<div class='trialBorder'><div class='vertical-center'><img src='img/fixation2_sml.jpg'</img></div></div>","null","DELAY","","","","","","","","","","",""
"html-keyboard-response","53","288425","0.0-7.0-4.3","60beba435afc451476fa7781","bdp_wmem","Mon Mar 13 2023 11:29:19 GMT-0700 (Pacific Daylight Time)","713529","Match,No Match","","999","","","","","","<div class='trialBorder'><div class='targDiv'><div class='tc'><img class='introPic' src='trustrating_stim/white_mw003.bmp'><br><font color='red'><strong>Keep</strong></font></div></div><div class='respDiv'><div class='respDivL'>Match<br>(e)</div><div class='respDivR'>No Match<br>(i)</div></div></div>","e","TARGET","1","trustrating_stim/white_mw003.bmp","0","Match","e","1500","trustrating_stim/white_mw003.bmp","red","Keep","REAL","1"
"html-keyboard-response","54","288926","0.0-7.0-5.3","60beba435afc451476fa7781","bdp_wmem","Mon Mar 13 2023 11:29:19 GMT-0700 (Pacific Daylight Time)","713529","Match,No Match","","null","","","","","","<div class='trialBorder'><div class='vertical-center'><img src='img/correct.jpg'></div><div class='respDiv'><div class='respDivL'><font style='color:orange'>Match<br>(e)</font></div><div class='respDivR'>No Match<br>(i)</div></div></div>","null","FEEDBACK","","","","","","","","","","",""
"html-keyboard-response","55","289428","0.0-7.0-1.4","60beba435afc451476fa7781","bdp_wmem","Mon Mar 13 2023 11:29:19 GMT-0700 (Pacific Daylight Time)","713529","Match,No Match","","null","","","","","","<div class='trialBorder'><div class='vertical-center'><img src='img/fixation2_sml.jpg'</img></div></div>","null","FIX","","","","","","","","","","",""
"html-keyboard-response","56","293931","0.0-7.0-2.4","60beba435afc451476fa7781","bdp_wmem","Mon Mar 13 2023 11:29:19 GMT-0700 (Pacific Daylight Time)","713529","Match,No Match","","null","","","","","","<div class='trialBorder'><div class='vertical-center'><img style='vertical-align:center; align:center' src='img/fixation2_sml.jpg'></div><div class='arrayDiv3'><div class='tl'><img class='introPic' src='trustrating_stim/white_mw040.bmp'><br><font color='green'><strong>Share</strong></font></div><div class='tc'><img class='introPic' src='trustrating_stim/white_mw038.bmp'><br><font color='green'><strong>Share</strong></font></div><div class='tr'><img class='introPic' src='trustrating_stim/white_mw085.bmp'><br><font color='red'><strong>Keep</strong></font></div></div></div>","null","ARRAY","3","trustrating_stim/white_mw040.bmp,trustrating_stim/white_mw038.bmp,trustrating_stim/white_mw085.bmp","1,1,0","Match","e","4500","","","","",""
"html-keyboard-response","57","297932","0.0-7.0-3.4","60beba435afc451476fa7781","bdp_wmem","Mon Mar 13 2023 11:29:19 GMT-0700 (Pacific Daylight Time)","713529","Match,No Match","","null","","","","","","<div class='trialBorder'><div class='vertical-center'><img src='img/fixation2_sml.jpg'</img></div></div>","null","DELAY","","","","","","","","","","",""
"html-keyboard-response","58","299063","0.0-7.0-4.4","60beba435afc451476fa7781","bdp_wmem","Mon Mar 13 2023 11:29:19 GMT-0700 (Pacific Daylight Time)","713529","Match,No Match","","1129","","","","","","<div class='trialBorder'><div class='targDiv'><div class='tc'><img class='introPic' src='trustrating_stim/white_mw038.bmp'><br><font color='green'><strong>Share</strong></font></div></div><div class='respDiv'><div class='respDivL'>Match<br>(e)</div><div class='respDivR'>No Match<br>(i)</div></div></div>","e","TARGET","3","trustrating_stim/white_mw040.bmp,trustrating_stim/white_mw038.bmp,trustrating_stim/white_mw085.bmp","1,1,0","Match","e","4500","trustrating_stim/white_mw038.bmp","green","Share","REAL","1"
"html-keyboard-response","59","299565","0.0-7.0-5.4","60beba435afc451476fa7781","bdp_wmem","Mon Mar 13 2023 11:29:19 GMT-0700 (Pacific Daylight Time)","713529","Match,No Match","","null","","","","","","<div class='trialBorder'><div class='vertical-center'><img src='img/correct.jpg'></div><div class='respDiv'><div class='respDivL'><font style='color:orange'>Match<br>(e)</font></div><div class='respDivR'>No Match<br>(i)</div></div></div>","null","FEEDBACK","","","","","","","","","","",""
"html-keyboard-response","60","300067","0.0-7.0-1.5","60beba435afc451476fa7781","bdp_wmem","Mon Mar 13 2023 11:29:19 GMT-0700 (Pacific Daylight Time)","713529","Match,No Match","","null","","","","","","<div class='trialBorder'><div class='vertical-center'><img src='img/fixation2_sml.jpg'</img></div></div>","null","FIX","","","","","","","","","","",""
"html-keyboard-response","61","304569","0.0-7.0-2.5","60beba435afc451476fa7781","bdp_wmem","Mon Mar 13 2023 11:29:19 GMT-0700 (Pacific Daylight Time)","713529","Match,No Match","","null","","","","","","<div class='trialBorder'><div class='vertical-center'><img style='vertical-align:center; align:center' src='img/fixation2_sml.jpg'></div><div class='arrayDiv3'><div class='tl'><img class='introPic' src='trustrating_stim/white_mw085.bmp'><br><font color='green'><strong>Share</strong></font></div><div class='tc'><img class='introPic' src='trustrating_stim/white_mw042.bmp'><br><font color='red'><strong>Keep</strong></font></div><div class='tr'><img class='introPic' src='trustrating_stim/white_mw010.bmp'><br><font color='red'><strong>Keep</strong></font></div></div></div>","null","ARRAY","3","trustrating_stim/white_mw085.bmp,trustrating_stim/white_mw042.bmp,trustrating_stim/white_mw010.bmp","1,0,0","Match","e","4500","","","","",""
"html-keyboard-response","62","308570","0.0-7.0-3.5","60beba435afc451476fa7781","bdp_wmem","Mon Mar 13 2023 11:29:19 GMT-0700 (Pacific Daylight Time)","713529","Match,No Match","","null","","","","","","<div class='trialBorder'><div class='vertical-center'><img src='img/fixation2_sml.jpg'</img></div></div>","null","DELAY","","","","","","","","","","",""
"html-keyboard-response","63","309438","0.0-7.0-4.5","60beba435afc451476fa7781","bdp_wmem","Mon Mar 13 2023 11:29:19 GMT-0700 (Pacific Daylight Time)","713529","Match,No Match","","866","","","","","","<div class='trialBorder'><div class='targDiv'><div class='tc'><img class='introPic' src='trustrating_stim/white_mw010.bmp'><br><font color='red'><strong>Keep</strong></font></div></div><div class='respDiv'><div class='respDivL'>Match<br>(e)</div><div class='respDivR'>No Match<br>(i)</div></div></div>","i","TARGET","3","trustrating_stim/white_mw085.bmp,trustrating_stim/white_mw042.bmp,trustrating_stim/white_mw010.bmp","1,0,0","Match","e","4500","trustrating_stim/white_mw010.bmp","red","Keep","REAL","0"
"html-keyboard-response","64","309940","0.0-7.0-5.5","60beba435afc451476fa7781","bdp_wmem","Mon Mar 13 2023 11:29:19 GMT-0700 (Pacific Daylight Time)","713529","Match,No Match","","null","","","","","","<div class='trialBorder'><div class='vertical-center'><img src='img/error.jpg'></div><div class='respDiv'><div class='respDivL'>Match<br>(e)</div><div class='respDivR'><font style='color:orange'>No Match<br>(i)</font></div></div></div>","null","FEEDBACK","","","","","","","","","","",""
"html-keyboard-response","65","310442","0.0-7.0-1.6","60beba435afc451476fa7781","bdp_wmem","Mon Mar 13 2023 11:29:19 GMT-0700 (Pacific Daylight Time)","713529","Match,No Match","","null","","","","","","<div class='trialBorder'><div class='vertical-center'><img src='img/fixation2_sml.jpg'</img></div></div>","null","FIX","","","","","","","","","","",""
"html-keyboard-response","66","314944","0.0-7.0-2.6","60beba435afc451476fa7781","bdp_wmem","Mon Mar 13 2023 11:29:19 GMT-0700 (Pacific Daylight Time)","713529","Match,No Match","","null","","","","","","<div class='trialBorder'><div class='vertical-center'><img style='vertical-align:center; align:center' src='img/fixation2_sml.jpg'></div><div class='arrayDiv3'><div class='tl'><img class='introPic' src='trustrating_stim/white_mw040.bmp'><br><font color='red'><strong>Keep</strong></font></div><div class='tc'><img class='introPic' src='trustrating_stim/white_mw091.bmp'><br><font color='green'><strong>Share</strong></font></div><div class='tr'><img class='introPic' src='trustrating_stim/white_mw012.bmp'><br><font color='green'><strong>Share</strong></font></div></div></div>","null","ARRAY","3","trustrating_stim/white_mw040.bmp,trustrating_stim/white_mw091.bmp,trustrating_stim/white_mw012.bmp","0,1,1","noMatchOutcome","i","4500","","","","",""
"html-keyboard-response","67","318946","0.0-7.0-3.6","60beba435afc451476fa7781","bdp_wmem","Mon Mar 13 2023 11:29:19 GMT-0700 (Pacific Daylight Time)","713529","Match,No Match","","null","","","","","","<div class='trialBorder'><div class='vertical-center'><img src='img/fixation2_sml.jpg'</img></div></div>","null","DELAY","","","","","","","","","","",""
"html-keyboard-response","68","320349","0.0-7.0-4.6","60beba435afc451476fa7781","bdp_wmem","Mon Mar 13 2023 11:29:19 GMT-0700 (Pacific Daylight Time)","713529","Match,No Match","","1400","","","","","","<div class='trialBorder'><div class='targDiv'><div class='tc'><img class='introPic' src='trustrating_stim/white_mw012.bmp'><br><font color='red'><strong>Keep</strong></font></div></div><div class='respDiv'><div class='respDivL'>Match<br>(e)</div><div class='respDivR'>No Match<br>(i)</div></div></div>","e","TARGET","3","trustrating_stim/white_mw040.bmp,trustrating_stim/white_mw091.bmp,trustrating_stim/white_mw012.bmp","0,1,1","noMatchOutcome","i","4500","trustrating_stim/white_mw012.bmp","red","Keep","REAL","0"
"html-keyboard-response","69","320850","0.0-7.0-5.6","60beba435afc451476fa7781","bdp_wmem","Mon Mar 13 2023 11:29:19 GMT-0700 (Pacific Daylight Time)","713529","Match,No Match","","null","","","","","","<div class='trialBorder'><div class='vertical-center'><img src='img/error.jpg'></div><div class='respDiv'><div class='respDivL'><font style='color:orange'>Match<br>(e)</font></div><div class='respDivR'>No Match<br>(i)</div></div></div>","null","FEEDBACK","","","","","","","","","","",""
"html-keyboard-response","70","321352","0.0-7.0-1.7","60beba435afc451476fa7781","bdp_wmem","Mon Mar 13 2023 11:29:19 GMT-0700 (Pacific Daylight Time)","713529","Match,No Match","","null","","","","","","<div class='trialBorder'><div class='vertical-center'><img src='img/fixation2_sml.jpg'</img></div></div>","null","FIX","","","","","","","","","","",""
"html-keyboard-response","71","322855","0.0-7.0-2.7","60beba435afc451476fa7781","bdp_wmem","Mon Mar 13 2023 11:29:19 GMT-0700 (Pacific Daylight Time)","713529","Match,No Match","","null","","","","","","<div class='trialBorder'><div class='vertical-center'><img style='vertical-align:center; align:center' src='img/fixation2_sml.jpg'></div><div class='arrayDiv1'><div class='tc'><img class='introPic' src='trustrating_stim/white_mw070.bmp'><br><font color='green'><strong>Share</strong></font></div></div></div>","null","ARRAY","1","trustrating_stim/white_mw070.bmp","1","noMatchOutcome","i","1500","","","","",""
"html-keyboard-response","72","326857","0.0-7.0-3.7","60beba435afc451476fa7781","bdp_wmem","Mon Mar 13 2023 11:29:19 GMT-0700 (Pacific Daylight Time)","713529","Match,No Match","","null","","","","","","<div class='trialBorder'><div class='vertical-center'><img src='img/fixation2_sml.jpg'</img></div></div>","null","DELAY","","","","","","","","","","",""
"html-keyboard-response","73","328254","0.0-7.0-4.7","60beba435afc451476fa7781","bdp_wmem","Mon Mar 13 2023 11:29:19 GMT-0700 (Pacific Daylight Time)","713529","Match,No Match","","1394","","","","","","<div class='trialBorder'><div class='targDiv'><div class='tc'><img class='introPic' src='trustrating_stim/white_mw070.bmp'><br><font color='red'><strong>Keep</strong></font></div></div><div class='respDiv'><div class='respDivL'>Match<br>(e)</div><div class='respDivR'>No Match<br>(i)</div></div></div>","i","TARGET","1","trustrating_stim/white_mw070.bmp","1","noMatchOutcome","i","1500","trustrating_stim/white_mw070.bmp","red","Keep","REAL","1"
"html-keyboard-response","74","328755","0.0-7.0-5.7","60beba435afc451476fa7781","bdp_wmem","Mon Mar 13 2023 11:29:19 GMT-0700 (Pacific Daylight Time)","713529","Match,No Match","","null","","","","","","<div class='trialBorder'><div class='vertical-center'><img src='img/correct.jpg'></div><div class='respDiv'><div class='respDivL'>Match<br>(e)</div><div class='respDivR'><font style='color:orange'>No Match<br>(i)</font></div></div></div>","null","FEEDBACK","","","","","","","","","","",""
"html-keyboard-response","75","329257","0.0-7.0-1.8","60beba435afc451476fa7781","bdp_wmem","Mon Mar 13 2023 11:29:19 GMT-0700 (Pacific Daylight Time)","713529","Match,No Match","","null","","","","","","<div class='trialBorder'><div class='vertical-center'><img src='img/fixation2_sml.jpg'</img></div></div>","null","FIX","","","","","","","","","","",""
"html-keyboard-response","76","333759","0.0-7.0-2.8","60beba435afc451476fa7781","bdp_wmem","Mon Mar 13 2023 11:29:19 GMT-0700 (Pacific Daylight Time)","713529","Match,No Match","","null","","","","","","<div class='trialBorder'><div class='vertical-center'><img style='vertical-align:center; align:center' src='img/fixation2_sml.jpg'></div><div class='arrayDiv3'><div class='tl'><img class='introPic' src='trustrating_stim/white_mw091.bmp'><br><font color='green'><strong>Share</strong></font></div><div class='tc'><img class='introPic' src='trustrating_stim/white_mw040.bmp'><br><font color='green'><strong>Share</strong></font></div><div class='tr'><img class='introPic' src='trustrating_stim/white_mw010.bmp'><br><font color='red'><strong>Keep</strong></font></div></div></div>","null","ARRAY","3","trustrating_stim/white_mw091.bmp,trustrating_stim/white_mw040.bmp,trustrating_stim/white_mw010.bmp","1,1,0","Match","e","4500","","","","",""
"html-keyboard-response","77","337762","0.0-7.0-3.8","60beba435afc451476fa7781","bdp_wmem","Mon Mar 13 2023 11:29:19 GMT-0700 (Pacific Daylight Time)","713529","Match,No Match","","null","","","","","","<div class='trialBorder'><div class='vertical-center'><img src='img/fixation2_sml.jpg'</img></div></div>","null","DELAY","","","","","","","","","","",""
"html-keyboard-response","78","339234","0.0-7.0-4.8","60beba435afc451476fa7781","bdp_wmem","Mon Mar 13 2023 11:29:19 GMT-0700 (Pacific Daylight Time)","713529","Match,No Match","","1470","","","","","","<div class='trialBorder'><div class='targDiv'><div class='tc'><img class='introPic' src='trustrating_stim/white_mw010.bmp'><br><font color='red'><strong>Keep</strong></font></div></div><div class='respDiv'><div class='respDivL'>Match<br>(e)</div><div class='respDivR'>No Match<br>(i)</div></div></div>","e","TARGET","3","trustrating_stim/white_mw091.bmp,trustrating_stim/white_mw040.bmp,trustrating_stim/white_mw010.bmp","1,1,0","Match","e","4500","trustrating_stim/white_mw010.bmp","red","Keep","REAL","1"
"html-keyboard-response","79","339735","0.0-7.0-5.8","60beba435afc451476fa7781","bdp_wmem","Mon Mar 13 2023 11:29:19 GMT-0700 (Pacific Daylight Time)","713529","Match,No Match","","null","","","","","","<div class='trialBorder'><div class='vertical-center'><img src='img/correct.jpg'></div><div class='respDiv'><div class='respDivL'><font style='color:orange'>Match<br>(e)</font></div><div class='respDivR'>No Match<br>(i)</div></div></div>","null","FEEDBACK","","","","","","","","","","",""
"html-keyboard-response","80","340238","0.0-7.0-1.9","60beba435afc451476fa7781","bdp_wmem","Mon Mar 13 2023 11:29:19 GMT-0700 (Pacific Daylight Time)","713529","Match,No Match","","null","","","","","","<div class='trialBorder'><div class='vertical-center'><img src='img/fixation2_sml.jpg'</img></div></div>","null","FIX","","","","","","","","","","",""
"html-keyboard-response","81","341739","0.0-7.0-2.9","60beba435afc451476fa7781","bdp_wmem","Mon Mar 13 2023 11:29:19 GMT-0700 (Pacific Daylight Time)","713529","Match,No Match","","null","","","","","","<div class='trialBorder'><div class='vertical-center'><img style='vertical-align:center; align:center' src='img/fixation2_sml.jpg'></div><div class='arrayDiv1'><div class='tc'><img class='introPic' src='trustrating_stim/white_mw003.bmp'><br><font color='green'><strong>Share</strong></font></div></div></div>","null","ARRAY","1","trustrating_stim/white_mw003.bmp","1","Match","e","1500","","","","",""
"html-keyboard-response","82","345740","0.0-7.0-3.9","60beba435afc451476fa7781","bdp_wmem","Mon Mar 13 2023 11:29:19 GMT-0700 (Pacific Daylight Time)","713529","Match,No Match","","null","","","","","","<div class='trialBorder'><div class='vertical-center'><img src='img/fixation2_sml.jpg'</img></div></div>","null","DELAY","","","","","","","","","","",""
"html-keyboard-response","83","346521","0.0-7.0-4.9","60beba435afc451476fa7781","bdp_wmem","Mon Mar 13 2023 11:29:19 GMT-0700 (Pacific Daylight Time)","713529","Match,No Match","","779","","","","","","<div class='trialBorder'><div class='targDiv'><div class='tc'><img class='introPic' src='trustrating_stim/white_mw003.bmp'><br><font color='green'><strong>Share</strong></font></div></div><div class='respDiv'><div class='respDivL'>Match<br>(e)</div><div class='respDivR'>No Match<br>(i)</div></div></div>","e","TARGET","1","trustrating_stim/white_mw003.bmp","1","Match","e","1500","trustrating_stim/white_mw003.bmp","green","Share","REAL","1"
"html-keyboard-response","84","347023","0.0-7.0-5.9","60beba435afc451476fa7781","bdp_wmem","Mon Mar 13 2023 11:29:19 GMT-0700 (Pacific Daylight Time)","713529","Match,No Match","","null","","","","","","<div class='trialBorder'><div class='vertical-center'><img src='img/correct.jpg'></div><div class='respDiv'><div class='respDivL'><font style='color:orange'>Match<br>(e)</font></div><div class='respDivR'>No Match<br>(i)</div></div></div>","null","FEEDBACK","","","","","","","","","","",""
"html-keyboard-response","85","347525","0.0-7.0-1.10","60beba435afc451476fa7781","bdp_wmem","Mon Mar 13 2023 11:29:19 GMT-0700 (Pacific Daylight Time)","713529","Match,No Match","","null","","","","","","<div class='trialBorder'><div class='vertical-center'><img src='img/fixation2_sml.jpg'</img></div></div>","null","FIX","","","","","","","","","","",""
"html-keyboard-response","86","349028","0.0-7.0-2.10","60beba435afc451476fa7781","bdp_wmem","Mon Mar 13 2023 11:29:19 GMT-0700 (Pacific Daylight Time)","713529","Match,No Match","","null","","","","","","<div class='trialBorder'><div class='vertical-center'><img style='vertical-align:center; align:center' src='img/fixation2_sml.jpg'></div><div class='arrayDiv1'><div class='tc'><img class='introPic' src='trustrating_stim/white_mw085.bmp'><br><font color='green'><strong>Share</strong></font></div></div></div>","null","ARRAY","1","trustrating_stim/white_mw085.bmp","1","noMatchOutcome","i","1500","","","","",""
"html-keyboard-response","87","353030","0.0-7.0-3.10","60beba435afc451476fa7781","bdp_wmem","Mon Mar 13 2023 11:29:19 GMT-0700 (Pacific Daylight Time)","713529","Match,No Match","","null","","","","","","<div class='trialBorder'><div class='vertical-center'><img src='img/fixation2_sml.jpg'</img></div></div>","null","DELAY","","","","","","","","","","",""
"html-keyboard-response","88","354715","0.0-7.0-4.10","60beba435afc451476fa7781","bdp_wmem","Mon Mar 13 2023 11:29:19 GMT-0700 (Pacific Daylight Time)","713529","Match,No Match","","1682","","","","","","<div class='trialBorder'><div class='targDiv'><div class='tc'><img class='introPic' src='trustrating_stim/white_mw085.bmp'><br><font color='red'><strong>Keep</strong></font></div></div><div class='respDiv'><div class='respDivL'>Match<br>(e)</div><div class='respDivR'>No Match<br>(i)</div></div></div>","i","TARGET","1","trustrating_stim/white_mw085.bmp","1","noMatchOutcome","i","1500","trustrating_stim/white_mw085.bmp","red","Keep","REAL","1"
"html-keyboard-response","89","355217","0.0-7.0-5.10","60beba435afc451476fa7781","bdp_wmem","Mon Mar 13 2023 11:29:19 GMT-0700 (Pacific Daylight Time)","713529","Match,No Match","","null","","","","","","<div class='trialBorder'><div class='vertical-center'><img src='img/correct.jpg'></div><div class='respDiv'><div class='respDivL'>Match<br>(e)</div><div class='respDivR'><font style='color:orange'>No Match<br>(i)</font></div></div></div>","null","FEEDBACK","","","","","","","","","","",""
"html-keyboard-response","90","355718","0.0-7.0-1.11","60beba435afc451476fa7781","bdp_wmem","Mon Mar 13 2023 11:29:19 GMT-0700 (Pacific Daylight Time)","713529","Match,No Match","","null","","","","","","<div class='trialBorder'><div class='vertical-center'><img src='img/fixation2_sml.jpg'</img></div></div>","null","FIX","","","","","","","","","","",""
"html-keyboard-response","91","360220","0.0-7.0-2.11","60beba435afc451476fa7781","bdp_wmem","Mon Mar 13 2023 11:29:19 GMT-0700 (Pacific Daylight Time)","713529","Match,No Match","","null","","","","","","<div class='trialBorder'><div class='vertical-center'><img style='vertical-align:center; align:center' src='img/fixation2_sml.jpg'></div><div class='arrayDiv3'><div class='tl'><img class='introPic' src='trustrating_stim/white_mw078.bmp'><br><font color='green'><strong>Share</strong></font></div><div class='tc'><img class='introPic' src='trustrating_stim/white_mw070.bmp'><br><font color='red'><strong>Keep</strong></font></div><div class='tr'><img class='introPic' src='trustrating_stim/white_mw010.bmp'><br><font color='red'><strong>Keep</strong></font></div></div></div>","null","ARRAY","3","trustrating_stim/white_mw078.bmp,trustrating_stim/white_mw070.bmp,trustrating_stim/white_mw010.bmp","1,0,0","Match","e","4500","","","","",""
"html-keyboard-response","92","364222","0.0-7.0-3.11","60beba435afc451476fa7781","bdp_wmem","Mon Mar 13 2023 11:29:19 GMT-0700 (Pacific Daylight Time)","713529","Match,No Match","","null","","","","","","<div class='trialBorder'><div class='vertical-center'><img src='img/fixation2_sml.jpg'</img></div></div>","null","DELAY","","","","","","","","","","",""
"html-keyboard-response","93","366073","0.0-7.0-4.11","60beba435afc451476fa7781","bdp_wmem","Mon Mar 13 2023 11:29:19 GMT-0700 (Pacific Daylight Time)","713529","Match,No Match","","1849","","","","","","<div class='trialBorder'><div class='targDiv'><div class='tc'><img class='introPic' src='trustrating_stim/white_mw070.bmp'><br><font color='red'><strong>Keep</strong></font></div></div><div class='respDiv'><div class='respDivL'>Match<br>(e)</div><div class='respDivR'>No Match<br>(i)</div></div></div>","e","TARGET","3","trustrating_stim/white_mw078.bmp,trustrating_stim/white_mw070.bmp,trustrating_stim/white_mw010.bmp","1,0,0","Match","e","4500","trustrating_stim/white_mw070.bmp","red","Keep","REAL","1"
"html-keyboard-response","94","366575","0.0-7.0-5.11","60beba435afc451476fa7781","bdp_wmem","Mon Mar 13 2023 11:29:19 GMT-0700 (Pacific Daylight Time)","713529","Match,No Match","","null","","","","","","<div class='trialBorder'><div class='vertical-center'><img src='img/correct.jpg'></div><div class='respDiv'><div class='respDivL'><font style='color:orange'>Match<br>(e)</font></div><div class='respDivR'>No Match<br>(i)</div></div></div>","null","FEEDBACK","","","","","","","","","","",""
"html-keyboard-response","95","367078","0.0-7.0-1.12","60beba435afc451476fa7781","bdp_wmem","Mon Mar 13 2023 11:29:19 GMT-0700 (Pacific Daylight Time)","713529","Match,No Match","","null","","","","","","<div class='trialBorder'><div class='vertical-center'><img src='img/fixation2_sml.jpg'</img></div></div>","null","FIX","","","","","","","","","","",""
"html-keyboard-response","96","371580","0.0-7.0-2.12","60beba435afc451476fa7781","bdp_wmem","Mon Mar 13 2023 11:29:19 GMT-0700 (Pacific Daylight Time)","713529","Match,No Match","","null","","","","","","<div class='trialBorder'><div class='vertical-center'><img style='vertical-align:center; align:center' src='img/fixation2_sml.jpg'></div><div class='arrayDiv3'><div class='tl'><img class='introPic' src='trustrating_stim/white_mw010.bmp'><br><font color='red'><strong>Keep</strong></font></div><div class='tc'><img class='introPic' src='trustrating_stim/white_mw042.bmp'><br><font color='green'><strong>Share</strong></font></div><div class='tr'><img class='introPic' src='trustrating_stim/white_mw085.bmp'><br><font color='red'><strong>Keep</strong></font></div></div></div>","null","ARRAY","3","trustrating_stim/white_mw010.bmp,trustrating_stim/white_mw042.bmp,trustrating_stim/white_mw085.bmp","0,1,0","Match","e","4500","","","","",""
"html-keyboard-response","97","375582","0.0-7.0-3.12","60beba435afc451476fa7781","bdp_wmem","Mon Mar 13 2023 11:29:19 GMT-0700 (Pacific Daylight Time)","713529","Match,No Match","","null","","","","","","<div class='trialBorder'><div class='vertical-center'><img src='img/fixation2_sml.jpg'</img></div></div>","null","DELAY","","","","","","","","","","",""
"html-keyboard-response","98","376897","0.0-7.0-4.12","60beba435afc451476fa7781","bdp_wmem","Mon Mar 13 2023 11:29:19 GMT-0700 (Pacific Daylight Time)","713529","Match,No Match","","1312","","","","","","<div class='trialBorder'><div class='targDiv'><div class='tc'><img class='introPic' src='trustrating_stim/white_mw085.bmp'><br><font color='red'><strong>Keep</strong></font></div></div><div class='respDiv'><div class='respDivL'>Match<br>(e)</div><div class='respDivR'>No Match<br>(i)</div></div></div>","e","TARGET","3","trustrating_stim/white_mw010.bmp,trustrating_stim/white_mw042.bmp,trustrating_stim/white_mw085.bmp","0,1,0","Match","e","4500","trustrating_stim/white_mw085.bmp","red","Keep","REAL","1"
"html-keyboard-response","99","377400","0.0-7.0-5.12","60beba435afc451476fa7781","bdp_wmem","Mon Mar 13 2023 11:29:19 GMT-0700 (Pacific Daylight Time)","713529","Match,No Match","","null","","","","","","<div class='trialBorder'><div class='vertical-center'><img src='img/correct.jpg'></div><div class='respDiv'><div class='respDivL'><font style='color:orange'>Match<br>(e)</font></div><div class='respDivR'>No Match<br>(i)</div></div></div>","null","FEEDBACK","","","","","","","","","","",""
"html-keyboard-response","100","377902","0.0-7.0-1.13","60beba435afc451476fa7781","bdp_wmem","Mon Mar 13 2023 11:29:19 GMT-0700 (Pacific Daylight Time)","713529","Match,No Match","","null","","","","","","<div class='trialBorder'><div class='vertical-center'><img src='img/fixation2_sml.jpg'</img></div></div>","null","FIX","","","","","","","","","","",""
"html-keyboard-response","101","379404","0.0-7.0-2.13","60beba435afc451476fa7781","bdp_wmem","Mon Mar 13 2023 11:29:19 GMT-0700 (Pacific Daylight Time)","713529","Match,No Match","","null","","","","","","<div class='trialBorder'><div class='vertical-center'><img style='vertical-align:center; align:center' src='img/fixation2_sml.jpg'></div><div class='arrayDiv1'><div class='tc'><img class='introPic' src='trustrating_stim/white_mw003.bmp'><br><font color='red'><strong>Keep</strong></font></div></div></div>","null","ARRAY","1","trustrating_stim/white_mw003.bmp","0","noMatchOutcome","i","1500","","","","",""
"html-keyboard-response","102","383406","0.0-7.0-3.13","60beba435afc451476fa7781","bdp_wmem","Mon Mar 13 2023 11:29:19 GMT-0700 (Pacific Daylight Time)","713529","Match,No Match","","null","","","","","","<div class='trialBorder'><div class='vertical-center'><img src='img/fixation2_sml.jpg'</img></div></div>","null","DELAY","","","","","","","","","","",""
"html-keyboard-response","103","384182","0.0-7.0-4.13","60beba435afc451476fa7781","bdp_wmem","Mon Mar 13 2023 11:29:19 GMT-0700 (Pacific Daylight Time)","713529","Match,No Match","","774","","","","","","<div class='trialBorder'><div class='targDiv'><div class='tc'><img class='introPic' src='trustrating_stim/white_mw003.bmp'><br><font color='green'><strong>Share</strong></font></div></div><div class='respDiv'><div class='respDivL'>Match<br>(e)</div><div class='respDivR'>No Match<br>(i)</div></div></div>","i","TARGET","1","trustrating_stim/white_mw003.bmp","0","noMatchOutcome","i","1500","trustrating_stim/white_mw003.bmp","green","Share","REAL","1"
"html-keyboard-response","104","384683","0.0-7.0-5.13","60beba435afc451476fa7781","bdp_wmem","Mon Mar 13 2023 11:29:19 GMT-0700 (Pacific Daylight Time)","713529","Match,No Match","","null","","","","","","<div class='trialBorder'><div class='vertical-center'><img src='img/correct.jpg'></div><div class='respDiv'><div class='respDivL'>Match<br>(e)</div><div class='respDivR'><font style='color:orange'>No Match<br>(i)</font></div></div></div>","null","FEEDBACK","","","","","","","","","","",""
"html-keyboard-response","105","385185","0.0-7.0-1.14","60beba435afc451476fa7781","bdp_wmem","Mon Mar 13 2023 11:29:19 GMT-0700 (Pacific Daylight Time)","713529","Match,No Match","","null","","","","","","<div class='trialBorder'><div class='vertical-center'><img src='img/fixation2_sml.jpg'</img></div></div>","null","FIX","","","","","","","","","","",""
"html-keyboard-response","106","388187","0.0-7.0-2.14","60beba435afc451476fa7781","bdp_wmem","Mon Mar 13 2023 11:29:19 GMT-0700 (Pacific Daylight Time)","713529","Match,No Match","","null","","","","","","<div class='trialBorder'><div class='vertical-center'><img style='vertical-align:center; align:center' src='img/fixation2_sml.jpg'></div><div class='arrayDiv2'><div class='tl'><img class='introPic' src='trustrating_stim/white_mw085.bmp'><br><font color='green'><strong>Share</strong></font></div><div class='tr'><img class='introPic' src='trustrating_stim/white_mw091.bmp'><br><font color='red'><strong>Keep</strong></font></div></div></div>","null","ARRAY","2","trustrating_stim/white_mw085.bmp,trustrating_stim/white_mw091.bmp","1,0","noMatchFace","i","3000","","","","",""
"html-keyboard-response","107","392188","0.0-7.0-3.14","60beba435afc451476fa7781","bdp_wmem","Mon Mar 13 2023 11:29:19 GMT-0700 (Pacific Daylight Time)","713529","Match,No Match","","null","","","","","","<div class='trialBorder'><div class='vertical-center'><img src='img/fixation2_sml.jpg'</img></div></div>","null","DELAY","","","","","","","","","","",""
"html-keyboard-response","108","393902","0.0-7.0-4.14","60beba435afc451476fa7781","bdp_wmem","Mon Mar 13 2023 11:29:19 GMT-0700 (Pacific Daylight Time)","713529","Match,No Match","","1713","","","","","","<div class='trialBorder'><div class='targDiv'><div class='tc'><img class='introPic' src='trustrating_stim/white_mw040.bmp'><br><font color='red'><strong>Keep</strong></font></div></div><div class='respDiv'><div class='respDivL'>Match<br>(e)</div><div class='respDivR'>No Match<br>(i)</div></div></div>","i","TARGET","2","trustrating_stim/white_mw085.bmp,trustrating_stim/white_mw091.bmp","1,0","noMatchFace","i","3000","trustrating_stim/white_mw040.bmp","red","Keep","REAL","1"
"html-keyboard-response","109","394404","0.0-7.0-5.14","60beba435afc451476fa7781","bdp_wmem","Mon Mar 13 2023 11:29:19 GMT-0700 (Pacific Daylight Time)","713529","Match,No Match","","null","","","","","","<div class='trialBorder'><div class='vertical-center'><img src='img/correct.jpg'></div><div class='respDiv'><div class='respDivL'>Match<br>(e)</div><div class='respDivR'><font style='color:orange'>No Match<br>(i)</font></div></div></div>","null","FEEDBACK","","","","","","","","","","",""
"html-keyboard-response","110","394906","0.0-7.0-1.15","60beba435afc451476fa7781","bdp_wmem","Mon Mar 13 2023 11:29:19 GMT-0700 (Pacific Daylight Time)","713529","Match,No Match","","null","","","","","","<div class='trialBorder'><div class='vertical-center'><img src='img/fixation2_sml.jpg'</img></div></div>","null","FIX","","","","","","","","","","",""
"html-keyboard-response","111","397908","0.0-7.0-2.15","60beba435afc451476fa7781","bdp_wmem","Mon Mar 13 2023 11:29:19 GMT-0700 (Pacific Daylight Time)","713529","Match,No Match","","null","","","","","","<div class='trialBorder'><div class='vertical-center'><img style='vertical-align:center; align:center' src='img/fixation2_sml.jpg'></div><div class='arrayDiv2'><div class='tl'><img class='introPic' src='trustrating_stim/white_mw091.bmp'><br><font color='green'><strong>Share</strong></font></div><div class='tr'><img class='introPic' src='trustrating_stim/white_mw092.bmp'><br><font color='red'><strong>Keep</strong></font></div></div></div>","null","ARRAY","2","trustrating_stim/white_mw091.bmp,trustrating_stim/white_mw092.bmp","1,0","Match","e","3000","","","","",""
"html-keyboard-response","112","401909","0.0-7.0-3.15","60beba435afc451476fa7781","bdp_wmem","Mon Mar 13 2023 11:29:19 GMT-0700 (Pacific Daylight Time)","713529","Match,No Match","","null","","","","","","<div class='trialBorder'><div class='vertical-center'><img src='img/fixation2_sml.jpg'</img></div></div>","null","DELAY","","","","","","","","","","",""
"html-keyboard-response","113","402799","0.0-7.0-4.15","60beba435afc451476fa7781","bdp_wmem","Mon Mar 13 2023 11:29:19 GMT-0700 (Pacific Daylight Time)","713529","Match,No Match","","888","","","","","","<div class='trialBorder'><div class='targDiv'><div class='tc'><img class='introPic' src='trustrating_stim/white_mw091.bmp'><br><font color='green'><strong>Share</strong></font></div></div><div class='respDiv'><div class='respDivL'>Match<br>(e)</div><div class='respDivR'>No Match<br>(i)</div></div></div>","e","TARGET","2","trustrating_stim/white_mw091.bmp,trustrating_stim/white_mw092.bmp","1,0","Match","e","3000","trustrating_stim/white_mw091.bmp","green","Share","REAL","1"
"html-keyboard-response","114","403302","0.0-7.0-5.15","60beba435afc451476fa7781","bdp_wmem","Mon Mar 13 2023 11:29:19 GMT-0700 (Pacific Daylight Time)","713529","Match,No Match","","null","","","","","","<div class='trialBorder'><div class='vertical-center'><img src='img/correct.jpg'></div><div class='respDiv'><div class='respDivL'><font style='color:orange'>Match<br>(e)</font></div><div class='respDivR'>No Match<br>(i)</div></div></div>","null","FEEDBACK","","","","","","","","","","",""
"html-keyboard-response","115","403803","0.0-7.0-1.16","60beba435afc451476fa7781","bdp_wmem","Mon Mar 13 2023 11:29:19 GMT-0700 (Pacific Daylight Time)","713529","Match,No Match","","null","","","","","","<div class='trialBorder'><div class='vertical-center'><img src='img/fixation2_sml.jpg'</img></div></div>","null","FIX","","","","","","","","","","",""
"html-keyboard-response","116","408305","0.0-7.0-2.16","60beba435afc451476fa7781","bdp_wmem","Mon Mar 13 2023 11:29:19 GMT-0700 (Pacific Daylight Time)","713529","Match,No Match","","null","","","","","","<div class='trialBorder'><div class='vertical-center'><img style='vertical-align:center; align:center' src='img/fixation2_sml.jpg'></div><div class='arrayDiv3'><div class='tl'><img class='introPic' src='trustrating_stim/white_mw085.bmp'><br><font color='green'><strong>Share</strong></font></div><div class='tc'><img class='introPic' src='trustrating_stim/white_mw012.bmp'><br><font color='red'><strong>Keep</strong></font></div><div class='tr'><img class='introPic' src='trustrating_stim/white_mw038.bmp'><br><font color='red'><strong>Keep</strong></font></div></div></div>","null","ARRAY","3","trustrating_stim/white_mw085.bmp,trustrating_stim/white_mw012.bmp,trustrating_stim/white_mw038.bmp","1,0,0","noMatchFace","i","4500","","","","",""
"html-keyboard-response","117","412307","0.0-7.0-3.16","60beba435afc451476fa7781","bdp_wmem","Mon Mar 13 2023 11:29:19 GMT-0700 (Pacific Daylight Time)","713529","Match,No Match","","null","","","","","","<div class='trialBorder'><div class='vertical-center'><img src='img/fixation2_sml.jpg'</img></div></div>","null","DELAY","","","","","","","","","","",""
"html-keyboard-response","118","415161","0.0-7.0-4.16","60beba435afc451476fa7781","bdp_wmem","Mon Mar 13 2023 11:29:19 GMT-0700 (Pacific Daylight Time)","713529","Match,No Match","","2852","","","","","","<div class='trialBorder'><div class='targDiv'><div class='tc'><img class='introPic' src='trustrating_stim/white_mw092.bmp'><br><font color='green'><strong>Share</strong></font></div></div><div class='respDiv'><div class='respDivL'>Match<br>(e)</div><div class='respDivR'>No Match<br>(i)</div></div></div>","i","TARGET","3","trustrating_stim/white_mw085.bmp,trustrating_stim/white_mw012.bmp,trustrating_stim/white_mw038.bmp","1,0,0","noMatchFace","i","4500","trustrating_stim/white_mw092.bmp","green","Share","REAL","1"
"html-keyboard-response","119","415663","0.0-7.0-5.16","60beba435afc451476fa7781","bdp_wmem","Mon Mar 13 2023 11:29:19 GMT-0700 (Pacific Daylight Time)","713529","Match,No Match","","null","","","","","","<div class='trialBorder'><div class='vertical-center'><img src='img/correct.jpg'></div><div class='respDiv'><div class='respDivL'>Match<br>(e)</div><div class='respDivR'><font style='color:orange'>No Match<br>(i)</font></div></div></div>","null","FEEDBACK","","","","","","","","","","",""
"html-keyboard-response","120","416165","0.0-7.0-1.17","60beba435afc451476fa7781","bdp_wmem","Mon Mar 13 2023 11:29:19 GMT-0700 (Pacific Daylight Time)","713529","Match,No Match","","null","","","","","","<div class='trialBorder'><div class='vertical-center'><img src='img/fixation2_sml.jpg'</img></div></div>","null","FIX","","","","","","","","","","",""
"html-keyboard-response","121","419168","0.0-7.0-2.17","60beba435afc451476fa7781","bdp_wmem","Mon Mar 13 2023 11:29:19 GMT-0700 (Pacific Daylight Time)","713529","Match,No Match","","null","","","","","","<div class='trialBorder'><div class='vertical-center'><img style='vertical-align:center; align:center' src='img/fixation2_sml.jpg'></div><div class='arrayDiv2'><div class='tl'><img class='introPic' src='trustrating_stim/white_mw010.bmp'><br><font color='red'><strong>Keep</strong></font></div><div class='tr'><img class='introPic' src='trustrating_stim/white_mw091.bmp'><br><font color='green'><strong>Share</strong></font></div></div></div>","null","ARRAY","2","trustrating_stim/white_mw010.bmp,trustrating_stim/white_mw091.bmp","0,1","noMatchOutcome","i","3000","","","","",""
"html-keyboard-response","122","423171","0.0-7.0-3.17","60beba435afc451476fa7781","bdp_wmem","Mon Mar 13 2023 11:29:19 GMT-0700 (Pacific Daylight Time)","713529","Match,No Match","","null","","","","","","<div class='trialBorder'><div class='vertical-center'><img src='img/fixation2_sml.jpg'</img></div></div>","null","DELAY","","","","","","","","","","",""
"html-keyboard-response","123","425179","0.0-7.0-4.17","60beba435afc451476fa7781","bdp_wmem","Mon Mar 13 2023 11:29:19 GMT-0700 (Pacific Daylight Time)","713529","Match,No Match","","2006","","","","","","<div class='trialBorder'><div class='targDiv'><div class='tc'><img class='introPic' src='trustrating_stim/white_mw010.bmp'><br><font color='green'><strong>Share</strong></font></div></div><div class='respDiv'><div class='respDivL'>Match<br>(e)</div><div class='respDivR'>No Match<br>(i)</div></div></div>","i","TARGET","2","trustrating_stim/white_mw010.bmp,trustrating_stim/white_mw091.bmp","0,1","noMatchOutcome","i","3000","trustrating_stim/white_mw010.bmp","green","Share","REAL","1"
"html-keyboard-response","124","425683","0.0-7.0-5.17","60beba435afc451476fa7781","bdp_wmem","Mon Mar 13 2023 11:29:19 GMT-0700 (Pacific Daylight Time)","713529","Match,No Match","","null","","","","","","<div class='trialBorder'><div class='vertical-center'><img src='img/correct.jpg'></div><div class='respDiv'><div class='respDivL'>Match<br>(e)</div><div class='respDivR'><font style='color:orange'>No Match<br>(i)</font></div></div></div>","null","FEEDBACK","","","","","","","","","","",""
"html-keyboard-response","125","426185","0.0-7.0-1.18","60beba435afc451476fa7781","bdp_wmem","Mon Mar 13 2023 11:29:19 GMT-0700 (Pacific Daylight Time)","713529","Match,No Match","","null","","","","","","<div class='trialBorder'><div class='vertical-center'><img src='img/fixation2_sml.jpg'</img></div></div>","null","FIX","","","","","","","","","","",""
"html-keyboard-response","126","427687","0.0-7.0-2.18","60beba435afc451476fa7781","bdp_wmem","Mon Mar 13 2023 11:29:19 GMT-0700 (Pacific Daylight Time)","713529","Match,No Match","","null","","","","","","<div class='trialBorder'><div class='vertical-center'><img style='vertical-align:center; align:center' src='img/fixation2_sml.jpg'></div><div class='arrayDiv1'><div class='tc'><img class='introPic' src='trustrating_stim/white_mw003.bmp'><br><font color='red'><strong>Keep</strong></font></div></div></div>","null","ARRAY","1","trustrating_stim/white_mw003.bmp","0","Match","e","1500","","","","",""
"html-keyboard-response","127","431689","0.0-7.0-3.18","60beba435afc451476fa7781","bdp_wmem","Mon Mar 13 2023 11:29:19 GMT-0700 (Pacific Daylight Time)","713529","Match,No Match","","null","","","","","","<div class='trialBorder'><div class='vertical-center'><img src='img/fixation2_sml.jpg'</img></div></div>","null","DELAY","","","","","","","","","","",""
"html-keyboard-response","128","433389","0.0-7.0-4.18","60beba435afc451476fa7781","bdp_wmem","Mon Mar 13 2023 11:29:19 GMT-0700 (Pacific Daylight Time)","713529","Match,No Match","","1698","","","","","","<div class='trialBorder'><div class='targDiv'><div class='tc'><img class='introPic' src='trustrating_stim/white_mw003.bmp'><br><font color='red'><strong>Keep</strong></font></div></div><div class='respDiv'><div class='respDivL'>Match<br>(e)</div><div class='respDivR'>No Match<br>(i)</div></div></div>","e","TARGET","1","trustrating_stim/white_mw003.bmp","0","Match","e","1500","trustrating_stim/white_mw003.bmp","red","Keep","REAL","1"
"html-keyboard-response","129","433891","0.0-7.0-5.18","60beba435afc451476fa7781","bdp_wmem","Mon Mar 13 2023 11:29:19 GMT-0700 (Pacific Daylight Time)","713529","Match,No Match","","null","","","","","","<div class='trialBorder'><div class='vertical-center'><img src='img/correct.jpg'></div><div class='respDiv'><div class='respDivL'><font style='color:orange'>Match<br>(e)</font></div><div class='respDivR'>No Match<br>(i)</div></div></div>","null","FEEDBACK","","","","","","","","","","",""
"html-keyboard-response","130","434393","0.0-7.0-1.19","60beba435afc451476fa7781","bdp_wmem","Mon Mar 13 2023 11:29:19 GMT-0700 (Pacific Daylight Time)","713529","Match,No Match","","null","","","","","","<div class='trialBorder'><div class='vertical-center'><img src='img/fixation2_sml.jpg'</img></div></div>","null","FIX","","","","","","","","","","",""
"html-keyboard-response","131","438896","0.0-7.0-2.19","60beba435afc451476fa7781","bdp_wmem","Mon Mar 13 2023 11:29:19 GMT-0700 (Pacific Daylight Time)","713529","Match,No Match","","null","","","","","","<div class='trialBorder'><div class='vertical-center'><img style='vertical-align:center; align:center' src='img/fixation2_sml.jpg'></div><div class='arrayDiv3'><div class='tl'><img class='introPic' src='trustrating_stim/white_mw092.bmp'><br><font color='green'><strong>Share</strong></font></div><div class='tc'><img class='introPic' src='trustrating_stim/white_mw010.bmp'><br><font color='red'><strong>Keep</strong></font></div><div class='tr'><img class='introPic' src='trustrating_stim/white_mw038.bmp'><br><font color='red'><strong>Keep</strong></font></div></div></div>","null","ARRAY","3","trustrating_stim/white_mw092.bmp,trustrating_stim/white_mw010.bmp,trustrating_stim/white_mw038.bmp","1,0,0","noMatchFace","i","4500","","","","",""
"html-keyboard-response","132","442897","0.0-7.0-3.19","60beba435afc451476fa7781","bdp_wmem","Mon Mar 13 2023 11:29:19 GMT-0700 (Pacific Daylight Time)","713529","Match,No Match","","null","","","","","","<div class='trialBorder'><div class='vertical-center'><img src='img/fixation2_sml.jpg'</img></div></div>","null","DELAY","","","","","","","","","","",""
"html-keyboard-response","133","444853","0.0-7.0-4.19","60beba435afc451476fa7781","bdp_wmem","Mon Mar 13 2023 11:29:19 GMT-0700 (Pacific Daylight Time)","713529","Match,No Match","","1954","","","","","","<div class='trialBorder'><div class='targDiv'><div class='tc'><img class='introPic' src='trustrating_stim/white_mw003.bmp'><br><font color='red'><strong>Keep</strong></font></div></div><div class='respDiv'><div class='respDivL'>Match<br>(e)</div><div class='respDivR'>No Match<br>(i)</div></div></div>","i","TARGET","3","trustrating_stim/white_mw092.bmp,trustrating_stim/white_mw010.bmp,trustrating_stim/white_mw038.bmp","1,0,0","noMatchFace","i","4500","trustrating_stim/white_mw003.bmp","red","Keep","REAL","1"
"html-keyboard-response","134","445355","0.0-7.0-5.19","60beba435afc451476fa7781","bdp_wmem","Mon Mar 13 2023 11:29:19 GMT-0700 (Pacific Daylight Time)","713529","Match,No Match","","null","","","","","","<div class='trialBorder'><div class='vertical-center'><img src='img/correct.jpg'></div><div class='respDiv'><div class='respDivL'>Match<br>(e)</div><div class='respDivR'><font style='color:orange'>No Match<br>(i)</font></div></div></div>","null","FEEDBACK","","","","","","","","","","",""
"html-keyboard-response","135","445857","0.0-7.0-1.20","60beba435afc451476fa7781","bdp_wmem","Mon Mar 13 2023 11:29:19 GMT-0700 (Pacific Daylight Time)","713529","Match,No Match","","null","","","","","","<div class='trialBorder'><div class='vertical-center'><img src='img/fixation2_sml.jpg'</img></div></div>","null","FIX","","","","","","","","","","",""
"html-keyboard-response","136","450358","0.0-7.0-2.20","60beba435afc451476fa7781","bdp_wmem","Mon Mar 13 2023 11:29:19 GMT-0700 (Pacific Daylight Time)","713529","Match,No Match","","null","","","","","","<div class='trialBorder'><div class='vertical-center'><img style='vertical-align:center; align:center' src='img/fixation2_sml.jpg'></div><div class='arrayDiv3'><div class='tl'><img class='introPic' src='trustrating_stim/white_mw070.bmp'><br><font color='green'><strong>Share</strong></font></div><div class='tc'><img class='introPic' src='trustrating_stim/white_mw003.bmp'><br><font color='red'><strong>Keep</strong></font></div><div class='tr'><img class='introPic' src='trustrating_stim/white_mw091.bmp'><br><font color='red'><strong>Keep</strong></font></div></div></div>","null","ARRAY","3","trustrating_stim/white_mw070.bmp,trustrating_stim/white_mw003.bmp,trustrating_stim/white_mw091.bmp","1,0,0","noMatchOutcome","i","4500","","","","",""
"html-keyboard-response","137","454360","0.0-7.0-3.20","60beba435afc451476fa7781","bdp_wmem","Mon Mar 13 2023 11:29:19 GMT-0700 (Pacific Daylight Time)","713529","Match,No Match","","null","","","","","","<div class='trialBorder'><div class='vertical-center'><img src='img/fixation2_sml.jpg'</img></div></div>","null","DELAY","","","","","","","","","","",""
"html-keyboard-response","138","455041","0.0-7.0-4.20","60beba435afc451476fa7781","bdp_wmem","Mon Mar 13 2023 11:29:19 GMT-0700 (Pacific Daylight Time)","713529","Match,No Match","","679","","","","","","<div class='trialBorder'><div class='targDiv'><div class='tc'><img class='introPic' src='trustrating_stim/white_mw003.bmp'><br><font color='green'><strong>Share</strong></font></div></div><div class='respDiv'><div class='respDivL'>Match<br>(e)</div><div class='respDivR'>No Match<br>(i)</div></div></div>","e","TARGET","3","trustrating_stim/white_mw070.bmp,trustrating_stim/white_mw003.bmp,trustrating_stim/white_mw091.bmp","1,0,0","noMatchOutcome","i","4500","trustrating_stim/white_mw003.bmp","green","Share","REAL","0"
"html-keyboard-response","139","455543","0.0-7.0-5.20","60beba435afc451476fa7781","bdp_wmem","Mon Mar 13 2023 11:29:19 GMT-0700 (Pacific Daylight Time)","713529","Match,No Match","","null","","","","","","<div class='trialBorder'><div class='vertical-center'><img src='img/error.jpg'></div><div class='respDiv'><div class='respDivL'><font style='color:orange'>Match<br>(e)</font></div><div class='respDivR'>No Match<br>(i)</div></div></div>","null","FEEDBACK","","","","","","","","","","",""
"html-keyboard-response","140","456045","0.0-7.0-1.21","60beba435afc451476fa7781","bdp_wmem","Mon Mar 13 2023 11:29:19 GMT-0700 (Pacific Daylight Time)","713529","Match,No Match","","null","","","","","","<div class='trialBorder'><div class='vertical-center'><img src='img/fixation2_sml.jpg'</img></div></div>","null","FIX","","","","","","","","","","",""
"html-keyboard-response","141","457548","0.0-7.0-2.21","60beba435afc451476fa7781","bdp_wmem","Mon Mar 13 2023 11:29:19 GMT-0700 (Pacific Daylight Time)","713529","Match,No Match","","null","","","","","","<div class='trialBorder'><div class='vertical-center'><img style='vertical-align:center; align:center' src='img/fixation2_sml.jpg'></div><div class='arrayDiv1'><div class='tc'><img class='introPic' src='trustrating_stim/white_mw085.bmp'><br><font color='red'><strong>Keep</strong></font></div></div></div>","null","ARRAY","1","trustrating_stim/white_mw085.bmp","0","Match","e","1500","","","","",""
"html-keyboard-response","142","461549","0.0-7.0-3.21","60beba435afc451476fa7781","bdp_wmem","Mon Mar 13 2023 11:29:19 GMT-0700 (Pacific Daylight Time)","713529","Match,No Match","","null","","","","","","<div class='trialBorder'><div class='vertical-center'><img src='img/fixation2_sml.jpg'</img></div></div>","null","DELAY","","","","","","","","","","",""
"html-keyboard-response","143","462942","0.0-7.0-4.21","60beba435afc451476fa7781","bdp_wmem","Mon Mar 13 2023 11:29:19 GMT-0700 (Pacific Daylight Time)","713529","Match,No Match","","1391","","","","","","<div class='trialBorder'><div class='targDiv'><div class='tc'><img class='introPic' src='trustrating_stim/white_mw085.bmp'><br><font color='red'><strong>Keep</strong></font></div></div><div class='respDiv'><div class='respDivL'>Match<br>(e)</div><div class='respDivR'>No Match<br>(i)</div></div></div>","e","TARGET","1","trustrating_stim/white_mw085.bmp","0","Match","e","1500","trustrating_stim/white_mw085.bmp","red","Keep","REAL","1"
"html-keyboard-response","144","463444","0.0-7.0-5.21","60beba435afc451476fa7781","bdp_wmem","Mon Mar 13 2023 11:29:19 GMT-0700 (Pacific Daylight Time)","713529","Match,No Match","","null","","","","","","<div class='trialBorder'><div class='vertical-center'><img src='img/correct.jpg'></div><div class='respDiv'><div class='respDivL'><font style='color:orange'>Match<br>(e)</font></div><div class='respDivR'>No Match<br>(i)</div></div></div>","null","FEEDBACK","","","","","","","","","","",""
"html-keyboard-response","145","463946","0.0-7.0-1.22","60beba435afc451476fa7781","bdp_wmem","Mon Mar 13 2023 11:29:19 GMT-0700 (Pacific Daylight Time)","713529","Match,No Match","","null","","","","","","<div class='trialBorder'><div class='vertical-center'><img src='img/fixation2_sml.jpg'</img></div></div>","null","FIX","","","","","","","","","","",""
"html-keyboard-response","146","465448","0.0-7.0-2.22","60beba435afc451476fa7781","bdp_wmem","Mon Mar 13 2023 11:29:19 GMT-0700 (Pacific Daylight Time)","713529","Match,No Match","","null","","","","","","<div class='trialBorder'><div class='vertical-center'><img style='vertical-align:center; align:center' src='img/fixation2_sml.jpg'></div><div class='arrayDiv1'><div class='tc'><img class='introPic' src='trustrating_stim/white_mw092.bmp'><br><font color='red'><strong>Keep</strong></font></div></div></div>","null","ARRAY","1","trustrating_stim/white_mw092.bmp","0","Match","e","1500","","","","",""
"html-keyboard-response","147","469449","0.0-7.0-3.22","60beba435afc451476fa7781","bdp_wmem","Mon Mar 13 2023 11:29:19 GMT-0700 (Pacific Daylight Time)","713529","Match,No Match","","null","","","","","","<div class='trialBorder'><div class='vertical-center'><img src='img/fixation2_sml.jpg'</img></div></div>","null","DELAY","","","","","","","","","","",""
"html-keyboard-response","148","471313","0.0-7.0-4.22","60beba435afc451476fa7781","bdp_wmem","Mon Mar 13 2023 11:29:19 GMT-0700 (Pacific Daylight Time)","713529","Match,No Match","","1861","","","","","","<div class='trialBorder'><div class='targDiv'><div class='tc'><img class='introPic' src='trustrating_stim/white_mw092.bmp'><br><font color='red'><strong>Keep</strong></font></div></div><div class='respDiv'><div class='respDivL'>Match<br>(e)</div><div class='respDivR'>No Match<br>(i)</div></div></div>","e","TARGET","1","trustrating_stim/white_mw092.bmp","0","Match","e","1500","trustrating_stim/white_mw092.bmp","red","Keep","REAL","1"
"html-keyboard-response","149","471814","0.0-7.0-5.22","60beba435afc451476fa7781","bdp_wmem","Mon Mar 13 2023 11:29:19 GMT-0700 (Pacific Daylight Time)","713529","Match,No Match","","null","","","","","","<div class='trialBorder'><div class='vertical-center'><img src='img/correct.jpg'></div><div class='respDiv'><div class='respDivL'><font style='color:orange'>Match<br>(e)</font></div><div class='respDivR'>No Match<br>(i)</div></div></div>","null","FEEDBACK","","","","","","","","","","",""
"html-keyboard-response","150","472316","0.0-7.0-1.23","60beba435afc451476fa7781","bdp_wmem","Mon Mar 13 2023 11:29:19 GMT-0700 (Pacific Daylight Time)","713529","Match,No Match","","null","","","","","","<div class='trialBorder'><div class='vertical-center'><img src='img/fixation2_sml.jpg'</img></div></div>","null","FIX","","","","","","","","","","",""
"html-keyboard-response","151","475318","0.0-7.0-2.23","60beba435afc451476fa7781","bdp_wmem","Mon Mar 13 2023 11:29:19 GMT-0700 (Pacific Daylight Time)","713529","Match,No Match","","null","","","","","","<div class='trialBorder'><div class='vertical-center'><img style='vertical-align:center; align:center' src='img/fixation2_sml.jpg'></div><div class='arrayDiv2'><div class='tl'><img class='introPic' src='trustrating_stim/white_mw092.bmp'><br><font color='green'><strong>Share</strong></font></div><div class='tr'><img class='introPic' src='trustrating_stim/white_mw012.bmp'><br><font color='red'><strong>Keep</strong></font></div></div></div>","null","ARRAY","2","trustrating_stim/white_mw092.bmp,trustrating_stim/white_mw012.bmp","1,0","noMatchOutcome","i","3000","","","","",""
"html-keyboard-response","152","479320","0.0-7.0-3.23","60beba435afc451476fa7781","bdp_wmem","Mon Mar 13 2023 11:29:19 GMT-0700 (Pacific Daylight Time)","713529","Match,No Match","","null","","","","","","<div class='trialBorder'><div class='vertical-center'><img src='img/fixation2_sml.jpg'</img></div></div>","null","DELAY","","","","","","","","","","",""
"html-keyboard-response","153","480334","0.0-7.0-4.23","60beba435afc451476fa7781","bdp_wmem","Mon Mar 13 2023 11:29:19 GMT-0700 (Pacific Daylight Time)","713529","Match,No Match","","1012","","","","","","<div class='trialBorder'><div class='targDiv'><div class='tc'><img class='introPic' src='trustrating_stim/white_mw012.bmp'><br><font color='green'><strong>Share</strong></font></div></div><div class='respDiv'><div class='respDivL'>Match<br>(e)</div><div class='respDivR'>No Match<br>(i)</div></div></div>","e","TARGET","2","trustrating_stim/white_mw092.bmp,trustrating_stim/white_mw012.bmp","1,0","noMatchOutcome","i","3000","trustrating_stim/white_mw012.bmp","green","Share","REAL","0"
"html-keyboard-response","154","480837","0.0-7.0-5.23","60beba435afc451476fa7781","bdp_wmem","Mon Mar 13 2023 11:29:19 GMT-0700 (Pacific Daylight Time)","713529","Match,No Match","","null","","","","","","<div class='trialBorder'><div class='vertical-center'><img src='img/error.jpg'></div><div class='respDiv'><div class='respDivL'><font style='color:orange'>Match<br>(e)</font></div><div class='respDivR'>No Match<br>(i)</div></div></div>","null","FEEDBACK","","","","","","","","","","",""
"html-keyboard-response","155","481339","0.0-7.0-1.24","60beba435afc451476fa7781","bdp_wmem","Mon Mar 13 2023 11:29:19 GMT-0700 (Pacific Daylight Time)","713529","Match,No Match","","null","","","","","","<div class='trialBorder'><div class='vertical-center'><img src='img/fixation2_sml.jpg'</img></div></div>","null","FIX","","","","","","","","","","",""
"html-keyboard-response","156","484342","0.0-7.0-2.24","60beba435afc451476fa7781","bdp_wmem","Mon Mar 13 2023 11:29:19 GMT-0700 (Pacific Daylight Time)","713529","Match,No Match","","null","","","","","","<div class='trialBorder'><div class='vertical-center'><img style='vertical-align:center; align:center' src='img/fixation2_sml.jpg'></div><div class='arrayDiv2'><div class='tl'><img class='introPic' src='trustrating_stim/white_mw040.bmp'><br><font color='green'><strong>Share</strong></font></div><div class='tr'><img class='introPic' src='trustrating_stim/white_mw078.bmp'><br><font color='red'><strong>Keep</strong></font></div></div></div>","null","ARRAY","2","trustrating_stim/white_mw040.bmp,trustrating_stim/white_mw078.bmp","1,0","noMatchOutcome","i","3000","","","","",""
"html-keyboard-response","157","488344","0.0-7.0-3.24","60beba435afc451476fa7781","bdp_wmem","Mon Mar 13 2023 11:29:19 GMT-0700 (Pacific Daylight Time)","713529","Match,No Match","","null","","","","","","<div class='trialBorder'><div class='vertical-center'><img src='img/fixation2_sml.jpg'</img></div></div>","null","DELAY","","","","","","","","","","",""
"html-keyboard-response","158","489243","0.0-7.0-4.24","60beba435afc451476fa7781","bdp_wmem","Mon Mar 13 2023 11:29:19 GMT-0700 (Pacific Daylight Time)","713529","Match,No Match","","898","","","","","","<div class='trialBorder'><div class='targDiv'><div class='tc'><img class='introPic' src='trustrating_stim/white_mw078.bmp'><br><font color='green'><strong>Share</strong></font></div></div><div class='respDiv'><div class='respDivL'>Match<br>(e)</div><div class='respDivR'>No Match<br>(i)</div></div></div>","e","TARGET","2","trustrating_stim/white_mw040.bmp,trustrating_stim/white_mw078.bmp","1,0","noMatchOutcome","i","3000","trustrating_stim/white_mw078.bmp","green","Share","REAL","0"
"html-keyboard-response","159","489745","0.0-7.0-5.24","60beba435afc451476fa7781","bdp_wmem","Mon Mar 13 2023 11:29:19 GMT-0700 (Pacific Daylight Time)","713529","Match,No Match","","null","","","","","","<div class='trialBorder'><div class='vertical-center'><img src='img/error.jpg'></div><div class='respDiv'><div class='respDivL'><font style='color:orange'>Match<br>(e)</font></div><div class='respDivR'>No Match<br>(i)</div></div></div>","null","FEEDBACK","","","","","","","","","","",""
"html-keyboard-response","160","490247","0.0-7.0-1.25","60beba435afc451476fa7781","bdp_wmem","Mon Mar 13 2023 11:29:19 GMT-0700 (Pacific Daylight Time)","713529","Match,No Match","","null","","","","","","<div class='trialBorder'><div class='vertical-center'><img src='img/fixation2_sml.jpg'</img></div></div>","null","FIX","","","","","","","","","","",""
"html-keyboard-response","161","491748","0.0-7.0-2.25","60beba435afc451476fa7781","bdp_wmem","Mon Mar 13 2023 11:29:19 GMT-0700 (Pacific Daylight Time)","713529","Match,No Match","","null","","","","","","<div class='trialBorder'><div class='vertical-center'><img style='vertical-align:center; align:center' src='img/fixation2_sml.jpg'></div><div class='arrayDiv1'><div class='tc'><img class='introPic' src='trustrating_stim/white_mw070.bmp'><br><font color='green'><strong>Share</strong></font></div></div></div>","null","ARRAY","1","trustrating_stim/white_mw070.bmp","1","noMatchOutcome","i","1500","","","","",""
"html-keyboard-response","162","495751","0.0-7.0-3.25","60beba435afc451476fa7781","bdp_wmem","Mon Mar 13 2023 11:29:19 GMT-0700 (Pacific Daylight Time)","713529","Match,No Match","","null","","","","","","<div class='trialBorder'><div class='vertical-center'><img src='img/fixation2_sml.jpg'</img></div></div>","null","DELAY","","","","","","","","","","",""
"html-keyboard-response","163","496737","0.0-7.0-4.25","60beba435afc451476fa7781","bdp_wmem","Mon Mar 13 2023 11:29:19 GMT-0700 (Pacific Daylight Time)","713529","Match,No Match","","985","","","","","","<div class='trialBorder'><div class='targDiv'><div class='tc'><img class='introPic' src='trustrating_stim/white_mw070.bmp'><br><font color='red'><strong>Keep</strong></font></div></div><div class='respDiv'><div class='respDivL'>Match<br>(e)</div><div class='respDivR'>No Match<br>(i)</div></div></div>","i","TARGET","1","trustrating_stim/white_mw070.bmp","1","noMatchOutcome","i","1500","trustrating_stim/white_mw070.bmp","red","Keep","REAL","1"
"html-keyboard-response","164","497239","0.0-7.0-5.25","60beba435afc451476fa7781","bdp_wmem","Mon Mar 13 2023 11:29:19 GMT-0700 (Pacific Daylight Time)","713529","Match,No Match","","null","","","","","","<div class='trialBorder'><div class='vertical-center'><img src='img/correct.jpg'></div><div class='respDiv'><div class='respDivL'>Match<br>(e)</div><div class='respDivR'><font style='color:orange'>No Match<br>(i)</font></div></div></div>","null","FEEDBACK","","","","","","","","","","",""
"html-keyboard-response","165","497741","0.0-7.0-1.26","60beba435afc451476fa7781","bdp_wmem","Mon Mar 13 2023 11:29:19 GMT-0700 (Pacific Daylight Time)","713529","Match,No Match","","null","","","","","","<div class='trialBorder'><div class='vertical-center'><img src='img/fixation2_sml.jpg'</img></div></div>","null","FIX","","","","","","","","","","",""
"html-keyboard-response","166","502244","0.0-7.0-2.26","60beba435afc451476fa7781","bdp_wmem","Mon Mar 13 2023 11:29:19 GMT-0700 (Pacific Daylight Time)","713529","Match,No Match","","null","","","","","","<div class='trialBorder'><div class='vertical-center'><img style='vertical-align:center; align:center' src='img/fixation2_sml.jpg'></div><div class='arrayDiv3'><div class='tl'><img class='introPic' src='trustrating_stim/white_mw012.bmp'><br><font color='green'><strong>Share</strong></font></div><div class='tc'><img class='introPic' src='trustrating_stim/white_mw070.bmp'><br><font color='red'><strong>Keep</strong></font></div><div class='tr'><img class='introPic' src='trustrating_stim/white_mw040.bmp'><br><font color='green'><strong>Share</strong></font></div></div></div>","null","ARRAY","3","trustrating_stim/white_mw012.bmp,trustrating_stim/white_mw070.bmp,trustrating_stim/white_mw040.bmp","1,0,1","Match","e","4500","","","","",""
"html-keyboard-response","167","506246","0.0-7.0-3.26","60beba435afc451476fa7781","bdp_wmem","Mon Mar 13 2023 11:29:19 GMT-0700 (Pacific Daylight Time)","713529","Match,No Match","","null","","","","","","<div class='trialBorder'><div class='vertical-center'><img src='img/fixation2_sml.jpg'</img></div></div>","null","DELAY","","","","","","","","","","",""
"html-keyboard-response","168","507002","0.0-7.0-4.26","60beba435afc451476fa7781","bdp_wmem","Mon Mar 13 2023 11:29:19 GMT-0700 (Pacific Daylight Time)","713529","Match,No Match","","754","","","","","","<div class='trialBorder'><div class='targDiv'><div class='tc'><img class='introPic' src='trustrating_stim/white_mw040.bmp'><br><font color='green'><strong>Share</strong></font></div></div><div class='respDiv'><div class='respDivL'>Match<br>(e)</div><div class='respDivR'>No Match<br>(i)</div></div></div>","e","TARGET","3","trustrating_stim/white_mw012.bmp,trustrating_stim/white_mw070.bmp,trustrating_stim/white_mw040.bmp","1,0,1","Match","e","4500","trustrating_stim/white_mw040.bmp","green","Share","REAL","1"
"html-keyboard-response","169","507503","0.0-7.0-5.26","60beba435afc451476fa7781","bdp_wmem","Mon Mar 13 2023 11:29:19 GMT-0700 (Pacific Daylight Time)","713529","Match,No Match","","null","","","","","","<div class='trialBorder'><div class='vertical-center'><img src='img/correct.jpg'></div><div class='respDiv'><div class='respDivL'><font style='color:orange'>Match<br>(e)</font></div><div class='respDivR'>No Match<br>(i)</div></div></div>","null","FEEDBACK","","","","","","","","","","",""
"html-keyboard-response","170","508004","0.0-7.0-1.27","60beba435afc451476fa7781","bdp_wmem","Mon Mar 13 2023 11:29:19 GMT-0700 (Pacific Daylight Time)","713529","Match,No Match","","null","","","","","","<div class='trialBorder'><div class='vertical-center'><img src='img/fixation2_sml.jpg'</img></div></div>","null","FIX","","","","","","","","","","",""
"html-keyboard-response","171","511006","0.0-7.0-2.27","60beba435afc451476fa7781","bdp_wmem","Mon Mar 13 2023 11:29:19 GMT-0700 (Pacific Daylight Time)","713529","Match,No Match","","null","","","","","","<div class='trialBorder'><div class='vertical-center'><img style='vertical-align:center; align:center' src='img/fixation2_sml.jpg'></div><div class='arrayDiv2'><div class='tl'><img class='introPic' src='trustrating_stim/white_mw013.bmp'><br><font color='red'><strong>Keep</strong></font></div><div class='tr'><img class='introPic' src='trustrating_stim/white_mw092.bmp'><br><font color='green'><strong>Share</strong></font></div></div></div>","null","ARRAY","2","trustrating_stim/white_mw013.bmp,trustrating_stim/white_mw092.bmp","0,1","Match","e","3000","","","","",""
"html-keyboard-response","172","515008","0.0-7.0-3.27","60beba435afc451476fa7781","bdp_wmem","Mon Mar 13 2023 11:29:19 GMT-0700 (Pacific Daylight Time)","713529","Match,No Match","","null","","","","","","<div class='trialBorder'><div class='vertical-center'><img src='img/fixation2_sml.jpg'</img></div></div>","null","DELAY","","","","","","","","","","",""
"html-keyboard-response","173","516744","0.0-7.0-4.27","60beba435afc451476fa7781","bdp_wmem","Mon Mar 13 2023 11:29:19 GMT-0700 (Pacific Daylight Time)","713529","Match,No Match","","1733","","","","","","<div class='trialBorder'><div class='targDiv'><div class='tc'><img class='introPic' src='trustrating_stim/white_mw013.bmp'><br><font color='red'><strong>Keep</strong></font></div></div><div class='respDiv'><div class='respDivL'>Match<br>(e)</div><div class='respDivR'>No Match<br>(i)</div></div></div>","e","TARGET","2","trustrating_stim/white_mw013.bmp,trustrating_stim/white_mw092.bmp","0,1","Match","e","3000","trustrating_stim/white_mw013.bmp","red","Keep","REAL","1"
"html-keyboard-response","174","517245","0.0-7.0-5.27","60beba435afc451476fa7781","bdp_wmem","Mon Mar 13 2023 11:29:19 GMT-0700 (Pacific Daylight Time)","713529","Match,No Match","","null","","","","","","<div class='trialBorder'><div class='vertical-center'><img src='img/correct.jpg'></div><div class='respDiv'><div class='respDivL'><font style='color:orange'>Match<br>(e)</font></div><div class='respDivR'>No Match<br>(i)</div></div></div>","null","FEEDBACK","","","","","","","","","","",""
"html-keyboard-response","175","517746","0.0-7.0-1.28","60beba435afc451476fa7781","bdp_wmem","Mon Mar 13 2023 11:29:19 GMT-0700 (Pacific Daylight Time)","713529","Match,No Match","","null","","","","","","<div class='trialBorder'><div class='vertical-center'><img src='img/fixation2_sml.jpg'</img></div></div>","null","FIX","","","","","","","","","","",""
"html-keyboard-response","176","519248","0.0-7.0-2.28","60beba435afc451476fa7781","bdp_wmem","Mon Mar 13 2023 11:29:19 GMT-0700 (Pacific Daylight Time)","713529","Match,No Match","","null","","","","","","<div class='trialBorder'><div class='vertical-center'><img style='vertical-align:center; align:center' src='img/fixation2_sml.jpg'></div><div class='arrayDiv1'><div class='tc'><img class='introPic' src='trustrating_stim/white_mw012.bmp'><br><font color='red'><strong>Keep</strong></font></div></div></div>","null","ARRAY","1","trustrating_stim/white_mw012.bmp","0","noMatchFace","i","1500","","","","",""
"html-keyboard-response","177","523249","0.0-7.0-3.28","60beba435afc451476fa7781","bdp_wmem","Mon Mar 13 2023 11:29:19 GMT-0700 (Pacific Daylight Time)","713529","Match,No Match","","null","","","","","","<div class='trialBorder'><div class='vertical-center'><img src='img/fixation2_sml.jpg'</img></div></div>","null","DELAY","","","","","","","","","","",""
"html-keyboard-response","178","526185","0.0-7.0-4.28","60beba435afc451476fa7781","bdp_wmem","Mon Mar 13 2023 11:29:19 GMT-0700 (Pacific Daylight Time)","713529","Match,No Match","","2934","","","","","","<div class='trialBorder'><div class='targDiv'><div class='tc'><img class='introPic' src='trustrating_stim/white_mw092.bmp'><br><font color='red'><strong>Keep</strong></font></div></div><div class='respDiv'><div class='respDivL'>Match<br>(e)</div><div class='respDivR'>No Match<br>(i)</div></div></div>","e","TARGET","1","trustrating_stim/white_mw012.bmp","0","noMatchFace","i","1500","trustrating_stim/white_mw092.bmp","red","Keep","REAL","0"
"html-keyboard-response","179","526687","0.0-7.0-5.28","60beba435afc451476fa7781","bdp_wmem","Mon Mar 13 2023 11:29:19 GMT-0700 (Pacific Daylight Time)","713529","Match,No Match","","null","","","","","","<div class='trialBorder'><div class='vertical-center'><img src='img/error.jpg'></div><div class='respDiv'><div class='respDivL'><font style='color:orange'>Match<br>(e)</font></div><div class='respDivR'>No Match<br>(i)</div></div></div>","null","FEEDBACK","","","","","","","","","","",""
"html-keyboard-response","180","527188","0.0-7.0-1.29","60beba435afc451476fa7781","bdp_wmem","Mon Mar 13 2023 11:29:19 GMT-0700 (Pacific Daylight Time)","713529","Match,No Match","","null","","","","","","<div class='trialBorder'><div class='vertical-center'><img src='img/fixation2_sml.jpg'</img></div></div>","null","FIX","","","","","","","","","","",""
"html-keyboard-response","181","530192","0.0-7.0-2.29","60beba435afc451476fa7781","bdp_wmem","Mon Mar 13 2023 11:29:19 GMT-0700 (Pacific Daylight Time)","713529","Match,No Match","","null","","","","","","<div class='trialBorder'><div class='vertical-center'><img style='vertical-align:center; align:center' src='img/fixation2_sml.jpg'></div><div class='arrayDiv2'><div class='tl'><img class='introPic' src='trustrating_stim/white_mw003.bmp'><br><font color='green'><strong>Share</strong></font></div><div class='tr'><img class='introPic' src='trustrating_stim/white_mw010.bmp'><br><font color='red'><strong>Keep</strong></font></div></div></div>","null","ARRAY","2","trustrating_stim/white_mw003.bmp,trustrating_stim/white_mw010.bmp","1,0","Match","e","3000","","","","",""
"html-keyboard-response","182","534195","0.0-7.0-3.29","60beba435afc451476fa7781","bdp_wmem","Mon Mar 13 2023 11:29:19 GMT-0700 (Pacific Daylight Time)","713529","Match,No Match","","null","","","","","","<div class='trialBorder'><div class='vertical-center'><img src='img/fixation2_sml.jpg'</img></div></div>","null","DELAY","","","","","","","","","","",""
"html-keyboard-response","183","535979","0.0-7.0-4.29","60beba435afc451476fa7781","bdp_wmem","Mon Mar 13 2023 11:29:19 GMT-0700 (Pacific Daylight Time)","713529","Match,No Match","","1783","","","","","","<div class='trialBorder'><div class='targDiv'><div class='tc'><img class='introPic' src='trustrating_stim/white_mw010.bmp'><br><font color='red'><strong>Keep</strong></font></div></div><div class='respDiv'><div class='respDivL'>Match<br>(e)</div><div class='respDivR'>No Match<br>(i)</div></div></div>","e","TARGET","2","trustrating_stim/white_mw003.bmp,trustrating_stim/white_mw010.bmp","1,0","Match","e","3000","trustrating_stim/white_mw010.bmp","red","Keep","REAL","1"
"html-keyboard-response","184","536481","0.0-7.0-5.29","60beba435afc451476fa7781","bdp_wmem","Mon Mar 13 2023 11:29:19 GMT-0700 (Pacific Daylight Time)","713529","Match,No Match","","null","","","","","","<div class='trialBorder'><div class='vertical-center'><img src='img/correct.jpg'></div><div class='respDiv'><div class='respDivL'><font style='color:orange'>Match<br>(e)</font></div><div class='respDivR'>No Match<br>(i)</div></div></div>","null","FEEDBACK","","","","","","","","","","",""
"html-keyboard-response","185","536983","0.0-7.0-1.30","60beba435afc451476fa7781","bdp_wmem","Mon Mar 13 2023 11:29:19 GMT-0700 (Pacific Daylight Time)","713529","Match,No Match","","null","","","","","","<div class='trialBorder'><div class='vertical-center'><img src='img/fixation2_sml.jpg'</img></div></div>","null","FIX","","","","","","","","","","",""
"html-keyboard-response","186","541486","0.0-7.0-2.30","60beba435afc451476fa7781","bdp_wmem","Mon Mar 13 2023 11:29:19 GMT-0700 (Pacific Daylight Time)","713529","Match,No Match","","null","","","","","","<div class='trialBorder'><div class='vertical-center'><img style='vertical-align:center; align:center' src='img/fixation2_sml.jpg'></div><div class='arrayDiv3'><div class='tl'><img class='introPic' src='trustrating_stim/white_mw003.bmp'><br><font color='red'><strong>Keep</strong></font></div><div class='tc'><img class='introPic' src='trustrating_stim/white_mw010.bmp'><br><font color='red'><strong>Keep</strong></font></div><div class='tr'><img class='introPic' src='trustrating_stim/white_mw012.bmp'><br><font color='green'><strong>Share</strong></font></div></div></div>","null","ARRAY","3","trustrating_stim/white_mw003.bmp,trustrating_stim/white_mw010.bmp,trustrating_stim/white_mw012.bmp","0,0,1","noMatchOutcome","i","4500","","","","",""
"html-keyboard-response","187","545487","0.0-7.0-3.30","60beba435afc451476fa7781","bdp_wmem","Mon Mar 13 2023 11:29:19 GMT-0700 (Pacific Daylight Time)","713529","Match,No Match","","null","","","","","","<div class='trialBorder'><div class='vertical-center'><img src='img/fixation2_sml.jpg'</img></div></div>","null","DELAY","","","","","","","","","","",""
