"trial_type","trial_index","time_elapsed","internal_node_id","subject_id","task","startTime","totalTime","labels","view_history","rt","event","trial","time","trialtype","success","stimulus","key_press","stimType","arraySize","arrayFaces","arrayOutcomes","matchType","corrResp","arrayDur","targFace","targCol","targOutcome","trialType","corr"
"pavlovia","0","2","0.0-0.0","640feb5e49b723bcfaad6437","bdp_wmem","Tue Mar 14 2023 13:54:36 GMT-0400 (Eastern Daylight Time)","571723","Match,No Match","","","","","","","","","","","","","","","","","","","","",""
"instructions","1","1106","0.0-1.0","640feb5e49b723bcfaad6437","bdp_wmem","Tue Mar 14 2023 13:54:36 GMT-0400 (Eastern Daylight Time)","571723","Match,No Match","[{""page_index"":0,""viewing_time"":1104}]","1104","","","","","","","","","","","","","","","","","","",""
"","","","","640feb5e49b723bcfaad6437","bdp_wmem","Tue Mar 14 2023 13:54:36 GMT-0400 (Eastern Daylight Time)","571723","Match,No Match","","","fullscreenenter","2","3505","fullscreenenter","","","","","","","","","","","","","","",""
"fullscreen","2","4494","0.0-2.0","640feb5e49b723bcfaad6437","bdp_wmem","Tue Mar 14 2023 13:54:36 GMT-0400 (Eastern Daylight Time)","571723","Match,No Match","","","","","","","true","","","","","","","","","","","","","",""
"instructions","3","74277","0.0-4.0","640feb5e49b723bcfaad6437","bdp_wmem","Tue Mar 14 2023 13:54:36 GMT-0400 (Eastern Daylight Time)","571723","Match,No Match","[{""page_index"":0,""viewing_time"":21167},{""page_index"":1,""viewing_time"":33594},{""page_index"":2,""viewing_time"":8192},{""page_index"":3,""viewing_time"":2184},{""page_index"":4,""viewing_time"":4645}]","69782","","","","","","","","","","","","","","","","","","",""
"html-keyboard-response","4","74783","0.0-5.0-1.0","640feb5e49b723bcfaad6437","bdp_wmem","Tue Mar 14 2023 13:54:36 GMT-0400 (Eastern Daylight Time)","571723","Match,No Match","","null","","","","","","<div class='trialBorder'><div class='vertical-center'><img src='img/fixation2_sml.jpg'</img></div></div>","null","FIX","","","","","","","","","","",""
"html-keyboard-response","5","77788","0.0-5.0-2.0","640feb5e49b723bcfaad6437","bdp_wmem","Tue Mar 14 2023 13:54:36 GMT-0400 (Eastern Daylight Time)","571723","Match,No Match","","null","","","","","","<div class='trialBorder'><div class='vertical-center'><img style='vertical-align:center; align:center' src='img/fixation2_sml.jpg'></div><div class='arrayDiv2'><div class='tl'><img class='introPic' src='trustrating_stim/white_mw013.bmp'><br><font color='red'><strong>Keep</strong></font></div><div class='tr'><img class='introPic' src='trustrating_stim/white_mw042.bmp'><br><font color='green'><strong>Share</strong></font></div></div></div>","null","ARRAY","2","trustrating_stim/white_mw013.bmp,trustrating_stim/white_mw042.bmp","0,1","noMatchFace","i","3000","","","","",""
"html-keyboard-response","6","81798","0.0-5.0-3.0","640feb5e49b723bcfaad6437","bdp_wmem","Tue Mar 14 2023 13:54:36 GMT-0400 (Eastern Daylight Time)","571723","Match,No Match","","null","","","","","","<div class='trialBorder'><div class='vertical-center'><img src='img/fixation2_sml.jpg'</img></div></div>","null","DELAY","","","","","","","","","","",""
"html-keyboard-response","7","83280","0.0-5.0-4.0","640feb5e49b723bcfaad6437","bdp_wmem","Tue Mar 14 2023 13:54:36 GMT-0400 (Eastern Daylight Time)","571723","Match,No Match","","1479","","","","","","<div class='trialBorder'><div class='targDiv'><div class='tc'><img class='introPic' src='trustrating_stim/white_mw040.bmp'><br><font color='green'><strong>Share</strong></font></div></div><div class='respDiv'><div class='respDivL'>Match<br>(e)</div><div class='respDivR'>No Match<br>(i)</div></div></div>","i","TARGET","2","trustrating_stim/white_mw013.bmp,trustrating_stim/white_mw042.bmp","0,1","noMatchFace","i","3000","trustrating_stim/white_mw040.bmp","green","Share","PRACTICE","1"
"html-keyboard-response","8","83789","0.0-5.0-5.0","640feb5e49b723bcfaad6437","bdp_wmem","Tue Mar 14 2023 13:54:36 GMT-0400 (Eastern Daylight Time)","571723","Match,No Match","","null","","","","","","<div class='trialBorder'><div class='vertical-center'><img src='img/correct.jpg'></div><div class='respDiv'><div class='respDivL'>Match<br>(e)</div><div class='respDivR'><font style='color:orange'>No Match<br>(i)</font></div></div></div>","null","FEEDBACK","","","","","","","","","","",""
"html-keyboard-response","9","84294","0.0-5.0-1.1","640feb5e49b723bcfaad6437","bdp_wmem","Tue Mar 14 2023 13:54:36 GMT-0400 (Eastern Daylight Time)","571723","Match,No Match","","null","","","","","","<div class='trialBorder'><div class='vertical-center'><img src='img/fixation2_sml.jpg'</img></div></div>","null","FIX","","","","","","","","","","",""
"html-keyboard-response","10","88806","0.0-5.0-2.1","640feb5e49b723bcfaad6437","bdp_wmem","Tue Mar 14 2023 13:54:36 GMT-0400 (Eastern Daylight Time)","571723","Match,No Match","","null","","","","","","<div class='trialBorder'><div class='vertical-center'><img style='vertical-align:center; align:center' src='img/fixation2_sml.jpg'></div><div class='arrayDiv3'><div class='tl'><img class='introPic' src='trustrating_stim/white_mw038.bmp'><br><font color='red'><strong>Keep</strong></font></div><div class='tc'><img class='introPic' src='trustrating_stim/white_mw042.bmp'><br><font color='green'><strong>Share</strong></font></div><div class='tr'><img class='introPic' src='trustrating_stim/white_mw003.bmp'><br><font color='red'><strong>Keep</strong></font></div></div></div>","null","ARRAY","3","trustrating_stim/white_mw038.bmp,trustrating_stim/white_mw042.bmp,trustrating_stim/white_mw003.bmp","0,1,0","Match","e","4500","","","","",""
"html-keyboard-response","11","92816","0.0-5.0-3.1","640feb5e49b723bcfaad6437","bdp_wmem","Tue Mar 14 2023 13:54:36 GMT-0400 (Eastern Daylight Time)","571723","Match,No Match","","null","","","","","","<div class='trialBorder'><div class='vertical-center'><img src='img/fixation2_sml.jpg'</img></div></div>","null","DELAY","","","","","","","","","","",""
"html-keyboard-response","12","94432","0.0-5.0-4.1","640feb5e49b723bcfaad6437","bdp_wmem","Tue Mar 14 2023 13:54:36 GMT-0400 (Eastern Daylight Time)","571723","Match,No Match","","1613","","","","","","<div class='trialBorder'><div class='targDiv'><div class='tc'><img class='introPic' src='trustrating_stim/white_mw038.bmp'><br><font color='red'><strong>Keep</strong></font></div></div><div class='respDiv'><div class='respDivL'>Match<br>(e)</div><div class='respDivR'>No Match<br>(i)</div></div></div>","e","TARGET","3","trustrating_stim/white_mw038.bmp,trustrating_stim/white_mw042.bmp,trustrating_stim/white_mw003.bmp","0,1,0","Match","e","4500","trustrating_stim/white_mw038.bmp","red","Keep","PRACTICE","1"
"html-keyboard-response","13","94941","0.0-5.0-5.1","640feb5e49b723bcfaad6437","bdp_wmem","Tue Mar 14 2023 13:54:36 GMT-0400 (Eastern Daylight Time)","571723","Match,No Match","","null","","","","","","<div class='trialBorder'><div class='vertical-center'><img src='img/correct.jpg'></div><div class='respDiv'><div class='respDivL'><font style='color:orange'>Match<br>(e)</font></div><div class='respDivR'>No Match<br>(i)</div></div></div>","null","FEEDBACK","","","","","","","","","","",""
"html-keyboard-response","14","95446","0.0-5.0-1.2","640feb5e49b723bcfaad6437","bdp_wmem","Tue Mar 14 2023 13:54:36 GMT-0400 (Eastern Daylight Time)","571723","Match,No Match","","null","","","","","","<div class='trialBorder'><div class='vertical-center'><img src='img/fixation2_sml.jpg'</img></div></div>","null","FIX","","","","","","","","","","",""
"html-keyboard-response","15","96957","0.0-5.0-2.2","640feb5e49b723bcfaad6437","bdp_wmem","Tue Mar 14 2023 13:54:36 GMT-0400 (Eastern Daylight Time)","571723","Match,No Match","","null","","","","","","<div class='trialBorder'><div class='vertical-center'><img style='vertical-align:center; align:center' src='img/fixation2_sml.jpg'></div><div class='arrayDiv1'><div class='tc'><img class='introPic' src='trustrating_stim/white_mw013.bmp'><br><font color='red'><strong>Keep</strong></font></div></div></div>","null","ARRAY","1","trustrating_stim/white_mw013.bmp","0","Match","e","1500","","","","",""
"html-keyboard-response","16","100966","0.0-5.0-3.2","640feb5e49b723bcfaad6437","bdp_wmem","Tue Mar 14 2023 13:54:36 GMT-0400 (Eastern Daylight Time)","571723","Match,No Match","","null","","","","","","<div class='trialBorder'><div class='vertical-center'><img src='img/fixation2_sml.jpg'</img></div></div>","null","DELAY","","","","","","","","","","",""
"html-keyboard-response","17","103591","0.0-5.0-4.2","640feb5e49b723bcfaad6437","bdp_wmem","Tue Mar 14 2023 13:54:36 GMT-0400 (Eastern Daylight Time)","571723","Match,No Match","","2623","","","","","","<div class='trialBorder'><div class='targDiv'><div class='tc'><img class='introPic' src='trustrating_stim/white_mw013.bmp'><br><font color='red'><strong>Keep</strong></font></div></div><div class='respDiv'><div class='respDivL'>Match<br>(e)</div><div class='respDivR'>No Match<br>(i)</div></div></div>","e","TARGET","1","trustrating_stim/white_mw013.bmp","0","Match","e","1500","trustrating_stim/white_mw013.bmp","red","Keep","PRACTICE","1"
"html-keyboard-response","18","104094","0.0-5.0-5.2","640feb5e49b723bcfaad6437","bdp_wmem","Tue Mar 14 2023 13:54:36 GMT-0400 (Eastern Daylight Time)","571723","Match,No Match","","null","","","","","","<div class='trialBorder'><div class='vertical-center'><img src='img/correct.jpg'></div><div class='respDiv'><div class='respDivL'><font style='color:orange'>Match<br>(e)</font></div><div class='respDivR'>No Match<br>(i)</div></div></div>","null","FEEDBACK","","","","","","","","","","",""
"html-keyboard-response","19","104600","0.0-5.0-1.3","640feb5e49b723bcfaad6437","bdp_wmem","Tue Mar 14 2023 13:54:36 GMT-0400 (Eastern Daylight Time)","571723","Match,No Match","","null","","","","","","<div class='trialBorder'><div class='vertical-center'><img src='img/fixation2_sml.jpg'</img></div></div>","null","FIX","","","","","","","","","","",""
"html-keyboard-response","20","106109","0.0-5.0-2.3","640feb5e49b723bcfaad6437","bdp_wmem","Tue Mar 14 2023 13:54:36 GMT-0400 (Eastern Daylight Time)","571723","Match,No Match","","null","","","","","","<div class='trialBorder'><div class='vertical-center'><img style='vertical-align:center; align:center' src='img/fixation2_sml.jpg'></div><div class='arrayDiv1'><div class='tc'><img class='introPic' src='trustrating_stim/white_mw040.bmp'><br><font color='red'><strong>Keep</strong></font></div></div></div>","null","ARRAY","1","trustrating_stim/white_mw040.bmp","0","noMatchFace","i","1500","","","","",""
"html-keyboard-response","21","110120","0.0-5.0-3.3","640feb5e49b723bcfaad6437","bdp_wmem","Tue Mar 14 2023 13:54:36 GMT-0400 (Eastern Daylight Time)","571723","Match,No Match","","null","","","","","","<div class='trialBorder'><div class='vertical-center'><img src='img/fixation2_sml.jpg'</img></div></div>","null","DELAY","","","","","","","","","","",""
"html-keyboard-response","22","111249","0.0-5.0-4.3","640feb5e49b723bcfaad6437","bdp_wmem","Tue Mar 14 2023 13:54:36 GMT-0400 (Eastern Daylight Time)","571723","Match,No Match","","1126","","","","","","<div class='trialBorder'><div class='targDiv'><div class='tc'><img class='introPic' src='trustrating_stim/white_mw012.bmp'><br><font color='red'><strong>Keep</strong></font></div></div><div class='respDiv'><div class='respDivL'>Match<br>(e)</div><div class='respDivR'>No Match<br>(i)</div></div></div>","i","TARGET","1","trustrating_stim/white_mw040.bmp","0","noMatchFace","i","1500","trustrating_stim/white_mw012.bmp","red","Keep","PRACTICE","1"
"html-keyboard-response","23","111758","0.0-5.0-5.3","640feb5e49b723bcfaad6437","bdp_wmem","Tue Mar 14 2023 13:54:36 GMT-0400 (Eastern Daylight Time)","571723","Match,No Match","","null","","","","","","<div class='trialBorder'><div class='vertical-center'><img src='img/correct.jpg'></div><div class='respDiv'><div class='respDivL'>Match<br>(e)</div><div class='respDivR'><font style='color:orange'>No Match<br>(i)</font></div></div></div>","null","FEEDBACK","","","","","","","","","","",""
"html-keyboard-response","24","112264","0.0-5.0-1.4","640feb5e49b723bcfaad6437","bdp_wmem","Tue Mar 14 2023 13:54:36 GMT-0400 (Eastern Daylight Time)","571723","Match,No Match","","null","","","","","","<div class='trialBorder'><div class='vertical-center'><img src='img/fixation2_sml.jpg'</img></div></div>","null","FIX","","","","","","","","","","",""
"html-keyboard-response","25","116776","0.0-5.0-2.4","640feb5e49b723bcfaad6437","bdp_wmem","Tue Mar 14 2023 13:54:36 GMT-0400 (Eastern Daylight Time)","571723","Match,No Match","","null","","","","","","<div class='trialBorder'><div class='vertical-center'><img style='vertical-align:center; align:center' src='img/fixation2_sml.jpg'></div><div class='arrayDiv3'><div class='tl'><img class='introPic' src='trustrating_stim/white_mw013.bmp'><br><font color='green'><strong>Share</strong></font></div><div class='tc'><img class='introPic' src='trustrating_stim/white_mw078.bmp'><br><font color='green'><strong>Share</strong></font></div><div class='tr'><img class='introPic' src='trustrating_stim/white_mw042.bmp'><br><font color='red'><strong>Keep</strong></font></div></div></div>","null","ARRAY","3","trustrating_stim/white_mw013.bmp,trustrating_stim/white_mw078.bmp,trustrating_stim/white_mw042.bmp","1,1,0","noMatchOutcome","i","4500","","","","",""
"html-keyboard-response","26","120785","0.0-5.0-3.4","640feb5e49b723bcfaad6437","bdp_wmem","Tue Mar 14 2023 13:54:36 GMT-0400 (Eastern Daylight Time)","571723","Match,No Match","","null","","","","","","<div class='trialBorder'><div class='vertical-center'><img src='img/fixation2_sml.jpg'</img></div></div>","null","DELAY","","","","","","","","","","",""
"html-keyboard-response","27","123088","0.0-5.0-4.4","640feb5e49b723bcfaad6437","bdp_wmem","Tue Mar 14 2023 13:54:36 GMT-0400 (Eastern Daylight Time)","571723","Match,No Match","","2301","","","","","","<div class='trialBorder'><div class='targDiv'><div class='tc'><img class='introPic' src='trustrating_stim/white_mw013.bmp'><br><font color='red'><strong>Keep</strong></font></div></div><div class='respDiv'><div class='respDivL'>Match<br>(e)</div><div class='respDivR'>No Match<br>(i)</div></div></div>","e","TARGET","3","trustrating_stim/white_mw013.bmp,trustrating_stim/white_mw078.bmp,trustrating_stim/white_mw042.bmp","1,1,0","noMatchOutcome","i","4500","trustrating_stim/white_mw013.bmp","red","Keep","PRACTICE","0"
"html-keyboard-response","28","123598","0.0-5.0-5.4","640feb5e49b723bcfaad6437","bdp_wmem","Tue Mar 14 2023 13:54:36 GMT-0400 (Eastern Daylight Time)","571723","Match,No Match","","null","","","","","","<div class='trialBorder'><div class='vertical-center'><img src='img/error.jpg'></div><div class='respDiv'><div class='respDivL'><font style='color:orange'>Match<br>(e)</font></div><div class='respDivR'>No Match<br>(i)</div></div></div>","null","FEEDBACK","","","","","","","","","","",""
"html-keyboard-response","29","124102","0.0-5.0-1.5","640feb5e49b723bcfaad6437","bdp_wmem","Tue Mar 14 2023 13:54:36 GMT-0400 (Eastern Daylight Time)","571723","Match,No Match","","null","","","","","","<div class='trialBorder'><div class='vertical-center'><img src='img/fixation2_sml.jpg'</img></div></div>","null","FIX","","","","","","","","","","",""
"html-keyboard-response","30","127113","0.0-5.0-2.5","640feb5e49b723bcfaad6437","bdp_wmem","Tue Mar 14 2023 13:54:36 GMT-0400 (Eastern Daylight Time)","571723","Match,No Match","","null","","","","","","<div class='trialBorder'><div class='vertical-center'><img style='vertical-align:center; align:center' src='img/fixation2_sml.jpg'></div><div class='arrayDiv2'><div class='tl'><img class='introPic' src='trustrating_stim/white_mw012.bmp'><br><font color='red'><strong>Keep</strong></font></div><div class='tr'><img class='introPic' src='trustrating_stim/white_mw010.bmp'><br><font color='green'><strong>Share</strong></font></div></div></div>","null","ARRAY","2","trustrating_stim/white_mw012.bmp,trustrating_stim/white_mw010.bmp","0,1","Match","e","3000","","","","",""
"html-keyboard-response","31","131117","0.0-5.0-3.5","640feb5e49b723bcfaad6437","bdp_wmem","Tue Mar 14 2023 13:54:36 GMT-0400 (Eastern Daylight Time)","571723","Match,No Match","","null","","","","","","<div class='trialBorder'><div class='vertical-center'><img src='img/fixation2_sml.jpg'</img></div></div>","null","DELAY","","","","","","","","","","",""
"html-keyboard-response","32","132697","0.0-5.0-4.5","640feb5e49b723bcfaad6437","bdp_wmem","Tue Mar 14 2023 13:54:36 GMT-0400 (Eastern Daylight Time)","571723","Match,No Match","","1576","","","","","","<div class='trialBorder'><div class='targDiv'><div class='tc'><img class='introPic' src='trustrating_stim/white_mw012.bmp'><br><font color='red'><strong>Keep</strong></font></div></div><div class='respDiv'><div class='respDivL'>Match<br>(e)</div><div class='respDivR'>No Match<br>(i)</div></div></div>","e","TARGET","2","trustrating_stim/white_mw012.bmp,trustrating_stim/white_mw010.bmp","0,1","Match","e","3000","trustrating_stim/white_mw012.bmp","red","Keep","PRACTICE","1"
"html-keyboard-response","33","133208","0.0-5.0-5.5","640feb5e49b723bcfaad6437","bdp_wmem","Tue Mar 14 2023 13:54:36 GMT-0400 (Eastern Daylight Time)","571723","Match,No Match","","null","","","","","","<div class='trialBorder'><div class='vertical-center'><img src='img/correct.jpg'></div><div class='respDiv'><div class='respDivL'><font style='color:orange'>Match<br>(e)</font></div><div class='respDivR'>No Match<br>(i)</div></div></div>","null","FEEDBACK","","","","","","","","","","",""
"instructions","34","136065","0.0-6.0","640feb5e49b723bcfaad6437","bdp_wmem","Tue Mar 14 2023 13:54:36 GMT-0400 (Eastern Daylight Time)","571723","Match,No Match","[{""page_index"":0,""viewing_time"":2856}]","2856","","","","","","","","","","","","","","","","","","",""
"html-keyboard-response","35","136574","0.0-7.0-1.0","640feb5e49b723bcfaad6437","bdp_wmem","Tue Mar 14 2023 13:54:36 GMT-0400 (Eastern Daylight Time)","571723","Match,No Match","","null","","","","","","<div class='trialBorder'><div class='vertical-center'><img src='img/fixation2_sml.jpg'</img></div></div>","null","FIX","","","","","","","","","","",""
"html-keyboard-response","36","139582","0.0-7.0-2.0","640feb5e49b723bcfaad6437","bdp_wmem","Tue Mar 14 2023 13:54:36 GMT-0400 (Eastern Daylight Time)","571723","Match,No Match","","null","","","","","","<div class='trialBorder'><div class='vertical-center'><img style='vertical-align:center; align:center' src='img/fixation2_sml.jpg'></div><div class='arrayDiv2'><div class='tl'><img class='introPic' src='trustrating_stim/white_mw085.bmp'><br><font color='red'><strong>Keep</strong></font></div><div class='tr'><img class='introPic' src='trustrating_stim/white_mw010.bmp'><br><font color='green'><strong>Share</strong></font></div></div></div>","null","ARRAY","2","trustrating_stim/white_mw085.bmp,trustrating_stim/white_mw010.bmp","0,1","noMatchOutcome","i","3000","","","","",""
"html-keyboard-response","37","143593","0.0-7.0-3.0","640feb5e49b723bcfaad6437","bdp_wmem","Tue Mar 14 2023 13:54:36 GMT-0400 (Eastern Daylight Time)","571723","Match,No Match","","null","","","","","","<div class='trialBorder'><div class='vertical-center'><img src='img/fixation2_sml.jpg'</img></div></div>","null","DELAY","","","","","","","","","","",""
"html-keyboard-response","38","144702","0.0-7.0-4.0","640feb5e49b723bcfaad6437","bdp_wmem","Tue Mar 14 2023 13:54:36 GMT-0400 (Eastern Daylight Time)","571723","Match,No Match","","1106","","","","","","<div class='trialBorder'><div class='targDiv'><div class='tc'><img class='introPic' src='trustrating_stim/white_mw085.bmp'><br><font color='green'><strong>Share</strong></font></div></div><div class='respDiv'><div class='respDivL'>Match<br>(e)</div><div class='respDivR'>No Match<br>(i)</div></div></div>","i","TARGET","2","trustrating_stim/white_mw085.bmp,trustrating_stim/white_mw010.bmp","0,1","noMatchOutcome","i","3000","trustrating_stim/white_mw085.bmp","green","Share","REAL","1"
"html-keyboard-response","39","145207","0.0-7.0-5.0","640feb5e49b723bcfaad6437","bdp_wmem","Tue Mar 14 2023 13:54:36 GMT-0400 (Eastern Daylight Time)","571723","Match,No Match","","null","","","","","","<div class='trialBorder'><div class='vertical-center'><img src='img/correct.jpg'></div><div class='respDiv'><div class='respDivL'>Match<br>(e)</div><div class='respDivR'><font style='color:orange'>No Match<br>(i)</font></div></div></div>","null","FEEDBACK","","","","","","","","","","",""
"html-keyboard-response","40","145712","0.0-7.0-1.1","640feb5e49b723bcfaad6437","bdp_wmem","Tue Mar 14 2023 13:54:36 GMT-0400 (Eastern Daylight Time)","571723","Match,No Match","","null","","","","","","<div class='trialBorder'><div class='vertical-center'><img src='img/fixation2_sml.jpg'</img></div></div>","null","FIX","","","","","","","","","","",""
"html-keyboard-response","41","147222","0.0-7.0-2.1","640feb5e49b723bcfaad6437","bdp_wmem","Tue Mar 14 2023 13:54:36 GMT-0400 (Eastern Daylight Time)","571723","Match,No Match","","null","","","","","","<div class='trialBorder'><div class='vertical-center'><img style='vertical-align:center; align:center' src='img/fixation2_sml.jpg'></div><div class='arrayDiv1'><div class='tc'><img class='introPic' src='trustrating_stim/white_mw078.bmp'><br><font color='red'><strong>Keep</strong></font></div></div></div>","null","ARRAY","1","trustrating_stim/white_mw078.bmp","0","Match","e","1500","","","","",""
"html-keyboard-response","42","151233","0.0-7.0-3.1","640feb5e49b723bcfaad6437","bdp_wmem","Tue Mar 14 2023 13:54:36 GMT-0400 (Eastern Daylight Time)","571723","Match,No Match","","null","","","","","","<div class='trialBorder'><div class='vertical-center'><img src='img/fixation2_sml.jpg'</img></div></div>","null","DELAY","","","","","","","","","","",""
"html-keyboard-response","43","152148","0.0-7.0-4.1","640feb5e49b723bcfaad6437","bdp_wmem","Tue Mar 14 2023 13:54:36 GMT-0400 (Eastern Daylight Time)","571723","Match,No Match","","913","","","","","","<div class='trialBorder'><div class='targDiv'><div class='tc'><img class='introPic' src='trustrating_stim/white_mw078.bmp'><br><font color='red'><strong>Keep</strong></font></div></div><div class='respDiv'><div class='respDivL'>Match<br>(e)</div><div class='respDivR'>No Match<br>(i)</div></div></div>","e","TARGET","1","trustrating_stim/white_mw078.bmp","0","Match","e","1500","trustrating_stim/white_mw078.bmp","red","Keep","REAL","1"
"html-keyboard-response","44","152655","0.0-7.0-5.1","640feb5e49b723bcfaad6437","bdp_wmem","Tue Mar 14 2023 13:54:36 GMT-0400 (Eastern Daylight Time)","571723","Match,No Match","","null","","","","","","<div class='trialBorder'><div class='vertical-center'><img src='img/correct.jpg'></div><div class='respDiv'><div class='respDivL'><font style='color:orange'>Match<br>(e)</font></div><div class='respDivR'>No Match<br>(i)</div></div></div>","null","FEEDBACK","","","","","","","","","","",""
"html-keyboard-response","45","153160","0.0-7.0-1.2","640feb5e49b723bcfaad6437","bdp_wmem","Tue Mar 14 2023 13:54:36 GMT-0400 (Eastern Daylight Time)","571723","Match,No Match","","null","","","","","","<div class='trialBorder'><div class='vertical-center'><img src='img/fixation2_sml.jpg'</img></div></div>","null","FIX","","","","","","","","","","",""
"html-keyboard-response","46","157670","0.0-7.0-2.2","640feb5e49b723bcfaad6437","bdp_wmem","Tue Mar 14 2023 13:54:36 GMT-0400 (Eastern Daylight Time)","571723","Match,No Match","","null","","","","","","<div class='trialBorder'><div class='vertical-center'><img style='vertical-align:center; align:center' src='img/fixation2_sml.jpg'></div><div class='arrayDiv3'><div class='tl'><img class='introPic' src='trustrating_stim/white_mw078.bmp'><br><font color='red'><strong>Keep</strong></font></div><div class='tc'><img class='introPic' src='trustrating_stim/white_mw091.bmp'><br><font color='red'><strong>Keep</strong></font></div><div class='tr'><img class='introPic' src='trustrating_stim/white_mw042.bmp'><br><font color='green'><strong>Share</strong></font></div></div></div>","null","ARRAY","3","trustrating_stim/white_mw078.bmp,trustrating_stim/white_mw091.bmp,trustrating_stim/white_mw042.bmp","0,0,1","noMatchOutcome","i","4500","","","","",""
"html-keyboard-response","47","161678","0.0-7.0-3.2","640feb5e49b723bcfaad6437","bdp_wmem","Tue Mar 14 2023 13:54:36 GMT-0400 (Eastern Daylight Time)","571723","Match,No Match","","null","","","","","","<div class='trialBorder'><div class='vertical-center'><img src='img/fixation2_sml.jpg'</img></div></div>","null","DELAY","","","","","","","","","","",""
"html-keyboard-response","48","164497","0.0-7.0-4.2","640feb5e49b723bcfaad6437","bdp_wmem","Tue Mar 14 2023 13:54:36 GMT-0400 (Eastern Daylight Time)","571723","Match,No Match","","2815","","","","","","<div class='trialBorder'><div class='targDiv'><div class='tc'><img class='introPic' src='trustrating_stim/white_mw091.bmp'><br><font color='green'><strong>Share</strong></font></div></div><div class='respDiv'><div class='respDivL'>Match<br>(e)</div><div class='respDivR'>No Match<br>(i)</div></div></div>","e","TARGET","3","trustrating_stim/white_mw078.bmp,trustrating_stim/white_mw091.bmp,trustrating_stim/white_mw042.bmp","0,0,1","noMatchOutcome","i","4500","trustrating_stim/white_mw091.bmp","green","Share","REAL","0"
"html-keyboard-response","49","165009","0.0-7.0-5.2","640feb5e49b723bcfaad6437","bdp_wmem","Tue Mar 14 2023 13:54:36 GMT-0400 (Eastern Daylight Time)","571723","Match,No Match","","null","","","","","","<div class='trialBorder'><div class='vertical-center'><img src='img/error.jpg'></div><div class='respDiv'><div class='respDivL'><font style='color:orange'>Match<br>(e)</font></div><div class='respDivR'>No Match<br>(i)</div></div></div>","null","FEEDBACK","","","","","","","","","","",""
"html-keyboard-response","50","165519","0.0-7.0-1.3","640feb5e49b723bcfaad6437","bdp_wmem","Tue Mar 14 2023 13:54:36 GMT-0400 (Eastern Daylight Time)","571723","Match,No Match","","null","","","","","","<div class='trialBorder'><div class='vertical-center'><img src='img/fixation2_sml.jpg'</img></div></div>","null","FIX","","","","","","","","","","",""
"html-keyboard-response","51","170029","0.0-7.0-2.3","640feb5e49b723bcfaad6437","bdp_wmem","Tue Mar 14 2023 13:54:36 GMT-0400 (Eastern Daylight Time)","571723","Match,No Match","","null","","","","","","<div class='trialBorder'><div class='vertical-center'><img style='vertical-align:center; align:center' src='img/fixation2_sml.jpg'></div><div class='arrayDiv3'><div class='tl'><img class='introPic' src='trustrating_stim/white_mw012.bmp'><br><font color='green'><strong>Share</strong></font></div><div class='tc'><img class='introPic' src='trustrating_stim/white_mw010.bmp'><br><font color='green'><strong>Share</strong></font></div><div class='tr'><img class='introPic' src='trustrating_stim/white_mw038.bmp'><br><font color='red'><strong>Keep</strong></font></div></div></div>","null","ARRAY","3","trustrating_stim/white_mw012.bmp,trustrating_stim/white_mw010.bmp,trustrating_stim/white_mw038.bmp","1,1,0","noMatchFace","i","4500","","","","",""
"html-keyboard-response","52","174041","0.0-7.0-3.3","640feb5e49b723bcfaad6437","bdp_wmem","Tue Mar 14 2023 13:54:36 GMT-0400 (Eastern Daylight Time)","571723","Match,No Match","","null","","","","","","<div class='trialBorder'><div class='vertical-center'><img src='img/fixation2_sml.jpg'</img></div></div>","null","DELAY","","","","","","","","","","",""
"html-keyboard-response","53","175146","0.0-7.0-4.3","640feb5e49b723bcfaad6437","bdp_wmem","Tue Mar 14 2023 13:54:36 GMT-0400 (Eastern Daylight Time)","571723","Match,No Match","","1103","","","","","","<div class='trialBorder'><div class='targDiv'><div class='tc'><img class='introPic' src='trustrating_stim/white_mw085.bmp'><br><font color='green'><strong>Share</strong></font></div></div><div class='respDiv'><div class='respDivL'>Match<br>(e)</div><div class='respDivR'>No Match<br>(i)</div></div></div>","i","TARGET","3","trustrating_stim/white_mw012.bmp,trustrating_stim/white_mw010.bmp,trustrating_stim/white_mw038.bmp","1,1,0","noMatchFace","i","4500","trustrating_stim/white_mw085.bmp","green","Share","REAL","1"
"html-keyboard-response","54","175655","0.0-7.0-5.3","640feb5e49b723bcfaad6437","bdp_wmem","Tue Mar 14 2023 13:54:36 GMT-0400 (Eastern Daylight Time)","571723","Match,No Match","","null","","","","","","<div class='trialBorder'><div class='vertical-center'><img src='img/correct.jpg'></div><div class='respDiv'><div class='respDivL'>Match<br>(e)</div><div class='respDivR'><font style='color:orange'>No Match<br>(i)</font></div></div></div>","null","FEEDBACK","","","","","","","","","","",""
"html-keyboard-response","55","176160","0.0-7.0-1.4","640feb5e49b723bcfaad6437","bdp_wmem","Tue Mar 14 2023 13:54:36 GMT-0400 (Eastern Daylight Time)","571723","Match,No Match","","null","","","","","","<div class='trialBorder'><div class='vertical-center'><img src='img/fixation2_sml.jpg'</img></div></div>","null","FIX","","","","","","","","","","",""
"html-keyboard-response","56","177669","0.0-7.0-2.4","640feb5e49b723bcfaad6437","bdp_wmem","Tue Mar 14 2023 13:54:36 GMT-0400 (Eastern Daylight Time)","571723","Match,No Match","","null","","","","","","<div class='trialBorder'><div class='vertical-center'><img style='vertical-align:center; align:center' src='img/fixation2_sml.jpg'></div><div class='arrayDiv1'><div class='tc'><img class='introPic' src='trustrating_stim/white_mw042.bmp'><br><font color='red'><strong>Keep</strong></font></div></div></div>","null","ARRAY","1","trustrating_stim/white_mw042.bmp","0","noMatchFace","i","1500","","","","",""
"html-keyboard-response","57","181680","0.0-7.0-3.4","640feb5e49b723bcfaad6437","bdp_wmem","Tue Mar 14 2023 13:54:36 GMT-0400 (Eastern Daylight Time)","571723","Match,No Match","","null","","","","","","<div class='trialBorder'><div class='vertical-center'><img src='img/fixation2_sml.jpg'</img></div></div>","null","DELAY","","","","","","","","","","",""
"html-keyboard-response","58","182523","0.0-7.0-4.4","640feb5e49b723bcfaad6437","bdp_wmem","Tue Mar 14 2023 13:54:36 GMT-0400 (Eastern Daylight Time)","571723","Match,No Match","","840","","","","","","<div class='trialBorder'><div class='targDiv'><div class='tc'><img class='introPic' src='trustrating_stim/white_mw085.bmp'><br><font color='red'><strong>Keep</strong></font></div></div><div class='respDiv'><div class='respDivL'>Match<br>(e)</div><div class='respDivR'>No Match<br>(i)</div></div></div>","i","TARGET","1","trustrating_stim/white_mw042.bmp","0","noMatchFace","i","1500","trustrating_stim/white_mw085.bmp","red","Keep","REAL","1"
"html-keyboard-response","59","183033","0.0-7.0-5.4","640feb5e49b723bcfaad6437","bdp_wmem","Tue Mar 14 2023 13:54:36 GMT-0400 (Eastern Daylight Time)","571723","Match,No Match","","null","","","","","","<div class='trialBorder'><div class='vertical-center'><img src='img/correct.jpg'></div><div class='respDiv'><div class='respDivL'>Match<br>(e)</div><div class='respDivR'><font style='color:orange'>No Match<br>(i)</font></div></div></div>","null","FEEDBACK","","","","","","","","","","",""
"html-keyboard-response","60","183543","0.0-7.0-1.5","640feb5e49b723bcfaad6437","bdp_wmem","Tue Mar 14 2023 13:54:36 GMT-0400 (Eastern Daylight Time)","571723","Match,No Match","","null","","","","","","<div class='trialBorder'><div class='vertical-center'><img src='img/fixation2_sml.jpg'</img></div></div>","null","FIX","","","","","","","","","","",""
"html-keyboard-response","61","186551","0.0-7.0-2.5","640feb5e49b723bcfaad6437","bdp_wmem","Tue Mar 14 2023 13:54:36 GMT-0400 (Eastern Daylight Time)","571723","Match,No Match","","null","","","","","","<div class='trialBorder'><div class='vertical-center'><img style='vertical-align:center; align:center' src='img/fixation2_sml.jpg'></div><div class='arrayDiv2'><div class='tl'><img class='introPic' src='trustrating_stim/white_mw038.bmp'><br><font color='green'><strong>Share</strong></font></div><div class='tr'><img class='introPic' src='trustrating_stim/white_mw092.bmp'><br><font color='red'><strong>Keep</strong></font></div></div></div>","null","ARRAY","2","trustrating_stim/white_mw038.bmp,trustrating_stim/white_mw092.bmp","1,0","noMatchFace","i","3000","","","","",""
"html-keyboard-response","62","190561","0.0-7.0-3.5","640feb5e49b723bcfaad6437","bdp_wmem","Tue Mar 14 2023 13:54:36 GMT-0400 (Eastern Daylight Time)","571723","Match,No Match","","null","","","","","","<div class='trialBorder'><div class='vertical-center'><img src='img/fixation2_sml.jpg'</img></div></div>","null","DELAY","","","","","","","","","","",""
"html-keyboard-response","63","191574","0.0-7.0-4.5","640feb5e49b723bcfaad6437","bdp_wmem","Tue Mar 14 2023 13:54:36 GMT-0400 (Eastern Daylight Time)","571723","Match,No Match","","1010","","","","","","<div class='trialBorder'><div class='targDiv'><div class='tc'><img class='introPic' src='trustrating_stim/white_mw003.bmp'><br><font color='green'><strong>Share</strong></font></div></div><div class='respDiv'><div class='respDivL'>Match<br>(e)</div><div class='respDivR'>No Match<br>(i)</div></div></div>","i","TARGET","2","trustrating_stim/white_mw038.bmp,trustrating_stim/white_mw092.bmp","1,0","noMatchFace","i","3000","trustrating_stim/white_mw003.bmp","green","Share","REAL","1"
"html-keyboard-response","64","192078","0.0-7.0-5.5","640feb5e49b723bcfaad6437","bdp_wmem","Tue Mar 14 2023 13:54:36 GMT-0400 (Eastern Daylight Time)","571723","Match,No Match","","null","","","","","","<div class='trialBorder'><div class='vertical-center'><img src='img/correct.jpg'></div><div class='respDiv'><div class='respDivL'>Match<br>(e)</div><div class='respDivR'><font style='color:orange'>No Match<br>(i)</font></div></div></div>","null","FEEDBACK","","","","","","","","","","",""
"html-keyboard-response","65","192585","0.0-7.0-1.6","640feb5e49b723bcfaad6437","bdp_wmem","Tue Mar 14 2023 13:54:36 GMT-0400 (Eastern Daylight Time)","571723","Match,No Match","","null","","","","","","<div class='trialBorder'><div class='vertical-center'><img src='img/fixation2_sml.jpg'</img></div></div>","null","FIX","","","","","","","","","","",""
"html-keyboard-response","66","197098","0.0-7.0-2.6","640feb5e49b723bcfaad6437","bdp_wmem","Tue Mar 14 2023 13:54:36 GMT-0400 (Eastern Daylight Time)","571723","Match,No Match","","null","","","","","","<div class='trialBorder'><div class='vertical-center'><img style='vertical-align:center; align:center' src='img/fixation2_sml.jpg'></div><div class='arrayDiv3'><div class='tl'><img class='introPic' src='trustrating_stim/white_mw092.bmp'><br><font color='red'><strong>Keep</strong></font></div><div class='tc'><img class='introPic' src='trustrating_stim/white_mw085.bmp'><br><font color='red'><strong>Keep</strong></font></div><div class='tr'><img class='introPic' src='trustrating_stim/white_mw012.bmp'><br><font color='green'><strong>Share</strong></font></div></div></div>","null","ARRAY","3","trustrating_stim/white_mw092.bmp,trustrating_stim/white_mw085.bmp,trustrating_stim/white_mw012.bmp","0,0,1","Match","e","4500","","","","",""
"html-keyboard-response","67","201049","0.0-7.0-3.6","640feb5e49b723bcfaad6437","bdp_wmem","Tue Mar 14 2023 13:54:36 GMT-0400 (Eastern Daylight Time)","571723","Match,No Match","","null","","","","","","<div class='trialBorder'><div class='vertical-center'><img src='img/fixation2_sml.jpg'</img></div></div>","null","DELAY","","","","","","","","","","",""
"html-keyboard-response","68","201703","0.0-7.0-4.6","640feb5e49b723bcfaad6437","bdp_wmem","Tue Mar 14 2023 13:54:36 GMT-0400 (Eastern Daylight Time)","571723","Match,No Match","","652","","","","","","<div class='trialBorder'><div class='targDiv'><div class='tc'><img class='introPic' src='trustrating_stim/white_mw085.bmp'><br><font color='red'><strong>Keep</strong></font></div></div><div class='respDiv'><div class='respDivL'>Match<br>(e)</div><div class='respDivR'>No Match<br>(i)</div></div></div>","e","TARGET","3","trustrating_stim/white_mw092.bmp,trustrating_stim/white_mw085.bmp,trustrating_stim/white_mw012.bmp","0,0,1","Match","e","4500","trustrating_stim/white_mw085.bmp","red","Keep","REAL","1"
"html-keyboard-response","69","202211","0.0-7.0-5.6","640feb5e49b723bcfaad6437","bdp_wmem","Tue Mar 14 2023 13:54:36 GMT-0400 (Eastern Daylight Time)","571723","Match,No Match","","null","","","","","","<div class='trialBorder'><div class='vertical-center'><img src='img/correct.jpg'></div><div class='respDiv'><div class='respDivL'><font style='color:orange'>Match<br>(e)</font></div><div class='respDivR'>No Match<br>(i)</div></div></div>","null","FEEDBACK","","","","","","","","","","",""
"html-keyboard-response","70","202721","0.0-7.0-1.7","640feb5e49b723bcfaad6437","bdp_wmem","Tue Mar 14 2023 13:54:36 GMT-0400 (Eastern Daylight Time)","571723","Match,No Match","","null","","","","","","<div class='trialBorder'><div class='vertical-center'><img src='img/fixation2_sml.jpg'</img></div></div>","null","FIX","","","","","","","","","","",""
"html-keyboard-response","71","204226","0.0-7.0-2.7","640feb5e49b723bcfaad6437","bdp_wmem","Tue Mar 14 2023 13:54:36 GMT-0400 (Eastern Daylight Time)","571723","Match,No Match","","null","","","","","","<div class='trialBorder'><div class='vertical-center'><img style='vertical-align:center; align:center' src='img/fixation2_sml.jpg'></div><div class='arrayDiv1'><div class='tc'><img class='introPic' src='trustrating_stim/white_mw010.bmp'><br><font color='red'><strong>Keep</strong></font></div></div></div>","null","ARRAY","1","trustrating_stim/white_mw010.bmp","0","noMatchOutcome","i","1500","","","","",""
"html-keyboard-response","72","208236","0.0-7.0-3.7","640feb5e49b723bcfaad6437","bdp_wmem","Tue Mar 14 2023 13:54:36 GMT-0400 (Eastern Daylight Time)","571723","Match,No Match","","null","","","","","","<div class='trialBorder'><div class='vertical-center'><img src='img/fixation2_sml.jpg'</img></div></div>","null","DELAY","","","","","","","","","","",""
"html-keyboard-response","73","209287","0.0-7.0-4.7","640feb5e49b723bcfaad6437","bdp_wmem","Tue Mar 14 2023 13:54:36 GMT-0400 (Eastern Daylight Time)","571723","Match,No Match","","1049","","","","","","<div class='trialBorder'><div class='targDiv'><div class='tc'><img class='introPic' src='trustrating_stim/white_mw010.bmp'><br><font color='green'><strong>Share</strong></font></div></div><div class='respDiv'><div class='respDivL'>Match<br>(e)</div><div class='respDivR'>No Match<br>(i)</div></div></div>","i","TARGET","1","trustrating_stim/white_mw010.bmp","0","noMatchOutcome","i","1500","trustrating_stim/white_mw010.bmp","green","Share","REAL","1"
"html-keyboard-response","74","209792","0.0-7.0-5.7","640feb5e49b723bcfaad6437","bdp_wmem","Tue Mar 14 2023 13:54:36 GMT-0400 (Eastern Daylight Time)","571723","Match,No Match","","null","","","","","","<div class='trialBorder'><div class='vertical-center'><img src='img/correct.jpg'></div><div class='respDiv'><div class='respDivL'>Match<br>(e)</div><div class='respDivR'><font style='color:orange'>No Match<br>(i)</font></div></div></div>","null","FEEDBACK","","","","","","","","","","",""
"html-keyboard-response","75","210298","0.0-7.0-1.8","640feb5e49b723bcfaad6437","bdp_wmem","Tue Mar 14 2023 13:54:36 GMT-0400 (Eastern Daylight Time)","571723","Match,No Match","","null","","","","","","<div class='trialBorder'><div class='vertical-center'><img src='img/fixation2_sml.jpg'</img></div></div>","null","FIX","","","","","","","","","","",""
"html-keyboard-response","76","213304","0.0-7.0-2.8","640feb5e49b723bcfaad6437","bdp_wmem","Tue Mar 14 2023 13:54:36 GMT-0400 (Eastern Daylight Time)","571723","Match,No Match","","null","","","","","","<div class='trialBorder'><div class='vertical-center'><img style='vertical-align:center; align:center' src='img/fixation2_sml.jpg'></div><div class='arrayDiv2'><div class='tl'><img class='introPic' src='trustrating_stim/white_mw078.bmp'><br><font color='red'><strong>Keep</strong></font></div><div class='tr'><img class='introPic' src='trustrating_stim/white_mw012.bmp'><br><font color='green'><strong>Share</strong></font></div></div></div>","null","ARRAY","2","trustrating_stim/white_mw078.bmp,trustrating_stim/white_mw012.bmp","0,1","Match","e","3000","","","","",""
"html-keyboard-response","77","217316","0.0-7.0-3.8","640feb5e49b723bcfaad6437","bdp_wmem","Tue Mar 14 2023 13:54:36 GMT-0400 (Eastern Daylight Time)","571723","Match,No Match","","null","","","","","","<div class='trialBorder'><div class='vertical-center'><img src='img/fixation2_sml.jpg'</img></div></div>","null","DELAY","","","","","","","","","","",""
"html-keyboard-response","78","218133","0.0-7.0-4.8","640feb5e49b723bcfaad6437","bdp_wmem","Tue Mar 14 2023 13:54:36 GMT-0400 (Eastern Daylight Time)","571723","Match,No Match","","814","","","","","","<div class='trialBorder'><div class='targDiv'><div class='tc'><img class='introPic' src='trustrating_stim/white_mw078.bmp'><br><font color='red'><strong>Keep</strong></font></div></div><div class='respDiv'><div class='respDivL'>Match<br>(e)</div><div class='respDivR'>No Match<br>(i)</div></div></div>","e","TARGET","2","trustrating_stim/white_mw078.bmp,trustrating_stim/white_mw012.bmp","0,1","Match","e","3000","trustrating_stim/white_mw078.bmp","red","Keep","REAL","1"
"html-keyboard-response","79","218643","0.0-7.0-5.8","640feb5e49b723bcfaad6437","bdp_wmem","Tue Mar 14 2023 13:54:36 GMT-0400 (Eastern Daylight Time)","571723","Match,No Match","","null","","","","","","<div class='trialBorder'><div class='vertical-center'><img src='img/correct.jpg'></div><div class='respDiv'><div class='respDivL'><font style='color:orange'>Match<br>(e)</font></div><div class='respDivR'>No Match<br>(i)</div></div></div>","null","FEEDBACK","","","","","","","","","","",""
"html-keyboard-response","80","219155","0.0-7.0-1.9","640feb5e49b723bcfaad6437","bdp_wmem","Tue Mar 14 2023 13:54:36 GMT-0400 (Eastern Daylight Time)","571723","Match,No Match","","null","","","","","","<div class='trialBorder'><div class='vertical-center'><img src='img/fixation2_sml.jpg'</img></div></div>","null","FIX","","","","","","","","","","",""
"html-keyboard-response","81","222163","0.0-7.0-2.9","640feb5e49b723bcfaad6437","bdp_wmem","Tue Mar 14 2023 13:54:36 GMT-0400 (Eastern Daylight Time)","571723","Match,No Match","","null","","","","","","<div class='trialBorder'><div class='vertical-center'><img style='vertical-align:center; align:center' src='img/fixation2_sml.jpg'></div><div class='arrayDiv2'><div class='tl'><img class='introPic' src='trustrating_stim/white_mw070.bmp'><br><font color='red'><strong>Keep</strong></font></div><div class='tr'><img class='introPic' src='trustrating_stim/white_mw038.bmp'><br><font color='green'><strong>Share</strong></font></div></div></div>","null","ARRAY","2","trustrating_stim/white_mw070.bmp,trustrating_stim/white_mw038.bmp","0,1","Match","e","3000","","","","",""
"html-keyboard-response","82","226168","0.0-7.0-3.9","640feb5e49b723bcfaad6437","bdp_wmem","Tue Mar 14 2023 13:54:36 GMT-0400 (Eastern Daylight Time)","571723","Match,No Match","","null","","","","","","<div class='trialBorder'><div class='vertical-center'><img src='img/fixation2_sml.jpg'</img></div></div>","null","DELAY","","","","","","","","","","",""
"html-keyboard-response","83","226939","0.0-7.0-4.9","640feb5e49b723bcfaad6437","bdp_wmem","Tue Mar 14 2023 13:54:36 GMT-0400 (Eastern Daylight Time)","571723","Match,No Match","","769","","","","","","<div class='trialBorder'><div class='targDiv'><div class='tc'><img class='introPic' src='trustrating_stim/white_mw038.bmp'><br><font color='green'><strong>Share</strong></font></div></div><div class='respDiv'><div class='respDivL'>Match<br>(e)</div><div class='respDivR'>No Match<br>(i)</div></div></div>","e","TARGET","2","trustrating_stim/white_mw070.bmp,trustrating_stim/white_mw038.bmp","0,1","Match","e","3000","trustrating_stim/white_mw038.bmp","green","Share","REAL","1"
"html-keyboard-response","84","227450","0.0-7.0-5.9","640feb5e49b723bcfaad6437","bdp_wmem","Tue Mar 14 2023 13:54:36 GMT-0400 (Eastern Daylight Time)","571723","Match,No Match","","null","","","","","","<div class='trialBorder'><div class='vertical-center'><img src='img/correct.jpg'></div><div class='respDiv'><div class='respDivL'><font style='color:orange'>Match<br>(e)</font></div><div class='respDivR'>No Match<br>(i)</div></div></div>","null","FEEDBACK","","","","","","","","","","",""
"html-keyboard-response","85","227956","0.0-7.0-1.10","640feb5e49b723bcfaad6437","bdp_wmem","Tue Mar 14 2023 13:54:36 GMT-0400 (Eastern Daylight Time)","571723","Match,No Match","","null","","","","","","<div class='trialBorder'><div class='vertical-center'><img src='img/fixation2_sml.jpg'</img></div></div>","null","FIX","","","","","","","","","","",""
"html-keyboard-response","86","232468","0.0-7.0-2.10","640feb5e49b723bcfaad6437","bdp_wmem","Tue Mar 14 2023 13:54:36 GMT-0400 (Eastern Daylight Time)","571723","Match,No Match","","null","","","","","","<div class='trialBorder'><div class='vertical-center'><img style='vertical-align:center; align:center' src='img/fixation2_sml.jpg'></div><div class='arrayDiv3'><div class='tl'><img class='introPic' src='trustrating_stim/white_mw012.bmp'><br><font color='green'><strong>Share</strong></font></div><div class='tc'><img class='introPic' src='trustrating_stim/white_mw038.bmp'><br><font color='green'><strong>Share</strong></font></div><div class='tr'><img class='introPic' src='trustrating_stim/white_mw010.bmp'><br><font color='red'><strong>Keep</strong></font></div></div></div>","null","ARRAY","3","trustrating_stim/white_mw012.bmp,trustrating_stim/white_mw038.bmp,trustrating_stim/white_mw010.bmp","1,1,0","noMatchOutcome","i","4500","","","","",""
"html-keyboard-response","87","236473","0.0-7.0-3.10","640feb5e49b723bcfaad6437","bdp_wmem","Tue Mar 14 2023 13:54:36 GMT-0400 (Eastern Daylight Time)","571723","Match,No Match","","null","","","","","","<div class='trialBorder'><div class='vertical-center'><img src='img/fixation2_sml.jpg'</img></div></div>","null","DELAY","","","","","","","","","","",""
"html-keyboard-response","88","238700","0.0-7.0-4.10","640feb5e49b723bcfaad6437","bdp_wmem","Tue Mar 14 2023 13:54:36 GMT-0400 (Eastern Daylight Time)","571723","Match,No Match","","2225","","","","","","<div class='trialBorder'><div class='targDiv'><div class='tc'><img class='introPic' src='trustrating_stim/white_mw012.bmp'><br><font color='red'><strong>Keep</strong></font></div></div><div class='respDiv'><div class='respDivL'>Match<br>(e)</div><div class='respDivR'>No Match<br>(i)</div></div></div>","e","TARGET","3","trustrating_stim/white_mw012.bmp,trustrating_stim/white_mw038.bmp,trustrating_stim/white_mw010.bmp","1,1,0","noMatchOutcome","i","4500","trustrating_stim/white_mw012.bmp","red","Keep","REAL","0"
"html-keyboard-response","89","239203","0.0-7.0-5.10","640feb5e49b723bcfaad6437","bdp_wmem","Tue Mar 14 2023 13:54:36 GMT-0400 (Eastern Daylight Time)","571723","Match,No Match","","null","","","","","","<div class='trialBorder'><div class='vertical-center'><img src='img/error.jpg'></div><div class='respDiv'><div class='respDivL'><font style='color:orange'>Match<br>(e)</font></div><div class='respDivR'>No Match<br>(i)</div></div></div>","null","FEEDBACK","","","","","","","","","","",""
"html-keyboard-response","90","239706","0.0-7.0-1.11","640feb5e49b723bcfaad6437","bdp_wmem","Tue Mar 14 2023 13:54:36 GMT-0400 (Eastern Daylight Time)","571723","Match,No Match","","null","","","","","","<div class='trialBorder'><div class='vertical-center'><img src='img/fixation2_sml.jpg'</img></div></div>","null","FIX","","","","","","","","","","",""
"html-keyboard-response","91","242717","0.0-7.0-2.11","640feb5e49b723bcfaad6437","bdp_wmem","Tue Mar 14 2023 13:54:36 GMT-0400 (Eastern Daylight Time)","571723","Match,No Match","","null","","","","","","<div class='trialBorder'><div class='vertical-center'><img style='vertical-align:center; align:center' src='img/fixation2_sml.jpg'></div><div class='arrayDiv2'><div class='tl'><img class='introPic' src='trustrating_stim/white_mw013.bmp'><br><font color='red'><strong>Keep</strong></font></div><div class='tr'><img class='introPic' src='trustrating_stim/white_mw010.bmp'><br><font color='green'><strong>Share</strong></font></div></div></div>","null","ARRAY","2","trustrating_stim/white_mw013.bmp,trustrating_stim/white_mw010.bmp","0,1","Match","e","3000","","","","",""
"html-keyboard-response","92","246725","0.0-7.0-3.11","640feb5e49b723bcfaad6437","bdp_wmem","Tue Mar 14 2023 13:54:36 GMT-0400 (Eastern Daylight Time)","571723","Match,No Match","","null","","","","","","<div class='trialBorder'><div class='vertical-center'><img src='img/fixation2_sml.jpg'</img></div></div>","null","DELAY","","","","","","","","","","",""
"html-keyboard-response","93","248597","0.0-7.0-4.11","640feb5e49b723bcfaad6437","bdp_wmem","Tue Mar 14 2023 13:54:36 GMT-0400 (Eastern Daylight Time)","571723","Match,No Match","","1870","","","","","","<div class='trialBorder'><div class='targDiv'><div class='tc'><img class='introPic' src='trustrating_stim/white_mw010.bmp'><br><font color='green'><strong>Share</strong></font></div></div><div class='respDiv'><div class='respDivL'>Match<br>(e)</div><div class='respDivR'>No Match<br>(i)</div></div></div>","e","TARGET","2","trustrating_stim/white_mw013.bmp,trustrating_stim/white_mw010.bmp","0,1","Match","e","3000","trustrating_stim/white_mw010.bmp","green","Share","REAL","1"
"html-keyboard-response","94","249105","0.0-7.0-5.11","640feb5e49b723bcfaad6437","bdp_wmem","Tue Mar 14 2023 13:54:36 GMT-0400 (Eastern Daylight Time)","571723","Match,No Match","","null","","","","","","<div class='trialBorder'><div class='vertical-center'><img src='img/correct.jpg'></div><div class='respDiv'><div class='respDivL'><font style='color:orange'>Match<br>(e)</font></div><div class='respDivR'>No Match<br>(i)</div></div></div>","null","FEEDBACK","","","","","","","","","","",""
"html-keyboard-response","95","249613","0.0-7.0-1.12","640feb5e49b723bcfaad6437","bdp_wmem","Tue Mar 14 2023 13:54:36 GMT-0400 (Eastern Daylight Time)","571723","Match,No Match","","null","","","","","","<div class='trialBorder'><div class='vertical-center'><img src='img/fixation2_sml.jpg'</img></div></div>","null","FIX","","","","","","","","","","",""
"html-keyboard-response","96","254120","0.0-7.0-2.12","640feb5e49b723bcfaad6437","bdp_wmem","Tue Mar 14 2023 13:54:36 GMT-0400 (Eastern Daylight Time)","571723","Match,No Match","","null","","","","","","<div class='trialBorder'><div class='vertical-center'><img style='vertical-align:center; align:center' src='img/fixation2_sml.jpg'></div><div class='arrayDiv3'><div class='tl'><img class='introPic' src='trustrating_stim/white_mw012.bmp'><br><font color='green'><strong>Share</strong></font></div><div class='tc'><img class='introPic' src='trustrating_stim/white_mw038.bmp'><br><font color='red'><strong>Keep</strong></font></div><div class='tr'><img class='introPic' src='trustrating_stim/white_mw010.bmp'><br><font color='green'><strong>Share</strong></font></div></div></div>","null","ARRAY","3","trustrating_stim/white_mw012.bmp,trustrating_stim/white_mw038.bmp,trustrating_stim/white_mw010.bmp","1,0,1","Match","e","4500","","","","",""
"html-keyboard-response","97","258132","0.0-7.0-3.12","640feb5e49b723bcfaad6437","bdp_wmem","Tue Mar 14 2023 13:54:36 GMT-0400 (Eastern Daylight Time)","571723","Match,No Match","","null","","","","","","<div class='trialBorder'><div class='vertical-center'><img src='img/fixation2_sml.jpg'</img></div></div>","null","DELAY","","","","","","","","","","",""
"html-keyboard-response","98","259070","0.0-7.0-4.12","640feb5e49b723bcfaad6437","bdp_wmem","Tue Mar 14 2023 13:54:36 GMT-0400 (Eastern Daylight Time)","571723","Match,No Match","","936","","","","","","<div class='trialBorder'><div class='targDiv'><div class='tc'><img class='introPic' src='trustrating_stim/white_mw012.bmp'><br><font color='green'><strong>Share</strong></font></div></div><div class='respDiv'><div class='respDivL'>Match<br>(e)</div><div class='respDivR'>No Match<br>(i)</div></div></div>","e","TARGET","3","trustrating_stim/white_mw012.bmp,trustrating_stim/white_mw038.bmp,trustrating_stim/white_mw010.bmp","1,0,1","Match","e","4500","trustrating_stim/white_mw012.bmp","green","Share","REAL","1"
"html-keyboard-response","99","259577","0.0-7.0-5.12","640feb5e49b723bcfaad6437","bdp_wmem","Tue Mar 14 2023 13:54:36 GMT-0400 (Eastern Daylight Time)","571723","Match,No Match","","null","","","","","","<div class='trialBorder'><div class='vertical-center'><img src='img/correct.jpg'></div><div class='respDiv'><div class='respDivL'><font style='color:orange'>Match<br>(e)</font></div><div class='respDivR'>No Match<br>(i)</div></div></div>","null","FEEDBACK","","","","","","","","","","",""
"html-keyboard-response","100","260083","0.0-7.0-1.13","640feb5e49b723bcfaad6437","bdp_wmem","Tue Mar 14 2023 13:54:36 GMT-0400 (Eastern Daylight Time)","571723","Match,No Match","","null","","","","","","<div class='trialBorder'><div class='vertical-center'><img src='img/fixation2_sml.jpg'</img></div></div>","null","FIX","","","","","","","","","","",""
"html-keyboard-response","101","261597","0.0-7.0-2.13","640feb5e49b723bcfaad6437","bdp_wmem","Tue Mar 14 2023 13:54:36 GMT-0400 (Eastern Daylight Time)","571723","Match,No Match","","null","","","","","","<div class='trialBorder'><div class='vertical-center'><img style='vertical-align:center; align:center' src='img/fixation2_sml.jpg'></div><div class='arrayDiv1'><div class='tc'><img class='introPic' src='trustrating_stim/white_mw042.bmp'><br><font color='green'><strong>Share</strong></font></div></div></div>","null","ARRAY","1","trustrating_stim/white_mw042.bmp","1","Match","e","1500","","","","",""
"html-keyboard-response","102","265602","0.0-7.0-3.13","640feb5e49b723bcfaad6437","bdp_wmem","Tue Mar 14 2023 13:54:36 GMT-0400 (Eastern Daylight Time)","571723","Match,No Match","","null","","","","","","<div class='trialBorder'><div class='vertical-center'><img src='img/fixation2_sml.jpg'</img></div></div>","null","DELAY","","","","","","","","","","",""
"html-keyboard-response","103","266245","0.0-7.0-4.13","640feb5e49b723bcfaad6437","bdp_wmem","Tue Mar 14 2023 13:54:36 GMT-0400 (Eastern Daylight Time)","571723","Match,No Match","","641","","","","","","<div class='trialBorder'><div class='targDiv'><div class='tc'><img class='introPic' src='trustrating_stim/white_mw042.bmp'><br><font color='green'><strong>Share</strong></font></div></div><div class='respDiv'><div class='respDivL'>Match<br>(e)</div><div class='respDivR'>No Match<br>(i)</div></div></div>","e","TARGET","1","trustrating_stim/white_mw042.bmp","1","Match","e","1500","trustrating_stim/white_mw042.bmp","green","Share","REAL","1"
"html-keyboard-response","104","266753","0.0-7.0-5.13","640feb5e49b723bcfaad6437","bdp_wmem","Tue Mar 14 2023 13:54:36 GMT-0400 (Eastern Daylight Time)","571723","Match,No Match","","null","","","","","","<div class='trialBorder'><div class='vertical-center'><img src='img/correct.jpg'></div><div class='respDiv'><div class='respDivL'><font style='color:orange'>Match<br>(e)</font></div><div class='respDivR'>No Match<br>(i)</div></div></div>","null","FEEDBACK","","","","","","","","","","",""
"html-keyboard-response","105","267259","0.0-7.0-1.14","640feb5e49b723bcfaad6437","bdp_wmem","Tue Mar 14 2023 13:54:36 GMT-0400 (Eastern Daylight Time)","571723","Match,No Match","","null","","","","","","<div class='trialBorder'><div class='vertical-center'><img src='img/fixation2_sml.jpg'</img></div></div>","null","FIX","","","","","","","","","","",""
"html-keyboard-response","106","268772","0.0-7.0-2.14","640feb5e49b723bcfaad6437","bdp_wmem","Tue Mar 14 2023 13:54:36 GMT-0400 (Eastern Daylight Time)","571723","Match,No Match","","null","","","","","","<div class='trialBorder'><div class='vertical-center'><img style='vertical-align:center; align:center' src='img/fixation2_sml.jpg'></div><div class='arrayDiv1'><div class='tc'><img class='introPic' src='trustrating_stim/white_mw092.bmp'><br><font color='red'><strong>Keep</strong></font></div></div></div>","null","ARRAY","1","trustrating_stim/white_mw092.bmp","0","Match","e","1500","","","","",""
"html-keyboard-response","107","272778","0.0-7.0-3.14","640feb5e49b723bcfaad6437","bdp_wmem","Tue Mar 14 2023 13:54:36 GMT-0400 (Eastern Daylight Time)","571723","Match,No Match","","null","","","","","","<div class='trialBorder'><div class='vertical-center'><img src='img/fixation2_sml.jpg'</img></div></div>","null","DELAY","","","","","","","","","","",""
"html-keyboard-response","108","273481","0.0-7.0-4.14","640feb5e49b723bcfaad6437","bdp_wmem","Tue Mar 14 2023 13:54:36 GMT-0400 (Eastern Daylight Time)","571723","Match,No Match","","701","","","","","","<div class='trialBorder'><div class='targDiv'><div class='tc'><img class='introPic' src='trustrating_stim/white_mw092.bmp'><br><font color='red'><strong>Keep</strong></font></div></div><div class='respDiv'><div class='respDivL'>Match<br>(e)</div><div class='respDivR'>No Match<br>(i)</div></div></div>","e","TARGET","1","trustrating_stim/white_mw092.bmp","0","Match","e","1500","trustrating_stim/white_mw092.bmp","red","Keep","REAL","1"
"html-keyboard-response","109","273989","0.0-7.0-5.14","640feb5e49b723bcfaad6437","bdp_wmem","Tue Mar 14 2023 13:54:36 GMT-0400 (Eastern Daylight Time)","571723","Match,No Match","","null","","","","","","<div class='trialBorder'><div class='vertical-center'><img src='img/correct.jpg'></div><div class='respDiv'><div class='respDivL'><font style='color:orange'>Match<br>(e)</font></div><div class='respDivR'>No Match<br>(i)</div></div></div>","null","FEEDBACK","","","","","","","","","","",""
"html-keyboard-response","110","274497","0.0-7.0-1.15","640feb5e49b723bcfaad6437","bdp_wmem","Tue Mar 14 2023 13:54:36 GMT-0400 (Eastern Daylight Time)","571723","Match,No Match","","null","","","","","","<div class='trialBorder'><div class='vertical-center'><img src='img/fixation2_sml.jpg'</img></div></div>","null","FIX","","","","","","","","","","",""
"html-keyboard-response","111","279001","0.0-7.0-2.15","640feb5e49b723bcfaad6437","bdp_wmem","Tue Mar 14 2023 13:54:36 GMT-0400 (Eastern Daylight Time)","571723","Match,No Match","","null","","","","","","<div class='trialBorder'><div class='vertical-center'><img style='vertical-align:center; align:center' src='img/fixation2_sml.jpg'></div><div class='arrayDiv3'><div class='tl'><img class='introPic' src='trustrating_stim/white_mw003.bmp'><br><font color='green'><strong>Share</strong></font></div><div class='tc'><img class='introPic' src='trustrating_stim/white_mw091.bmp'><br><font color='red'><strong>Keep</strong></font></div><div class='tr'><img class='introPic' src='trustrating_stim/white_mw070.bmp'><br><font color='green'><strong>Share</strong></font></div></div></div>","null","ARRAY","3","trustrating_stim/white_mw003.bmp,trustrating_stim/white_mw091.bmp,trustrating_stim/white_mw070.bmp","1,0,1","noMatchOutcome","i","4500","","","","",""
"html-keyboard-response","112","283013","0.0-7.0-3.15","640feb5e49b723bcfaad6437","bdp_wmem","Tue Mar 14 2023 13:54:36 GMT-0400 (Eastern Daylight Time)","571723","Match,No Match","","null","","","","","","<div class='trialBorder'><div class='vertical-center'><img src='img/fixation2_sml.jpg'</img></div></div>","null","DELAY","","","","","","","","","","",""
"html-keyboard-response","113","285079","0.0-7.0-4.15","640feb5e49b723bcfaad6437","bdp_wmem","Tue Mar 14 2023 13:54:36 GMT-0400 (Eastern Daylight Time)","571723","Match,No Match","","2064","","","","","","<div class='trialBorder'><div class='targDiv'><div class='tc'><img class='introPic' src='trustrating_stim/white_mw091.bmp'><br><font color='green'><strong>Share</strong></font></div></div><div class='respDiv'><div class='respDivL'>Match<br>(e)</div><div class='respDivR'>No Match<br>(i)</div></div></div>","i","TARGET","3","trustrating_stim/white_mw003.bmp,trustrating_stim/white_mw091.bmp,trustrating_stim/white_mw070.bmp","1,0,1","noMatchOutcome","i","4500","trustrating_stim/white_mw091.bmp","green","Share","REAL","1"
"html-keyboard-response","114","285589","0.0-7.0-5.15","640feb5e49b723bcfaad6437","bdp_wmem","Tue Mar 14 2023 13:54:36 GMT-0400 (Eastern Daylight Time)","571723","Match,No Match","","null","","","","","","<div class='trialBorder'><div class='vertical-center'><img src='img/correct.jpg'></div><div class='respDiv'><div class='respDivL'>Match<br>(e)</div><div class='respDivR'><font style='color:orange'>No Match<br>(i)</font></div></div></div>","null","FEEDBACK","","","","","","","","","","",""
"html-keyboard-response","115","286097","0.0-7.0-1.16","640feb5e49b723bcfaad6437","bdp_wmem","Tue Mar 14 2023 13:54:36 GMT-0400 (Eastern Daylight Time)","571723","Match,No Match","","null","","","","","","<div class='trialBorder'><div class='vertical-center'><img src='img/fixation2_sml.jpg'</img></div></div>","null","FIX","","","","","","","","","","",""
"html-keyboard-response","116","290605","0.0-7.0-2.16","640feb5e49b723bcfaad6437","bdp_wmem","Tue Mar 14 2023 13:54:36 GMT-0400 (Eastern Daylight Time)","571723","Match,No Match","","null","","","","","","<div class='trialBorder'><div class='vertical-center'><img style='vertical-align:center; align:center' src='img/fixation2_sml.jpg'></div><div class='arrayDiv3'><div class='tl'><img class='introPic' src='trustrating_stim/white_mw085.bmp'><br><font color='red'><strong>Keep</strong></font></div><div class='tc'><img class='introPic' src='trustrating_stim/white_mw010.bmp'><br><font color='red'><strong>Keep</strong></font></div><div class='tr'><img class='introPic' src='trustrating_stim/white_mw040.bmp'><br><font color='green'><strong>Share</strong></font></div></div></div>","null","ARRAY","3","trustrating_stim/white_mw085.bmp,trustrating_stim/white_mw010.bmp,trustrating_stim/white_mw040.bmp","0,0,1","Match","e","4500","","","","",""
"html-keyboard-response","117","294613","0.0-7.0-3.16","640feb5e49b723bcfaad6437","bdp_wmem","Tue Mar 14 2023 13:54:36 GMT-0400 (Eastern Daylight Time)","571723","Match,No Match","","null","","","","","","<div class='trialBorder'><div class='vertical-center'><img src='img/fixation2_sml.jpg'</img></div></div>","null","DELAY","","","","","","","","","","",""
"html-keyboard-response","118","295316","0.0-7.0-4.16","640feb5e49b723bcfaad6437","bdp_wmem","Tue Mar 14 2023 13:54:36 GMT-0400 (Eastern Daylight Time)","571723","Match,No Match","","700","","","","","","<div class='trialBorder'><div class='targDiv'><div class='tc'><img class='introPic' src='trustrating_stim/white_mw085.bmp'><br><font color='red'><strong>Keep</strong></font></div></div><div class='respDiv'><div class='respDivL'>Match<br>(e)</div><div class='respDivR'>No Match<br>(i)</div></div></div>","e","TARGET","3","trustrating_stim/white_mw085.bmp,trustrating_stim/white_mw010.bmp,trustrating_stim/white_mw040.bmp","0,0,1","Match","e","4500","trustrating_stim/white_mw085.bmp","red","Keep","REAL","1"
"html-keyboard-response","119","295819","0.0-7.0-5.16","640feb5e49b723bcfaad6437","bdp_wmem","Tue Mar 14 2023 13:54:36 GMT-0400 (Eastern Daylight Time)","571723","Match,No Match","","null","","","","","","<div class='trialBorder'><div class='vertical-center'><img src='img/correct.jpg'></div><div class='respDiv'><div class='respDivL'><font style='color:orange'>Match<br>(e)</font></div><div class='respDivR'>No Match<br>(i)</div></div></div>","null","FEEDBACK","","","","","","","","","","",""
"html-keyboard-response","120","296324","0.0-7.0-1.17","640feb5e49b723bcfaad6437","bdp_wmem","Tue Mar 14 2023 13:54:36 GMT-0400 (Eastern Daylight Time)","571723","Match,No Match","","null","","","","","","<div class='trialBorder'><div class='vertical-center'><img src='img/fixation2_sml.jpg'</img></div></div>","null","FIX","","","","","","","","","","",""
"html-keyboard-response","121","297836","0.0-7.0-2.17","640feb5e49b723bcfaad6437","bdp_wmem","Tue Mar 14 2023 13:54:36 GMT-0400 (Eastern Daylight Time)","571723","Match,No Match","","null","","","","","","<div class='trialBorder'><div class='vertical-center'><img style='vertical-align:center; align:center' src='img/fixation2_sml.jpg'></div><div class='arrayDiv1'><div class='tc'><img class='introPic' src='trustrating_stim/white_mw012.bmp'><br><font color='red'><strong>Keep</strong></font></div></div></div>","null","ARRAY","1","trustrating_stim/white_mw012.bmp","0","Match","e","1500","","","","",""
"html-keyboard-response","122","301844","0.0-7.0-3.17","640feb5e49b723bcfaad6437","bdp_wmem","Tue Mar 14 2023 13:54:36 GMT-0400 (Eastern Daylight Time)","571723","Match,No Match","","null","","","","","","<div class='trialBorder'><div class='vertical-center'><img src='img/fixation2_sml.jpg'</img></div></div>","null","DELAY","","","","","","","","","","",""
"html-keyboard-response","123","302398","0.0-7.0-4.17","640feb5e49b723bcfaad6437","bdp_wmem","Tue Mar 14 2023 13:54:36 GMT-0400 (Eastern Daylight Time)","571723","Match,No Match","","553","","","","","","<div class='trialBorder'><div class='targDiv'><div class='tc'><img class='introPic' src='trustrating_stim/white_mw012.bmp'><br><font color='red'><strong>Keep</strong></font></div></div><div class='respDiv'><div class='respDivL'>Match<br>(e)</div><div class='respDivR'>No Match<br>(i)</div></div></div>","e","TARGET","1","trustrating_stim/white_mw012.bmp","0","Match","e","1500","trustrating_stim/white_mw012.bmp","red","Keep","REAL","1"
"html-keyboard-response","124","302906","0.0-7.0-5.17","640feb5e49b723bcfaad6437","bdp_wmem","Tue Mar 14 2023 13:54:36 GMT-0400 (Eastern Daylight Time)","571723","Match,No Match","","null","","","","","","<div class='trialBorder'><div class='vertical-center'><img src='img/correct.jpg'></div><div class='respDiv'><div class='respDivL'><font style='color:orange'>Match<br>(e)</font></div><div class='respDivR'>No Match<br>(i)</div></div></div>","null","FEEDBACK","","","","","","","","","","",""
"html-keyboard-response","125","303411","0.0-7.0-1.18","640feb5e49b723bcfaad6437","bdp_wmem","Tue Mar 14 2023 13:54:36 GMT-0400 (Eastern Daylight Time)","571723","Match,No Match","","null","","","","","","<div class='trialBorder'><div class='vertical-center'><img src='img/fixation2_sml.jpg'</img></div></div>","null","FIX","","","","","","","","","","",""
"html-keyboard-response","126","304914","0.0-7.0-2.18","640feb5e49b723bcfaad6437","bdp_wmem","Tue Mar 14 2023 13:54:36 GMT-0400 (Eastern Daylight Time)","571723","Match,No Match","","null","","","","","","<div class='trialBorder'><div class='vertical-center'><img style='vertical-align:center; align:center' src='img/fixation2_sml.jpg'></div><div class='arrayDiv1'><div class='tc'><img class='introPic' src='trustrating_stim/white_mw040.bmp'><br><font color='red'><strong>Keep</strong></font></div></div></div>","null","ARRAY","1","trustrating_stim/white_mw040.bmp","0","noMatchOutcome","i","1500","","","","",""
"html-keyboard-response","127","308925","0.0-7.0-3.18","640feb5e49b723bcfaad6437","bdp_wmem","Tue Mar 14 2023 13:54:36 GMT-0400 (Eastern Daylight Time)","571723","Match,No Match","","null","","","","","","<div class='trialBorder'><div class='vertical-center'><img src='img/fixation2_sml.jpg'</img></div></div>","null","DELAY","","","","","","","","","","",""
"html-keyboard-response","128","309583","0.0-7.0-4.18","640feb5e49b723bcfaad6437","bdp_wmem","Tue Mar 14 2023 13:54:36 GMT-0400 (Eastern Daylight Time)","571723","Match,No Match","","656","","","","","","<div class='trialBorder'><div class='targDiv'><div class='tc'><img class='introPic' src='trustrating_stim/white_mw040.bmp'><br><font color='green'><strong>Share</strong></font></div></div><div class='respDiv'><div class='respDivL'>Match<br>(e)</div><div class='respDivR'>No Match<br>(i)</div></div></div>","i","TARGET","1","trustrating_stim/white_mw040.bmp","0","noMatchOutcome","i","1500","trustrating_stim/white_mw040.bmp","green","Share","REAL","1"
"html-keyboard-response","129","310092","0.0-7.0-5.18","640feb5e49b723bcfaad6437","bdp_wmem","Tue Mar 14 2023 13:54:36 GMT-0400 (Eastern Daylight Time)","571723","Match,No Match","","null","","","","","","<div class='trialBorder'><div class='vertical-center'><img src='img/correct.jpg'></div><div class='respDiv'><div class='respDivL'>Match<br>(e)</div><div class='respDivR'><font style='color:orange'>No Match<br>(i)</font></div></div></div>","null","FEEDBACK","","","","","","","","","","",""
"html-keyboard-response","130","310603","0.0-7.0-1.19","640feb5e49b723bcfaad6437","bdp_wmem","Tue Mar 14 2023 13:54:36 GMT-0400 (Eastern Daylight Time)","571723","Match,No Match","","null","","","","","","<div class='trialBorder'><div class='vertical-center'><img src='img/fixation2_sml.jpg'</img></div></div>","null","FIX","","","","","","","","","","",""
"html-keyboard-response","131","312107","0.0-7.0-2.19","640feb5e49b723bcfaad6437","bdp_wmem","Tue Mar 14 2023 13:54:36 GMT-0400 (Eastern Daylight Time)","571723","Match,No Match","","null","","","","","","<div class='trialBorder'><div class='vertical-center'><img style='vertical-align:center; align:center' src='img/fixation2_sml.jpg'></div><div class='arrayDiv1'><div class='tc'><img class='introPic' src='trustrating_stim/white_mw070.bmp'><br><font color='red'><strong>Keep</strong></font></div></div></div>","null","ARRAY","1","trustrating_stim/white_mw070.bmp","0","Match","e","1500","","","","",""
"html-keyboard-response","132","316114","0.0-7.0-3.19","640feb5e49b723bcfaad6437","bdp_wmem","Tue Mar 14 2023 13:54:36 GMT-0400 (Eastern Daylight Time)","571723","Match,No Match","","null","","","","","","<div class='trialBorder'><div class='vertical-center'><img src='img/fixation2_sml.jpg'</img></div></div>","null","DELAY","","","","","","","","","","",""
"html-keyboard-response","133","316685","0.0-7.0-4.19","640feb5e49b723bcfaad6437","bdp_wmem","Tue Mar 14 2023 13:54:36 GMT-0400 (Eastern Daylight Time)","571723","Match,No Match","","569","","","","","","<div class='trialBorder'><div class='targDiv'><div class='tc'><img class='introPic' src='trustrating_stim/white_mw070.bmp'><br><font color='red'><strong>Keep</strong></font></div></div><div class='respDiv'><div class='respDivL'>Match<br>(e)</div><div class='respDivR'>No Match<br>(i)</div></div></div>","e","TARGET","1","trustrating_stim/white_mw070.bmp","0","Match","e","1500","trustrating_stim/white_mw070.bmp","red","Keep","REAL","1"
"html-keyboard-response","134","317187","0.0-7.0-5.19","640feb5e49b723bcfaad6437","bdp_wmem","Tue Mar 14 2023 13:54:36 GMT-0400 (Eastern Daylight Time)","571723","Match,No Match","","null","","","","","","<div class='trialBorder'><div class='vertical-center'><img src='img/correct.jpg'></div><div class='respDiv'><div class='respDivL'><font style='color:orange'>Match<br>(e)</font></div><div class='respDivR'>No Match<br>(i)</div></div></div>","null","FEEDBACK","","","","","","","","","","",""
"html-keyboard-response","135","317692","0.0-7.0-1.20","640feb5e49b723bcfaad6437","bdp_wmem","Tue Mar 14 2023 13:54:36 GMT-0400 (Eastern Daylight Time)","571723","Match,No Match","","null","","","","","","<div class='trialBorder'><div class='vertical-center'><img src='img/fixation2_sml.jpg'</img></div></div>","null","FIX","","","","","","","","","","",""
"html-keyboard-response","136","319194","0.0-7.0-2.20","640feb5e49b723bcfaad6437","bdp_wmem","Tue Mar 14 2023 13:54:36 GMT-0400 (Eastern Daylight Time)","571723","Match,No Match","","null","","","","","","<div class='trialBorder'><div class='vertical-center'><img style='vertical-align:center; align:center' src='img/fixation2_sml.jpg'></div><div class='arrayDiv1'><div class='tc'><img class='introPic' src='trustrating_stim/white_mw085.bmp'><br><font color='green'><strong>Share</strong></font></div></div></div>","null","ARRAY","1","trustrating_stim/white_mw085.bmp","1","Match","e","1500","","","","",""
"html-keyboard-response","137","323202","0.0-7.0-3.20","640feb5e49b723bcfaad6437","bdp_wmem","Tue Mar 14 2023 13:54:36 GMT-0400 (Eastern Daylight Time)","571723","Match,No Match","","null","","","","","","<div class='trialBorder'><div class='vertical-center'><img src='img/fixation2_sml.jpg'</img></div></div>","null","DELAY","","","","","","","","","","",""
"html-keyboard-response","138","323727","0.0-7.0-4.20","640feb5e49b723bcfaad6437","bdp_wmem","Tue Mar 14 2023 13:54:36 GMT-0400 (Eastern Daylight Time)","571723","Match,No Match","","523","","","","","","<div class='trialBorder'><div class='targDiv'><div class='tc'><img class='introPic' src='trustrating_stim/white_mw085.bmp'><br><font color='green'><strong>Share</strong></font></div></div><div class='respDiv'><div class='respDivL'>Match<br>(e)</div><div class='respDivR'>No Match<br>(i)</div></div></div>","e","TARGET","1","trustrating_stim/white_mw085.bmp","1","Match","e","1500","trustrating_stim/white_mw085.bmp","green","Share","REAL","1"
"html-keyboard-response","139","324235","0.0-7.0-5.20","640feb5e49b723bcfaad6437","bdp_wmem","Tue Mar 14 2023 13:54:36 GMT-0400 (Eastern Daylight Time)","571723","Match,No Match","","null","","","","","","<div class='trialBorder'><div class='vertical-center'><img src='img/correct.jpg'></div><div class='respDiv'><div class='respDivL'><font style='color:orange'>Match<br>(e)</font></div><div class='respDivR'>No Match<br>(i)</div></div></div>","null","FEEDBACK","","","","","","","","","","",""
"html-keyboard-response","140","324741","0.0-7.0-1.21","640feb5e49b723bcfaad6437","bdp_wmem","Tue Mar 14 2023 13:54:36 GMT-0400 (Eastern Daylight Time)","571723","Match,No Match","","null","","","","","","<div class='trialBorder'><div class='vertical-center'><img src='img/fixation2_sml.jpg'</img></div></div>","null","FIX","","","","","","","","","","",""
"html-keyboard-response","141","327746","0.0-7.0-2.21","640feb5e49b723bcfaad6437","bdp_wmem","Tue Mar 14 2023 13:54:36 GMT-0400 (Eastern Daylight Time)","571723","Match,No Match","","null","","","","","","<div class='trialBorder'><div class='vertical-center'><img style='vertical-align:center; align:center' src='img/fixation2_sml.jpg'></div><div class='arrayDiv2'><div class='tl'><img class='introPic' src='trustrating_stim/white_mw013.bmp'><br><font color='red'><strong>Keep</strong></font></div><div class='tr'><img class='introPic' src='trustrating_stim/white_mw092.bmp'><br><font color='green'><strong>Share</strong></font></div></div></div>","null","ARRAY","2","trustrating_stim/white_mw013.bmp,trustrating_stim/white_mw092.bmp","0,1","noMatchFace","i","3000","","","","",""
"html-keyboard-response","142","331757","0.0-7.0-3.21","640feb5e49b723bcfaad6437","bdp_wmem","Tue Mar 14 2023 13:54:36 GMT-0400 (Eastern Daylight Time)","571723","Match,No Match","","null","","","","","","<div class='trialBorder'><div class='vertical-center'><img src='img/fixation2_sml.jpg'</img></div></div>","null","DELAY","","","","","","","","","","",""
"html-keyboard-response","143","332452","0.0-7.0-4.21","640feb5e49b723bcfaad6437","bdp_wmem","Tue Mar 14 2023 13:54:36 GMT-0400 (Eastern Daylight Time)","571723","Match,No Match","","692","","","","","","<div class='trialBorder'><div class='targDiv'><div class='tc'><img class='introPic' src='trustrating_stim/white_mw070.bmp'><br><font color='red'><strong>Keep</strong></font></div></div><div class='respDiv'><div class='respDivL'>Match<br>(e)</div><div class='respDivR'>No Match<br>(i)</div></div></div>","i","TARGET","2","trustrating_stim/white_mw013.bmp,trustrating_stim/white_mw092.bmp","0,1","noMatchFace","i","3000","trustrating_stim/white_mw070.bmp","red","Keep","REAL","1"
"html-keyboard-response","144","332954","0.0-7.0-5.21","640feb5e49b723bcfaad6437","bdp_wmem","Tue Mar 14 2023 13:54:36 GMT-0400 (Eastern Daylight Time)","571723","Match,No Match","","null","","","","","","<div class='trialBorder'><div class='vertical-center'><img src='img/correct.jpg'></div><div class='respDiv'><div class='respDivL'>Match<br>(e)</div><div class='respDivR'><font style='color:orange'>No Match<br>(i)</font></div></div></div>","null","FEEDBACK","","","","","","","","","","",""
"html-keyboard-response","145","333459","0.0-7.0-1.22","640feb5e49b723bcfaad6437","bdp_wmem","Tue Mar 14 2023 13:54:36 GMT-0400 (Eastern Daylight Time)","571723","Match,No Match","","null","","","","","","<div class='trialBorder'><div class='vertical-center'><img src='img/fixation2_sml.jpg'</img></div></div>","null","FIX","","","","","","","","","","",""
"html-keyboard-response","146","334962","0.0-7.0-2.22","640feb5e49b723bcfaad6437","bdp_wmem","Tue Mar 14 2023 13:54:36 GMT-0400 (Eastern Daylight Time)","571723","Match,No Match","","null","","","","","","<div class='trialBorder'><div class='vertical-center'><img style='vertical-align:center; align:center' src='img/fixation2_sml.jpg'></div><div class='arrayDiv1'><div class='tc'><img class='introPic' src='trustrating_stim/white_mw070.bmp'><br><font color='green'><strong>Share</strong></font></div></div></div>","null","ARRAY","1","trustrating_stim/white_mw070.bmp","1","noMatchFace","i","1500","","","","",""
"html-keyboard-response","147","338973","0.0-7.0-3.22","640feb5e49b723bcfaad6437","bdp_wmem","Tue Mar 14 2023 13:54:36 GMT-0400 (Eastern Daylight Time)","571723","Match,No Match","","null","","","","","","<div class='trialBorder'><div class='vertical-center'><img src='img/fixation2_sml.jpg'</img></div></div>","null","DELAY","","","","","","","","","","",""
"html-keyboard-response","148","339545","0.0-7.0-4.22","640feb5e49b723bcfaad6437","bdp_wmem","Tue Mar 14 2023 13:54:36 GMT-0400 (Eastern Daylight Time)","571723","Match,No Match","","570","","","","","","<div class='trialBorder'><div class='targDiv'><div class='tc'><img class='introPic' src='trustrating_stim/white_mw092.bmp'><br><font color='green'><strong>Share</strong></font></div></div><div class='respDiv'><div class='respDivL'>Match<br>(e)</div><div class='respDivR'>No Match<br>(i)</div></div></div>","i","TARGET","1","trustrating_stim/white_mw070.bmp","1","noMatchFace","i","1500","trustrating_stim/white_mw092.bmp","green","Share","REAL","1"
"html-keyboard-response","149","340054","0.0-7.0-5.22","640feb5e49b723bcfaad6437","bdp_wmem","Tue Mar 14 2023 13:54:36 GMT-0400 (Eastern Daylight Time)","571723","Match,No Match","","null","","","","","","<div class='trialBorder'><div class='vertical-center'><img src='img/correct.jpg'></div><div class='respDiv'><div class='respDivL'>Match<br>(e)</div><div class='respDivR'><font style='color:orange'>No Match<br>(i)</font></div></div></div>","null","FEEDBACK","","","","","","","","","","",""
"html-keyboard-response","150","340564","0.0-7.0-1.23","640feb5e49b723bcfaad6437","bdp_wmem","Tue Mar 14 2023 13:54:36 GMT-0400 (Eastern Daylight Time)","571723","Match,No Match","","null","","","","","","<div class='trialBorder'><div class='vertical-center'><img src='img/fixation2_sml.jpg'</img></div></div>","null","FIX","","","","","","","","","","",""
"html-keyboard-response","151","342078","0.0-7.0-2.23","640feb5e49b723bcfaad6437","bdp_wmem","Tue Mar 14 2023 13:54:36 GMT-0400 (Eastern Daylight Time)","571723","Match,No Match","","null","","","","","","<div class='trialBorder'><div class='vertical-center'><img style='vertical-align:center; align:center' src='img/fixation2_sml.jpg'></div><div class='arrayDiv1'><div class='tc'><img class='introPic' src='trustrating_stim/white_mw091.bmp'><br><font color='green'><strong>Share</strong></font></div></div></div>","null","ARRAY","1","trustrating_stim/white_mw091.bmp","1","noMatchFace","i","1500","","","","",""
"html-keyboard-response","152","346085","0.0-7.0-3.23","640feb5e49b723bcfaad6437","bdp_wmem","Tue Mar 14 2023 13:54:36 GMT-0400 (Eastern Daylight Time)","571723","Match,No Match","","null","","","","","","<div class='trialBorder'><div class='vertical-center'><img src='img/fixation2_sml.jpg'</img></div></div>","null","DELAY","","","","","","","","","","",""
"html-keyboard-response","153","346837","0.0-7.0-4.23","640feb5e49b723bcfaad6437","bdp_wmem","Tue Mar 14 2023 13:54:36 GMT-0400 (Eastern Daylight Time)","571723","Match,No Match","","750","","","","","","<div class='trialBorder'><div class='targDiv'><div class='tc'><img class='introPic' src='trustrating_stim/white_mw070.bmp'><br><font color='green'><strong>Share</strong></font></div></div><div class='respDiv'><div class='respDivL'>Match<br>(e)</div><div class='respDivR'>No Match<br>(i)</div></div></div>","i","TARGET","1","trustrating_stim/white_mw091.bmp","1","noMatchFace","i","1500","trustrating_stim/white_mw070.bmp","green","Share","REAL","1"
"html-keyboard-response","154","347339","0.0-7.0-5.23","640feb5e49b723bcfaad6437","bdp_wmem","Tue Mar 14 2023 13:54:36 GMT-0400 (Eastern Daylight Time)","571723","Match,No Match","","null","","","","","","<div class='trialBorder'><div class='vertical-center'><img src='img/correct.jpg'></div><div class='respDiv'><div class='respDivL'>Match<br>(e)</div><div class='respDivR'><font style='color:orange'>No Match<br>(i)</font></div></div></div>","null","FEEDBACK","","","","","","","","","","",""
"html-keyboard-response","155","347844","0.0-7.0-1.24","640feb5e49b723bcfaad6437","bdp_wmem","Tue Mar 14 2023 13:54:36 GMT-0400 (Eastern Daylight Time)","571723","Match,No Match","","null","","","","","","<div class='trialBorder'><div class='vertical-center'><img src='img/fixation2_sml.jpg'</img></div></div>","null","FIX","","","","","","","","","","",""
"html-keyboard-response","156","350851","0.0-7.0-2.24","640feb5e49b723bcfaad6437","bdp_wmem","Tue Mar 14 2023 13:54:36 GMT-0400 (Eastern Daylight Time)","571723","Match,No Match","","null","","","","","","<div class='trialBorder'><div class='vertical-center'><img style='vertical-align:center; align:center' src='img/fixation2_sml.jpg'></div><div class='arrayDiv2'><div class='tl'><img class='introPic' src='trustrating_stim/white_mw070.bmp'><br><font color='green'><strong>Share</strong></font></div><div class='tr'><img class='introPic' src='trustrating_stim/white_mw003.bmp'><br><font color='red'><strong>Keep</strong></font></div></div></div>","null","ARRAY","2","trustrating_stim/white_mw070.bmp,trustrating_stim/white_mw003.bmp","1,0","Match","e","3000","","","","",""
"html-keyboard-response","157","354861","0.0-7.0-3.24","640feb5e49b723bcfaad6437","bdp_wmem","Tue Mar 14 2023 13:54:36 GMT-0400 (Eastern Daylight Time)","571723","Match,No Match","","null","","","","","","<div class='trialBorder'><div class='vertical-center'><img src='img/fixation2_sml.jpg'</img></div></div>","null","DELAY","","","","","","","","","","",""
"html-keyboard-response","158","356254","0.0-7.0-4.24","640feb5e49b723bcfaad6437","bdp_wmem","Tue Mar 14 2023 13:54:36 GMT-0400 (Eastern Daylight Time)","571723","Match,No Match","","1390","","","","","","<div class='trialBorder'><div class='targDiv'><div class='tc'><img class='introPic' src='trustrating_stim/white_mw070.bmp'><br><font color='green'><strong>Share</strong></font></div></div><div class='respDiv'><div class='respDivL'>Match<br>(e)</div><div class='respDivR'>No Match<br>(i)</div></div></div>","e","TARGET","2","trustrating_stim/white_mw070.bmp,trustrating_stim/white_mw003.bmp","1,0","Match","e","3000","trustrating_stim/white_mw070.bmp","green","Share","REAL","1"
"html-keyboard-response","159","356767","0.0-7.0-5.24","640feb5e49b723bcfaad6437","bdp_wmem","Tue Mar 14 2023 13:54:36 GMT-0400 (Eastern Daylight Time)","571723","Match,No Match","","null","","","","","","<div class='trialBorder'><div class='vertical-center'><img src='img/correct.jpg'></div><div class='respDiv'><div class='respDivL'><font style='color:orange'>Match<br>(e)</font></div><div class='respDivR'>No Match<br>(i)</div></div></div>","null","FEEDBACK","","","","","","","","","","",""
"html-keyboard-response","160","357277","0.0-7.0-1.25","640feb5e49b723bcfaad6437","bdp_wmem","Tue Mar 14 2023 13:54:36 GMT-0400 (Eastern Daylight Time)","571723","Match,No Match","","null","","","","","","<div class='trialBorder'><div class='vertical-center'><img src='img/fixation2_sml.jpg'</img></div></div>","null","FIX","","","","","","","","","","",""
"html-keyboard-response","161","360284","0.0-7.0-2.25","640feb5e49b723bcfaad6437","bdp_wmem","Tue Mar 14 2023 13:54:36 GMT-0400 (Eastern Daylight Time)","571723","Match,No Match","","null","","","","","","<div class='trialBorder'><div class='vertical-center'><img style='vertical-align:center; align:center' src='img/fixation2_sml.jpg'></div><div class='arrayDiv2'><div class='tl'><img class='introPic' src='trustrating_stim/white_mw038.bmp'><br><font color='red'><strong>Keep</strong></font></div><div class='tr'><img class='introPic' src='trustrating_stim/white_mw042.bmp'><br><font color='green'><strong>Share</strong></font></div></div></div>","null","ARRAY","2","trustrating_stim/white_mw038.bmp,trustrating_stim/white_mw042.bmp","0,1","noMatchOutcome","i","3000","","","","",""
"html-keyboard-response","162","364295","0.0-7.0-3.25","640feb5e49b723bcfaad6437","bdp_wmem","Tue Mar 14 2023 13:54:36 GMT-0400 (Eastern Daylight Time)","571723","Match,No Match","","null","","","","","","<div class='trialBorder'><div class='vertical-center'><img src='img/fixation2_sml.jpg'</img></div></div>","null","DELAY","","","","","","","","","","",""
"html-keyboard-response","163","365239","0.0-7.0-4.25","640feb5e49b723bcfaad6437","bdp_wmem","Tue Mar 14 2023 13:54:36 GMT-0400 (Eastern Daylight Time)","571723","Match,No Match","","941","","","","","","<div class='trialBorder'><div class='targDiv'><div class='tc'><img class='introPic' src='trustrating_stim/white_mw038.bmp'><br><font color='green'><strong>Share</strong></font></div></div><div class='respDiv'><div class='respDivL'>Match<br>(e)</div><div class='respDivR'>No Match<br>(i)</div></div></div>","i","TARGET","2","trustrating_stim/white_mw038.bmp,trustrating_stim/white_mw042.bmp","0,1","noMatchOutcome","i","3000","trustrating_stim/white_mw038.bmp","green","Share","REAL","1"
"html-keyboard-response","164","365748","0.0-7.0-5.25","640feb5e49b723bcfaad6437","bdp_wmem","Tue Mar 14 2023 13:54:36 GMT-0400 (Eastern Daylight Time)","571723","Match,No Match","","null","","","","","","<div class='trialBorder'><div class='vertical-center'><img src='img/correct.jpg'></div><div class='respDiv'><div class='respDivL'>Match<br>(e)</div><div class='respDivR'><font style='color:orange'>No Match<br>(i)</font></div></div></div>","null","FEEDBACK","","","","","","","","","","",""
"html-keyboard-response","165","366251","0.0-7.0-1.26","640feb5e49b723bcfaad6437","bdp_wmem","Tue Mar 14 2023 13:54:36 GMT-0400 (Eastern Daylight Time)","571723","Match,No Match","","null","","","","","","<div class='trialBorder'><div class='vertical-center'><img src='img/fixation2_sml.jpg'</img></div></div>","null","FIX","","","","","","","","","","",""
"html-keyboard-response","166","370756","0.0-7.0-2.26","640feb5e49b723bcfaad6437","bdp_wmem","Tue Mar 14 2023 13:54:36 GMT-0400 (Eastern Daylight Time)","571723","Match,No Match","","null","","","","","","<div class='trialBorder'><div class='vertical-center'><img style='vertical-align:center; align:center' src='img/fixation2_sml.jpg'></div><div class='arrayDiv3'><div class='tl'><img class='introPic' src='trustrating_stim/white_mw012.bmp'><br><font color='green'><strong>Share</strong></font></div><div class='tc'><img class='introPic' src='trustrating_stim/white_mw042.bmp'><br><font color='red'><strong>Keep</strong></font></div><div class='tr'><img class='introPic' src='trustrating_stim/white_mw010.bmp'><br><font color='green'><strong>Share</strong></font></div></div></div>","null","ARRAY","3","trustrating_stim/white_mw012.bmp,trustrating_stim/white_mw042.bmp,trustrating_stim/white_mw010.bmp","1,0,1","noMatchFace","i","4500","","","","",""
"html-keyboard-response","167","374767","0.0-7.0-3.26","640feb5e49b723bcfaad6437","bdp_wmem","Tue Mar 14 2023 13:54:36 GMT-0400 (Eastern Daylight Time)","571723","Match,No Match","","null","","","","","","<div class='trialBorder'><div class='vertical-center'><img src='img/fixation2_sml.jpg'</img></div></div>","null","DELAY","","","","","","","","","","",""
"html-keyboard-response","168","375816","0.0-7.0-4.26","640feb5e49b723bcfaad6437","bdp_wmem","Tue Mar 14 2023 13:54:36 GMT-0400 (Eastern Daylight Time)","571723","Match,No Match","","1047","","","","","","<div class='trialBorder'><div class='targDiv'><div class='tc'><img class='introPic' src='trustrating_stim/white_mw085.bmp'><br><font color='green'><strong>Share</strong></font></div></div><div class='respDiv'><div class='respDivL'>Match<br>(e)</div><div class='respDivR'>No Match<br>(i)</div></div></div>","i","TARGET","3","trustrating_stim/white_mw012.bmp,trustrating_stim/white_mw042.bmp,trustrating_stim/white_mw010.bmp","1,0,1","noMatchFace","i","4500","trustrating_stim/white_mw085.bmp","green","Share","REAL","1"
"html-keyboard-response","169","376327","0.0-7.0-5.26","640feb5e49b723bcfaad6437","bdp_wmem","Tue Mar 14 2023 13:54:36 GMT-0400 (Eastern Daylight Time)","571723","Match,No Match","","null","","","","","","<div class='trialBorder'><div class='vertical-center'><img src='img/correct.jpg'></div><div class='respDiv'><div class='respDivL'>Match<br>(e)</div><div class='respDivR'><font style='color:orange'>No Match<br>(i)</font></div></div></div>","null","FEEDBACK","","","","","","","","","","",""
"html-keyboard-response","170","376835","0.0-7.0-1.27","640feb5e49b723bcfaad6437","bdp_wmem","Tue Mar 14 2023 13:54:36 GMT-0400 (Eastern Daylight Time)","571723","Match,No Match","","null","","","","","","<div class='trialBorder'><div class='vertical-center'><img src='img/fixation2_sml.jpg'</img></div></div>","null","FIX","","","","","","","","","","",""
"html-keyboard-response","171","379847","0.0-7.0-2.27","640feb5e49b723bcfaad6437","bdp_wmem","Tue Mar 14 2023 13:54:36 GMT-0400 (Eastern Daylight Time)","571723","Match,No Match","","null","","","","","","<div class='trialBorder'><div class='vertical-center'><img style='vertical-align:center; align:center' src='img/fixation2_sml.jpg'></div><div class='arrayDiv2'><div class='tl'><img class='introPic' src='trustrating_stim/white_mw012.bmp'><br><font color='red'><strong>Keep</strong></font></div><div class='tr'><img class='introPic' src='trustrating_stim/white_mw040.bmp'><br><font color='green'><strong>Share</strong></font></div></div></div>","null","ARRAY","2","trustrating_stim/white_mw012.bmp,trustrating_stim/white_mw040.bmp","0,1","Match","e","3000","","","","",""
"html-keyboard-response","172","383852","0.0-7.0-3.27","640feb5e49b723bcfaad6437","bdp_wmem","Tue Mar 14 2023 13:54:36 GMT-0400 (Eastern Daylight Time)","571723","Match,No Match","","null","","","","","","<div class='trialBorder'><div class='vertical-center'><img src='img/fixation2_sml.jpg'</img></div></div>","null","DELAY","","","","","","","","","","",""
"html-keyboard-response","173","385015","0.0-7.0-4.27","640feb5e49b723bcfaad6437","bdp_wmem","Tue Mar 14 2023 13:54:36 GMT-0400 (Eastern Daylight Time)","571723","Match,No Match","","1160","","","","","","<div class='trialBorder'><div class='targDiv'><div class='tc'><img class='introPic' src='trustrating_stim/white_mw012.bmp'><br><font color='red'><strong>Keep</strong></font></div></div><div class='respDiv'><div class='respDivL'>Match<br>(e)</div><div class='respDivR'>No Match<br>(i)</div></div></div>","e","TARGET","2","trustrating_stim/white_mw012.bmp,trustrating_stim/white_mw040.bmp","0,1","Match","e","3000","trustrating_stim/white_mw012.bmp","red","Keep","REAL","1"
"html-keyboard-response","174","385527","0.0-7.0-5.27","640feb5e49b723bcfaad6437","bdp_wmem","Tue Mar 14 2023 13:54:36 GMT-0400 (Eastern Daylight Time)","571723","Match,No Match","","null","","","","","","<div class='trialBorder'><div class='vertical-center'><img src='img/correct.jpg'></div><div class='respDiv'><div class='respDivL'><font style='color:orange'>Match<br>(e)</font></div><div class='respDivR'>No Match<br>(i)</div></div></div>","null","FEEDBACK","","","","","","","","","","",""
"html-keyboard-response","175","386036","0.0-7.0-1.28","640feb5e49b723bcfaad6437","bdp_wmem","Tue Mar 14 2023 13:54:36 GMT-0400 (Eastern Daylight Time)","571723","Match,No Match","","null","","","","","","<div class='trialBorder'><div class='vertical-center'><img src='img/fixation2_sml.jpg'</img></div></div>","null","FIX","","","","","","","","","","",""
"html-keyboard-response","176","389043","0.0-7.0-2.28","640feb5e49b723bcfaad6437","bdp_wmem","Tue Mar 14 2023 13:54:36 GMT-0400 (Eastern Daylight Time)","571723","Match,No Match","","null","","","","","","<div class='trialBorder'><div class='vertical-center'><img style='vertical-align:center; align:center' src='img/fixation2_sml.jpg'></div><div class='arrayDiv2'><div class='tl'><img class='introPic' src='trustrating_stim/white_mw070.bmp'><br><font color='green'><strong>Share</strong></font></div><div class='tr'><img class='introPic' src='trustrating_stim/white_mw042.bmp'><br><font color='red'><strong>Keep</strong></font></div></div></div>","null","ARRAY","2","trustrating_stim/white_mw070.bmp,trustrating_stim/white_mw042.bmp","1,0","noMatchOutcome","i","3000","","","","",""
"html-keyboard-response","177","393053","0.0-7.0-3.28","640feb5e49b723bcfaad6437","bdp_wmem","Tue Mar 14 2023 13:54:36 GMT-0400 (Eastern Daylight Time)","571723","Match,No Match","","null","","","","","","<div class='trialBorder'><div class='vertical-center'><img src='img/fixation2_sml.jpg'</img></div></div>","null","DELAY","","","","","","","","","","",""
"html-keyboard-response","178","394186","0.0-7.0-4.28","640feb5e49b723bcfaad6437","bdp_wmem","Tue Mar 14 2023 13:54:36 GMT-0400 (Eastern Daylight Time)","571723","Match,No Match","","1131","","","","","","<div class='trialBorder'><div class='targDiv'><div class='tc'><img class='introPic' src='trustrating_stim/white_mw042.bmp'><br><font color='green'><strong>Share</strong></font></div></div><div class='respDiv'><div class='respDivL'>Match<br>(e)</div><div class='respDivR'>No Match<br>(i)</div></div></div>","i","TARGET","2","trustrating_stim/white_mw070.bmp,trustrating_stim/white_mw042.bmp","1,0","noMatchOutcome","i","3000","trustrating_stim/white_mw042.bmp","green","Share","REAL","1"
"html-keyboard-response","179","394691","0.0-7.0-5.28","640feb5e49b723bcfaad6437","bdp_wmem","Tue Mar 14 2023 13:54:36 GMT-0400 (Eastern Daylight Time)","571723","Match,No Match","","null","","","","","","<div class='trialBorder'><div class='vertical-center'><img src='img/correct.jpg'></div><div class='respDiv'><div class='respDivL'>Match<br>(e)</div><div class='respDivR'><font style='color:orange'>No Match<br>(i)</font></div></div></div>","null","FEEDBACK","","","","","","","","","","",""
"html-keyboard-response","180","395197","0.0-7.0-1.29","640feb5e49b723bcfaad6437","bdp_wmem","Tue Mar 14 2023 13:54:36 GMT-0400 (Eastern Daylight Time)","571723","Match,No Match","","null","","","","","","<div class='trialBorder'><div class='vertical-center'><img src='img/fixation2_sml.jpg'</img></div></div>","null","FIX","","","","","","","","","","",""
"html-keyboard-response","181","398204","0.0-7.0-2.29","640feb5e49b723bcfaad6437","bdp_wmem","Tue Mar 14 2023 13:54:36 GMT-0400 (Eastern Daylight Time)","571723","Match,No Match","","null","","","","","","<div class='trialBorder'><div class='vertical-center'><img style='vertical-align:center; align:center' src='img/fixation2_sml.jpg'></div><div class='arrayDiv2'><div class='tl'><img class='introPic' src='trustrating_stim/white_mw040.bmp'><br><font color='red'><strong>Keep</strong></font></div><div class='tr'><img class='introPic' src='trustrating_stim/white_mw042.bmp'><br><font color='green'><strong>Share</strong></font></div></div></div>","null","ARRAY","2","trustrating_stim/white_mw040.bmp,trustrating_stim/white_mw042.bmp","0,1","noMatchOutcome","i","3000","","","","",""
"html-keyboard-response","182","402214","0.0-7.0-3.29","640feb5e49b723bcfaad6437","bdp_wmem","Tue Mar 14 2023 13:54:36 GMT-0400 (Eastern Daylight Time)","571723","Match,No Match","","null","","","","","","<div class='trialBorder'><div class='vertical-center'><img src='img/fixation2_sml.jpg'</img></div></div>","null","DELAY","","","","","","","","","","",""
"html-keyboard-response","183","403087","0.0-7.0-4.29","640feb5e49b723bcfaad6437","bdp_wmem","Tue Mar 14 2023 13:54:36 GMT-0400 (Eastern Daylight Time)","571723","Match,No Match","","870","","","","","","<div class='trialBorder'><div class='targDiv'><div class='tc'><img class='introPic' src='trustrating_stim/white_mw040.bmp'><br><font color='green'><strong>Share</strong></font></div></div><div class='respDiv'><div class='respDivL'>Match<br>(e)</div><div class='respDivR'>No Match<br>(i)</div></div></div>","i","TARGET","2","trustrating_stim/white_mw040.bmp,trustrating_stim/white_mw042.bmp","0,1","noMatchOutcome","i","3000","trustrating_stim/white_mw040.bmp","green","Share","REAL","1"
"html-keyboard-response","184","403590","0.0-7.0-5.29","640feb5e49b723bcfaad6437","bdp_wmem","Tue Mar 14 2023 13:54:36 GMT-0400 (Eastern Daylight Time)","571723","Match,No Match","","null","","","","","","<div class='trialBorder'><div class='vertical-center'><img src='img/correct.jpg'></div><div class='respDiv'><div class='respDivL'>Match<br>(e)</div><div class='respDivR'><font style='color:orange'>No Match<br>(i)</font></div></div></div>","null","FEEDBACK","","","","","","","","","","",""
"html-keyboard-response","185","404101","0.0-7.0-1.30","640feb5e49b723bcfaad6437","bdp_wmem","Tue Mar 14 2023 13:54:36 GMT-0400 (Eastern Daylight Time)","571723","Match,No Match","","null","","","","","","<div class='trialBorder'><div class='vertical-center'><img src='img/fixation2_sml.jpg'</img></div></div>","null","FIX","","","","","","","","","","",""
"html-keyboard-response","186","408607","0.0-7.0-2.30","640feb5e49b723bcfaad6437","bdp_wmem","Tue Mar 14 2023 13:54:36 GMT-0400 (Eastern Daylight Time)","571723","Match,No Match","","null","","","","","","<div class='trialBorder'><div class='vertical-center'><img style='vertical-align:center; align:center' src='img/fixation2_sml.jpg'></div><div class='arrayDiv3'><div class='tl'><img class='introPic' src='trustrating_stim/white_mw040.bmp'><br><font color='green'><strong>Share</strong></font></div><div class='tc'><img class='introPic' src='trustrating_stim/white_mw070.bmp'><br><font color='red'><strong>Keep</strong></font></div><div class='tr'><img class='introPic' src='trustrating_stim/white_mw091.bmp'><br><font color='red'><strong>Keep</strong></font></div></div></div>","null","ARRAY","3","trustrating_stim/white_mw040.bmp,trustrating_stim/white_mw070.bmp,trustrating_stim/white_mw091.bmp","1,0,0","noMatchFace","i","4500","","","","",""
"html-keyboard-response","187","412612","0.0-7.0-3.30","640feb5e49b723bcfaad6437","bdp_wmem","Tue Mar 14 2023 13:54:36 GMT-0400 (Eastern Daylight Time)","571723","Match,No Match","","null","","","","","","<div class='trialBorder'><div class='vertical-center'><img src='img/fixation2_sml.jpg'</img></div></div>","null","DELAY","","","","","","","","","","",""
"html-keyboard-response","188","413616","0.0-7.0-4.30","640feb5e49b723bcfaad6437","bdp_wmem","Tue Mar 14 2023 13:54:36 GMT-0400 (Eastern Daylight Time)","571723","Match,No Match","","1002","","","","","","<div class='trialBorder'><div class='targDiv'><div class='tc'><img class='introPic' src='trustrating_stim/white_mw013.bmp'><br><font color='red'><strong>Keep</strong></font></div></div><div class='respDiv'><div class='respDivL'>Match<br>(e)</div><div class='respDivR'>No Match<br>(i)</div></div></div>","i","TARGET","3","trustrating_stim/white_mw040.bmp,trustrating_stim/white_mw070.bmp,trustrating_stim/white_mw091.bmp","1,0,0","noMatchFace","i","4500","trustrating_stim/white_mw013.bmp","red","Keep","REAL","1"
