"trial_type","trial_index","time_elapsed","internal_node_id","subject_id","task","startTime","totalTime","labels","view_history","rt","event","trial","time","trialtype","success","stimulus","key_press","stimType","arraySize","arrayFaces","arrayOutcomes","matchType","corrResp","arrayDur","targFace","targCol","targOutcome","trialType","corr"
"pavlovia","0","12","0.0-0.0","608f2aa883599160c8b87a79","bdp_wmem","Tue May 11 2021 19:50:44 GMT-0700 (Pacific Daylight Time)","632902","Match,No Match","","","","","","","","","","","","","","","","","","","","",""
"instructions","1","4110","0.0-1.0","608f2aa883599160c8b87a79","bdp_wmem","Tue May 11 2021 19:50:44 GMT-0700 (Pacific Daylight Time)","632902","Match,No Match","[{""page_index"":0,""viewing_time"":4095}]","4096","","","","","","","","","","","","","","","","","","",""
"","","","","608f2aa883599160c8b87a79","bdp_wmem","Tue May 11 2021 19:50:44 GMT-0700 (Pacific Daylight Time)","632902","Match,No Match","","","fullscreenenter","2","6669","fullscreenenter","","","","","","","","","","","","","","",""
"fullscreen","2","7629","0.0-2.0","608f2aa883599160c8b87a79","bdp_wmem","Tue May 11 2021 19:50:44 GMT-0700 (Pacific Daylight Time)","632902","Match,No Match","","","","","","","true","","","","","","","","","","","","","",""
"instructions","3","80916","0.0-4.0","608f2aa883599160c8b87a79","bdp_wmem","Tue May 11 2021 19:50:44 GMT-0700 (Pacific Daylight Time)","632902","Match,No Match","[{""page_index"":0,""viewing_time"":33430},{""page_index"":1,""viewing_time"":3723},{""page_index"":2,""viewing_time"":8890},{""page_index"":3,""viewing_time"":4750},{""page_index"":4,""viewing_time"":22490}]","73284","","","","","","","","","","","","","","","","","","",""
"html-keyboard-response","4","81430","0.0-5.0-1.0","608f2aa883599160c8b87a79","bdp_wmem","Tue May 11 2021 19:50:44 GMT-0700 (Pacific Daylight Time)","632902","Match,No Match","","null","","","","","","<div class='trialBorder'><div class='vertical-center'><img src='img/fixation2_sml.jpg'</img></div></div>","null","FIX","","","","","","","","","","",""
"html-keyboard-response","5","82940","0.0-5.0-2.0","608f2aa883599160c8b87a79","bdp_wmem","Tue May 11 2021 19:50:44 GMT-0700 (Pacific Daylight Time)","632902","Match,No Match","","null","","","","","","<div class='trialBorder'><div class='vertical-center'><img style='vertical-align:center; align:center' src='img/fixation2_sml.jpg'></div><div class='arrayDiv1'><div class='tc'><img class='introPic' src='trustrating_stim/white_mw012.bmp'><br><font color='red'><strong>Keep</strong></font></div></div></div>","null","ARRAY","1","trustrating_stim/white_mw012.bmp","0","noMatchFace","i","1500","","","","",""
"html-keyboard-response","6","86944","0.0-5.0-3.0","608f2aa883599160c8b87a79","bdp_wmem","Tue May 11 2021 19:50:44 GMT-0700 (Pacific Daylight Time)","632902","Match,No Match","","null","","","","","","<div class='trialBorder'><div class='vertical-center'><img src='img/fixation2_sml.jpg'</img></div></div>","null","DELAY","","","","","","","","","","",""
"html-keyboard-response","7","88563","0.0-5.0-4.0","608f2aa883599160c8b87a79","bdp_wmem","Tue May 11 2021 19:50:44 GMT-0700 (Pacific Daylight Time)","632902","Match,No Match","","1613","","","","","","<div class='trialBorder'><div class='targDiv'><div class='tc'><img class='introPic' src='trustrating_stim/white_mw092.bmp'><br><font color='red'><strong>Keep</strong></font></div></div><div class='respDiv'><div class='respDivL'>Match<br>(e)</div><div class='respDivR'>No Match<br>(i)</div></div></div>","e","TARGET","1","trustrating_stim/white_mw012.bmp","0","noMatchFace","i","1500","trustrating_stim/white_mw092.bmp","red","Keep","PRACTICE","0"
"html-keyboard-response","8","89072","0.0-5.0-5.0","608f2aa883599160c8b87a79","bdp_wmem","Tue May 11 2021 19:50:44 GMT-0700 (Pacific Daylight Time)","632902","Match,No Match","","null","","","","","","<div class='trialBorder'><div class='vertical-center'><img src='img/error.jpg'></div><div class='respDiv'><div class='respDivL'><font style='color:orange'>Match<br>(e)</font></div><div class='respDivR'>No Match<br>(i)</div></div></div>","null","FEEDBACK","","","","","","","","","","",""
"html-keyboard-response","9","89584","0.0-5.0-1.1","608f2aa883599160c8b87a79","bdp_wmem","Tue May 11 2021 19:50:44 GMT-0700 (Pacific Daylight Time)","632902","Match,No Match","","null","","","","","","<div class='trialBorder'><div class='vertical-center'><img src='img/fixation2_sml.jpg'</img></div></div>","null","FIX","","","","","","","","","","",""
"html-keyboard-response","10","94097","0.0-5.0-2.1","608f2aa883599160c8b87a79","bdp_wmem","Tue May 11 2021 19:50:44 GMT-0700 (Pacific Daylight Time)","632902","Match,No Match","","null","","","","","","<div class='trialBorder'><div class='vertical-center'><img style='vertical-align:center; align:center' src='img/fixation2_sml.jpg'></div><div class='arrayDiv3'><div class='tl'><img class='introPic' src='trustrating_stim/white_00050_931230_fa_edt.bmp'><br><font color='green'><strong>Share</strong></font></div><div class='tc'><img class='introPic' src='trustrating_stim/white_00807_941205_fb_edt.bmp'><br><font color='red'><strong>Keep</strong></font></div><div class='tr'><img class='introPic' src='trustrating_stim/white_mw040.bmp'><br><font color='green'><strong>Share</strong></font></div></div></div>","null","ARRAY","3","trustrating_stim/white_00050_931230_fa_edt.bmp,trustrating_stim/white_00807_941205_fb_edt.bmp,trustrating_stim/white_mw040.bmp","1,0,1","Match","e","4500","","","","",""
"html-keyboard-response","11","98105","0.0-5.0-3.1","608f2aa883599160c8b87a79","bdp_wmem","Tue May 11 2021 19:50:44 GMT-0700 (Pacific Daylight Time)","632902","Match,No Match","","null","","","","","","<div class='trialBorder'><div class='vertical-center'><img src='img/fixation2_sml.jpg'</img></div></div>","null","DELAY","","","","","","","","","","",""
"html-keyboard-response","12","115833","0.0-5.0-4.1","608f2aa883599160c8b87a79","bdp_wmem","Tue May 11 2021 19:50:44 GMT-0700 (Pacific Daylight Time)","632902","Match,No Match","","17723","","","","","","<div class='trialBorder'><div class='targDiv'><div class='tc'><img class='introPic' src='trustrating_stim/white_mw040.bmp'><br><font color='green'><strong>Share</strong></font></div></div><div class='respDiv'><div class='respDivL'>Match<br>(e)</div><div class='respDivR'>No Match<br>(i)</div></div></div>","i","TARGET","3","trustrating_stim/white_00050_931230_fa_edt.bmp,trustrating_stim/white_00807_941205_fb_edt.bmp,trustrating_stim/white_mw040.bmp","1,0,1","Match","e","4500","trustrating_stim/white_mw040.bmp","green","Share","PRACTICE","0"
"html-keyboard-response","13","116349","0.0-5.0-5.1","608f2aa883599160c8b87a79","bdp_wmem","Tue May 11 2021 19:50:44 GMT-0700 (Pacific Daylight Time)","632902","Match,No Match","","null","","","","","","<div class='trialBorder'><div class='vertical-center'><img src='img/error.jpg'></div><div class='respDiv'><div class='respDivL'>Match<br>(e)</div><div class='respDivR'><font style='color:orange'>No Match<br>(i)</font></div></div></div>","null","FEEDBACK","","","","","","","","","","",""
"html-keyboard-response","14","116860","0.0-5.0-1.2","608f2aa883599160c8b87a79","bdp_wmem","Tue May 11 2021 19:50:44 GMT-0700 (Pacific Daylight Time)","632902","Match,No Match","","null","","","","","","<div class='trialBorder'><div class='vertical-center'><img src='img/fixation2_sml.jpg'</img></div></div>","null","FIX","","","","","","","","","","",""
"html-keyboard-response","15","119868","0.0-5.0-2.2","608f2aa883599160c8b87a79","bdp_wmem","Tue May 11 2021 19:50:44 GMT-0700 (Pacific Daylight Time)","632902","Match,No Match","","null","","","","","","<div class='trialBorder'><div class='vertical-center'><img style='vertical-align:center; align:center' src='img/fixation2_sml.jpg'></div><div class='arrayDiv2'><div class='tl'><img class='introPic' src='trustrating_stim/white_mw033.bmp'><br><font color='red'><strong>Keep</strong></font></div><div class='tr'><img class='introPic' src='trustrating_stim/white_mw012.bmp'><br><font color='green'><strong>Share</strong></font></div></div></div>","null","ARRAY","2","trustrating_stim/white_mw033.bmp,trustrating_stim/white_mw012.bmp","0,1","Match","e","3000","","","","",""
"html-keyboard-response","16","123875","0.0-5.0-3.2","608f2aa883599160c8b87a79","bdp_wmem","Tue May 11 2021 19:50:44 GMT-0700 (Pacific Daylight Time)","632902","Match,No Match","","null","","","","","","<div class='trialBorder'><div class='vertical-center'><img src='img/fixation2_sml.jpg'</img></div></div>","null","DELAY","","","","","","","","","","",""
"html-keyboard-response","17","125999","0.0-5.0-4.2","608f2aa883599160c8b87a79","bdp_wmem","Tue May 11 2021 19:50:44 GMT-0700 (Pacific Daylight Time)","632902","Match,No Match","","2119","","","","","","<div class='trialBorder'><div class='targDiv'><div class='tc'><img class='introPic' src='trustrating_stim/white_mw012.bmp'><br><font color='green'><strong>Share</strong></font></div></div><div class='respDiv'><div class='respDivL'>Match<br>(e)</div><div class='respDivR'>No Match<br>(i)</div></div></div>","e","TARGET","2","trustrating_stim/white_mw033.bmp,trustrating_stim/white_mw012.bmp","0,1","Match","e","3000","trustrating_stim/white_mw012.bmp","green","Share","PRACTICE","1"
"html-keyboard-response","18","126516","0.0-5.0-5.2","608f2aa883599160c8b87a79","bdp_wmem","Tue May 11 2021 19:50:44 GMT-0700 (Pacific Daylight Time)","632902","Match,No Match","","null","","","","","","<div class='trialBorder'><div class='vertical-center'><img src='img/correct.jpg'></div><div class='respDiv'><div class='respDivL'><font style='color:orange'>Match<br>(e)</font></div><div class='respDivR'>No Match<br>(i)</div></div></div>","null","FEEDBACK","","","","","","","","","","",""
"html-keyboard-response","19","127020","0.0-5.0-1.3","608f2aa883599160c8b87a79","bdp_wmem","Tue May 11 2021 19:50:44 GMT-0700 (Pacific Daylight Time)","632902","Match,No Match","","null","","","","","","<div class='trialBorder'><div class='vertical-center'><img src='img/fixation2_sml.jpg'</img></div></div>","null","FIX","","","","","","","","","","",""
"html-keyboard-response","20","130028","0.0-5.0-2.3","608f2aa883599160c8b87a79","bdp_wmem","Tue May 11 2021 19:50:44 GMT-0700 (Pacific Daylight Time)","632902","Match,No Match","","null","","","","","","<div class='trialBorder'><div class='vertical-center'><img style='vertical-align:center; align:center' src='img/fixation2_sml.jpg'></div><div class='arrayDiv2'><div class='tl'><img class='introPic' src='trustrating_stim/white_00807_941205_fb_edt.bmp'><br><font color='red'><strong>Keep</strong></font></div><div class='tr'><img class='introPic' src='trustrating_stim/white_mw070.bmp'><br><font color='green'><strong>Share</strong></font></div></div></div>","null","ARRAY","2","trustrating_stim/white_00807_941205_fb_edt.bmp,trustrating_stim/white_mw070.bmp","0,1","noMatchOutcome","i","3000","","","","",""
"html-keyboard-response","21","134044","0.0-5.0-3.3","608f2aa883599160c8b87a79","bdp_wmem","Tue May 11 2021 19:50:44 GMT-0700 (Pacific Daylight Time)","632902","Match,No Match","","null","","","","","","<div class='trialBorder'><div class='vertical-center'><img src='img/fixation2_sml.jpg'</img></div></div>","null","DELAY","","","","","","","","","","",""
"html-keyboard-response","22","135535","0.0-5.0-4.3","608f2aa883599160c8b87a79","bdp_wmem","Tue May 11 2021 19:50:44 GMT-0700 (Pacific Daylight Time)","632902","Match,No Match","","1487","","","","","","<div class='trialBorder'><div class='targDiv'><div class='tc'><img class='introPic' src='trustrating_stim/white_00807_941205_fb_edt.bmp'><br><font color='green'><strong>Share</strong></font></div></div><div class='respDiv'><div class='respDivL'>Match<br>(e)</div><div class='respDivR'>No Match<br>(i)</div></div></div>","i","TARGET","2","trustrating_stim/white_00807_941205_fb_edt.bmp,trustrating_stim/white_mw070.bmp","0,1","noMatchOutcome","i","3000","trustrating_stim/white_00807_941205_fb_edt.bmp","green","Share","PRACTICE","1"
"html-keyboard-response","23","136045","0.0-5.0-5.3","608f2aa883599160c8b87a79","bdp_wmem","Tue May 11 2021 19:50:44 GMT-0700 (Pacific Daylight Time)","632902","Match,No Match","","null","","","","","","<div class='trialBorder'><div class='vertical-center'><img src='img/correct.jpg'></div><div class='respDiv'><div class='respDivL'>Match<br>(e)</div><div class='respDivR'><font style='color:orange'>No Match<br>(i)</font></div></div></div>","null","FEEDBACK","","","","","","","","","","",""
"html-keyboard-response","24","136549","0.0-5.0-1.4","608f2aa883599160c8b87a79","bdp_wmem","Tue May 11 2021 19:50:44 GMT-0700 (Pacific Daylight Time)","632902","Match,No Match","","null","","","","","","<div class='trialBorder'><div class='vertical-center'><img src='img/fixation2_sml.jpg'</img></div></div>","null","FIX","","","","","","","","","","",""
"html-keyboard-response","25","141058","0.0-5.0-2.4","608f2aa883599160c8b87a79","bdp_wmem","Tue May 11 2021 19:50:44 GMT-0700 (Pacific Daylight Time)","632902","Match,No Match","","null","","","","","","<div class='trialBorder'><div class='vertical-center'><img style='vertical-align:center; align:center' src='img/fixation2_sml.jpg'></div><div class='arrayDiv3'><div class='tl'><img class='introPic' src='trustrating_stim/white_mw091.bmp'><br><font color='green'><strong>Share</strong></font></div><div class='tc'><img class='introPic' src='trustrating_stim/white_mw092.bmp'><br><font color='green'><strong>Share</strong></font></div><div class='tr'><img class='introPic' src='trustrating_stim/white_00050_931230_fa_edt.bmp'><br><font color='red'><strong>Keep</strong></font></div></div></div>","null","ARRAY","3","trustrating_stim/white_mw091.bmp,trustrating_stim/white_mw092.bmp,trustrating_stim/white_00050_931230_fa_edt.bmp","1,1,0","noMatchOutcome","i","4500","","","","",""
"html-keyboard-response","26","145067","0.0-5.0-3.4","608f2aa883599160c8b87a79","bdp_wmem","Tue May 11 2021 19:50:44 GMT-0700 (Pacific Daylight Time)","632902","Match,No Match","","null","","","","","","<div class='trialBorder'><div class='vertical-center'><img src='img/fixation2_sml.jpg'</img></div></div>","null","DELAY","","","","","","","","","","",""
"html-keyboard-response","27","146709","0.0-5.0-4.4","608f2aa883599160c8b87a79","bdp_wmem","Tue May 11 2021 19:50:44 GMT-0700 (Pacific Daylight Time)","632902","Match,No Match","","1638","","","","","","<div class='trialBorder'><div class='targDiv'><div class='tc'><img class='introPic' src='trustrating_stim/white_mw091.bmp'><br><font color='red'><strong>Keep</strong></font></div></div><div class='respDiv'><div class='respDivL'>Match<br>(e)</div><div class='respDivR'>No Match<br>(i)</div></div></div>","i","TARGET","3","trustrating_stim/white_mw091.bmp,trustrating_stim/white_mw092.bmp,trustrating_stim/white_00050_931230_fa_edt.bmp","1,1,0","noMatchOutcome","i","4500","trustrating_stim/white_mw091.bmp","red","Keep","PRACTICE","1"
"html-keyboard-response","28","147211","0.0-5.0-5.4","608f2aa883599160c8b87a79","bdp_wmem","Tue May 11 2021 19:50:44 GMT-0700 (Pacific Daylight Time)","632902","Match,No Match","","null","","","","","","<div class='trialBorder'><div class='vertical-center'><img src='img/correct.jpg'></div><div class='respDiv'><div class='respDivL'>Match<br>(e)</div><div class='respDivR'><font style='color:orange'>No Match<br>(i)</font></div></div></div>","null","FEEDBACK","","","","","","","","","","",""
"html-keyboard-response","29","147716","0.0-5.0-1.5","608f2aa883599160c8b87a79","bdp_wmem","Tue May 11 2021 19:50:44 GMT-0700 (Pacific Daylight Time)","632902","Match,No Match","","null","","","","","","<div class='trialBorder'><div class='vertical-center'><img src='img/fixation2_sml.jpg'</img></div></div>","null","FIX","","","","","","","","","","",""
"html-keyboard-response","30","149220","0.0-5.0-2.5","608f2aa883599160c8b87a79","bdp_wmem","Tue May 11 2021 19:50:44 GMT-0700 (Pacific Daylight Time)","632902","Match,No Match","","null","","","","","","<div class='trialBorder'><div class='vertical-center'><img style='vertical-align:center; align:center' src='img/fixation2_sml.jpg'></div><div class='arrayDiv1'><div class='tc'><img class='introPic' src='trustrating_stim/white_mw012.bmp'><br><font color='red'><strong>Keep</strong></font></div></div></div>","null","ARRAY","1","trustrating_stim/white_mw012.bmp","0","Match","e","1500","","","","",""
"html-keyboard-response","31","153229","0.0-5.0-3.5","608f2aa883599160c8b87a79","bdp_wmem","Tue May 11 2021 19:50:44 GMT-0700 (Pacific Daylight Time)","632902","Match,No Match","","null","","","","","","<div class='trialBorder'><div class='vertical-center'><img src='img/fixation2_sml.jpg'</img></div></div>","null","DELAY","","","","","","","","","","",""
"html-keyboard-response","32","153921","0.0-5.0-4.5","608f2aa883599160c8b87a79","bdp_wmem","Tue May 11 2021 19:50:44 GMT-0700 (Pacific Daylight Time)","632902","Match,No Match","","687","","","","","","<div class='trialBorder'><div class='targDiv'><div class='tc'><img class='introPic' src='trustrating_stim/white_mw012.bmp'><br><font color='red'><strong>Keep</strong></font></div></div><div class='respDiv'><div class='respDivL'>Match<br>(e)</div><div class='respDivR'>No Match<br>(i)</div></div></div>","e","TARGET","1","trustrating_stim/white_mw012.bmp","0","Match","e","1500","trustrating_stim/white_mw012.bmp","red","Keep","PRACTICE","1"
"html-keyboard-response","33","154429","0.0-5.0-5.5","608f2aa883599160c8b87a79","bdp_wmem","Tue May 11 2021 19:50:44 GMT-0700 (Pacific Daylight Time)","632902","Match,No Match","","null","","","","","","<div class='trialBorder'><div class='vertical-center'><img src='img/correct.jpg'></div><div class='respDiv'><div class='respDivL'><font style='color:orange'>Match<br>(e)</font></div><div class='respDivR'>No Match<br>(i)</div></div></div>","null","FEEDBACK","","","","","","","","","","",""
"instructions","34","168165","0.0-6.0","608f2aa883599160c8b87a79","bdp_wmem","Tue May 11 2021 19:50:44 GMT-0700 (Pacific Daylight Time)","632902","Match,No Match","[{""page_index"":0,""viewing_time"":13735}]","13735","","","","","","","","","","","","","","","","","","",""
"html-keyboard-response","35","168674","0.0-7.0-1.0","608f2aa883599160c8b87a79","bdp_wmem","Tue May 11 2021 19:50:44 GMT-0700 (Pacific Daylight Time)","632902","Match,No Match","","null","","","","","","<div class='trialBorder'><div class='vertical-center'><img src='img/fixation2_sml.jpg'</img></div></div>","null","FIX","","","","","","","","","","",""
"html-keyboard-response","36","170179","0.0-7.0-2.0","608f2aa883599160c8b87a79","bdp_wmem","Tue May 11 2021 19:50:44 GMT-0700 (Pacific Daylight Time)","632902","Match,No Match","","null","","","","","","<div class='trialBorder'><div class='vertical-center'><img style='vertical-align:center; align:center' src='img/fixation2_sml.jpg'></div><div class='arrayDiv1'><div class='tc'><img class='introPic' src='trustrating_stim/white_00050_931230_fa_edt.bmp'><br><font color='red'><strong>Keep</strong></font></div></div></div>","null","ARRAY","1","trustrating_stim/white_00050_931230_fa_edt.bmp","0","noMatchFace","i","1500","","","","",""
"html-keyboard-response","37","174187","0.0-7.0-3.0","608f2aa883599160c8b87a79","bdp_wmem","Tue May 11 2021 19:50:44 GMT-0700 (Pacific Daylight Time)","632902","Match,No Match","","null","","","","","","<div class='trialBorder'><div class='vertical-center'><img src='img/fixation2_sml.jpg'</img></div></div>","null","DELAY","","","","","","","","","","",""
"html-keyboard-response","38","175619","0.0-7.0-4.0","608f2aa883599160c8b87a79","bdp_wmem","Tue May 11 2021 19:50:44 GMT-0700 (Pacific Daylight Time)","632902","Match,No Match","","1429","","","","","","<div class='trialBorder'><div class='targDiv'><div class='tc'><img class='introPic' src='trustrating_stim/white_mw070.bmp'><br><font color='red'><strong>Keep</strong></font></div></div><div class='respDiv'><div class='respDivL'>Match<br>(e)</div><div class='respDivR'>No Match<br>(i)</div></div></div>","e","TARGET","1","trustrating_stim/white_00050_931230_fa_edt.bmp","0","noMatchFace","i","1500","trustrating_stim/white_mw070.bmp","red","Keep","REAL","0"
"html-keyboard-response","39","176128","0.0-7.0-5.0","608f2aa883599160c8b87a79","bdp_wmem","Tue May 11 2021 19:50:44 GMT-0700 (Pacific Daylight Time)","632902","Match,No Match","","null","","","","","","<div class='trialBorder'><div class='vertical-center'><img src='img/error.jpg'></div><div class='respDiv'><div class='respDivL'><font style='color:orange'>Match<br>(e)</font></div><div class='respDivR'>No Match<br>(i)</div></div></div>","null","FEEDBACK","","","","","","","","","","",""
"html-keyboard-response","40","176632","0.0-7.0-1.1","608f2aa883599160c8b87a79","bdp_wmem","Tue May 11 2021 19:50:44 GMT-0700 (Pacific Daylight Time)","632902","Match,No Match","","null","","","","","","<div class='trialBorder'><div class='vertical-center'><img src='img/fixation2_sml.jpg'</img></div></div>","null","FIX","","","","","","","","","","",""
"html-keyboard-response","41","178136","0.0-7.0-2.1","608f2aa883599160c8b87a79","bdp_wmem","Tue May 11 2021 19:50:44 GMT-0700 (Pacific Daylight Time)","632902","Match,No Match","","null","","","","","","<div class='trialBorder'><div class='vertical-center'><img style='vertical-align:center; align:center' src='img/fixation2_sml.jpg'></div><div class='arrayDiv1'><div class='tc'><img class='introPic' src='trustrating_stim/white_00050_931230_fa_edt.bmp'><br><font color='red'><strong>Keep</strong></font></div></div></div>","null","ARRAY","1","trustrating_stim/white_00050_931230_fa_edt.bmp","0","noMatchFace","i","1500","","","","",""
"html-keyboard-response","42","182146","0.0-7.0-3.1","608f2aa883599160c8b87a79","bdp_wmem","Tue May 11 2021 19:50:44 GMT-0700 (Pacific Daylight Time)","632902","Match,No Match","","null","","","","","","<div class='trialBorder'><div class='vertical-center'><img src='img/fixation2_sml.jpg'</img></div></div>","null","DELAY","","","","","","","","","","",""
"html-keyboard-response","43","183062","0.0-7.0-4.1","608f2aa883599160c8b87a79","bdp_wmem","Tue May 11 2021 19:50:44 GMT-0700 (Pacific Daylight Time)","632902","Match,No Match","","912","","","","","","<div class='trialBorder'><div class='targDiv'><div class='tc'><img class='introPic' src='trustrating_stim/white_mw015.bmp'><br><font color='red'><strong>Keep</strong></font></div></div><div class='respDiv'><div class='respDivL'>Match<br>(e)</div><div class='respDivR'>No Match<br>(i)</div></div></div>","i","TARGET","1","trustrating_stim/white_00050_931230_fa_edt.bmp","0","noMatchFace","i","1500","trustrating_stim/white_mw015.bmp","red","Keep","REAL","1"
"html-keyboard-response","44","183570","0.0-7.0-5.1","608f2aa883599160c8b87a79","bdp_wmem","Tue May 11 2021 19:50:44 GMT-0700 (Pacific Daylight Time)","632902","Match,No Match","","null","","","","","","<div class='trialBorder'><div class='vertical-center'><img src='img/correct.jpg'></div><div class='respDiv'><div class='respDivL'>Match<br>(e)</div><div class='respDivR'><font style='color:orange'>No Match<br>(i)</font></div></div></div>","null","FEEDBACK","","","","","","","","","","",""
"html-keyboard-response","45","184074","0.0-7.0-1.2","608f2aa883599160c8b87a79","bdp_wmem","Tue May 11 2021 19:50:44 GMT-0700 (Pacific Daylight Time)","632902","Match,No Match","","null","","","","","","<div class='trialBorder'><div class='vertical-center'><img src='img/fixation2_sml.jpg'</img></div></div>","null","FIX","","","","","","","","","","",""
"html-keyboard-response","46","188579","0.0-7.0-2.2","608f2aa883599160c8b87a79","bdp_wmem","Tue May 11 2021 19:50:44 GMT-0700 (Pacific Daylight Time)","632902","Match,No Match","","null","","","","","","<div class='trialBorder'><div class='vertical-center'><img style='vertical-align:center; align:center' src='img/fixation2_sml.jpg'></div><div class='arrayDiv3'><div class='tl'><img class='introPic' src='trustrating_stim/white_mw038.bmp'><br><font color='red'><strong>Keep</strong></font></div><div class='tc'><img class='introPic' src='trustrating_stim/white_mw091.bmp'><br><font color='green'><strong>Share</strong></font></div><div class='tr'><img class='introPic' src='trustrating_stim/white_mw070.bmp'><br><font color='green'><strong>Share</strong></font></div></div></div>","null","ARRAY","3","trustrating_stim/white_mw038.bmp,trustrating_stim/white_mw091.bmp,trustrating_stim/white_mw070.bmp","0,1,1","Match","e","4500","","","","",""
"html-keyboard-response","47","192589","0.0-7.0-3.2","608f2aa883599160c8b87a79","bdp_wmem","Tue May 11 2021 19:50:44 GMT-0700 (Pacific Daylight Time)","632902","Match,No Match","","null","","","","","","<div class='trialBorder'><div class='vertical-center'><img src='img/fixation2_sml.jpg'</img></div></div>","null","DELAY","","","","","","","","","","",""
"html-keyboard-response","48","194358","0.0-7.0-4.2","608f2aa883599160c8b87a79","bdp_wmem","Tue May 11 2021 19:50:44 GMT-0700 (Pacific Daylight Time)","632902","Match,No Match","","1762","","","","","","<div class='trialBorder'><div class='targDiv'><div class='tc'><img class='introPic' src='trustrating_stim/white_mw038.bmp'><br><font color='red'><strong>Keep</strong></font></div></div><div class='respDiv'><div class='respDivL'>Match<br>(e)</div><div class='respDivR'>No Match<br>(i)</div></div></div>","i","TARGET","3","trustrating_stim/white_mw038.bmp,trustrating_stim/white_mw091.bmp,trustrating_stim/white_mw070.bmp","0,1,1","Match","e","4500","trustrating_stim/white_mw038.bmp","red","Keep","REAL","0"
"html-keyboard-response","49","194869","0.0-7.0-5.2","608f2aa883599160c8b87a79","bdp_wmem","Tue May 11 2021 19:50:44 GMT-0700 (Pacific Daylight Time)","632902","Match,No Match","","null","","","","","","<div class='trialBorder'><div class='vertical-center'><img src='img/error.jpg'></div><div class='respDiv'><div class='respDivL'>Match<br>(e)</div><div class='respDivR'><font style='color:orange'>No Match<br>(i)</font></div></div></div>","null","FEEDBACK","","","","","","","","","","",""
"html-keyboard-response","50","195374","0.0-7.0-1.3","608f2aa883599160c8b87a79","bdp_wmem","Tue May 11 2021 19:50:44 GMT-0700 (Pacific Daylight Time)","632902","Match,No Match","","null","","","","","","<div class='trialBorder'><div class='vertical-center'><img src='img/fixation2_sml.jpg'</img></div></div>","null","FIX","","","","","","","","","","",""
"html-keyboard-response","51","198383","0.0-7.0-2.3","608f2aa883599160c8b87a79","bdp_wmem","Tue May 11 2021 19:50:44 GMT-0700 (Pacific Daylight Time)","632902","Match,No Match","","null","","","","","","<div class='trialBorder'><div class='vertical-center'><img style='vertical-align:center; align:center' src='img/fixation2_sml.jpg'></div><div class='arrayDiv2'><div class='tl'><img class='introPic' src='trustrating_stim/white_00807_941205_fb_edt.bmp'><br><font color='red'><strong>Keep</strong></font></div><div class='tr'><img class='introPic' src='trustrating_stim/white_mw033.bmp'><br><font color='green'><strong>Share</strong></font></div></div></div>","null","ARRAY","2","trustrating_stim/white_00807_941205_fb_edt.bmp,trustrating_stim/white_mw033.bmp","0,1","Match","e","3000","","","","",""
"html-keyboard-response","52","202391","0.0-7.0-3.3","608f2aa883599160c8b87a79","bdp_wmem","Tue May 11 2021 19:50:44 GMT-0700 (Pacific Daylight Time)","632902","Match,No Match","","null","","","","","","<div class='trialBorder'><div class='vertical-center'><img src='img/fixation2_sml.jpg'</img></div></div>","null","DELAY","","","","","","","","","","",""
"html-keyboard-response","53","203078","0.0-7.0-4.3","608f2aa883599160c8b87a79","bdp_wmem","Tue May 11 2021 19:50:44 GMT-0700 (Pacific Daylight Time)","632902","Match,No Match","","682","","","","","","<div class='trialBorder'><div class='targDiv'><div class='tc'><img class='introPic' src='trustrating_stim/white_00807_941205_fb_edt.bmp'><br><font color='red'><strong>Keep</strong></font></div></div><div class='respDiv'><div class='respDivL'>Match<br>(e)</div><div class='respDivR'>No Match<br>(i)</div></div></div>","e","TARGET","2","trustrating_stim/white_00807_941205_fb_edt.bmp,trustrating_stim/white_mw033.bmp","0,1","Match","e","3000","trustrating_stim/white_00807_941205_fb_edt.bmp","red","Keep","REAL","1"
"html-keyboard-response","54","203584","0.0-7.0-5.3","608f2aa883599160c8b87a79","bdp_wmem","Tue May 11 2021 19:50:44 GMT-0700 (Pacific Daylight Time)","632902","Match,No Match","","null","","","","","","<div class='trialBorder'><div class='vertical-center'><img src='img/correct.jpg'></div><div class='respDiv'><div class='respDivL'><font style='color:orange'>Match<br>(e)</font></div><div class='respDivR'>No Match<br>(i)</div></div></div>","null","FEEDBACK","","","","","","","","","","",""
"html-keyboard-response","55","204088","0.0-7.0-1.4","608f2aa883599160c8b87a79","bdp_wmem","Tue May 11 2021 19:50:44 GMT-0700 (Pacific Daylight Time)","632902","Match,No Match","","null","","","","","","<div class='trialBorder'><div class='vertical-center'><img src='img/fixation2_sml.jpg'</img></div></div>","null","FIX","","","","","","","","","","",""
"html-keyboard-response","56","205592","0.0-7.0-2.4","608f2aa883599160c8b87a79","bdp_wmem","Tue May 11 2021 19:50:44 GMT-0700 (Pacific Daylight Time)","632902","Match,No Match","","null","","","","","","<div class='trialBorder'><div class='vertical-center'><img style='vertical-align:center; align:center' src='img/fixation2_sml.jpg'></div><div class='arrayDiv1'><div class='tc'><img class='introPic' src='trustrating_stim/white_mw012.bmp'><br><font color='green'><strong>Share</strong></font></div></div></div>","null","ARRAY","1","trustrating_stim/white_mw012.bmp","1","Match","e","1500","","","","",""
"html-keyboard-response","57","209603","0.0-7.0-3.4","608f2aa883599160c8b87a79","bdp_wmem","Tue May 11 2021 19:50:44 GMT-0700 (Pacific Daylight Time)","632902","Match,No Match","","null","","","","","","<div class='trialBorder'><div class='vertical-center'><img src='img/fixation2_sml.jpg'</img></div></div>","null","DELAY","","","","","","","","","","",""
"html-keyboard-response","58","210676","0.0-7.0-4.4","608f2aa883599160c8b87a79","bdp_wmem","Tue May 11 2021 19:50:44 GMT-0700 (Pacific Daylight Time)","632902","Match,No Match","","1070","","","","","","<div class='trialBorder'><div class='targDiv'><div class='tc'><img class='introPic' src='trustrating_stim/white_mw012.bmp'><br><font color='green'><strong>Share</strong></font></div></div><div class='respDiv'><div class='respDivL'>Match<br>(e)</div><div class='respDivR'>No Match<br>(i)</div></div></div>","e","TARGET","1","trustrating_stim/white_mw012.bmp","1","Match","e","1500","trustrating_stim/white_mw012.bmp","green","Share","REAL","1"
"html-keyboard-response","59","211181","0.0-7.0-5.4","608f2aa883599160c8b87a79","bdp_wmem","Tue May 11 2021 19:50:44 GMT-0700 (Pacific Daylight Time)","632902","Match,No Match","","null","","","","","","<div class='trialBorder'><div class='vertical-center'><img src='img/correct.jpg'></div><div class='respDiv'><div class='respDivL'><font style='color:orange'>Match<br>(e)</font></div><div class='respDivR'>No Match<br>(i)</div></div></div>","null","FEEDBACK","","","","","","","","","","",""
"html-keyboard-response","60","211687","0.0-7.0-1.5","608f2aa883599160c8b87a79","bdp_wmem","Tue May 11 2021 19:50:44 GMT-0700 (Pacific Daylight Time)","632902","Match,No Match","","null","","","","","","<div class='trialBorder'><div class='vertical-center'><img src='img/fixation2_sml.jpg'</img></div></div>","null","FIX","","","","","","","","","","",""
"html-keyboard-response","61","216192","0.0-7.0-2.5","608f2aa883599160c8b87a79","bdp_wmem","Tue May 11 2021 19:50:44 GMT-0700 (Pacific Daylight Time)","632902","Match,No Match","","null","","","","","","<div class='trialBorder'><div class='vertical-center'><img style='vertical-align:center; align:center' src='img/fixation2_sml.jpg'></div><div class='arrayDiv3'><div class='tl'><img class='introPic' src='trustrating_stim/white_mw070.bmp'><br><font color='green'><strong>Share</strong></font></div><div class='tc'><img class='introPic' src='trustrating_stim/white_mw040.bmp'><br><font color='red'><strong>Keep</strong></font></div><div class='tr'><img class='introPic' src='trustrating_stim/white_mw091.bmp'><br><font color='red'><strong>Keep</strong></font></div></div></div>","null","ARRAY","3","trustrating_stim/white_mw070.bmp,trustrating_stim/white_mw040.bmp,trustrating_stim/white_mw091.bmp","1,0,0","noMatchOutcome","i","4500","","","","",""
"html-keyboard-response","62","220201","0.0-7.0-3.5","608f2aa883599160c8b87a79","bdp_wmem","Tue May 11 2021 19:50:44 GMT-0700 (Pacific Daylight Time)","632902","Match,No Match","","null","","","","","","<div class='trialBorder'><div class='vertical-center'><img src='img/fixation2_sml.jpg'</img></div></div>","null","DELAY","","","","","","","","","","",""
"html-keyboard-response","63","221827","0.0-7.0-4.5","608f2aa883599160c8b87a79","bdp_wmem","Tue May 11 2021 19:50:44 GMT-0700 (Pacific Daylight Time)","632902","Match,No Match","","1622","","","","","","<div class='trialBorder'><div class='targDiv'><div class='tc'><img class='introPic' src='trustrating_stim/white_mw091.bmp'><br><font color='green'><strong>Share</strong></font></div></div><div class='respDiv'><div class='respDivL'>Match<br>(e)</div><div class='respDivR'>No Match<br>(i)</div></div></div>","e","TARGET","3","trustrating_stim/white_mw070.bmp,trustrating_stim/white_mw040.bmp,trustrating_stim/white_mw091.bmp","1,0,0","noMatchOutcome","i","4500","trustrating_stim/white_mw091.bmp","green","Share","REAL","0"
"html-keyboard-response","64","222337","0.0-7.0-5.5","608f2aa883599160c8b87a79","bdp_wmem","Tue May 11 2021 19:50:44 GMT-0700 (Pacific Daylight Time)","632902","Match,No Match","","null","","","","","","<div class='trialBorder'><div class='vertical-center'><img src='img/error.jpg'></div><div class='respDiv'><div class='respDivL'><font style='color:orange'>Match<br>(e)</font></div><div class='respDivR'>No Match<br>(i)</div></div></div>","null","FEEDBACK","","","","","","","","","","",""
"html-keyboard-response","65","222841","0.0-7.0-1.6","608f2aa883599160c8b87a79","bdp_wmem","Tue May 11 2021 19:50:44 GMT-0700 (Pacific Daylight Time)","632902","Match,No Match","","null","","","","","","<div class='trialBorder'><div class='vertical-center'><img src='img/fixation2_sml.jpg'</img></div></div>","null","FIX","","","","","","","","","","",""
"html-keyboard-response","66","225851","0.0-7.0-2.6","608f2aa883599160c8b87a79","bdp_wmem","Tue May 11 2021 19:50:44 GMT-0700 (Pacific Daylight Time)","632902","Match,No Match","","null","","","","","","<div class='trialBorder'><div class='vertical-center'><img style='vertical-align:center; align:center' src='img/fixation2_sml.jpg'></div><div class='arrayDiv2'><div class='tl'><img class='introPic' src='trustrating_stim/white_mw091.bmp'><br><font color='red'><strong>Keep</strong></font></div><div class='tr'><img class='introPic' src='trustrating_stim/white_mw033.bmp'><br><font color='green'><strong>Share</strong></font></div></div></div>","null","ARRAY","2","trustrating_stim/white_mw091.bmp,trustrating_stim/white_mw033.bmp","0,1","Match","e","3000","","","","",""
"html-keyboard-response","67","229860","0.0-7.0-3.6","608f2aa883599160c8b87a79","bdp_wmem","Tue May 11 2021 19:50:44 GMT-0700 (Pacific Daylight Time)","632902","Match,No Match","","null","","","","","","<div class='trialBorder'><div class='vertical-center'><img src='img/fixation2_sml.jpg'</img></div></div>","null","DELAY","","","","","","","","","","",""
"html-keyboard-response","68","231025","0.0-7.0-4.6","608f2aa883599160c8b87a79","bdp_wmem","Tue May 11 2021 19:50:44 GMT-0700 (Pacific Daylight Time)","632902","Match,No Match","","1159","","","","","","<div class='trialBorder'><div class='targDiv'><div class='tc'><img class='introPic' src='trustrating_stim/white_mw033.bmp'><br><font color='green'><strong>Share</strong></font></div></div><div class='respDiv'><div class='respDivL'>Match<br>(e)</div><div class='respDivR'>No Match<br>(i)</div></div></div>","e","TARGET","2","trustrating_stim/white_mw091.bmp,trustrating_stim/white_mw033.bmp","0,1","Match","e","3000","trustrating_stim/white_mw033.bmp","green","Share","REAL","1"
"html-keyboard-response","69","231541","0.0-7.0-5.6","608f2aa883599160c8b87a79","bdp_wmem","Tue May 11 2021 19:50:44 GMT-0700 (Pacific Daylight Time)","632902","Match,No Match","","null","","","","","","<div class='trialBorder'><div class='vertical-center'><img src='img/correct.jpg'></div><div class='respDiv'><div class='respDivL'><font style='color:orange'>Match<br>(e)</font></div><div class='respDivR'>No Match<br>(i)</div></div></div>","null","FEEDBACK","","","","","","","","","","",""
"html-keyboard-response","70","232046","0.0-7.0-1.7","608f2aa883599160c8b87a79","bdp_wmem","Tue May 11 2021 19:50:44 GMT-0700 (Pacific Daylight Time)","632902","Match,No Match","","null","","","","","","<div class='trialBorder'><div class='vertical-center'><img src='img/fixation2_sml.jpg'</img></div></div>","null","FIX","","","","","","","","","","",""
"html-keyboard-response","71","233554","0.0-7.0-2.7","608f2aa883599160c8b87a79","bdp_wmem","Tue May 11 2021 19:50:44 GMT-0700 (Pacific Daylight Time)","632902","Match,No Match","","null","","","","","","<div class='trialBorder'><div class='vertical-center'><img style='vertical-align:center; align:center' src='img/fixation2_sml.jpg'></div><div class='arrayDiv1'><div class='tc'><img class='introPic' src='trustrating_stim/white_mw003.bmp'><br><font color='green'><strong>Share</strong></font></div></div></div>","null","ARRAY","1","trustrating_stim/white_mw003.bmp","1","Match","e","1500","","","","",""
"html-keyboard-response","72","237564","0.0-7.0-3.7","608f2aa883599160c8b87a79","bdp_wmem","Tue May 11 2021 19:50:44 GMT-0700 (Pacific Daylight Time)","632902","Match,No Match","","null","","","","","","<div class='trialBorder'><div class='vertical-center'><img src='img/fixation2_sml.jpg'</img></div></div>","null","DELAY","","","","","","","","","","",""
"html-keyboard-response","73","238393","0.0-7.0-4.7","608f2aa883599160c8b87a79","bdp_wmem","Tue May 11 2021 19:50:44 GMT-0700 (Pacific Daylight Time)","632902","Match,No Match","","825","","","","","","<div class='trialBorder'><div class='targDiv'><div class='tc'><img class='introPic' src='trustrating_stim/white_mw003.bmp'><br><font color='green'><strong>Share</strong></font></div></div><div class='respDiv'><div class='respDivL'>Match<br>(e)</div><div class='respDivR'>No Match<br>(i)</div></div></div>","i","TARGET","1","trustrating_stim/white_mw003.bmp","1","Match","e","1500","trustrating_stim/white_mw003.bmp","green","Share","REAL","0"
"html-keyboard-response","74","238902","0.0-7.0-5.7","608f2aa883599160c8b87a79","bdp_wmem","Tue May 11 2021 19:50:44 GMT-0700 (Pacific Daylight Time)","632902","Match,No Match","","null","","","","","","<div class='trialBorder'><div class='vertical-center'><img src='img/error.jpg'></div><div class='respDiv'><div class='respDivL'>Match<br>(e)</div><div class='respDivR'><font style='color:orange'>No Match<br>(i)</font></div></div></div>","null","FEEDBACK","","","","","","","","","","",""
"html-keyboard-response","75","239407","0.0-7.0-1.8","608f2aa883599160c8b87a79","bdp_wmem","Tue May 11 2021 19:50:44 GMT-0700 (Pacific Daylight Time)","632902","Match,No Match","","null","","","","","","<div class='trialBorder'><div class='vertical-center'><img src='img/fixation2_sml.jpg'</img></div></div>","null","FIX","","","","","","","","","","",""
"html-keyboard-response","76","242416","0.0-7.0-2.8","608f2aa883599160c8b87a79","bdp_wmem","Tue May 11 2021 19:50:44 GMT-0700 (Pacific Daylight Time)","632902","Match,No Match","","null","","","","","","<div class='trialBorder'><div class='vertical-center'><img style='vertical-align:center; align:center' src='img/fixation2_sml.jpg'></div><div class='arrayDiv2'><div class='tl'><img class='introPic' src='trustrating_stim/white_00807_941205_fb_edt.bmp'><br><font color='green'><strong>Share</strong></font></div><div class='tr'><img class='introPic' src='trustrating_stim/white_mw015.bmp'><br><font color='red'><strong>Keep</strong></font></div></div></div>","null","ARRAY","2","trustrating_stim/white_00807_941205_fb_edt.bmp,trustrating_stim/white_mw015.bmp","1,0","Match","e","3000","","","","",""
"html-keyboard-response","77","246425","0.0-7.0-3.8","608f2aa883599160c8b87a79","bdp_wmem","Tue May 11 2021 19:50:44 GMT-0700 (Pacific Daylight Time)","632902","Match,No Match","","null","","","","","","<div class='trialBorder'><div class='vertical-center'><img src='img/fixation2_sml.jpg'</img></div></div>","null","DELAY","","","","","","","","","","",""
"html-keyboard-response","78","247787","0.0-7.0-4.8","608f2aa883599160c8b87a79","bdp_wmem","Tue May 11 2021 19:50:44 GMT-0700 (Pacific Daylight Time)","632902","Match,No Match","","1357","","","","","","<div class='trialBorder'><div class='targDiv'><div class='tc'><img class='introPic' src='trustrating_stim/white_mw015.bmp'><br><font color='red'><strong>Keep</strong></font></div></div><div class='respDiv'><div class='respDivL'>Match<br>(e)</div><div class='respDivR'>No Match<br>(i)</div></div></div>","e","TARGET","2","trustrating_stim/white_00807_941205_fb_edt.bmp,trustrating_stim/white_mw015.bmp","1,0","Match","e","3000","trustrating_stim/white_mw015.bmp","red","Keep","REAL","1"
"html-keyboard-response","79","248298","0.0-7.0-5.8","608f2aa883599160c8b87a79","bdp_wmem","Tue May 11 2021 19:50:44 GMT-0700 (Pacific Daylight Time)","632902","Match,No Match","","null","","","","","","<div class='trialBorder'><div class='vertical-center'><img src='img/correct.jpg'></div><div class='respDiv'><div class='respDivL'><font style='color:orange'>Match<br>(e)</font></div><div class='respDivR'>No Match<br>(i)</div></div></div>","null","FEEDBACK","","","","","","","","","","",""
"html-keyboard-response","80","248805","0.0-7.0-1.9","608f2aa883599160c8b87a79","bdp_wmem","Tue May 11 2021 19:50:44 GMT-0700 (Pacific Daylight Time)","632902","Match,No Match","","null","","","","","","<div class='trialBorder'><div class='vertical-center'><img src='img/fixation2_sml.jpg'</img></div></div>","null","FIX","","","","","","","","","","",""
"html-keyboard-response","81","251814","0.0-7.0-2.9","608f2aa883599160c8b87a79","bdp_wmem","Tue May 11 2021 19:50:44 GMT-0700 (Pacific Daylight Time)","632902","Match,No Match","","null","","","","","","<div class='trialBorder'><div class='vertical-center'><img style='vertical-align:center; align:center' src='img/fixation2_sml.jpg'></div><div class='arrayDiv2'><div class='tl'><img class='introPic' src='trustrating_stim/white_mw013.bmp'><br><font color='red'><strong>Keep</strong></font></div><div class='tr'><img class='introPic' src='trustrating_stim/white_mw038.bmp'><br><font color='green'><strong>Share</strong></font></div></div></div>","null","ARRAY","2","trustrating_stim/white_mw013.bmp,trustrating_stim/white_mw038.bmp","0,1","noMatchFace","i","3000","","","","",""
"html-keyboard-response","82","255817","0.0-7.0-3.9","608f2aa883599160c8b87a79","bdp_wmem","Tue May 11 2021 19:50:44 GMT-0700 (Pacific Daylight Time)","632902","Match,No Match","","null","","","","","","<div class='trialBorder'><div class='vertical-center'><img src='img/fixation2_sml.jpg'</img></div></div>","null","DELAY","","","","","","","","","","",""
"html-keyboard-response","83","256588","0.0-7.0-4.9","608f2aa883599160c8b87a79","bdp_wmem","Tue May 11 2021 19:50:44 GMT-0700 (Pacific Daylight Time)","632902","Match,No Match","","766","","","","","","<div class='trialBorder'><div class='targDiv'><div class='tc'><img class='introPic' src='trustrating_stim/white_mw040.bmp'><br><font color='red'><strong>Keep</strong></font></div></div><div class='respDiv'><div class='respDivL'>Match<br>(e)</div><div class='respDivR'>No Match<br>(i)</div></div></div>","i","TARGET","2","trustrating_stim/white_mw013.bmp,trustrating_stim/white_mw038.bmp","0,1","noMatchFace","i","3000","trustrating_stim/white_mw040.bmp","red","Keep","REAL","1"
"html-keyboard-response","84","257098","0.0-7.0-5.9","608f2aa883599160c8b87a79","bdp_wmem","Tue May 11 2021 19:50:44 GMT-0700 (Pacific Daylight Time)","632902","Match,No Match","","null","","","","","","<div class='trialBorder'><div class='vertical-center'><img src='img/correct.jpg'></div><div class='respDiv'><div class='respDivL'>Match<br>(e)</div><div class='respDivR'><font style='color:orange'>No Match<br>(i)</font></div></div></div>","null","FEEDBACK","","","","","","","","","","",""
"html-keyboard-response","85","257601","0.0-7.0-1.10","608f2aa883599160c8b87a79","bdp_wmem","Tue May 11 2021 19:50:44 GMT-0700 (Pacific Daylight Time)","632902","Match,No Match","","null","","","","","","<div class='trialBorder'><div class='vertical-center'><img src='img/fixation2_sml.jpg'</img></div></div>","null","FIX","","","","","","","","","","",""
"html-keyboard-response","86","259115","0.0-7.0-2.10","608f2aa883599160c8b87a79","bdp_wmem","Tue May 11 2021 19:50:44 GMT-0700 (Pacific Daylight Time)","632902","Match,No Match","","null","","","","","","<div class='trialBorder'><div class='vertical-center'><img style='vertical-align:center; align:center' src='img/fixation2_sml.jpg'></div><div class='arrayDiv1'><div class='tc'><img class='introPic' src='trustrating_stim/white_mw092.bmp'><br><font color='green'><strong>Share</strong></font></div></div></div>","null","ARRAY","1","trustrating_stim/white_mw092.bmp","1","noMatchOutcome","i","1500","","","","",""
"html-keyboard-response","87","263123","0.0-7.0-3.10","608f2aa883599160c8b87a79","bdp_wmem","Tue May 11 2021 19:50:44 GMT-0700 (Pacific Daylight Time)","632902","Match,No Match","","null","","","","","","<div class='trialBorder'><div class='vertical-center'><img src='img/fixation2_sml.jpg'</img></div></div>","null","DELAY","","","","","","","","","","",""
"html-keyboard-response","88","264465","0.0-7.0-4.10","608f2aa883599160c8b87a79","bdp_wmem","Tue May 11 2021 19:50:44 GMT-0700 (Pacific Daylight Time)","632902","Match,No Match","","1337","","","","","","<div class='trialBorder'><div class='targDiv'><div class='tc'><img class='introPic' src='trustrating_stim/white_mw092.bmp'><br><font color='red'><strong>Keep</strong></font></div></div><div class='respDiv'><div class='respDivL'>Match<br>(e)</div><div class='respDivR'>No Match<br>(i)</div></div></div>","e","TARGET","1","trustrating_stim/white_mw092.bmp","1","noMatchOutcome","i","1500","trustrating_stim/white_mw092.bmp","red","Keep","REAL","0"
"html-keyboard-response","89","264971","0.0-7.0-5.10","608f2aa883599160c8b87a79","bdp_wmem","Tue May 11 2021 19:50:44 GMT-0700 (Pacific Daylight Time)","632902","Match,No Match","","null","","","","","","<div class='trialBorder'><div class='vertical-center'><img src='img/error.jpg'></div><div class='respDiv'><div class='respDivL'><font style='color:orange'>Match<br>(e)</font></div><div class='respDivR'>No Match<br>(i)</div></div></div>","null","FEEDBACK","","","","","","","","","","",""
"html-keyboard-response","90","265478","0.0-7.0-1.11","608f2aa883599160c8b87a79","bdp_wmem","Tue May 11 2021 19:50:44 GMT-0700 (Pacific Daylight Time)","632902","Match,No Match","","null","","","","","","<div class='trialBorder'><div class='vertical-center'><img src='img/fixation2_sml.jpg'</img></div></div>","null","FIX","","","","","","","","","","",""
"html-keyboard-response","91","269988","0.0-7.0-2.11","608f2aa883599160c8b87a79","bdp_wmem","Tue May 11 2021 19:50:44 GMT-0700 (Pacific Daylight Time)","632902","Match,No Match","","null","","","","","","<div class='trialBorder'><div class='vertical-center'><img style='vertical-align:center; align:center' src='img/fixation2_sml.jpg'></div><div class='arrayDiv3'><div class='tl'><img class='introPic' src='trustrating_stim/white_00050_931230_fa_edt.bmp'><br><font color='green'><strong>Share</strong></font></div><div class='tc'><img class='introPic' src='trustrating_stim/white_mw012.bmp'><br><font color='green'><strong>Share</strong></font></div><div class='tr'><img class='introPic' src='trustrating_stim/white_mw015.bmp'><br><font color='red'><strong>Keep</strong></font></div></div></div>","null","ARRAY","3","trustrating_stim/white_00050_931230_fa_edt.bmp,trustrating_stim/white_mw012.bmp,trustrating_stim/white_mw015.bmp","1,1,0","noMatchFace","i","4500","","","","",""
"html-keyboard-response","92","273994","0.0-7.0-3.11","608f2aa883599160c8b87a79","bdp_wmem","Tue May 11 2021 19:50:44 GMT-0700 (Pacific Daylight Time)","632902","Match,No Match","","null","","","","","","<div class='trialBorder'><div class='vertical-center'><img src='img/fixation2_sml.jpg'</img></div></div>","null","DELAY","","","","","","","","","","",""
"html-keyboard-response","93","275908","0.0-7.0-4.11","608f2aa883599160c8b87a79","bdp_wmem","Tue May 11 2021 19:50:44 GMT-0700 (Pacific Daylight Time)","632902","Match,No Match","","1908","","","","","","<div class='trialBorder'><div class='targDiv'><div class='tc'><img class='introPic' src='trustrating_stim/white_mw038.bmp'><br><font color='red'><strong>Keep</strong></font></div></div><div class='respDiv'><div class='respDivL'>Match<br>(e)</div><div class='respDivR'>No Match<br>(i)</div></div></div>","e","TARGET","3","trustrating_stim/white_00050_931230_fa_edt.bmp,trustrating_stim/white_mw012.bmp,trustrating_stim/white_mw015.bmp","1,1,0","noMatchFace","i","4500","trustrating_stim/white_mw038.bmp","red","Keep","REAL","0"
"html-keyboard-response","94","276426","0.0-7.0-5.11","608f2aa883599160c8b87a79","bdp_wmem","Tue May 11 2021 19:50:44 GMT-0700 (Pacific Daylight Time)","632902","Match,No Match","","null","","","","","","<div class='trialBorder'><div class='vertical-center'><img src='img/error.jpg'></div><div class='respDiv'><div class='respDivL'><font style='color:orange'>Match<br>(e)</font></div><div class='respDivR'>No Match<br>(i)</div></div></div>","null","FEEDBACK","","","","","","","","","","",""
"html-keyboard-response","95","276930","0.0-7.0-1.12","608f2aa883599160c8b87a79","bdp_wmem","Tue May 11 2021 19:50:44 GMT-0700 (Pacific Daylight Time)","632902","Match,No Match","","null","","","","","","<div class='trialBorder'><div class='vertical-center'><img src='img/fixation2_sml.jpg'</img></div></div>","null","FIX","","","","","","","","","","",""
"html-keyboard-response","96","278436","0.0-7.0-2.12","608f2aa883599160c8b87a79","bdp_wmem","Tue May 11 2021 19:50:44 GMT-0700 (Pacific Daylight Time)","632902","Match,No Match","","null","","","","","","<div class='trialBorder'><div class='vertical-center'><img style='vertical-align:center; align:center' src='img/fixation2_sml.jpg'></div><div class='arrayDiv1'><div class='tc'><img class='introPic' src='trustrating_stim/white_mw038.bmp'><br><font color='red'><strong>Keep</strong></font></div></div></div>","null","ARRAY","1","trustrating_stim/white_mw038.bmp","0","Match","e","1500","","","","",""
"html-keyboard-response","97","282444","0.0-7.0-3.12","608f2aa883599160c8b87a79","bdp_wmem","Tue May 11 2021 19:50:44 GMT-0700 (Pacific Daylight Time)","632902","Match,No Match","","null","","","","","","<div class='trialBorder'><div class='vertical-center'><img src='img/fixation2_sml.jpg'</img></div></div>","null","DELAY","","","","","","","","","","",""
"html-keyboard-response","98","284204","0.0-7.0-4.12","608f2aa883599160c8b87a79","bdp_wmem","Tue May 11 2021 19:50:44 GMT-0700 (Pacific Daylight Time)","632902","Match,No Match","","1755","","","","","","<div class='trialBorder'><div class='targDiv'><div class='tc'><img class='introPic' src='trustrating_stim/white_mw038.bmp'><br><font color='red'><strong>Keep</strong></font></div></div><div class='respDiv'><div class='respDivL'>Match<br>(e)</div><div class='respDivR'>No Match<br>(i)</div></div></div>","i","TARGET","1","trustrating_stim/white_mw038.bmp","0","Match","e","1500","trustrating_stim/white_mw038.bmp","red","Keep","REAL","0"
"html-keyboard-response","99","284709","0.0-7.0-5.12","608f2aa883599160c8b87a79","bdp_wmem","Tue May 11 2021 19:50:44 GMT-0700 (Pacific Daylight Time)","632902","Match,No Match","","null","","","","","","<div class='trialBorder'><div class='vertical-center'><img src='img/error.jpg'></div><div class='respDiv'><div class='respDivL'>Match<br>(e)</div><div class='respDivR'><font style='color:orange'>No Match<br>(i)</font></div></div></div>","null","FEEDBACK","","","","","","","","","","",""
"html-keyboard-response","100","285220","0.0-7.0-1.13","608f2aa883599160c8b87a79","bdp_wmem","Tue May 11 2021 19:50:44 GMT-0700 (Pacific Daylight Time)","632902","Match,No Match","","null","","","","","","<div class='trialBorder'><div class='vertical-center'><img src='img/fixation2_sml.jpg'</img></div></div>","null","FIX","","","","","","","","","","",""
"html-keyboard-response","101","289733","0.0-7.0-2.13","608f2aa883599160c8b87a79","bdp_wmem","Tue May 11 2021 19:50:44 GMT-0700 (Pacific Daylight Time)","632902","Match,No Match","","null","","","","","","<div class='trialBorder'><div class='vertical-center'><img style='vertical-align:center; align:center' src='img/fixation2_sml.jpg'></div><div class='arrayDiv3'><div class='tl'><img class='introPic' src='trustrating_stim/white_00807_941205_fb_edt.bmp'><br><font color='green'><strong>Share</strong></font></div><div class='tc'><img class='introPic' src='trustrating_stim/white_mw012.bmp'><br><font color='red'><strong>Keep</strong></font></div><div class='tr'><img class='introPic' src='trustrating_stim/white_00050_931230_fa_edt.bmp'><br><font color='red'><strong>Keep</strong></font></div></div></div>","null","ARRAY","3","trustrating_stim/white_00807_941205_fb_edt.bmp,trustrating_stim/white_mw012.bmp,trustrating_stim/white_00050_931230_fa_edt.bmp","1,0,0","noMatchFace","i","4500","","","","",""
"html-keyboard-response","102","293741","0.0-7.0-3.13","608f2aa883599160c8b87a79","bdp_wmem","Tue May 11 2021 19:50:44 GMT-0700 (Pacific Daylight Time)","632902","Match,No Match","","null","","","","","","<div class='trialBorder'><div class='vertical-center'><img src='img/fixation2_sml.jpg'</img></div></div>","null","DELAY","","","","","","","","","","",""
"html-keyboard-response","103","294798","0.0-7.0-4.13","608f2aa883599160c8b87a79","bdp_wmem","Tue May 11 2021 19:50:44 GMT-0700 (Pacific Daylight Time)","632902","Match,No Match","","1052","","","","","","<div class='trialBorder'><div class='targDiv'><div class='tc'><img class='introPic' src='trustrating_stim/white_mw070.bmp'><br><font color='green'><strong>Share</strong></font></div></div><div class='respDiv'><div class='respDivL'>Match<br>(e)</div><div class='respDivR'>No Match<br>(i)</div></div></div>","e","TARGET","3","trustrating_stim/white_00807_941205_fb_edt.bmp,trustrating_stim/white_mw012.bmp,trustrating_stim/white_00050_931230_fa_edt.bmp","1,0,0","noMatchFace","i","4500","trustrating_stim/white_mw070.bmp","green","Share","REAL","0"
"html-keyboard-response","104","295302","0.0-7.0-5.13","608f2aa883599160c8b87a79","bdp_wmem","Tue May 11 2021 19:50:44 GMT-0700 (Pacific Daylight Time)","632902","Match,No Match","","null","","","","","","<div class='trialBorder'><div class='vertical-center'><img src='img/error.jpg'></div><div class='respDiv'><div class='respDivL'><font style='color:orange'>Match<br>(e)</font></div><div class='respDivR'>No Match<br>(i)</div></div></div>","null","FEEDBACK","","","","","","","","","","",""
"html-keyboard-response","105","295805","0.0-7.0-1.14","608f2aa883599160c8b87a79","bdp_wmem","Tue May 11 2021 19:50:44 GMT-0700 (Pacific Daylight Time)","632902","Match,No Match","","null","","","","","","<div class='trialBorder'><div class='vertical-center'><img src='img/fixation2_sml.jpg'</img></div></div>","null","FIX","","","","","","","","","","",""
"html-keyboard-response","106","297310","0.0-7.0-2.14","608f2aa883599160c8b87a79","bdp_wmem","Tue May 11 2021 19:50:44 GMT-0700 (Pacific Daylight Time)","632902","Match,No Match","","null","","","","","","<div class='trialBorder'><div class='vertical-center'><img style='vertical-align:center; align:center' src='img/fixation2_sml.jpg'></div><div class='arrayDiv1'><div class='tc'><img class='introPic' src='trustrating_stim/white_mw033.bmp'><br><font color='green'><strong>Share</strong></font></div></div></div>","null","ARRAY","1","trustrating_stim/white_mw033.bmp","1","noMatchOutcome","i","1500","","","","",""
"html-keyboard-response","107","301316","0.0-7.0-3.14","608f2aa883599160c8b87a79","bdp_wmem","Tue May 11 2021 19:50:44 GMT-0700 (Pacific Daylight Time)","632902","Match,No Match","","null","","","","","","<div class='trialBorder'><div class='vertical-center'><img src='img/fixation2_sml.jpg'</img></div></div>","null","DELAY","","","","","","","","","","",""
"html-keyboard-response","108","307202","0.0-7.0-4.14","608f2aa883599160c8b87a79","bdp_wmem","Tue May 11 2021 19:50:44 GMT-0700 (Pacific Daylight Time)","632902","Match,No Match","","5882","","","","","","<div class='trialBorder'><div class='targDiv'><div class='tc'><img class='introPic' src='trustrating_stim/white_mw033.bmp'><br><font color='red'><strong>Keep</strong></font></div></div><div class='respDiv'><div class='respDivL'>Match<br>(e)</div><div class='respDivR'>No Match<br>(i)</div></div></div>","e","TARGET","1","trustrating_stim/white_mw033.bmp","1","noMatchOutcome","i","1500","trustrating_stim/white_mw033.bmp","red","Keep","REAL","0"
"html-keyboard-response","109","307711","0.0-7.0-5.14","608f2aa883599160c8b87a79","bdp_wmem","Tue May 11 2021 19:50:44 GMT-0700 (Pacific Daylight Time)","632902","Match,No Match","","null","","","","","","<div class='trialBorder'><div class='vertical-center'><img src='img/error.jpg'></div><div class='respDiv'><div class='respDivL'><font style='color:orange'>Match<br>(e)</font></div><div class='respDivR'>No Match<br>(i)</div></div></div>","null","FEEDBACK","","","","","","","","","","",""
"html-keyboard-response","110","308214","0.0-7.0-1.15","608f2aa883599160c8b87a79","bdp_wmem","Tue May 11 2021 19:50:44 GMT-0700 (Pacific Daylight Time)","632902","Match,No Match","","null","","","","","","<div class='trialBorder'><div class='vertical-center'><img src='img/fixation2_sml.jpg'</img></div></div>","null","FIX","","","","","","","","","","",""
"html-keyboard-response","111","311227","0.0-7.0-2.15","608f2aa883599160c8b87a79","bdp_wmem","Tue May 11 2021 19:50:44 GMT-0700 (Pacific Daylight Time)","632902","Match,No Match","","null","","","","","","<div class='trialBorder'><div class='vertical-center'><img style='vertical-align:center; align:center' src='img/fixation2_sml.jpg'></div><div class='arrayDiv2'><div class='tl'><img class='introPic' src='trustrating_stim/white_mw070.bmp'><br><font color='green'><strong>Share</strong></font></div><div class='tr'><img class='introPic' src='trustrating_stim/white_00050_931230_fa_edt.bmp'><br><font color='red'><strong>Keep</strong></font></div></div></div>","null","ARRAY","2","trustrating_stim/white_mw070.bmp,trustrating_stim/white_00050_931230_fa_edt.bmp","1,0","noMatchOutcome","i","3000","","","","",""
"html-keyboard-response","112","315233","0.0-7.0-3.15","608f2aa883599160c8b87a79","bdp_wmem","Tue May 11 2021 19:50:44 GMT-0700 (Pacific Daylight Time)","632902","Match,No Match","","null","","","","","","<div class='trialBorder'><div class='vertical-center'><img src='img/fixation2_sml.jpg'</img></div></div>","null","DELAY","","","","","","","","","","",""
"html-keyboard-response","113","320813","0.0-7.0-4.15","608f2aa883599160c8b87a79","bdp_wmem","Tue May 11 2021 19:50:44 GMT-0700 (Pacific Daylight Time)","632902","Match,No Match","","5575","","","","","","<div class='trialBorder'><div class='targDiv'><div class='tc'><img class='introPic' src='trustrating_stim/white_00050_931230_fa_edt.bmp'><br><font color='green'><strong>Share</strong></font></div></div><div class='respDiv'><div class='respDivL'>Match<br>(e)</div><div class='respDivR'>No Match<br>(i)</div></div></div>","e","TARGET","2","trustrating_stim/white_mw070.bmp,trustrating_stim/white_00050_931230_fa_edt.bmp","1,0","noMatchOutcome","i","3000","trustrating_stim/white_00050_931230_fa_edt.bmp","green","Share","REAL","0"
"html-keyboard-response","114","321328","0.0-7.0-5.15","608f2aa883599160c8b87a79","bdp_wmem","Tue May 11 2021 19:50:44 GMT-0700 (Pacific Daylight Time)","632902","Match,No Match","","null","","","","","","<div class='trialBorder'><div class='vertical-center'><img src='img/error.jpg'></div><div class='respDiv'><div class='respDivL'><font style='color:orange'>Match<br>(e)</font></div><div class='respDivR'>No Match<br>(i)</div></div></div>","null","FEEDBACK","","","","","","","","","","",""
"html-keyboard-response","115","321833","0.0-7.0-1.16","608f2aa883599160c8b87a79","bdp_wmem","Tue May 11 2021 19:50:44 GMT-0700 (Pacific Daylight Time)","632902","Match,No Match","","null","","","","","","<div class='trialBorder'><div class='vertical-center'><img src='img/fixation2_sml.jpg'</img></div></div>","null","FIX","","","","","","","","","","",""
"html-keyboard-response","116","324841","0.0-7.0-2.16","608f2aa883599160c8b87a79","bdp_wmem","Tue May 11 2021 19:50:44 GMT-0700 (Pacific Daylight Time)","632902","Match,No Match","","null","","","","","","<div class='trialBorder'><div class='vertical-center'><img style='vertical-align:center; align:center' src='img/fixation2_sml.jpg'></div><div class='arrayDiv2'><div class='tl'><img class='introPic' src='trustrating_stim/white_mw038.bmp'><br><font color='green'><strong>Share</strong></font></div><div class='tr'><img class='introPic' src='trustrating_stim/white_mw092.bmp'><br><font color='red'><strong>Keep</strong></font></div></div></div>","null","ARRAY","2","trustrating_stim/white_mw038.bmp,trustrating_stim/white_mw092.bmp","1,0","Match","e","3000","","","","",""
"html-keyboard-response","117","328849","0.0-7.0-3.16","608f2aa883599160c8b87a79","bdp_wmem","Tue May 11 2021 19:50:44 GMT-0700 (Pacific Daylight Time)","632902","Match,No Match","","null","","","","","","<div class='trialBorder'><div class='vertical-center'><img src='img/fixation2_sml.jpg'</img></div></div>","null","DELAY","","","","","","","","","","",""
"html-keyboard-response","118","331681","0.0-7.0-4.16","608f2aa883599160c8b87a79","bdp_wmem","Tue May 11 2021 19:50:44 GMT-0700 (Pacific Daylight Time)","632902","Match,No Match","","2827","","","","","","<div class='trialBorder'><div class='targDiv'><div class='tc'><img class='introPic' src='trustrating_stim/white_mw092.bmp'><br><font color='red'><strong>Keep</strong></font></div></div><div class='respDiv'><div class='respDivL'>Match<br>(e)</div><div class='respDivR'>No Match<br>(i)</div></div></div>","i","TARGET","2","trustrating_stim/white_mw038.bmp,trustrating_stim/white_mw092.bmp","1,0","Match","e","3000","trustrating_stim/white_mw092.bmp","red","Keep","REAL","0"
"html-keyboard-response","119","332186","0.0-7.0-5.16","608f2aa883599160c8b87a79","bdp_wmem","Tue May 11 2021 19:50:44 GMT-0700 (Pacific Daylight Time)","632902","Match,No Match","","null","","","","","","<div class='trialBorder'><div class='vertical-center'><img src='img/error.jpg'></div><div class='respDiv'><div class='respDivL'>Match<br>(e)</div><div class='respDivR'><font style='color:orange'>No Match<br>(i)</font></div></div></div>","null","FEEDBACK","","","","","","","","","","",""
"html-keyboard-response","120","332690","0.0-7.0-1.17","608f2aa883599160c8b87a79","bdp_wmem","Tue May 11 2021 19:50:44 GMT-0700 (Pacific Daylight Time)","632902","Match,No Match","","null","","","","","","<div class='trialBorder'><div class='vertical-center'><img src='img/fixation2_sml.jpg'</img></div></div>","null","FIX","","","","","","","","","","",""
"html-keyboard-response","121","335699","0.0-7.0-2.17","608f2aa883599160c8b87a79","bdp_wmem","Tue May 11 2021 19:50:44 GMT-0700 (Pacific Daylight Time)","632902","Match,No Match","","null","","","","","","<div class='trialBorder'><div class='vertical-center'><img style='vertical-align:center; align:center' src='img/fixation2_sml.jpg'></div><div class='arrayDiv2'><div class='tl'><img class='introPic' src='trustrating_stim/white_mw015.bmp'><br><font color='green'><strong>Share</strong></font></div><div class='tr'><img class='introPic' src='trustrating_stim/white_mw040.bmp'><br><font color='red'><strong>Keep</strong></font></div></div></div>","null","ARRAY","2","trustrating_stim/white_mw015.bmp,trustrating_stim/white_mw040.bmp","1,0","Match","e","3000","","","","",""
"html-keyboard-response","122","339709","0.0-7.0-3.17","608f2aa883599160c8b87a79","bdp_wmem","Tue May 11 2021 19:50:44 GMT-0700 (Pacific Daylight Time)","632902","Match,No Match","","null","","","","","","<div class='trialBorder'><div class='vertical-center'><img src='img/fixation2_sml.jpg'</img></div></div>","null","DELAY","","","","","","","","","","",""
"html-keyboard-response","123","340966","0.0-7.0-4.17","608f2aa883599160c8b87a79","bdp_wmem","Tue May 11 2021 19:50:44 GMT-0700 (Pacific Daylight Time)","632902","Match,No Match","","1252","","","","","","<div class='trialBorder'><div class='targDiv'><div class='tc'><img class='introPic' src='trustrating_stim/white_mw040.bmp'><br><font color='red'><strong>Keep</strong></font></div></div><div class='respDiv'><div class='respDivL'>Match<br>(e)</div><div class='respDivR'>No Match<br>(i)</div></div></div>","i","TARGET","2","trustrating_stim/white_mw015.bmp,trustrating_stim/white_mw040.bmp","1,0","Match","e","3000","trustrating_stim/white_mw040.bmp","red","Keep","REAL","0"
"html-keyboard-response","124","341471","0.0-7.0-5.17","608f2aa883599160c8b87a79","bdp_wmem","Tue May 11 2021 19:50:44 GMT-0700 (Pacific Daylight Time)","632902","Match,No Match","","null","","","","","","<div class='trialBorder'><div class='vertical-center'><img src='img/error.jpg'></div><div class='respDiv'><div class='respDivL'>Match<br>(e)</div><div class='respDivR'><font style='color:orange'>No Match<br>(i)</font></div></div></div>","null","FEEDBACK","","","","","","","","","","",""
"html-keyboard-response","125","341974","0.0-7.0-1.18","608f2aa883599160c8b87a79","bdp_wmem","Tue May 11 2021 19:50:44 GMT-0700 (Pacific Daylight Time)","632902","Match,No Match","","null","","","","","","<div class='trialBorder'><div class='vertical-center'><img src='img/fixation2_sml.jpg'</img></div></div>","null","FIX","","","","","","","","","","",""
"html-keyboard-response","126","343483","0.0-7.0-2.18","608f2aa883599160c8b87a79","bdp_wmem","Tue May 11 2021 19:50:44 GMT-0700 (Pacific Daylight Time)","632902","Match,No Match","","null","","","","","","<div class='trialBorder'><div class='vertical-center'><img style='vertical-align:center; align:center' src='img/fixation2_sml.jpg'></div><div class='arrayDiv1'><div class='tc'><img class='introPic' src='trustrating_stim/white_mw012.bmp'><br><font color='green'><strong>Share</strong></font></div></div></div>","null","ARRAY","1","trustrating_stim/white_mw012.bmp","1","Match","e","1500","","","","",""
"html-keyboard-response","127","347492","0.0-7.0-3.18","608f2aa883599160c8b87a79","bdp_wmem","Tue May 11 2021 19:50:44 GMT-0700 (Pacific Daylight Time)","632902","Match,No Match","","null","","","","","","<div class='trialBorder'><div class='vertical-center'><img src='img/fixation2_sml.jpg'</img></div></div>","null","DELAY","","","","","","","","","","",""
"html-keyboard-response","128","347916","0.0-7.0-4.18","608f2aa883599160c8b87a79","bdp_wmem","Tue May 11 2021 19:50:44 GMT-0700 (Pacific Daylight Time)","632902","Match,No Match","","419","","","","","","<div class='trialBorder'><div class='targDiv'><div class='tc'><img class='introPic' src='trustrating_stim/white_mw012.bmp'><br><font color='green'><strong>Share</strong></font></div></div><div class='respDiv'><div class='respDivL'>Match<br>(e)</div><div class='respDivR'>No Match<br>(i)</div></div></div>","e","TARGET","1","trustrating_stim/white_mw012.bmp","1","Match","e","1500","trustrating_stim/white_mw012.bmp","green","Share","REAL","1"
"html-keyboard-response","129","348420","0.0-7.0-5.18","608f2aa883599160c8b87a79","bdp_wmem","Tue May 11 2021 19:50:44 GMT-0700 (Pacific Daylight Time)","632902","Match,No Match","","null","","","","","","<div class='trialBorder'><div class='vertical-center'><img src='img/correct.jpg'></div><div class='respDiv'><div class='respDivL'><font style='color:orange'>Match<br>(e)</font></div><div class='respDivR'>No Match<br>(i)</div></div></div>","null","FEEDBACK","","","","","","","","","","",""
"html-keyboard-response","130","348924","0.0-7.0-1.19","608f2aa883599160c8b87a79","bdp_wmem","Tue May 11 2021 19:50:44 GMT-0700 (Pacific Daylight Time)","632902","Match,No Match","","null","","","","","","<div class='trialBorder'><div class='vertical-center'><img src='img/fixation2_sml.jpg'</img></div></div>","null","FIX","","","","","","","","","","",""
"html-keyboard-response","131","353429","0.0-7.0-2.19","608f2aa883599160c8b87a79","bdp_wmem","Tue May 11 2021 19:50:44 GMT-0700 (Pacific Daylight Time)","632902","Match,No Match","","null","","","","","","<div class='trialBorder'><div class='vertical-center'><img style='vertical-align:center; align:center' src='img/fixation2_sml.jpg'></div><div class='arrayDiv3'><div class='tl'><img class='introPic' src='trustrating_stim/white_mw013.bmp'><br><font color='green'><strong>Share</strong></font></div><div class='tc'><img class='introPic' src='trustrating_stim/white_mw033.bmp'><br><font color='red'><strong>Keep</strong></font></div><div class='tr'><img class='introPic' src='trustrating_stim/white_mw091.bmp'><br><font color='green'><strong>Share</strong></font></div></div></div>","null","ARRAY","3","trustrating_stim/white_mw013.bmp,trustrating_stim/white_mw033.bmp,trustrating_stim/white_mw091.bmp","1,0,1","noMatchOutcome","i","4500","","","","",""
"html-keyboard-response","132","357437","0.0-7.0-3.19","608f2aa883599160c8b87a79","bdp_wmem","Tue May 11 2021 19:50:44 GMT-0700 (Pacific Daylight Time)","632902","Match,No Match","","null","","","","","","<div class='trialBorder'><div class='vertical-center'><img src='img/fixation2_sml.jpg'</img></div></div>","null","DELAY","","","","","","","","","","",""
"html-keyboard-response","133","358903","0.0-7.0-4.19","608f2aa883599160c8b87a79","bdp_wmem","Tue May 11 2021 19:50:44 GMT-0700 (Pacific Daylight Time)","632902","Match,No Match","","1461","","","","","","<div class='trialBorder'><div class='targDiv'><div class='tc'><img class='introPic' src='trustrating_stim/white_mw033.bmp'><br><font color='green'><strong>Share</strong></font></div></div><div class='respDiv'><div class='respDivL'>Match<br>(e)</div><div class='respDivR'>No Match<br>(i)</div></div></div>","e","TARGET","3","trustrating_stim/white_mw013.bmp,trustrating_stim/white_mw033.bmp,trustrating_stim/white_mw091.bmp","1,0,1","noMatchOutcome","i","4500","trustrating_stim/white_mw033.bmp","green","Share","REAL","0"
"html-keyboard-response","134","359413","0.0-7.0-5.19","608f2aa883599160c8b87a79","bdp_wmem","Tue May 11 2021 19:50:44 GMT-0700 (Pacific Daylight Time)","632902","Match,No Match","","null","","","","","","<div class='trialBorder'><div class='vertical-center'><img src='img/error.jpg'></div><div class='respDiv'><div class='respDivL'><font style='color:orange'>Match<br>(e)</font></div><div class='respDivR'>No Match<br>(i)</div></div></div>","null","FEEDBACK","","","","","","","","","","",""
"html-keyboard-response","135","359918","0.0-7.0-1.20","608f2aa883599160c8b87a79","bdp_wmem","Tue May 11 2021 19:50:44 GMT-0700 (Pacific Daylight Time)","632902","Match,No Match","","null","","","","","","<div class='trialBorder'><div class='vertical-center'><img src='img/fixation2_sml.jpg'</img></div></div>","null","FIX","","","","","","","","","","",""
"html-keyboard-response","136","362926","0.0-7.0-2.20","608f2aa883599160c8b87a79","bdp_wmem","Tue May 11 2021 19:50:44 GMT-0700 (Pacific Daylight Time)","632902","Match,No Match","","null","","","","","","<div class='trialBorder'><div class='vertical-center'><img style='vertical-align:center; align:center' src='img/fixation2_sml.jpg'></div><div class='arrayDiv2'><div class='tl'><img class='introPic' src='trustrating_stim/white_mw040.bmp'><br><font color='red'><strong>Keep</strong></font></div><div class='tr'><img class='introPic' src='trustrating_stim/white_mw092.bmp'><br><font color='green'><strong>Share</strong></font></div></div></div>","null","ARRAY","2","trustrating_stim/white_mw040.bmp,trustrating_stim/white_mw092.bmp","0,1","noMatchFace","i","3000","","","","",""
"html-keyboard-response","137","366937","0.0-7.0-3.20","608f2aa883599160c8b87a79","bdp_wmem","Tue May 11 2021 19:50:44 GMT-0700 (Pacific Daylight Time)","632902","Match,No Match","","null","","","","","","<div class='trialBorder'><div class='vertical-center'><img src='img/fixation2_sml.jpg'</img></div></div>","null","DELAY","","","","","","","","","","",""
"html-keyboard-response","138","367419","0.0-7.0-4.20","608f2aa883599160c8b87a79","bdp_wmem","Tue May 11 2021 19:50:44 GMT-0700 (Pacific Daylight Time)","632902","Match,No Match","","478","","","","","","<div class='trialBorder'><div class='targDiv'><div class='tc'><img class='introPic' src='trustrating_stim/white_00050_931230_fa_edt.bmp'><br><font color='green'><strong>Share</strong></font></div></div><div class='respDiv'><div class='respDivL'>Match<br>(e)</div><div class='respDivR'>No Match<br>(i)</div></div></div>","i","TARGET","2","trustrating_stim/white_mw040.bmp,trustrating_stim/white_mw092.bmp","0,1","noMatchFace","i","3000","trustrating_stim/white_00050_931230_fa_edt.bmp","green","Share","REAL","1"
"html-keyboard-response","139","367929","0.0-7.0-5.20","608f2aa883599160c8b87a79","bdp_wmem","Tue May 11 2021 19:50:44 GMT-0700 (Pacific Daylight Time)","632902","Match,No Match","","null","","","","","","<div class='trialBorder'><div class='vertical-center'><img src='img/correct.jpg'></div><div class='respDiv'><div class='respDivL'>Match<br>(e)</div><div class='respDivR'><font style='color:orange'>No Match<br>(i)</font></div></div></div>","null","FEEDBACK","","","","","","","","","","",""
"html-keyboard-response","140","368434","0.0-7.0-1.21","608f2aa883599160c8b87a79","bdp_wmem","Tue May 11 2021 19:50:44 GMT-0700 (Pacific Daylight Time)","632902","Match,No Match","","null","","","","","","<div class='trialBorder'><div class='vertical-center'><img src='img/fixation2_sml.jpg'</img></div></div>","null","FIX","","","","","","","","","","",""
"html-keyboard-response","141","372938","0.0-7.0-2.21","608f2aa883599160c8b87a79","bdp_wmem","Tue May 11 2021 19:50:44 GMT-0700 (Pacific Daylight Time)","632902","Match,No Match","","null","","","","","","<div class='trialBorder'><div class='vertical-center'><img style='vertical-align:center; align:center' src='img/fixation2_sml.jpg'></div><div class='arrayDiv3'><div class='tl'><img class='introPic' src='trustrating_stim/white_00050_931230_fa_edt.bmp'><br><font color='red'><strong>Keep</strong></font></div><div class='tc'><img class='introPic' src='trustrating_stim/white_mw033.bmp'><br><font color='red'><strong>Keep</strong></font></div><div class='tr'><img class='introPic' src='trustrating_stim/white_mw040.bmp'><br><font color='green'><strong>Share</strong></font></div></div></div>","null","ARRAY","3","trustrating_stim/white_00050_931230_fa_edt.bmp,trustrating_stim/white_mw033.bmp,trustrating_stim/white_mw040.bmp","0,0,1","Match","e","4500","","","","",""
"html-keyboard-response","142","376948","0.0-7.0-3.21","608f2aa883599160c8b87a79","bdp_wmem","Tue May 11 2021 19:50:44 GMT-0700 (Pacific Daylight Time)","632902","Match,No Match","","null","","","","","","<div class='trialBorder'><div class='vertical-center'><img src='img/fixation2_sml.jpg'</img></div></div>","null","DELAY","","","","","","","","","","",""
"html-keyboard-response","143","377597","0.0-7.0-4.21","608f2aa883599160c8b87a79","bdp_wmem","Tue May 11 2021 19:50:44 GMT-0700 (Pacific Daylight Time)","632902","Match,No Match","","643","","","","","","<div class='trialBorder'><div class='targDiv'><div class='tc'><img class='introPic' src='trustrating_stim/white_mw040.bmp'><br><font color='green'><strong>Share</strong></font></div></div><div class='respDiv'><div class='respDivL'>Match<br>(e)</div><div class='respDivR'>No Match<br>(i)</div></div></div>","i","TARGET","3","trustrating_stim/white_00050_931230_fa_edt.bmp,trustrating_stim/white_mw033.bmp,trustrating_stim/white_mw040.bmp","0,0,1","Match","e","4500","trustrating_stim/white_mw040.bmp","green","Share","REAL","0"
"html-keyboard-response","144","378102","0.0-7.0-5.21","608f2aa883599160c8b87a79","bdp_wmem","Tue May 11 2021 19:50:44 GMT-0700 (Pacific Daylight Time)","632902","Match,No Match","","null","","","","","","<div class='trialBorder'><div class='vertical-center'><img src='img/error.jpg'></div><div class='respDiv'><div class='respDivL'>Match<br>(e)</div><div class='respDivR'><font style='color:orange'>No Match<br>(i)</font></div></div></div>","null","FEEDBACK","","","","","","","","","","",""
"html-keyboard-response","145","378606","0.0-7.0-1.22","608f2aa883599160c8b87a79","bdp_wmem","Tue May 11 2021 19:50:44 GMT-0700 (Pacific Daylight Time)","632902","Match,No Match","","null","","","","","","<div class='trialBorder'><div class='vertical-center'><img src='img/fixation2_sml.jpg'</img></div></div>","null","FIX","","","","","","","","","","",""
"html-keyboard-response","146","381614","0.0-7.0-2.22","608f2aa883599160c8b87a79","bdp_wmem","Tue May 11 2021 19:50:44 GMT-0700 (Pacific Daylight Time)","632902","Match,No Match","","null","","","","","","<div class='trialBorder'><div class='vertical-center'><img style='vertical-align:center; align:center' src='img/fixation2_sml.jpg'></div><div class='arrayDiv2'><div class='tl'><img class='introPic' src='trustrating_stim/white_mw033.bmp'><br><font color='green'><strong>Share</strong></font></div><div class='tr'><img class='introPic' src='trustrating_stim/white_mw040.bmp'><br><font color='red'><strong>Keep</strong></font></div></div></div>","null","ARRAY","2","trustrating_stim/white_mw033.bmp,trustrating_stim/white_mw040.bmp","1,0","Match","e","3000","","","","",""
"html-keyboard-response","147","385623","0.0-7.0-3.22","608f2aa883599160c8b87a79","bdp_wmem","Tue May 11 2021 19:50:44 GMT-0700 (Pacific Daylight Time)","632902","Match,No Match","","null","","","","","","<div class='trialBorder'><div class='vertical-center'><img src='img/fixation2_sml.jpg'</img></div></div>","null","DELAY","","","","","","","","","","",""
"html-keyboard-response","148","386290","0.0-7.0-4.22","608f2aa883599160c8b87a79","bdp_wmem","Tue May 11 2021 19:50:44 GMT-0700 (Pacific Daylight Time)","632902","Match,No Match","","662","","","","","","<div class='trialBorder'><div class='targDiv'><div class='tc'><img class='introPic' src='trustrating_stim/white_mw033.bmp'><br><font color='green'><strong>Share</strong></font></div></div><div class='respDiv'><div class='respDivL'>Match<br>(e)</div><div class='respDivR'>No Match<br>(i)</div></div></div>","e","TARGET","2","trustrating_stim/white_mw033.bmp,trustrating_stim/white_mw040.bmp","1,0","Match","e","3000","trustrating_stim/white_mw033.bmp","green","Share","REAL","1"
"html-keyboard-response","149","386800","0.0-7.0-5.22","608f2aa883599160c8b87a79","bdp_wmem","Tue May 11 2021 19:50:44 GMT-0700 (Pacific Daylight Time)","632902","Match,No Match","","null","","","","","","<div class='trialBorder'><div class='vertical-center'><img src='img/correct.jpg'></div><div class='respDiv'><div class='respDivL'><font style='color:orange'>Match<br>(e)</font></div><div class='respDivR'>No Match<br>(i)</div></div></div>","null","FEEDBACK","","","","","","","","","","",""
"html-keyboard-response","150","387304","0.0-7.0-1.23","608f2aa883599160c8b87a79","bdp_wmem","Tue May 11 2021 19:50:44 GMT-0700 (Pacific Daylight Time)","632902","Match,No Match","","null","","","","","","<div class='trialBorder'><div class='vertical-center'><img src='img/fixation2_sml.jpg'</img></div></div>","null","FIX","","","","","","","","","","",""
"html-keyboard-response","151","390313","0.0-7.0-2.23","608f2aa883599160c8b87a79","bdp_wmem","Tue May 11 2021 19:50:44 GMT-0700 (Pacific Daylight Time)","632902","Match,No Match","","null","","","","","","<div class='trialBorder'><div class='vertical-center'><img style='vertical-align:center; align:center' src='img/fixation2_sml.jpg'></div><div class='arrayDiv2'><div class='tl'><img class='introPic' src='trustrating_stim/white_mw003.bmp'><br><font color='green'><strong>Share</strong></font></div><div class='tr'><img class='introPic' src='trustrating_stim/white_mw070.bmp'><br><font color='red'><strong>Keep</strong></font></div></div></div>","null","ARRAY","2","trustrating_stim/white_mw003.bmp,trustrating_stim/white_mw070.bmp","1,0","noMatchOutcome","i","3000","","","","",""
"html-keyboard-response","152","394320","0.0-7.0-3.23","608f2aa883599160c8b87a79","bdp_wmem","Tue May 11 2021 19:50:44 GMT-0700 (Pacific Daylight Time)","632902","Match,No Match","","null","","","","","","<div class='trialBorder'><div class='vertical-center'><img src='img/fixation2_sml.jpg'</img></div></div>","null","DELAY","","","","","","","","","","",""
"html-keyboard-response","153","396329","0.0-7.0-4.23","608f2aa883599160c8b87a79","bdp_wmem","Tue May 11 2021 19:50:44 GMT-0700 (Pacific Daylight Time)","632902","Match,No Match","","2007","","","","","","<div class='trialBorder'><div class='targDiv'><div class='tc'><img class='introPic' src='trustrating_stim/white_mw003.bmp'><br><font color='red'><strong>Keep</strong></font></div></div><div class='respDiv'><div class='respDivL'>Match<br>(e)</div><div class='respDivR'>No Match<br>(i)</div></div></div>","e","TARGET","2","trustrating_stim/white_mw003.bmp,trustrating_stim/white_mw070.bmp","1,0","noMatchOutcome","i","3000","trustrating_stim/white_mw003.bmp","red","Keep","REAL","0"
"html-keyboard-response","154","396832","0.0-7.0-5.23","608f2aa883599160c8b87a79","bdp_wmem","Tue May 11 2021 19:50:44 GMT-0700 (Pacific Daylight Time)","632902","Match,No Match","","null","","","","","","<div class='trialBorder'><div class='vertical-center'><img src='img/error.jpg'></div><div class='respDiv'><div class='respDivL'><font style='color:orange'>Match<br>(e)</font></div><div class='respDivR'>No Match<br>(i)</div></div></div>","null","FEEDBACK","","","","","","","","","","",""
"html-keyboard-response","155","397349","0.0-7.0-1.24","608f2aa883599160c8b87a79","bdp_wmem","Tue May 11 2021 19:50:44 GMT-0700 (Pacific Daylight Time)","632902","Match,No Match","","null","","","","","","<div class='trialBorder'><div class='vertical-center'><img src='img/fixation2_sml.jpg'</img></div></div>","null","FIX","","","","","","","","","","",""
"html-keyboard-response","156","401857","0.0-7.0-2.24","608f2aa883599160c8b87a79","bdp_wmem","Tue May 11 2021 19:50:44 GMT-0700 (Pacific Daylight Time)","632902","Match,No Match","","null","","","","","","<div class='trialBorder'><div class='vertical-center'><img style='vertical-align:center; align:center' src='img/fixation2_sml.jpg'></div><div class='arrayDiv3'><div class='tl'><img class='introPic' src='trustrating_stim/white_mw091.bmp'><br><font color='green'><strong>Share</strong></font></div><div class='tc'><img class='introPic' src='trustrating_stim/white_mw040.bmp'><br><font color='red'><strong>Keep</strong></font></div><div class='tr'><img class='introPic' src='trustrating_stim/white_mw070.bmp'><br><font color='green'><strong>Share</strong></font></div></div></div>","null","ARRAY","3","trustrating_stim/white_mw091.bmp,trustrating_stim/white_mw040.bmp,trustrating_stim/white_mw070.bmp","1,0,1","Match","e","4500","","","","",""
"html-keyboard-response","157","405868","0.0-7.0-3.24","608f2aa883599160c8b87a79","bdp_wmem","Tue May 11 2021 19:50:44 GMT-0700 (Pacific Daylight Time)","632902","Match,No Match","","null","","","","","","<div class='trialBorder'><div class='vertical-center'><img src='img/fixation2_sml.jpg'</img></div></div>","null","DELAY","","","","","","","","","","",""
"html-keyboard-response","158","408472","0.0-7.0-4.24","608f2aa883599160c8b87a79","bdp_wmem","Tue May 11 2021 19:50:44 GMT-0700 (Pacific Daylight Time)","632902","Match,No Match","","2600","","","","","","<div class='trialBorder'><div class='targDiv'><div class='tc'><img class='introPic' src='trustrating_stim/white_mw070.bmp'><br><font color='green'><strong>Share</strong></font></div></div><div class='respDiv'><div class='respDivL'>Match<br>(e)</div><div class='respDivR'>No Match<br>(i)</div></div></div>","e","TARGET","3","trustrating_stim/white_mw091.bmp,trustrating_stim/white_mw040.bmp,trustrating_stim/white_mw070.bmp","1,0,1","Match","e","4500","trustrating_stim/white_mw070.bmp","green","Share","REAL","1"
"html-keyboard-response","159","408979","0.0-7.0-5.24","608f2aa883599160c8b87a79","bdp_wmem","Tue May 11 2021 19:50:44 GMT-0700 (Pacific Daylight Time)","632902","Match,No Match","","null","","","","","","<div class='trialBorder'><div class='vertical-center'><img src='img/correct.jpg'></div><div class='respDiv'><div class='respDivL'><font style='color:orange'>Match<br>(e)</font></div><div class='respDivR'>No Match<br>(i)</div></div></div>","null","FEEDBACK","","","","","","","","","","",""
"html-keyboard-response","160","409483","0.0-7.0-1.25","608f2aa883599160c8b87a79","bdp_wmem","Tue May 11 2021 19:50:44 GMT-0700 (Pacific Daylight Time)","632902","Match,No Match","","null","","","","","","<div class='trialBorder'><div class='vertical-center'><img src='img/fixation2_sml.jpg'</img></div></div>","null","FIX","","","","","","","","","","",""
"html-keyboard-response","161","412493","0.0-7.0-2.25","608f2aa883599160c8b87a79","bdp_wmem","Tue May 11 2021 19:50:44 GMT-0700 (Pacific Daylight Time)","632902","Match,No Match","","null","","","","","","<div class='trialBorder'><div class='vertical-center'><img style='vertical-align:center; align:center' src='img/fixation2_sml.jpg'></div><div class='arrayDiv2'><div class='tl'><img class='introPic' src='trustrating_stim/white_mw015.bmp'><br><font color='red'><strong>Keep</strong></font></div><div class='tr'><img class='introPic' src='trustrating_stim/white_mw012.bmp'><br><font color='green'><strong>Share</strong></font></div></div></div>","null","ARRAY","2","trustrating_stim/white_mw015.bmp,trustrating_stim/white_mw012.bmp","0,1","noMatchFace","i","3000","","","","",""
"html-keyboard-response","162","416495","0.0-7.0-3.25","608f2aa883599160c8b87a79","bdp_wmem","Tue May 11 2021 19:50:44 GMT-0700 (Pacific Daylight Time)","632902","Match,No Match","","null","","","","","","<div class='trialBorder'><div class='vertical-center'><img src='img/fixation2_sml.jpg'</img></div></div>","null","DELAY","","","","","","","","","","",""
"html-keyboard-response","163","417142","0.0-7.0-4.25","608f2aa883599160c8b87a79","bdp_wmem","Tue May 11 2021 19:50:44 GMT-0700 (Pacific Daylight Time)","632902","Match,No Match","","642","","","","","","<div class='trialBorder'><div class='targDiv'><div class='tc'><img class='introPic' src='trustrating_stim/white_mw091.bmp'><br><font color='red'><strong>Keep</strong></font></div></div><div class='respDiv'><div class='respDivL'>Match<br>(e)</div><div class='respDivR'>No Match<br>(i)</div></div></div>","e","TARGET","2","trustrating_stim/white_mw015.bmp,trustrating_stim/white_mw012.bmp","0,1","noMatchFace","i","3000","trustrating_stim/white_mw091.bmp","red","Keep","REAL","0"
"html-keyboard-response","164","417648","0.0-7.0-5.25","608f2aa883599160c8b87a79","bdp_wmem","Tue May 11 2021 19:50:44 GMT-0700 (Pacific Daylight Time)","632902","Match,No Match","","null","","","","","","<div class='trialBorder'><div class='vertical-center'><img src='img/error.jpg'></div><div class='respDiv'><div class='respDivL'><font style='color:orange'>Match<br>(e)</font></div><div class='respDivR'>No Match<br>(i)</div></div></div>","null","FEEDBACK","","","","","","","","","","",""
"html-keyboard-response","165","418151","0.0-7.0-1.26","608f2aa883599160c8b87a79","bdp_wmem","Tue May 11 2021 19:50:44 GMT-0700 (Pacific Daylight Time)","632902","Match,No Match","","null","","","","","","<div class='trialBorder'><div class='vertical-center'><img src='img/fixation2_sml.jpg'</img></div></div>","null","FIX","","","","","","","","","","",""
"html-keyboard-response","166","422659","0.0-7.0-2.26","608f2aa883599160c8b87a79","bdp_wmem","Tue May 11 2021 19:50:44 GMT-0700 (Pacific Daylight Time)","632902","Match,No Match","","null","","","","","","<div class='trialBorder'><div class='vertical-center'><img style='vertical-align:center; align:center' src='img/fixation2_sml.jpg'></div><div class='arrayDiv3'><div class='tl'><img class='introPic' src='trustrating_stim/white_mw070.bmp'><br><font color='green'><strong>Share</strong></font></div><div class='tc'><img class='introPic' src='trustrating_stim/white_mw092.bmp'><br><font color='red'><strong>Keep</strong></font></div><div class='tr'><img class='introPic' src='trustrating_stim/white_mw003.bmp'><br><font color='green'><strong>Share</strong></font></div></div></div>","null","ARRAY","3","trustrating_stim/white_mw070.bmp,trustrating_stim/white_mw092.bmp,trustrating_stim/white_mw003.bmp","1,0,1","noMatchFace","i","4500","","","","",""
"html-keyboard-response","167","426667","0.0-7.0-3.26","608f2aa883599160c8b87a79","bdp_wmem","Tue May 11 2021 19:50:44 GMT-0700 (Pacific Daylight Time)","632902","Match,No Match","","null","","","","","","<div class='trialBorder'><div class='vertical-center'><img src='img/fixation2_sml.jpg'</img></div></div>","null","DELAY","","","","","","","","","","",""
"html-keyboard-response","168","431340","0.0-7.0-4.26","608f2aa883599160c8b87a79","bdp_wmem","Tue May 11 2021 19:50:44 GMT-0700 (Pacific Daylight Time)","632902","Match,No Match","","4669","","","","","","<div class='trialBorder'><div class='targDiv'><div class='tc'><img class='introPic' src='trustrating_stim/white_mw040.bmp'><br><font color='red'><strong>Keep</strong></font></div></div><div class='respDiv'><div class='respDivL'>Match<br>(e)</div><div class='respDivR'>No Match<br>(i)</div></div></div>","e","TARGET","3","trustrating_stim/white_mw070.bmp,trustrating_stim/white_mw092.bmp,trustrating_stim/white_mw003.bmp","1,0,1","noMatchFace","i","4500","trustrating_stim/white_mw040.bmp","red","Keep","REAL","0"
"html-keyboard-response","169","431846","0.0-7.0-5.26","608f2aa883599160c8b87a79","bdp_wmem","Tue May 11 2021 19:50:44 GMT-0700 (Pacific Daylight Time)","632902","Match,No Match","","null","","","","","","<div class='trialBorder'><div class='vertical-center'><img src='img/error.jpg'></div><div class='respDiv'><div class='respDivL'><font style='color:orange'>Match<br>(e)</font></div><div class='respDivR'>No Match<br>(i)</div></div></div>","null","FEEDBACK","","","","","","","","","","",""
"html-keyboard-response","170","432350","0.0-7.0-1.27","608f2aa883599160c8b87a79","bdp_wmem","Tue May 11 2021 19:50:44 GMT-0700 (Pacific Daylight Time)","632902","Match,No Match","","null","","","","","","<div class='trialBorder'><div class='vertical-center'><img src='img/fixation2_sml.jpg'</img></div></div>","null","FIX","","","","","","","","","","",""
"html-keyboard-response","171","433862","0.0-7.0-2.27","608f2aa883599160c8b87a79","bdp_wmem","Tue May 11 2021 19:50:44 GMT-0700 (Pacific Daylight Time)","632902","Match,No Match","","null","","","","","","<div class='trialBorder'><div class='vertical-center'><img style='vertical-align:center; align:center' src='img/fixation2_sml.jpg'></div><div class='arrayDiv1'><div class='tc'><img class='introPic' src='trustrating_stim/white_mw092.bmp'><br><font color='green'><strong>Share</strong></font></div></div></div>","null","ARRAY","1","trustrating_stim/white_mw092.bmp","1","noMatchFace","i","1500","","","","",""
"html-keyboard-response","172","437866","0.0-7.0-3.27","608f2aa883599160c8b87a79","bdp_wmem","Tue May 11 2021 19:50:44 GMT-0700 (Pacific Daylight Time)","632902","Match,No Match","","null","","","","","","<div class='trialBorder'><div class='vertical-center'><img src='img/fixation2_sml.jpg'</img></div></div>","null","DELAY","","","","","","","","","","",""
"html-keyboard-response","173","440090","0.0-7.0-4.27","608f2aa883599160c8b87a79","bdp_wmem","Tue May 11 2021 19:50:44 GMT-0700 (Pacific Daylight Time)","632902","Match,No Match","","2219","","","","","","<div class='trialBorder'><div class='targDiv'><div class='tc'><img class='introPic' src='trustrating_stim/white_mw015.bmp'><br><font color='green'><strong>Share</strong></font></div></div><div class='respDiv'><div class='respDivL'>Match<br>(e)</div><div class='respDivR'>No Match<br>(i)</div></div></div>","e","TARGET","1","trustrating_stim/white_mw092.bmp","1","noMatchFace","i","1500","trustrating_stim/white_mw015.bmp","green","Share","REAL","0"
"html-keyboard-response","174","440608","0.0-7.0-5.27","608f2aa883599160c8b87a79","bdp_wmem","Tue May 11 2021 19:50:44 GMT-0700 (Pacific Daylight Time)","632902","Match,No Match","","null","","","","","","<div class='trialBorder'><div class='vertical-center'><img src='img/error.jpg'></div><div class='respDiv'><div class='respDivL'><font style='color:orange'>Match<br>(e)</font></div><div class='respDivR'>No Match<br>(i)</div></div></div>","null","FEEDBACK","","","","","","","","","","",""
"html-keyboard-response","175","441111","0.0-7.0-1.28","608f2aa883599160c8b87a79","bdp_wmem","Tue May 11 2021 19:50:44 GMT-0700 (Pacific Daylight Time)","632902","Match,No Match","","null","","","","","","<div class='trialBorder'><div class='vertical-center'><img src='img/fixation2_sml.jpg'</img></div></div>","null","FIX","","","","","","","","","","",""
"html-keyboard-response","176","442616","0.0-7.0-2.28","608f2aa883599160c8b87a79","bdp_wmem","Tue May 11 2021 19:50:44 GMT-0700 (Pacific Daylight Time)","632902","Match,No Match","","null","","","","","","<div class='trialBorder'><div class='vertical-center'><img style='vertical-align:center; align:center' src='img/fixation2_sml.jpg'></div><div class='arrayDiv1'><div class='tc'><img class='introPic' src='trustrating_stim/white_mw012.bmp'><br><font color='red'><strong>Keep</strong></font></div></div></div>","null","ARRAY","1","trustrating_stim/white_mw012.bmp","0","Match","e","1500","","","","",""
"html-keyboard-response","177","446620","0.0-7.0-3.28","608f2aa883599160c8b87a79","bdp_wmem","Tue May 11 2021 19:50:44 GMT-0700 (Pacific Daylight Time)","632902","Match,No Match","","null","","","","","","<div class='trialBorder'><div class='vertical-center'><img src='img/fixation2_sml.jpg'</img></div></div>","null","DELAY","","","","","","","","","","",""
"html-keyboard-response","178","447830","0.0-7.0-4.28","608f2aa883599160c8b87a79","bdp_wmem","Tue May 11 2021 19:50:44 GMT-0700 (Pacific Daylight Time)","632902","Match,No Match","","1206","","","","","","<div class='trialBorder'><div class='targDiv'><div class='tc'><img class='introPic' src='trustrating_stim/white_mw012.bmp'><br><font color='red'><strong>Keep</strong></font></div></div><div class='respDiv'><div class='respDivL'>Match<br>(e)</div><div class='respDivR'>No Match<br>(i)</div></div></div>","i","TARGET","1","trustrating_stim/white_mw012.bmp","0","Match","e","1500","trustrating_stim/white_mw012.bmp","red","Keep","REAL","0"
"html-keyboard-response","179","448335","0.0-7.0-5.28","608f2aa883599160c8b87a79","bdp_wmem","Tue May 11 2021 19:50:44 GMT-0700 (Pacific Daylight Time)","632902","Match,No Match","","null","","","","","","<div class='trialBorder'><div class='vertical-center'><img src='img/error.jpg'></div><div class='respDiv'><div class='respDivL'>Match<br>(e)</div><div class='respDivR'><font style='color:orange'>No Match<br>(i)</font></div></div></div>","null","FEEDBACK","","","","","","","","","","",""
"html-keyboard-response","180","448841","0.0-7.0-1.29","608f2aa883599160c8b87a79","bdp_wmem","Tue May 11 2021 19:50:44 GMT-0700 (Pacific Daylight Time)","632902","Match,No Match","","null","","","","","","<div class='trialBorder'><div class='vertical-center'><img src='img/fixation2_sml.jpg'</img></div></div>","null","FIX","","","","","","","","","","",""
"html-keyboard-response","181","451851","0.0-7.0-2.29","608f2aa883599160c8b87a79","bdp_wmem","Tue May 11 2021 19:50:44 GMT-0700 (Pacific Daylight Time)","632902","Match,No Match","","null","","","","","","<div class='trialBorder'><div class='vertical-center'><img style='vertical-align:center; align:center' src='img/fixation2_sml.jpg'></div><div class='arrayDiv2'><div class='tl'><img class='introPic' src='trustrating_stim/white_mw033.bmp'><br><font color='red'><strong>Keep</strong></font></div><div class='tr'><img class='introPic' src='trustrating_stim/white_mw091.bmp'><br><font color='green'><strong>Share</strong></font></div></div></div>","null","ARRAY","2","trustrating_stim/white_mw033.bmp,trustrating_stim/white_mw091.bmp","0,1","noMatchOutcome","i","3000","","","","",""
"html-keyboard-response","182","455860","0.0-7.0-3.29","608f2aa883599160c8b87a79","bdp_wmem","Tue May 11 2021 19:50:44 GMT-0700 (Pacific Daylight Time)","632902","Match,No Match","","null","","","","","","<div class='trialBorder'><div class='vertical-center'><img src='img/fixation2_sml.jpg'</img></div></div>","null","DELAY","","","","","","","","","","",""
"html-keyboard-response","183","456725","0.0-7.0-4.29","608f2aa883599160c8b87a79","bdp_wmem","Tue May 11 2021 19:50:44 GMT-0700 (Pacific Daylight Time)","632902","Match,No Match","","858","","","","","","<div class='trialBorder'><div class='targDiv'><div class='tc'><img class='introPic' src='trustrating_stim/white_mw091.bmp'><br><font color='red'><strong>Keep</strong></font></div></div><div class='respDiv'><div class='respDivL'>Match<br>(e)</div><div class='respDivR'>No Match<br>(i)</div></div></div>","i","TARGET","2","trustrating_stim/white_mw033.bmp,trustrating_stim/white_mw091.bmp","0,1","noMatchOutcome","i","3000","trustrating_stim/white_mw091.bmp","red","Keep","REAL","1"
"html-keyboard-response","184","457230","0.0-7.0-5.29","608f2aa883599160c8b87a79","bdp_wmem","Tue May 11 2021 19:50:44 GMT-0700 (Pacific Daylight Time)","632902","Match,No Match","","null","","","","","","<div class='trialBorder'><div class='vertical-center'><img src='img/correct.jpg'></div><div class='respDiv'><div class='respDivL'>Match<br>(e)</div><div class='respDivR'><font style='color:orange'>No Match<br>(i)</font></div></div></div>","null","FEEDBACK","","","","","","","","","","",""
"html-keyboard-response","185","457734","0.0-7.0-1.30","608f2aa883599160c8b87a79","bdp_wmem","Tue May 11 2021 19:50:44 GMT-0700 (Pacific Daylight Time)","632902","Match,No Match","","null","","","","","","<div class='trialBorder'><div class='vertical-center'><img src='img/fixation2_sml.jpg'</img></div></div>","null","FIX","","","","","","","","","","",""
"html-keyboard-response","186","460743","0.0-7.0-2.30","608f2aa883599160c8b87a79","bdp_wmem","Tue May 11 2021 19:50:44 GMT-0700 (Pacific Daylight Time)","632902","Match,No Match","","null","","","","","","<div class='trialBorder'><div class='vertical-center'><img style='vertical-align:center; align:center' src='img/fixation2_sml.jpg'></div><div class='arrayDiv2'><div class='tl'><img class='introPic' src='trustrating_stim/white_mw070.bmp'><br><font color='green'><strong>Share</strong></font></div><div class='tr'><img class='introPic' src='trustrating_stim/white_mw040.bmp'><br><font color='red'><strong>Keep</strong></font></div></div></div>","null","ARRAY","2","trustrating_stim/white_mw070.bmp,trustrating_stim/white_mw040.bmp","1,0","Match","e","3000","","","","",""
"html-keyboard-response","187","464753","0.0-7.0-3.30","608f2aa883599160c8b87a79","bdp_wmem","Tue May 11 2021 19:50:44 GMT-0700 (Pacific Daylight Time)","632902","Match,No Match","","null","","","","","","<div class='trialBorder'><div class='vertical-center'><img src='img/fixation2_sml.jpg'</img></div></div>","null","DELAY","","","","","","","","","","",""
