"trial_type","trial_index","time_elapsed","internal_node_id","subject_id","task","startTime","totalTime","labels","view_history","rt","event","trial","time","trialtype","success","stimulus","key_press","stimType","arraySize","arrayFaces","arrayOutcomes","matchType","corrResp","arrayDur","targFace","targCol","targOutcome","trialType","corr"
"pavlovia","0","3","0.0-0.0","63f7eb4fd0c75f760998818c","bdp_wmem","Tue Mar 14 2023 18:56:46 GMT-0700 (Pacific Daylight Time)","614029","Match,No Match","","","","","","","","","","","","","","","","","","","","",""
"instructions","1","6033","0.0-1.0","63f7eb4fd0c75f760998818c","bdp_wmem","Tue Mar 14 2023 18:56:46 GMT-0700 (Pacific Daylight Time)","614029","Match,No Match","[{""page_index"":0,""viewing_time"":6030}]","6030","","","","","","","","","","","","","","","","","","",""
"","","","","63f7eb4fd0c75f760998818c","bdp_wmem","Tue Mar 14 2023 18:56:46 GMT-0700 (Pacific Daylight Time)","614029","Match,No Match","","","fullscreenenter","2","8876","fullscreenenter","","","","","","","","","","","","","","",""
"fullscreen","2","9861","0.0-2.0","63f7eb4fd0c75f760998818c","bdp_wmem","Tue Mar 14 2023 18:56:46 GMT-0700 (Pacific Daylight Time)","614029","Match,No Match","","","","","","","true","","","","","","","","","","","","","",""
"instructions","3","69026","0.0-4.0","63f7eb4fd0c75f760998818c","bdp_wmem","Tue Mar 14 2023 18:56:46 GMT-0700 (Pacific Daylight Time)","614029","Match,No Match","[{""page_index"":0,""viewing_time"":18747},{""page_index"":1,""viewing_time"":17098},{""page_index"":2,""viewing_time"":5721},{""page_index"":3,""viewing_time"":11896},{""page_index"":4,""viewing_time"":5703}]","59165","","","","","","","","","","","","","","","","","","",""
"html-keyboard-response","4","69548","0.0-5.0-1.0","63f7eb4fd0c75f760998818c","bdp_wmem","Tue Mar 14 2023 18:56:46 GMT-0700 (Pacific Daylight Time)","614029","Match,No Match","","null","","","","","","<div class='trialBorder'><div class='vertical-center'><img src='img/fixation2_sml.jpg'</img></div></div>","null","FIX","","","","","","","","","","",""
"html-keyboard-response","5","72560","0.0-5.0-2.0","63f7eb4fd0c75f760998818c","bdp_wmem","Tue Mar 14 2023 18:56:46 GMT-0700 (Pacific Daylight Time)","614029","Match,No Match","","null","","","","","","<div class='trialBorder'><div class='vertical-center'><img style='vertical-align:center; align:center' src='img/fixation2_sml.jpg'></div><div class='arrayDiv2'><div class='tl'><img class='introPic' src='trustrating_stim/white_mw070.bmp'><br><font color='green'><strong>Share</strong></font></div><div class='tr'><img class='introPic' src='trustrating_stim/white_mw092.bmp'><br><font color='red'><strong>Keep</strong></font></div></div></div>","null","ARRAY","2","trustrating_stim/white_mw070.bmp,trustrating_stim/white_mw092.bmp","1,0","noMatchFace","i","3000","","","","",""
"html-keyboard-response","6","76566","0.0-5.0-3.0","63f7eb4fd0c75f760998818c","bdp_wmem","Tue Mar 14 2023 18:56:46 GMT-0700 (Pacific Daylight Time)","614029","Match,No Match","","null","","","","","","<div class='trialBorder'><div class='vertical-center'><img src='img/fixation2_sml.jpg'</img></div></div>","null","DELAY","","","","","","","","","","",""
"html-keyboard-response","7","80818","0.0-5.0-4.0","63f7eb4fd0c75f760998818c","bdp_wmem","Tue Mar 14 2023 18:56:46 GMT-0700 (Pacific Daylight Time)","614029","Match,No Match","","4250","","","","","","<div class='trialBorder'><div class='targDiv'><div class='tc'><img class='introPic' src='trustrating_stim/white_mw003.bmp'><br><font color='red'><strong>Keep</strong></font></div></div><div class='respDiv'><div class='respDivL'>Match<br>(e)</div><div class='respDivR'>No Match<br>(i)</div></div></div>","e","TARGET","2","trustrating_stim/white_mw070.bmp,trustrating_stim/white_mw092.bmp","1,0","noMatchFace","i","3000","trustrating_stim/white_mw003.bmp","red","Keep","PRACTICE","0"
"html-keyboard-response","8","81329","0.0-5.0-5.0","63f7eb4fd0c75f760998818c","bdp_wmem","Tue Mar 14 2023 18:56:46 GMT-0700 (Pacific Daylight Time)","614029","Match,No Match","","null","","","","","","<div class='trialBorder'><div class='vertical-center'><img src='img/error.jpg'></div><div class='respDiv'><div class='respDivL'><font style='color:orange'>Match<br>(e)</font></div><div class='respDivR'>No Match<br>(i)</div></div></div>","null","FEEDBACK","","","","","","","","","","",""
"html-keyboard-response","9","81835","0.0-5.0-1.1","63f7eb4fd0c75f760998818c","bdp_wmem","Tue Mar 14 2023 18:56:46 GMT-0700 (Pacific Daylight Time)","614029","Match,No Match","","null","","","","","","<div class='trialBorder'><div class='vertical-center'><img src='img/fixation2_sml.jpg'</img></div></div>","null","FIX","","","","","","","","","","",""
"html-keyboard-response","10","84840","0.0-5.0-2.1","63f7eb4fd0c75f760998818c","bdp_wmem","Tue Mar 14 2023 18:56:46 GMT-0700 (Pacific Daylight Time)","614029","Match,No Match","","null","","","","","","<div class='trialBorder'><div class='vertical-center'><img style='vertical-align:center; align:center' src='img/fixation2_sml.jpg'></div><div class='arrayDiv2'><div class='tl'><img class='introPic' src='trustrating_stim/white_mw070.bmp'><br><font color='green'><strong>Share</strong></font></div><div class='tr'><img class='introPic' src='trustrating_stim/white_mw092.bmp'><br><font color='red'><strong>Keep</strong></font></div></div></div>","null","ARRAY","2","trustrating_stim/white_mw070.bmp,trustrating_stim/white_mw092.bmp","1,0","Match","e","3000","","","","",""
"html-keyboard-response","11","88845","0.0-5.0-3.1","63f7eb4fd0c75f760998818c","bdp_wmem","Tue Mar 14 2023 18:56:46 GMT-0700 (Pacific Daylight Time)","614029","Match,No Match","","null","","","","","","<div class='trialBorder'><div class='vertical-center'><img src='img/fixation2_sml.jpg'</img></div></div>","null","DELAY","","","","","","","","","","",""
"html-keyboard-response","12","92263","0.0-5.0-4.1","63f7eb4fd0c75f760998818c","bdp_wmem","Tue Mar 14 2023 18:56:46 GMT-0700 (Pacific Daylight Time)","614029","Match,No Match","","3416","","","","","","<div class='trialBorder'><div class='targDiv'><div class='tc'><img class='introPic' src='trustrating_stim/white_mw092.bmp'><br><font color='red'><strong>Keep</strong></font></div></div><div class='respDiv'><div class='respDivL'>Match<br>(e)</div><div class='respDivR'>No Match<br>(i)</div></div></div>","e","TARGET","2","trustrating_stim/white_mw070.bmp,trustrating_stim/white_mw092.bmp","1,0","Match","e","3000","trustrating_stim/white_mw092.bmp","red","Keep","PRACTICE","1"
"html-keyboard-response","13","92768","0.0-5.0-5.1","63f7eb4fd0c75f760998818c","bdp_wmem","Tue Mar 14 2023 18:56:46 GMT-0700 (Pacific Daylight Time)","614029","Match,No Match","","null","","","","","","<div class='trialBorder'><div class='vertical-center'><img src='img/correct.jpg'></div><div class='respDiv'><div class='respDivL'><font style='color:orange'>Match<br>(e)</font></div><div class='respDivR'>No Match<br>(i)</div></div></div>","null","FEEDBACK","","","","","","","","","","",""
"html-keyboard-response","14","93273","0.0-5.0-1.2","63f7eb4fd0c75f760998818c","bdp_wmem","Tue Mar 14 2023 18:56:46 GMT-0700 (Pacific Daylight Time)","614029","Match,No Match","","null","","","","","","<div class='trialBorder'><div class='vertical-center'><img src='img/fixation2_sml.jpg'</img></div></div>","null","FIX","","","","","","","","","","",""
"html-keyboard-response","15","97786","0.0-5.0-2.2","63f7eb4fd0c75f760998818c","bdp_wmem","Tue Mar 14 2023 18:56:46 GMT-0700 (Pacific Daylight Time)","614029","Match,No Match","","null","","","","","","<div class='trialBorder'><div class='vertical-center'><img style='vertical-align:center; align:center' src='img/fixation2_sml.jpg'></div><div class='arrayDiv3'><div class='tl'><img class='introPic' src='trustrating_stim/white_mw091.bmp'><br><font color='green'><strong>Share</strong></font></div><div class='tc'><img class='introPic' src='trustrating_stim/white_mw040.bmp'><br><font color='green'><strong>Share</strong></font></div><div class='tr'><img class='introPic' src='trustrating_stim/white_mw070.bmp'><br><font color='red'><strong>Keep</strong></font></div></div></div>","null","ARRAY","3","trustrating_stim/white_mw091.bmp,trustrating_stim/white_mw040.bmp,trustrating_stim/white_mw070.bmp","1,1,0","noMatchOutcome","i","4500","","","","",""
"html-keyboard-response","16","101795","0.0-5.0-3.2","63f7eb4fd0c75f760998818c","bdp_wmem","Tue Mar 14 2023 18:56:46 GMT-0700 (Pacific Daylight Time)","614029","Match,No Match","","null","","","","","","<div class='trialBorder'><div class='vertical-center'><img src='img/fixation2_sml.jpg'</img></div></div>","null","DELAY","","","","","","","","","","",""
"html-keyboard-response","17","104207","0.0-5.0-4.2","63f7eb4fd0c75f760998818c","bdp_wmem","Tue Mar 14 2023 18:56:46 GMT-0700 (Pacific Daylight Time)","614029","Match,No Match","","2400","","","","","","<div class='trialBorder'><div class='targDiv'><div class='tc'><img class='introPic' src='trustrating_stim/white_mw091.bmp'><br><font color='red'><strong>Keep</strong></font></div></div><div class='respDiv'><div class='respDivL'>Match<br>(e)</div><div class='respDivR'>No Match<br>(i)</div></div></div>","i","TARGET","3","trustrating_stim/white_mw091.bmp,trustrating_stim/white_mw040.bmp,trustrating_stim/white_mw070.bmp","1,1,0","noMatchOutcome","i","4500","trustrating_stim/white_mw091.bmp","red","Keep","PRACTICE","1"
"html-keyboard-response","18","104711","0.0-5.0-5.2","63f7eb4fd0c75f760998818c","bdp_wmem","Tue Mar 14 2023 18:56:46 GMT-0700 (Pacific Daylight Time)","614029","Match,No Match","","null","","","","","","<div class='trialBorder'><div class='vertical-center'><img src='img/correct.jpg'></div><div class='respDiv'><div class='respDivL'>Match<br>(e)</div><div class='respDivR'><font style='color:orange'>No Match<br>(i)</font></div></div></div>","null","FEEDBACK","","","","","","","","","","",""
"html-keyboard-response","19","105219","0.0-5.0-1.3","63f7eb4fd0c75f760998818c","bdp_wmem","Tue Mar 14 2023 18:56:46 GMT-0700 (Pacific Daylight Time)","614029","Match,No Match","","null","","","","","","<div class='trialBorder'><div class='vertical-center'><img src='img/fixation2_sml.jpg'</img></div></div>","null","FIX","","","","","","","","","","",""
"html-keyboard-response","20","109724","0.0-5.0-2.3","63f7eb4fd0c75f760998818c","bdp_wmem","Tue Mar 14 2023 18:56:46 GMT-0700 (Pacific Daylight Time)","614029","Match,No Match","","null","","","","","","<div class='trialBorder'><div class='vertical-center'><img style='vertical-align:center; align:center' src='img/fixation2_sml.jpg'></div><div class='arrayDiv3'><div class='tl'><img class='introPic' src='trustrating_stim/white_mw091.bmp'><br><font color='green'><strong>Share</strong></font></div><div class='tc'><img class='introPic' src='trustrating_stim/white_mw092.bmp'><br><font color='red'><strong>Keep</strong></font></div><div class='tr'><img class='introPic' src='trustrating_stim/white_mw003.bmp'><br><font color='red'><strong>Keep</strong></font></div></div></div>","null","ARRAY","3","trustrating_stim/white_mw091.bmp,trustrating_stim/white_mw092.bmp,trustrating_stim/white_mw003.bmp","1,0,0","Match","e","4500","","","","",""
"html-keyboard-response","21","113737","0.0-5.0-3.3","63f7eb4fd0c75f760998818c","bdp_wmem","Tue Mar 14 2023 18:56:46 GMT-0700 (Pacific Daylight Time)","614029","Match,No Match","","null","","","","","","<div class='trialBorder'><div class='vertical-center'><img src='img/fixation2_sml.jpg'</img></div></div>","null","DELAY","","","","","","","","","","",""
"html-keyboard-response","22","115830","0.0-5.0-4.3","63f7eb4fd0c75f760998818c","bdp_wmem","Tue Mar 14 2023 18:56:46 GMT-0700 (Pacific Daylight Time)","614029","Match,No Match","","2091","","","","","","<div class='trialBorder'><div class='targDiv'><div class='tc'><img class='introPic' src='trustrating_stim/white_mw003.bmp'><br><font color='red'><strong>Keep</strong></font></div></div><div class='respDiv'><div class='respDivL'>Match<br>(e)</div><div class='respDivR'>No Match<br>(i)</div></div></div>","e","TARGET","3","trustrating_stim/white_mw091.bmp,trustrating_stim/white_mw092.bmp,trustrating_stim/white_mw003.bmp","1,0,0","Match","e","4500","trustrating_stim/white_mw003.bmp","red","Keep","PRACTICE","1"
"html-keyboard-response","23","116332","0.0-5.0-5.3","63f7eb4fd0c75f760998818c","bdp_wmem","Tue Mar 14 2023 18:56:46 GMT-0700 (Pacific Daylight Time)","614029","Match,No Match","","null","","","","","","<div class='trialBorder'><div class='vertical-center'><img src='img/correct.jpg'></div><div class='respDiv'><div class='respDivL'><font style='color:orange'>Match<br>(e)</font></div><div class='respDivR'>No Match<br>(i)</div></div></div>","null","FEEDBACK","","","","","","","","","","",""
"html-keyboard-response","24","116847","0.0-5.0-1.4","63f7eb4fd0c75f760998818c","bdp_wmem","Tue Mar 14 2023 18:56:46 GMT-0700 (Pacific Daylight Time)","614029","Match,No Match","","null","","","","","","<div class='trialBorder'><div class='vertical-center'><img src='img/fixation2_sml.jpg'</img></div></div>","null","FIX","","","","","","","","","","",""
"html-keyboard-response","25","118352","0.0-5.0-2.4","63f7eb4fd0c75f760998818c","bdp_wmem","Tue Mar 14 2023 18:56:46 GMT-0700 (Pacific Daylight Time)","614029","Match,No Match","","null","","","","","","<div class='trialBorder'><div class='vertical-center'><img style='vertical-align:center; align:center' src='img/fixation2_sml.jpg'></div><div class='arrayDiv1'><div class='tc'><img class='introPic' src='trustrating_stim/white_mw042.bmp'><br><font color='green'><strong>Share</strong></font></div></div></div>","null","ARRAY","1","trustrating_stim/white_mw042.bmp","1","noMatchFace","i","1500","","","","",""
"html-keyboard-response","26","122362","0.0-5.0-3.4","63f7eb4fd0c75f760998818c","bdp_wmem","Tue Mar 14 2023 18:56:46 GMT-0700 (Pacific Daylight Time)","614029","Match,No Match","","null","","","","","","<div class='trialBorder'><div class='vertical-center'><img src='img/fixation2_sml.jpg'</img></div></div>","null","DELAY","","","","","","","","","","",""
"html-keyboard-response","27","124434","0.0-5.0-4.4","63f7eb4fd0c75f760998818c","bdp_wmem","Tue Mar 14 2023 18:56:46 GMT-0700 (Pacific Daylight Time)","614029","Match,No Match","","2069","","","","","","<div class='trialBorder'><div class='targDiv'><div class='tc'><img class='introPic' src='trustrating_stim/white_mw013.bmp'><br><font color='green'><strong>Share</strong></font></div></div><div class='respDiv'><div class='respDivL'>Match<br>(e)</div><div class='respDivR'>No Match<br>(i)</div></div></div>","i","TARGET","1","trustrating_stim/white_mw042.bmp","1","noMatchFace","i","1500","trustrating_stim/white_mw013.bmp","green","Share","PRACTICE","1"
"html-keyboard-response","28","124944","0.0-5.0-5.4","63f7eb4fd0c75f760998818c","bdp_wmem","Tue Mar 14 2023 18:56:46 GMT-0700 (Pacific Daylight Time)","614029","Match,No Match","","null","","","","","","<div class='trialBorder'><div class='vertical-center'><img src='img/correct.jpg'></div><div class='respDiv'><div class='respDivL'>Match<br>(e)</div><div class='respDivR'><font style='color:orange'>No Match<br>(i)</font></div></div></div>","null","FEEDBACK","","","","","","","","","","",""
"html-keyboard-response","29","125444","0.0-5.0-1.5","63f7eb4fd0c75f760998818c","bdp_wmem","Tue Mar 14 2023 18:56:46 GMT-0700 (Pacific Daylight Time)","614029","Match,No Match","","null","","","","","","<div class='trialBorder'><div class='vertical-center'><img src='img/fixation2_sml.jpg'</img></div></div>","null","FIX","","","","","","","","","","",""
"html-keyboard-response","30","126954","0.0-5.0-2.5","63f7eb4fd0c75f760998818c","bdp_wmem","Tue Mar 14 2023 18:56:46 GMT-0700 (Pacific Daylight Time)","614029","Match,No Match","","null","","","","","","<div class='trialBorder'><div class='vertical-center'><img style='vertical-align:center; align:center' src='img/fixation2_sml.jpg'></div><div class='arrayDiv1'><div class='tc'><img class='introPic' src='trustrating_stim/white_mw038.bmp'><br><font color='green'><strong>Share</strong></font></div></div></div>","null","ARRAY","1","trustrating_stim/white_mw038.bmp","1","Match","e","1500","","","","",""
"html-keyboard-response","31","130963","0.0-5.0-3.5","63f7eb4fd0c75f760998818c","bdp_wmem","Tue Mar 14 2023 18:56:46 GMT-0700 (Pacific Daylight Time)","614029","Match,No Match","","null","","","","","","<div class='trialBorder'><div class='vertical-center'><img src='img/fixation2_sml.jpg'</img></div></div>","null","DELAY","","","","","","","","","","",""
"html-keyboard-response","32","133028","0.0-5.0-4.5","63f7eb4fd0c75f760998818c","bdp_wmem","Tue Mar 14 2023 18:56:46 GMT-0700 (Pacific Daylight Time)","614029","Match,No Match","","2062","","","","","","<div class='trialBorder'><div class='targDiv'><div class='tc'><img class='introPic' src='trustrating_stim/white_mw038.bmp'><br><font color='green'><strong>Share</strong></font></div></div><div class='respDiv'><div class='respDivL'>Match<br>(e)</div><div class='respDivR'>No Match<br>(i)</div></div></div>","e","TARGET","1","trustrating_stim/white_mw038.bmp","1","Match","e","1500","trustrating_stim/white_mw038.bmp","green","Share","PRACTICE","1"
"html-keyboard-response","33","133529","0.0-5.0-5.5","63f7eb4fd0c75f760998818c","bdp_wmem","Tue Mar 14 2023 18:56:46 GMT-0700 (Pacific Daylight Time)","614029","Match,No Match","","null","","","","","","<div class='trialBorder'><div class='vertical-center'><img src='img/correct.jpg'></div><div class='respDiv'><div class='respDivL'><font style='color:orange'>Match<br>(e)</font></div><div class='respDivR'>No Match<br>(i)</div></div></div>","null","FEEDBACK","","","","","","","","","","",""
"instructions","34","137492","0.0-6.0","63f7eb4fd0c75f760998818c","bdp_wmem","Tue Mar 14 2023 18:56:46 GMT-0700 (Pacific Daylight Time)","614029","Match,No Match","[{""page_index"":0,""viewing_time"":3961}]","3962","","","","","","","","","","","","","","","","","","",""
"html-keyboard-response","35","137995","0.0-7.0-1.0","63f7eb4fd0c75f760998818c","bdp_wmem","Tue Mar 14 2023 18:56:46 GMT-0700 (Pacific Daylight Time)","614029","Match,No Match","","null","","","","","","<div class='trialBorder'><div class='vertical-center'><img src='img/fixation2_sml.jpg'</img></div></div>","null","FIX","","","","","","","","","","",""
"html-keyboard-response","36","142512","0.0-7.0-2.0","63f7eb4fd0c75f760998818c","bdp_wmem","Tue Mar 14 2023 18:56:46 GMT-0700 (Pacific Daylight Time)","614029","Match,No Match","","null","","","","","","<div class='trialBorder'><div class='vertical-center'><img style='vertical-align:center; align:center' src='img/fixation2_sml.jpg'></div><div class='arrayDiv3'><div class='tl'><img class='introPic' src='trustrating_stim/white_mw010.bmp'><br><font color='green'><strong>Share</strong></font></div><div class='tc'><img class='introPic' src='trustrating_stim/white_mw092.bmp'><br><font color='red'><strong>Keep</strong></font></div><div class='tr'><img class='introPic' src='trustrating_stim/white_mw042.bmp'><br><font color='red'><strong>Keep</strong></font></div></div></div>","null","ARRAY","3","trustrating_stim/white_mw010.bmp,trustrating_stim/white_mw092.bmp,trustrating_stim/white_mw042.bmp","1,0,0","noMatchOutcome","i","4500","","","","",""
"html-keyboard-response","37","146529","0.0-7.0-3.0","63f7eb4fd0c75f760998818c","bdp_wmem","Tue Mar 14 2023 18:56:46 GMT-0700 (Pacific Daylight Time)","614029","Match,No Match","","null","","","","","","<div class='trialBorder'><div class='vertical-center'><img src='img/fixation2_sml.jpg'</img></div></div>","null","DELAY","","","","","","","","","","",""
"html-keyboard-response","38","150758","0.0-7.0-4.0","63f7eb4fd0c75f760998818c","bdp_wmem","Tue Mar 14 2023 18:56:46 GMT-0700 (Pacific Daylight Time)","614029","Match,No Match","","4226","","","","","","<div class='trialBorder'><div class='targDiv'><div class='tc'><img class='introPic' src='trustrating_stim/white_mw092.bmp'><br><font color='green'><strong>Share</strong></font></div></div><div class='respDiv'><div class='respDivL'>Match<br>(e)</div><div class='respDivR'>No Match<br>(i)</div></div></div>","i","TARGET","3","trustrating_stim/white_mw010.bmp,trustrating_stim/white_mw092.bmp,trustrating_stim/white_mw042.bmp","1,0,0","noMatchOutcome","i","4500","trustrating_stim/white_mw092.bmp","green","Share","REAL","1"
"html-keyboard-response","39","151262","0.0-7.0-5.0","63f7eb4fd0c75f760998818c","bdp_wmem","Tue Mar 14 2023 18:56:46 GMT-0700 (Pacific Daylight Time)","614029","Match,No Match","","null","","","","","","<div class='trialBorder'><div class='vertical-center'><img src='img/correct.jpg'></div><div class='respDiv'><div class='respDivL'>Match<br>(e)</div><div class='respDivR'><font style='color:orange'>No Match<br>(i)</font></div></div></div>","null","FEEDBACK","","","","","","","","","","",""
"html-keyboard-response","40","151766","0.0-7.0-1.1","63f7eb4fd0c75f760998818c","bdp_wmem","Tue Mar 14 2023 18:56:46 GMT-0700 (Pacific Daylight Time)","614029","Match,No Match","","null","","","","","","<div class='trialBorder'><div class='vertical-center'><img src='img/fixation2_sml.jpg'</img></div></div>","null","FIX","","","","","","","","","","",""
"html-keyboard-response","41","154780","0.0-7.0-2.1","63f7eb4fd0c75f760998818c","bdp_wmem","Tue Mar 14 2023 18:56:46 GMT-0700 (Pacific Daylight Time)","614029","Match,No Match","","null","","","","","","<div class='trialBorder'><div class='vertical-center'><img style='vertical-align:center; align:center' src='img/fixation2_sml.jpg'></div><div class='arrayDiv2'><div class='tl'><img class='introPic' src='trustrating_stim/white_mw040.bmp'><br><font color='green'><strong>Share</strong></font></div><div class='tr'><img class='introPic' src='trustrating_stim/white_mw013.bmp'><br><font color='red'><strong>Keep</strong></font></div></div></div>","null","ARRAY","2","trustrating_stim/white_mw040.bmp,trustrating_stim/white_mw013.bmp","1,0","noMatchFace","i","3000","","","","",""
"html-keyboard-response","42","158786","0.0-7.0-3.1","63f7eb4fd0c75f760998818c","bdp_wmem","Tue Mar 14 2023 18:56:46 GMT-0700 (Pacific Daylight Time)","614029","Match,No Match","","null","","","","","","<div class='trialBorder'><div class='vertical-center'><img src='img/fixation2_sml.jpg'</img></div></div>","null","DELAY","","","","","","","","","","",""
"html-keyboard-response","43","160921","0.0-7.0-4.1","63f7eb4fd0c75f760998818c","bdp_wmem","Tue Mar 14 2023 18:56:46 GMT-0700 (Pacific Daylight Time)","614029","Match,No Match","","2132","","","","","","<div class='trialBorder'><div class='targDiv'><div class='tc'><img class='introPic' src='trustrating_stim/white_mw038.bmp'><br><font color='red'><strong>Keep</strong></font></div></div><div class='respDiv'><div class='respDivL'>Match<br>(e)</div><div class='respDivR'>No Match<br>(i)</div></div></div>","i","TARGET","2","trustrating_stim/white_mw040.bmp,trustrating_stim/white_mw013.bmp","1,0","noMatchFace","i","3000","trustrating_stim/white_mw038.bmp","red","Keep","REAL","1"
"html-keyboard-response","44","161426","0.0-7.0-5.1","63f7eb4fd0c75f760998818c","bdp_wmem","Tue Mar 14 2023 18:56:46 GMT-0700 (Pacific Daylight Time)","614029","Match,No Match","","null","","","","","","<div class='trialBorder'><div class='vertical-center'><img src='img/correct.jpg'></div><div class='respDiv'><div class='respDivL'>Match<br>(e)</div><div class='respDivR'><font style='color:orange'>No Match<br>(i)</font></div></div></div>","null","FEEDBACK","","","","","","","","","","",""
"html-keyboard-response","45","161936","0.0-7.0-1.2","63f7eb4fd0c75f760998818c","bdp_wmem","Tue Mar 14 2023 18:56:46 GMT-0700 (Pacific Daylight Time)","614029","Match,No Match","","null","","","","","","<div class='trialBorder'><div class='vertical-center'><img src='img/fixation2_sml.jpg'</img></div></div>","null","FIX","","","","","","","","","","",""
"html-keyboard-response","46","163444","0.0-7.0-2.2","63f7eb4fd0c75f760998818c","bdp_wmem","Tue Mar 14 2023 18:56:46 GMT-0700 (Pacific Daylight Time)","614029","Match,No Match","","null","","","","","","<div class='trialBorder'><div class='vertical-center'><img style='vertical-align:center; align:center' src='img/fixation2_sml.jpg'></div><div class='arrayDiv1'><div class='tc'><img class='introPic' src='trustrating_stim/white_mw085.bmp'><br><font color='red'><strong>Keep</strong></font></div></div></div>","null","ARRAY","1","trustrating_stim/white_mw085.bmp","0","Match","e","1500","","","","",""
"html-keyboard-response","47","167453","0.0-7.0-3.2","63f7eb4fd0c75f760998818c","bdp_wmem","Tue Mar 14 2023 18:56:46 GMT-0700 (Pacific Daylight Time)","614029","Match,No Match","","null","","","","","","<div class='trialBorder'><div class='vertical-center'><img src='img/fixation2_sml.jpg'</img></div></div>","null","DELAY","","","","","","","","","","",""
"html-keyboard-response","48","168627","0.0-7.0-4.2","63f7eb4fd0c75f760998818c","bdp_wmem","Tue Mar 14 2023 18:56:46 GMT-0700 (Pacific Daylight Time)","614029","Match,No Match","","1170","","","","","","<div class='trialBorder'><div class='targDiv'><div class='tc'><img class='introPic' src='trustrating_stim/white_mw085.bmp'><br><font color='red'><strong>Keep</strong></font></div></div><div class='respDiv'><div class='respDivL'>Match<br>(e)</div><div class='respDivR'>No Match<br>(i)</div></div></div>","e","TARGET","1","trustrating_stim/white_mw085.bmp","0","Match","e","1500","trustrating_stim/white_mw085.bmp","red","Keep","REAL","1"
"html-keyboard-response","49","169136","0.0-7.0-5.2","63f7eb4fd0c75f760998818c","bdp_wmem","Tue Mar 14 2023 18:56:46 GMT-0700 (Pacific Daylight Time)","614029","Match,No Match","","null","","","","","","<div class='trialBorder'><div class='vertical-center'><img src='img/correct.jpg'></div><div class='respDiv'><div class='respDivL'><font style='color:orange'>Match<br>(e)</font></div><div class='respDivR'>No Match<br>(i)</div></div></div>","null","FEEDBACK","","","","","","","","","","",""
"html-keyboard-response","50","169643","0.0-7.0-1.3","63f7eb4fd0c75f760998818c","bdp_wmem","Tue Mar 14 2023 18:56:46 GMT-0700 (Pacific Daylight Time)","614029","Match,No Match","","null","","","","","","<div class='trialBorder'><div class='vertical-center'><img src='img/fixation2_sml.jpg'</img></div></div>","null","FIX","","","","","","","","","","",""
"html-keyboard-response","51","171151","0.0-7.0-2.3","63f7eb4fd0c75f760998818c","bdp_wmem","Tue Mar 14 2023 18:56:46 GMT-0700 (Pacific Daylight Time)","614029","Match,No Match","","null","","","","","","<div class='trialBorder'><div class='vertical-center'><img style='vertical-align:center; align:center' src='img/fixation2_sml.jpg'></div><div class='arrayDiv1'><div class='tc'><img class='introPic' src='trustrating_stim/white_mw078.bmp'><br><font color='red'><strong>Keep</strong></font></div></div></div>","null","ARRAY","1","trustrating_stim/white_mw078.bmp","0","noMatchOutcome","i","1500","","","","",""
"html-keyboard-response","52","175169","0.0-7.0-3.3","63f7eb4fd0c75f760998818c","bdp_wmem","Tue Mar 14 2023 18:56:46 GMT-0700 (Pacific Daylight Time)","614029","Match,No Match","","null","","","","","","<div class='trialBorder'><div class='vertical-center'><img src='img/fixation2_sml.jpg'</img></div></div>","null","DELAY","","","","","","","","","","",""
"html-keyboard-response","53","180952","0.0-7.0-4.3","63f7eb4fd0c75f760998818c","bdp_wmem","Tue Mar 14 2023 18:56:46 GMT-0700 (Pacific Daylight Time)","614029","Match,No Match","","5781","","","","","","<div class='trialBorder'><div class='targDiv'><div class='tc'><img class='introPic' src='trustrating_stim/white_mw078.bmp'><br><font color='green'><strong>Share</strong></font></div></div><div class='respDiv'><div class='respDivL'>Match<br>(e)</div><div class='respDivR'>No Match<br>(i)</div></div></div>","i","TARGET","1","trustrating_stim/white_mw078.bmp","0","noMatchOutcome","i","1500","trustrating_stim/white_mw078.bmp","green","Share","REAL","1"
"html-keyboard-response","54","181461","0.0-7.0-5.3","63f7eb4fd0c75f760998818c","bdp_wmem","Tue Mar 14 2023 18:56:46 GMT-0700 (Pacific Daylight Time)","614029","Match,No Match","","null","","","","","","<div class='trialBorder'><div class='vertical-center'><img src='img/correct.jpg'></div><div class='respDiv'><div class='respDivL'>Match<br>(e)</div><div class='respDivR'><font style='color:orange'>No Match<br>(i)</font></div></div></div>","null","FEEDBACK","","","","","","","","","","",""
"html-keyboard-response","55","181977","0.0-7.0-1.4","63f7eb4fd0c75f760998818c","bdp_wmem","Tue Mar 14 2023 18:56:46 GMT-0700 (Pacific Daylight Time)","614029","Match,No Match","","null","","","","","","<div class='trialBorder'><div class='vertical-center'><img src='img/fixation2_sml.jpg'</img></div></div>","null","FIX","","","","","","","","","","",""
"html-keyboard-response","56","184984","0.0-7.0-2.4","63f7eb4fd0c75f760998818c","bdp_wmem","Tue Mar 14 2023 18:56:46 GMT-0700 (Pacific Daylight Time)","614029","Match,No Match","","null","","","","","","<div class='trialBorder'><div class='vertical-center'><img style='vertical-align:center; align:center' src='img/fixation2_sml.jpg'></div><div class='arrayDiv2'><div class='tl'><img class='introPic' src='trustrating_stim/white_mw040.bmp'><br><font color='green'><strong>Share</strong></font></div><div class='tr'><img class='introPic' src='trustrating_stim/white_mw010.bmp'><br><font color='red'><strong>Keep</strong></font></div></div></div>","null","ARRAY","2","trustrating_stim/white_mw040.bmp,trustrating_stim/white_mw010.bmp","1,0","Match","e","3000","","","","",""
"html-keyboard-response","57","188995","0.0-7.0-3.4","63f7eb4fd0c75f760998818c","bdp_wmem","Tue Mar 14 2023 18:56:46 GMT-0700 (Pacific Daylight Time)","614029","Match,No Match","","null","","","","","","<div class='trialBorder'><div class='vertical-center'><img src='img/fixation2_sml.jpg'</img></div></div>","null","DELAY","","","","","","","","","","",""
"html-keyboard-response","58","190612","0.0-7.0-4.4","63f7eb4fd0c75f760998818c","bdp_wmem","Tue Mar 14 2023 18:56:46 GMT-0700 (Pacific Daylight Time)","614029","Match,No Match","","1613","","","","","","<div class='trialBorder'><div class='targDiv'><div class='tc'><img class='introPic' src='trustrating_stim/white_mw040.bmp'><br><font color='green'><strong>Share</strong></font></div></div><div class='respDiv'><div class='respDivL'>Match<br>(e)</div><div class='respDivR'>No Match<br>(i)</div></div></div>","e","TARGET","2","trustrating_stim/white_mw040.bmp,trustrating_stim/white_mw010.bmp","1,0","Match","e","3000","trustrating_stim/white_mw040.bmp","green","Share","REAL","1"
"html-keyboard-response","59","191125","0.0-7.0-5.4","63f7eb4fd0c75f760998818c","bdp_wmem","Tue Mar 14 2023 18:56:46 GMT-0700 (Pacific Daylight Time)","614029","Match,No Match","","null","","","","","","<div class='trialBorder'><div class='vertical-center'><img src='img/correct.jpg'></div><div class='respDiv'><div class='respDivL'><font style='color:orange'>Match<br>(e)</font></div><div class='respDivR'>No Match<br>(i)</div></div></div>","null","FEEDBACK","","","","","","","","","","",""
"html-keyboard-response","60","191643","0.0-7.0-1.5","63f7eb4fd0c75f760998818c","bdp_wmem","Tue Mar 14 2023 18:56:46 GMT-0700 (Pacific Daylight Time)","614029","Match,No Match","","null","","","","","","<div class='trialBorder'><div class='vertical-center'><img src='img/fixation2_sml.jpg'</img></div></div>","null","FIX","","","","","","","","","","",""
"html-keyboard-response","61","194662","0.0-7.0-2.5","63f7eb4fd0c75f760998818c","bdp_wmem","Tue Mar 14 2023 18:56:46 GMT-0700 (Pacific Daylight Time)","614029","Match,No Match","","null","","","","","","<div class='trialBorder'><div class='vertical-center'><img style='vertical-align:center; align:center' src='img/fixation2_sml.jpg'></div><div class='arrayDiv2'><div class='tl'><img class='introPic' src='trustrating_stim/white_mw038.bmp'><br><font color='red'><strong>Keep</strong></font></div><div class='tr'><img class='introPic' src='trustrating_stim/white_mw092.bmp'><br><font color='green'><strong>Share</strong></font></div></div></div>","null","ARRAY","2","trustrating_stim/white_mw038.bmp,trustrating_stim/white_mw092.bmp","0,1","Match","e","3000","","","","",""
"html-keyboard-response","62","198678","0.0-7.0-3.5","63f7eb4fd0c75f760998818c","bdp_wmem","Tue Mar 14 2023 18:56:46 GMT-0700 (Pacific Daylight Time)","614029","Match,No Match","","null","","","","","","<div class='trialBorder'><div class='vertical-center'><img src='img/fixation2_sml.jpg'</img></div></div>","null","DELAY","","","","","","","","","","",""
"html-keyboard-response","63","199711","0.0-7.0-4.5","63f7eb4fd0c75f760998818c","bdp_wmem","Tue Mar 14 2023 18:56:46 GMT-0700 (Pacific Daylight Time)","614029","Match,No Match","","1032","","","","","","<div class='trialBorder'><div class='targDiv'><div class='tc'><img class='introPic' src='trustrating_stim/white_mw092.bmp'><br><font color='green'><strong>Share</strong></font></div></div><div class='respDiv'><div class='respDivL'>Match<br>(e)</div><div class='respDivR'>No Match<br>(i)</div></div></div>","e","TARGET","2","trustrating_stim/white_mw038.bmp,trustrating_stim/white_mw092.bmp","0,1","Match","e","3000","trustrating_stim/white_mw092.bmp","green","Share","REAL","1"
"html-keyboard-response","64","200225","0.0-7.0-5.5","63f7eb4fd0c75f760998818c","bdp_wmem","Tue Mar 14 2023 18:56:46 GMT-0700 (Pacific Daylight Time)","614029","Match,No Match","","null","","","","","","<div class='trialBorder'><div class='vertical-center'><img src='img/correct.jpg'></div><div class='respDiv'><div class='respDivL'><font style='color:orange'>Match<br>(e)</font></div><div class='respDivR'>No Match<br>(i)</div></div></div>","null","FEEDBACK","","","","","","","","","","",""
"html-keyboard-response","65","200734","0.0-7.0-1.6","63f7eb4fd0c75f760998818c","bdp_wmem","Tue Mar 14 2023 18:56:46 GMT-0700 (Pacific Daylight Time)","614029","Match,No Match","","null","","","","","","<div class='trialBorder'><div class='vertical-center'><img src='img/fixation2_sml.jpg'</img></div></div>","null","FIX","","","","","","","","","","",""
"html-keyboard-response","66","202243","0.0-7.0-2.6","63f7eb4fd0c75f760998818c","bdp_wmem","Tue Mar 14 2023 18:56:46 GMT-0700 (Pacific Daylight Time)","614029","Match,No Match","","null","","","","","","<div class='trialBorder'><div class='vertical-center'><img style='vertical-align:center; align:center' src='img/fixation2_sml.jpg'></div><div class='arrayDiv1'><div class='tc'><img class='introPic' src='trustrating_stim/white_mw092.bmp'><br><font color='red'><strong>Keep</strong></font></div></div></div>","null","ARRAY","1","trustrating_stim/white_mw092.bmp","0","Match","e","1500","","","","",""
"html-keyboard-response","67","206252","0.0-7.0-3.6","63f7eb4fd0c75f760998818c","bdp_wmem","Tue Mar 14 2023 18:56:46 GMT-0700 (Pacific Daylight Time)","614029","Match,No Match","","null","","","","","","<div class='trialBorder'><div class='vertical-center'><img src='img/fixation2_sml.jpg'</img></div></div>","null","DELAY","","","","","","","","","","",""
"html-keyboard-response","68","208857","0.0-7.0-4.6","63f7eb4fd0c75f760998818c","bdp_wmem","Tue Mar 14 2023 18:56:46 GMT-0700 (Pacific Daylight Time)","614029","Match,No Match","","2601","","","","","","<div class='trialBorder'><div class='targDiv'><div class='tc'><img class='introPic' src='trustrating_stim/white_mw092.bmp'><br><font color='red'><strong>Keep</strong></font></div></div><div class='respDiv'><div class='respDivL'>Match<br>(e)</div><div class='respDivR'>No Match<br>(i)</div></div></div>","e","TARGET","1","trustrating_stim/white_mw092.bmp","0","Match","e","1500","trustrating_stim/white_mw092.bmp","red","Keep","REAL","1"
"html-keyboard-response","69","209361","0.0-7.0-5.6","63f7eb4fd0c75f760998818c","bdp_wmem","Tue Mar 14 2023 18:56:46 GMT-0700 (Pacific Daylight Time)","614029","Match,No Match","","null","","","","","","<div class='trialBorder'><div class='vertical-center'><img src='img/correct.jpg'></div><div class='respDiv'><div class='respDivL'><font style='color:orange'>Match<br>(e)</font></div><div class='respDivR'>No Match<br>(i)</div></div></div>","null","FEEDBACK","","","","","","","","","","",""
"html-keyboard-response","70","209870","0.0-7.0-1.7","63f7eb4fd0c75f760998818c","bdp_wmem","Tue Mar 14 2023 18:56:46 GMT-0700 (Pacific Daylight Time)","614029","Match,No Match","","null","","","","","","<div class='trialBorder'><div class='vertical-center'><img src='img/fixation2_sml.jpg'</img></div></div>","null","FIX","","","","","","","","","","",""
"html-keyboard-response","71","211376","0.0-7.0-2.7","63f7eb4fd0c75f760998818c","bdp_wmem","Tue Mar 14 2023 18:56:46 GMT-0700 (Pacific Daylight Time)","614029","Match,No Match","","null","","","","","","<div class='trialBorder'><div class='vertical-center'><img style='vertical-align:center; align:center' src='img/fixation2_sml.jpg'></div><div class='arrayDiv1'><div class='tc'><img class='introPic' src='trustrating_stim/white_mw012.bmp'><br><font color='red'><strong>Keep</strong></font></div></div></div>","null","ARRAY","1","trustrating_stim/white_mw012.bmp","0","noMatchOutcome","i","1500","","","","",""
"html-keyboard-response","72","215386","0.0-7.0-3.7","63f7eb4fd0c75f760998818c","bdp_wmem","Tue Mar 14 2023 18:56:46 GMT-0700 (Pacific Daylight Time)","614029","Match,No Match","","null","","","","","","<div class='trialBorder'><div class='vertical-center'><img src='img/fixation2_sml.jpg'</img></div></div>","null","DELAY","","","","","","","","","","",""
"html-keyboard-response","73","216551","0.0-7.0-4.7","63f7eb4fd0c75f760998818c","bdp_wmem","Tue Mar 14 2023 18:56:46 GMT-0700 (Pacific Daylight Time)","614029","Match,No Match","","1162","","","","","","<div class='trialBorder'><div class='targDiv'><div class='tc'><img class='introPic' src='trustrating_stim/white_mw012.bmp'><br><font color='green'><strong>Share</strong></font></div></div><div class='respDiv'><div class='respDivL'>Match<br>(e)</div><div class='respDivR'>No Match<br>(i)</div></div></div>","i","TARGET","1","trustrating_stim/white_mw012.bmp","0","noMatchOutcome","i","1500","trustrating_stim/white_mw012.bmp","green","Share","REAL","1"
"html-keyboard-response","74","217059","0.0-7.0-5.7","63f7eb4fd0c75f760998818c","bdp_wmem","Tue Mar 14 2023 18:56:46 GMT-0700 (Pacific Daylight Time)","614029","Match,No Match","","null","","","","","","<div class='trialBorder'><div class='vertical-center'><img src='img/correct.jpg'></div><div class='respDiv'><div class='respDivL'>Match<br>(e)</div><div class='respDivR'><font style='color:orange'>No Match<br>(i)</font></div></div></div>","null","FEEDBACK","","","","","","","","","","",""
"html-keyboard-response","75","217569","0.0-7.0-1.8","63f7eb4fd0c75f760998818c","bdp_wmem","Tue Mar 14 2023 18:56:46 GMT-0700 (Pacific Daylight Time)","614029","Match,No Match","","null","","","","","","<div class='trialBorder'><div class='vertical-center'><img src='img/fixation2_sml.jpg'</img></div></div>","null","FIX","","","","","","","","","","",""
"html-keyboard-response","76","219076","0.0-7.0-2.8","63f7eb4fd0c75f760998818c","bdp_wmem","Tue Mar 14 2023 18:56:46 GMT-0700 (Pacific Daylight Time)","614029","Match,No Match","","null","","","","","","<div class='trialBorder'><div class='vertical-center'><img style='vertical-align:center; align:center' src='img/fixation2_sml.jpg'></div><div class='arrayDiv1'><div class='tc'><img class='introPic' src='trustrating_stim/white_mw092.bmp'><br><font color='red'><strong>Keep</strong></font></div></div></div>","null","ARRAY","1","trustrating_stim/white_mw092.bmp","0","Match","e","1500","","","","",""
"html-keyboard-response","77","223084","0.0-7.0-3.8","63f7eb4fd0c75f760998818c","bdp_wmem","Tue Mar 14 2023 18:56:46 GMT-0700 (Pacific Daylight Time)","614029","Match,No Match","","null","","","","","","<div class='trialBorder'><div class='vertical-center'><img src='img/fixation2_sml.jpg'</img></div></div>","null","DELAY","","","","","","","","","","",""
"html-keyboard-response","78","224222","0.0-7.0-4.8","63f7eb4fd0c75f760998818c","bdp_wmem","Tue Mar 14 2023 18:56:46 GMT-0700 (Pacific Daylight Time)","614029","Match,No Match","","1137","","","","","","<div class='trialBorder'><div class='targDiv'><div class='tc'><img class='introPic' src='trustrating_stim/white_mw092.bmp'><br><font color='red'><strong>Keep</strong></font></div></div><div class='respDiv'><div class='respDivL'>Match<br>(e)</div><div class='respDivR'>No Match<br>(i)</div></div></div>","e","TARGET","1","trustrating_stim/white_mw092.bmp","0","Match","e","1500","trustrating_stim/white_mw092.bmp","red","Keep","REAL","1"
"html-keyboard-response","79","224725","0.0-7.0-5.8","63f7eb4fd0c75f760998818c","bdp_wmem","Tue Mar 14 2023 18:56:46 GMT-0700 (Pacific Daylight Time)","614029","Match,No Match","","null","","","","","","<div class='trialBorder'><div class='vertical-center'><img src='img/correct.jpg'></div><div class='respDiv'><div class='respDivL'><font style='color:orange'>Match<br>(e)</font></div><div class='respDivR'>No Match<br>(i)</div></div></div>","null","FEEDBACK","","","","","","","","","","",""
"html-keyboard-response","80","225237","0.0-7.0-1.9","63f7eb4fd0c75f760998818c","bdp_wmem","Tue Mar 14 2023 18:56:46 GMT-0700 (Pacific Daylight Time)","614029","Match,No Match","","null","","","","","","<div class='trialBorder'><div class='vertical-center'><img src='img/fixation2_sml.jpg'</img></div></div>","null","FIX","","","","","","","","","","",""
"html-keyboard-response","81","229751","0.0-7.0-2.9","63f7eb4fd0c75f760998818c","bdp_wmem","Tue Mar 14 2023 18:56:46 GMT-0700 (Pacific Daylight Time)","614029","Match,No Match","","null","","","","","","<div class='trialBorder'><div class='vertical-center'><img style='vertical-align:center; align:center' src='img/fixation2_sml.jpg'></div><div class='arrayDiv3'><div class='tl'><img class='introPic' src='trustrating_stim/white_mw070.bmp'><br><font color='red'><strong>Keep</strong></font></div><div class='tc'><img class='introPic' src='trustrating_stim/white_mw012.bmp'><br><font color='green'><strong>Share</strong></font></div><div class='tr'><img class='introPic' src='trustrating_stim/white_mw085.bmp'><br><font color='green'><strong>Share</strong></font></div></div></div>","null","ARRAY","3","trustrating_stim/white_mw070.bmp,trustrating_stim/white_mw012.bmp,trustrating_stim/white_mw085.bmp","0,1,1","noMatchOutcome","i","4500","","","","",""
"html-keyboard-response","82","233762","0.0-7.0-3.9","63f7eb4fd0c75f760998818c","bdp_wmem","Tue Mar 14 2023 18:56:46 GMT-0700 (Pacific Daylight Time)","614029","Match,No Match","","null","","","","","","<div class='trialBorder'><div class='vertical-center'><img src='img/fixation2_sml.jpg'</img></div></div>","null","DELAY","","","","","","","","","","",""
"html-keyboard-response","83","236440","0.0-7.0-4.9","63f7eb4fd0c75f760998818c","bdp_wmem","Tue Mar 14 2023 18:56:46 GMT-0700 (Pacific Daylight Time)","614029","Match,No Match","","2676","","","","","","<div class='trialBorder'><div class='targDiv'><div class='tc'><img class='introPic' src='trustrating_stim/white_mw070.bmp'><br><font color='green'><strong>Share</strong></font></div></div><div class='respDiv'><div class='respDivL'>Match<br>(e)</div><div class='respDivR'>No Match<br>(i)</div></div></div>","i","TARGET","3","trustrating_stim/white_mw070.bmp,trustrating_stim/white_mw012.bmp,trustrating_stim/white_mw085.bmp","0,1,1","noMatchOutcome","i","4500","trustrating_stim/white_mw070.bmp","green","Share","REAL","1"
"html-keyboard-response","84","236943","0.0-7.0-5.9","63f7eb4fd0c75f760998818c","bdp_wmem","Tue Mar 14 2023 18:56:46 GMT-0700 (Pacific Daylight Time)","614029","Match,No Match","","null","","","","","","<div class='trialBorder'><div class='vertical-center'><img src='img/correct.jpg'></div><div class='respDiv'><div class='respDivL'>Match<br>(e)</div><div class='respDivR'><font style='color:orange'>No Match<br>(i)</font></div></div></div>","null","FEEDBACK","","","","","","","","","","",""
"html-keyboard-response","85","237450","0.0-7.0-1.10","63f7eb4fd0c75f760998818c","bdp_wmem","Tue Mar 14 2023 18:56:46 GMT-0700 (Pacific Daylight Time)","614029","Match,No Match","","null","","","","","","<div class='trialBorder'><div class='vertical-center'><img src='img/fixation2_sml.jpg'</img></div></div>","null","FIX","","","","","","","","","","",""
"html-keyboard-response","86","240449","0.0-7.0-2.10","63f7eb4fd0c75f760998818c","bdp_wmem","Tue Mar 14 2023 18:56:46 GMT-0700 (Pacific Daylight Time)","614029","Match,No Match","","null","","","","","","<div class='trialBorder'><div class='vertical-center'><img style='vertical-align:center; align:center' src='img/fixation2_sml.jpg'></div><div class='arrayDiv2'><div class='tl'><img class='introPic' src='trustrating_stim/white_mw012.bmp'><br><font color='red'><strong>Keep</strong></font></div><div class='tr'><img class='introPic' src='trustrating_stim/white_mw085.bmp'><br><font color='green'><strong>Share</strong></font></div></div></div>","null","ARRAY","2","trustrating_stim/white_mw012.bmp,trustrating_stim/white_mw085.bmp","0,1","noMatchOutcome","i","3000","","","","",""
"html-keyboard-response","87","244471","0.0-7.0-3.10","63f7eb4fd0c75f760998818c","bdp_wmem","Tue Mar 14 2023 18:56:46 GMT-0700 (Pacific Daylight Time)","614029","Match,No Match","","null","","","","","","<div class='trialBorder'><div class='vertical-center'><img src='img/fixation2_sml.jpg'</img></div></div>","null","DELAY","","","","","","","","","","",""
"html-keyboard-response","88","248630","0.0-7.0-4.10","63f7eb4fd0c75f760998818c","bdp_wmem","Tue Mar 14 2023 18:56:46 GMT-0700 (Pacific Daylight Time)","614029","Match,No Match","","4156","","","","","","<div class='trialBorder'><div class='targDiv'><div class='tc'><img class='introPic' src='trustrating_stim/white_mw012.bmp'><br><font color='green'><strong>Share</strong></font></div></div><div class='respDiv'><div class='respDivL'>Match<br>(e)</div><div class='respDivR'>No Match<br>(i)</div></div></div>","i","TARGET","2","trustrating_stim/white_mw012.bmp,trustrating_stim/white_mw085.bmp","0,1","noMatchOutcome","i","3000","trustrating_stim/white_mw012.bmp","green","Share","REAL","1"
"html-keyboard-response","89","249133","0.0-7.0-5.10","63f7eb4fd0c75f760998818c","bdp_wmem","Tue Mar 14 2023 18:56:46 GMT-0700 (Pacific Daylight Time)","614029","Match,No Match","","null","","","","","","<div class='trialBorder'><div class='vertical-center'><img src='img/correct.jpg'></div><div class='respDiv'><div class='respDivL'>Match<br>(e)</div><div class='respDivR'><font style='color:orange'>No Match<br>(i)</font></div></div></div>","null","FEEDBACK","","","","","","","","","","",""
"html-keyboard-response","90","249650","0.0-7.0-1.11","63f7eb4fd0c75f760998818c","bdp_wmem","Tue Mar 14 2023 18:56:46 GMT-0700 (Pacific Daylight Time)","614029","Match,No Match","","null","","","","","","<div class='trialBorder'><div class='vertical-center'><img src='img/fixation2_sml.jpg'</img></div></div>","null","FIX","","","","","","","","","","",""
"html-keyboard-response","91","251170","0.0-7.0-2.11","63f7eb4fd0c75f760998818c","bdp_wmem","Tue Mar 14 2023 18:56:46 GMT-0700 (Pacific Daylight Time)","614029","Match,No Match","","null","","","","","","<div class='trialBorder'><div class='vertical-center'><img style='vertical-align:center; align:center' src='img/fixation2_sml.jpg'></div><div class='arrayDiv1'><div class='tc'><img class='introPic' src='trustrating_stim/white_mw013.bmp'><br><font color='green'><strong>Share</strong></font></div></div></div>","null","ARRAY","1","trustrating_stim/white_mw013.bmp","1","Match","e","1500","","","","",""
"html-keyboard-response","92","255177","0.0-7.0-3.11","63f7eb4fd0c75f760998818c","bdp_wmem","Tue Mar 14 2023 18:56:46 GMT-0700 (Pacific Daylight Time)","614029","Match,No Match","","null","","","","","","<div class='trialBorder'><div class='vertical-center'><img src='img/fixation2_sml.jpg'</img></div></div>","null","DELAY","","","","","","","","","","",""
"html-keyboard-response","93","256725","0.0-7.0-4.11","63f7eb4fd0c75f760998818c","bdp_wmem","Tue Mar 14 2023 18:56:46 GMT-0700 (Pacific Daylight Time)","614029","Match,No Match","","1546","","","","","","<div class='trialBorder'><div class='targDiv'><div class='tc'><img class='introPic' src='trustrating_stim/white_mw013.bmp'><br><font color='green'><strong>Share</strong></font></div></div><div class='respDiv'><div class='respDivL'>Match<br>(e)</div><div class='respDivR'>No Match<br>(i)</div></div></div>","e","TARGET","1","trustrating_stim/white_mw013.bmp","1","Match","e","1500","trustrating_stim/white_mw013.bmp","green","Share","REAL","1"
"html-keyboard-response","94","257233","0.0-7.0-5.11","63f7eb4fd0c75f760998818c","bdp_wmem","Tue Mar 14 2023 18:56:46 GMT-0700 (Pacific Daylight Time)","614029","Match,No Match","","null","","","","","","<div class='trialBorder'><div class='vertical-center'><img src='img/correct.jpg'></div><div class='respDiv'><div class='respDivL'><font style='color:orange'>Match<br>(e)</font></div><div class='respDivR'>No Match<br>(i)</div></div></div>","null","FEEDBACK","","","","","","","","","","",""
"html-keyboard-response","95","257745","0.0-7.0-1.12","63f7eb4fd0c75f760998818c","bdp_wmem","Tue Mar 14 2023 18:56:46 GMT-0700 (Pacific Daylight Time)","614029","Match,No Match","","null","","","","","","<div class='trialBorder'><div class='vertical-center'><img src='img/fixation2_sml.jpg'</img></div></div>","null","FIX","","","","","","","","","","",""
"html-keyboard-response","96","260749","0.0-7.0-2.12","63f7eb4fd0c75f760998818c","bdp_wmem","Tue Mar 14 2023 18:56:46 GMT-0700 (Pacific Daylight Time)","614029","Match,No Match","","null","","","","","","<div class='trialBorder'><div class='vertical-center'><img style='vertical-align:center; align:center' src='img/fixation2_sml.jpg'></div><div class='arrayDiv2'><div class='tl'><img class='introPic' src='trustrating_stim/white_mw038.bmp'><br><font color='red'><strong>Keep</strong></font></div><div class='tr'><img class='introPic' src='trustrating_stim/white_mw003.bmp'><br><font color='green'><strong>Share</strong></font></div></div></div>","null","ARRAY","2","trustrating_stim/white_mw038.bmp,trustrating_stim/white_mw003.bmp","0,1","noMatchOutcome","i","3000","","","","",""
"html-keyboard-response","97","264768","0.0-7.0-3.12","63f7eb4fd0c75f760998818c","bdp_wmem","Tue Mar 14 2023 18:56:46 GMT-0700 (Pacific Daylight Time)","614029","Match,No Match","","null","","","","","","<div class='trialBorder'><div class='vertical-center'><img src='img/fixation2_sml.jpg'</img></div></div>","null","DELAY","","","","","","","","","","",""
"html-keyboard-response","98","266569","0.0-7.0-4.12","63f7eb4fd0c75f760998818c","bdp_wmem","Tue Mar 14 2023 18:56:46 GMT-0700 (Pacific Daylight Time)","614029","Match,No Match","","1800","","","","","","<div class='trialBorder'><div class='targDiv'><div class='tc'><img class='introPic' src='trustrating_stim/white_mw038.bmp'><br><font color='green'><strong>Share</strong></font></div></div><div class='respDiv'><div class='respDivL'>Match<br>(e)</div><div class='respDivR'>No Match<br>(i)</div></div></div>","i","TARGET","2","trustrating_stim/white_mw038.bmp,trustrating_stim/white_mw003.bmp","0,1","noMatchOutcome","i","3000","trustrating_stim/white_mw038.bmp","green","Share","REAL","1"
"html-keyboard-response","99","267078","0.0-7.0-5.12","63f7eb4fd0c75f760998818c","bdp_wmem","Tue Mar 14 2023 18:56:46 GMT-0700 (Pacific Daylight Time)","614029","Match,No Match","","null","","","","","","<div class='trialBorder'><div class='vertical-center'><img src='img/correct.jpg'></div><div class='respDiv'><div class='respDivL'>Match<br>(e)</div><div class='respDivR'><font style='color:orange'>No Match<br>(i)</font></div></div></div>","null","FEEDBACK","","","","","","","","","","",""
"html-keyboard-response","100","267581","0.0-7.0-1.13","63f7eb4fd0c75f760998818c","bdp_wmem","Tue Mar 14 2023 18:56:46 GMT-0700 (Pacific Daylight Time)","614029","Match,No Match","","null","","","","","","<div class='trialBorder'><div class='vertical-center'><img src='img/fixation2_sml.jpg'</img></div></div>","null","FIX","","","","","","","","","","",""
"html-keyboard-response","101","270591","0.0-7.0-2.13","63f7eb4fd0c75f760998818c","bdp_wmem","Tue Mar 14 2023 18:56:46 GMT-0700 (Pacific Daylight Time)","614029","Match,No Match","","null","","","","","","<div class='trialBorder'><div class='vertical-center'><img style='vertical-align:center; align:center' src='img/fixation2_sml.jpg'></div><div class='arrayDiv2'><div class='tl'><img class='introPic' src='trustrating_stim/white_mw038.bmp'><br><font color='green'><strong>Share</strong></font></div><div class='tr'><img class='introPic' src='trustrating_stim/white_mw013.bmp'><br><font color='red'><strong>Keep</strong></font></div></div></div>","null","ARRAY","2","trustrating_stim/white_mw038.bmp,trustrating_stim/white_mw013.bmp","1,0","Match","e","3000","","","","",""
"html-keyboard-response","102","274592","0.0-7.0-3.13","63f7eb4fd0c75f760998818c","bdp_wmem","Tue Mar 14 2023 18:56:46 GMT-0700 (Pacific Daylight Time)","614029","Match,No Match","","null","","","","","","<div class='trialBorder'><div class='vertical-center'><img src='img/fixation2_sml.jpg'</img></div></div>","null","DELAY","","","","","","","","","","",""
"html-keyboard-response","103","275769","0.0-7.0-4.13","63f7eb4fd0c75f760998818c","bdp_wmem","Tue Mar 14 2023 18:56:46 GMT-0700 (Pacific Daylight Time)","614029","Match,No Match","","1172","","","","","","<div class='trialBorder'><div class='targDiv'><div class='tc'><img class='introPic' src='trustrating_stim/white_mw038.bmp'><br><font color='green'><strong>Share</strong></font></div></div><div class='respDiv'><div class='respDivL'>Match<br>(e)</div><div class='respDivR'>No Match<br>(i)</div></div></div>","e","TARGET","2","trustrating_stim/white_mw038.bmp,trustrating_stim/white_mw013.bmp","1,0","Match","e","3000","trustrating_stim/white_mw038.bmp","green","Share","REAL","1"
"html-keyboard-response","104","276277","0.0-7.0-5.13","63f7eb4fd0c75f760998818c","bdp_wmem","Tue Mar 14 2023 18:56:46 GMT-0700 (Pacific Daylight Time)","614029","Match,No Match","","null","","","","","","<div class='trialBorder'><div class='vertical-center'><img src='img/correct.jpg'></div><div class='respDiv'><div class='respDivL'><font style='color:orange'>Match<br>(e)</font></div><div class='respDivR'>No Match<br>(i)</div></div></div>","null","FEEDBACK","","","","","","","","","","",""
"html-keyboard-response","105","276786","0.0-7.0-1.14","63f7eb4fd0c75f760998818c","bdp_wmem","Tue Mar 14 2023 18:56:46 GMT-0700 (Pacific Daylight Time)","614029","Match,No Match","","null","","","","","","<div class='trialBorder'><div class='vertical-center'><img src='img/fixation2_sml.jpg'</img></div></div>","null","FIX","","","","","","","","","","",""
"html-keyboard-response","106","278294","0.0-7.0-2.14","63f7eb4fd0c75f760998818c","bdp_wmem","Tue Mar 14 2023 18:56:46 GMT-0700 (Pacific Daylight Time)","614029","Match,No Match","","null","","","","","","<div class='trialBorder'><div class='vertical-center'><img style='vertical-align:center; align:center' src='img/fixation2_sml.jpg'></div><div class='arrayDiv1'><div class='tc'><img class='introPic' src='trustrating_stim/white_mw085.bmp'><br><font color='green'><strong>Share</strong></font></div></div></div>","null","ARRAY","1","trustrating_stim/white_mw085.bmp","1","noMatchFace","i","1500","","","","",""
"html-keyboard-response","107","282304","0.0-7.0-3.14","63f7eb4fd0c75f760998818c","bdp_wmem","Tue Mar 14 2023 18:56:46 GMT-0700 (Pacific Daylight Time)","614029","Match,No Match","","null","","","","","","<div class='trialBorder'><div class='vertical-center'><img src='img/fixation2_sml.jpg'</img></div></div>","null","DELAY","","","","","","","","","","",""
"html-keyboard-response","108","283709","0.0-7.0-4.14","63f7eb4fd0c75f760998818c","bdp_wmem","Tue Mar 14 2023 18:56:46 GMT-0700 (Pacific Daylight Time)","614029","Match,No Match","","1403","","","","","","<div class='trialBorder'><div class='targDiv'><div class='tc'><img class='introPic' src='trustrating_stim/white_mw038.bmp'><br><font color='green'><strong>Share</strong></font></div></div><div class='respDiv'><div class='respDivL'>Match<br>(e)</div><div class='respDivR'>No Match<br>(i)</div></div></div>","i","TARGET","1","trustrating_stim/white_mw085.bmp","1","noMatchFace","i","1500","trustrating_stim/white_mw038.bmp","green","Share","REAL","1"
"html-keyboard-response","109","284213","0.0-7.0-5.14","63f7eb4fd0c75f760998818c","bdp_wmem","Tue Mar 14 2023 18:56:46 GMT-0700 (Pacific Daylight Time)","614029","Match,No Match","","null","","","","","","<div class='trialBorder'><div class='vertical-center'><img src='img/correct.jpg'></div><div class='respDiv'><div class='respDivL'>Match<br>(e)</div><div class='respDivR'><font style='color:orange'>No Match<br>(i)</font></div></div></div>","null","FEEDBACK","","","","","","","","","","",""
"html-keyboard-response","110","284718","0.0-7.0-1.15","63f7eb4fd0c75f760998818c","bdp_wmem","Tue Mar 14 2023 18:56:46 GMT-0700 (Pacific Daylight Time)","614029","Match,No Match","","null","","","","","","<div class='trialBorder'><div class='vertical-center'><img src='img/fixation2_sml.jpg'</img></div></div>","null","FIX","","","","","","","","","","",""
"html-keyboard-response","111","289235","0.0-7.0-2.15","63f7eb4fd0c75f760998818c","bdp_wmem","Tue Mar 14 2023 18:56:46 GMT-0700 (Pacific Daylight Time)","614029","Match,No Match","","null","","","","","","<div class='trialBorder'><div class='vertical-center'><img style='vertical-align:center; align:center' src='img/fixation2_sml.jpg'></div><div class='arrayDiv3'><div class='tl'><img class='introPic' src='trustrating_stim/white_mw042.bmp'><br><font color='green'><strong>Share</strong></font></div><div class='tc'><img class='introPic' src='trustrating_stim/white_mw070.bmp'><br><font color='green'><strong>Share</strong></font></div><div class='tr'><img class='introPic' src='trustrating_stim/white_mw092.bmp'><br><font color='red'><strong>Keep</strong></font></div></div></div>","null","ARRAY","3","trustrating_stim/white_mw042.bmp,trustrating_stim/white_mw070.bmp,trustrating_stim/white_mw092.bmp","1,1,0","Match","e","4500","","","","",""
"html-keyboard-response","112","293243","0.0-7.0-3.15","63f7eb4fd0c75f760998818c","bdp_wmem","Tue Mar 14 2023 18:56:46 GMT-0700 (Pacific Daylight Time)","614029","Match,No Match","","null","","","","","","<div class='trialBorder'><div class='vertical-center'><img src='img/fixation2_sml.jpg'</img></div></div>","null","DELAY","","","","","","","","","","",""
"html-keyboard-response","113","295761","0.0-7.0-4.15","63f7eb4fd0c75f760998818c","bdp_wmem","Tue Mar 14 2023 18:56:46 GMT-0700 (Pacific Daylight Time)","614029","Match,No Match","","2515","","","","","","<div class='trialBorder'><div class='targDiv'><div class='tc'><img class='introPic' src='trustrating_stim/white_mw070.bmp'><br><font color='green'><strong>Share</strong></font></div></div><div class='respDiv'><div class='respDivL'>Match<br>(e)</div><div class='respDivR'>No Match<br>(i)</div></div></div>","e","TARGET","3","trustrating_stim/white_mw042.bmp,trustrating_stim/white_mw070.bmp,trustrating_stim/white_mw092.bmp","1,1,0","Match","e","4500","trustrating_stim/white_mw070.bmp","green","Share","REAL","1"
"html-keyboard-response","114","296269","0.0-7.0-5.15","63f7eb4fd0c75f760998818c","bdp_wmem","Tue Mar 14 2023 18:56:46 GMT-0700 (Pacific Daylight Time)","614029","Match,No Match","","null","","","","","","<div class='trialBorder'><div class='vertical-center'><img src='img/correct.jpg'></div><div class='respDiv'><div class='respDivL'><font style='color:orange'>Match<br>(e)</font></div><div class='respDivR'>No Match<br>(i)</div></div></div>","null","FEEDBACK","","","","","","","","","","",""
"html-keyboard-response","115","296774","0.0-7.0-1.16","63f7eb4fd0c75f760998818c","bdp_wmem","Tue Mar 14 2023 18:56:46 GMT-0700 (Pacific Daylight Time)","614029","Match,No Match","","null","","","","","","<div class='trialBorder'><div class='vertical-center'><img src='img/fixation2_sml.jpg'</img></div></div>","null","FIX","","","","","","","","","","",""
"html-keyboard-response","116","299785","0.0-7.0-2.16","63f7eb4fd0c75f760998818c","bdp_wmem","Tue Mar 14 2023 18:56:46 GMT-0700 (Pacific Daylight Time)","614029","Match,No Match","","null","","","","","","<div class='trialBorder'><div class='vertical-center'><img style='vertical-align:center; align:center' src='img/fixation2_sml.jpg'></div><div class='arrayDiv2'><div class='tl'><img class='introPic' src='trustrating_stim/white_mw010.bmp'><br><font color='red'><strong>Keep</strong></font></div><div class='tr'><img class='introPic' src='trustrating_stim/white_mw003.bmp'><br><font color='green'><strong>Share</strong></font></div></div></div>","null","ARRAY","2","trustrating_stim/white_mw010.bmp,trustrating_stim/white_mw003.bmp","0,1","noMatchFace","i","3000","","","","",""
"html-keyboard-response","117","303802","0.0-7.0-3.16","63f7eb4fd0c75f760998818c","bdp_wmem","Tue Mar 14 2023 18:56:46 GMT-0700 (Pacific Daylight Time)","614029","Match,No Match","","null","","","","","","<div class='trialBorder'><div class='vertical-center'><img src='img/fixation2_sml.jpg'</img></div></div>","null","DELAY","","","","","","","","","","",""
"html-keyboard-response","118","305977","0.0-7.0-4.16","63f7eb4fd0c75f760998818c","bdp_wmem","Tue Mar 14 2023 18:56:46 GMT-0700 (Pacific Daylight Time)","614029","Match,No Match","","2173","","","","","","<div class='trialBorder'><div class='targDiv'><div class='tc'><img class='introPic' src='trustrating_stim/white_mw070.bmp'><br><font color='red'><strong>Keep</strong></font></div></div><div class='respDiv'><div class='respDivL'>Match<br>(e)</div><div class='respDivR'>No Match<br>(i)</div></div></div>","i","TARGET","2","trustrating_stim/white_mw010.bmp,trustrating_stim/white_mw003.bmp","0,1","noMatchFace","i","3000","trustrating_stim/white_mw070.bmp","red","Keep","REAL","1"
"html-keyboard-response","119","306479","0.0-7.0-5.16","63f7eb4fd0c75f760998818c","bdp_wmem","Tue Mar 14 2023 18:56:46 GMT-0700 (Pacific Daylight Time)","614029","Match,No Match","","null","","","","","","<div class='trialBorder'><div class='vertical-center'><img src='img/correct.jpg'></div><div class='respDiv'><div class='respDivL'>Match<br>(e)</div><div class='respDivR'><font style='color:orange'>No Match<br>(i)</font></div></div></div>","null","FEEDBACK","","","","","","","","","","",""
"html-keyboard-response","120","306982","0.0-7.0-1.17","63f7eb4fd0c75f760998818c","bdp_wmem","Tue Mar 14 2023 18:56:46 GMT-0700 (Pacific Daylight Time)","614029","Match,No Match","","null","","","","","","<div class='trialBorder'><div class='vertical-center'><img src='img/fixation2_sml.jpg'</img></div></div>","null","FIX","","","","","","","","","","",""
"html-keyboard-response","121","311486","0.0-7.0-2.17","63f7eb4fd0c75f760998818c","bdp_wmem","Tue Mar 14 2023 18:56:46 GMT-0700 (Pacific Daylight Time)","614029","Match,No Match","","null","","","","","","<div class='trialBorder'><div class='vertical-center'><img style='vertical-align:center; align:center' src='img/fixation2_sml.jpg'></div><div class='arrayDiv3'><div class='tl'><img class='introPic' src='trustrating_stim/white_mw003.bmp'><br><font color='green'><strong>Share</strong></font></div><div class='tc'><img class='introPic' src='trustrating_stim/white_mw010.bmp'><br><font color='red'><strong>Keep</strong></font></div><div class='tr'><img class='introPic' src='trustrating_stim/white_mw040.bmp'><br><font color='red'><strong>Keep</strong></font></div></div></div>","null","ARRAY","3","trustrating_stim/white_mw003.bmp,trustrating_stim/white_mw010.bmp,trustrating_stim/white_mw040.bmp","1,0,0","Match","e","4500","","","","",""
"html-keyboard-response","122","315493","0.0-7.0-3.17","63f7eb4fd0c75f760998818c","bdp_wmem","Tue Mar 14 2023 18:56:46 GMT-0700 (Pacific Daylight Time)","614029","Match,No Match","","null","","","","","","<div class='trialBorder'><div class='vertical-center'><img src='img/fixation2_sml.jpg'</img></div></div>","null","DELAY","","","","","","","","","","",""
"html-keyboard-response","123","317375","0.0-7.0-4.17","63f7eb4fd0c75f760998818c","bdp_wmem","Tue Mar 14 2023 18:56:46 GMT-0700 (Pacific Daylight Time)","614029","Match,No Match","","1879","","","","","","<div class='trialBorder'><div class='targDiv'><div class='tc'><img class='introPic' src='trustrating_stim/white_mw003.bmp'><br><font color='green'><strong>Share</strong></font></div></div><div class='respDiv'><div class='respDivL'>Match<br>(e)</div><div class='respDivR'>No Match<br>(i)</div></div></div>","e","TARGET","3","trustrating_stim/white_mw003.bmp,trustrating_stim/white_mw010.bmp,trustrating_stim/white_mw040.bmp","1,0,0","Match","e","4500","trustrating_stim/white_mw003.bmp","green","Share","REAL","1"
"html-keyboard-response","124","317884","0.0-7.0-5.17","63f7eb4fd0c75f760998818c","bdp_wmem","Tue Mar 14 2023 18:56:46 GMT-0700 (Pacific Daylight Time)","614029","Match,No Match","","null","","","","","","<div class='trialBorder'><div class='vertical-center'><img src='img/correct.jpg'></div><div class='respDiv'><div class='respDivL'><font style='color:orange'>Match<br>(e)</font></div><div class='respDivR'>No Match<br>(i)</div></div></div>","null","FEEDBACK","","","","","","","","","","",""
"html-keyboard-response","125","318397","0.0-7.0-1.18","63f7eb4fd0c75f760998818c","bdp_wmem","Tue Mar 14 2023 18:56:46 GMT-0700 (Pacific Daylight Time)","614029","Match,No Match","","null","","","","","","<div class='trialBorder'><div class='vertical-center'><img src='img/fixation2_sml.jpg'</img></div></div>","null","FIX","","","","","","","","","","",""
"html-keyboard-response","126","319897","0.0-7.0-2.18","63f7eb4fd0c75f760998818c","bdp_wmem","Tue Mar 14 2023 18:56:46 GMT-0700 (Pacific Daylight Time)","614029","Match,No Match","","null","","","","","","<div class='trialBorder'><div class='vertical-center'><img style='vertical-align:center; align:center' src='img/fixation2_sml.jpg'></div><div class='arrayDiv1'><div class='tc'><img class='introPic' src='trustrating_stim/white_mw092.bmp'><br><font color='red'><strong>Keep</strong></font></div></div></div>","null","ARRAY","1","trustrating_stim/white_mw092.bmp","0","Match","e","1500","","","","",""
"html-keyboard-response","127","323909","0.0-7.0-3.18","63f7eb4fd0c75f760998818c","bdp_wmem","Tue Mar 14 2023 18:56:46 GMT-0700 (Pacific Daylight Time)","614029","Match,No Match","","null","","","","","","<div class='trialBorder'><div class='vertical-center'><img src='img/fixation2_sml.jpg'</img></div></div>","null","DELAY","","","","","","","","","","",""
"html-keyboard-response","128","326630","0.0-7.0-4.18","63f7eb4fd0c75f760998818c","bdp_wmem","Tue Mar 14 2023 18:56:46 GMT-0700 (Pacific Daylight Time)","614029","Match,No Match","","2718","","","","","","<div class='trialBorder'><div class='targDiv'><div class='tc'><img class='introPic' src='trustrating_stim/white_mw092.bmp'><br><font color='red'><strong>Keep</strong></font></div></div><div class='respDiv'><div class='respDivL'>Match<br>(e)</div><div class='respDivR'>No Match<br>(i)</div></div></div>","i","TARGET","1","trustrating_stim/white_mw092.bmp","0","Match","e","1500","trustrating_stim/white_mw092.bmp","red","Keep","REAL","0"
"html-keyboard-response","129","327144","0.0-7.0-5.18","63f7eb4fd0c75f760998818c","bdp_wmem","Tue Mar 14 2023 18:56:46 GMT-0700 (Pacific Daylight Time)","614029","Match,No Match","","null","","","","","","<div class='trialBorder'><div class='vertical-center'><img src='img/error.jpg'></div><div class='respDiv'><div class='respDivL'>Match<br>(e)</div><div class='respDivR'><font style='color:orange'>No Match<br>(i)</font></div></div></div>","null","FEEDBACK","","","","","","","","","","",""
"html-keyboard-response","130","327658","0.0-7.0-1.19","63f7eb4fd0c75f760998818c","bdp_wmem","Tue Mar 14 2023 18:56:46 GMT-0700 (Pacific Daylight Time)","614029","Match,No Match","","null","","","","","","<div class='trialBorder'><div class='vertical-center'><img src='img/fixation2_sml.jpg'</img></div></div>","null","FIX","","","","","","","","","","",""
"html-keyboard-response","131","330666","0.0-7.0-2.19","63f7eb4fd0c75f760998818c","bdp_wmem","Tue Mar 14 2023 18:56:46 GMT-0700 (Pacific Daylight Time)","614029","Match,No Match","","null","","","","","","<div class='trialBorder'><div class='vertical-center'><img style='vertical-align:center; align:center' src='img/fixation2_sml.jpg'></div><div class='arrayDiv2'><div class='tl'><img class='introPic' src='trustrating_stim/white_mw013.bmp'><br><font color='green'><strong>Share</strong></font></div><div class='tr'><img class='introPic' src='trustrating_stim/white_mw078.bmp'><br><font color='red'><strong>Keep</strong></font></div></div></div>","null","ARRAY","2","trustrating_stim/white_mw013.bmp,trustrating_stim/white_mw078.bmp","1,0","Match","e","3000","","","","",""
"html-keyboard-response","132","334685","0.0-7.0-3.19","63f7eb4fd0c75f760998818c","bdp_wmem","Tue Mar 14 2023 18:56:46 GMT-0700 (Pacific Daylight Time)","614029","Match,No Match","","null","","","","","","<div class='trialBorder'><div class='vertical-center'><img src='img/fixation2_sml.jpg'</img></div></div>","null","DELAY","","","","","","","","","","",""
"html-keyboard-response","133","335909","0.0-7.0-4.19","63f7eb4fd0c75f760998818c","bdp_wmem","Tue Mar 14 2023 18:56:46 GMT-0700 (Pacific Daylight Time)","614029","Match,No Match","","1222","","","","","","<div class='trialBorder'><div class='targDiv'><div class='tc'><img class='introPic' src='trustrating_stim/white_mw013.bmp'><br><font color='green'><strong>Share</strong></font></div></div><div class='respDiv'><div class='respDivL'>Match<br>(e)</div><div class='respDivR'>No Match<br>(i)</div></div></div>","e","TARGET","2","trustrating_stim/white_mw013.bmp,trustrating_stim/white_mw078.bmp","1,0","Match","e","3000","trustrating_stim/white_mw013.bmp","green","Share","REAL","1"
"html-keyboard-response","134","336417","0.0-7.0-5.19","63f7eb4fd0c75f760998818c","bdp_wmem","Tue Mar 14 2023 18:56:46 GMT-0700 (Pacific Daylight Time)","614029","Match,No Match","","null","","","","","","<div class='trialBorder'><div class='vertical-center'><img src='img/correct.jpg'></div><div class='respDiv'><div class='respDivL'><font style='color:orange'>Match<br>(e)</font></div><div class='respDivR'>No Match<br>(i)</div></div></div>","null","FEEDBACK","","","","","","","","","","",""
"html-keyboard-response","135","336931","0.0-7.0-1.20","63f7eb4fd0c75f760998818c","bdp_wmem","Tue Mar 14 2023 18:56:46 GMT-0700 (Pacific Daylight Time)","614029","Match,No Match","","null","","","","","","<div class='trialBorder'><div class='vertical-center'><img src='img/fixation2_sml.jpg'</img></div></div>","null","FIX","","","","","","","","","","",""
"html-keyboard-response","136","338436","0.0-7.0-2.20","63f7eb4fd0c75f760998818c","bdp_wmem","Tue Mar 14 2023 18:56:46 GMT-0700 (Pacific Daylight Time)","614029","Match,No Match","","null","","","","","","<div class='trialBorder'><div class='vertical-center'><img style='vertical-align:center; align:center' src='img/fixation2_sml.jpg'></div><div class='arrayDiv1'><div class='tc'><img class='introPic' src='trustrating_stim/white_mw078.bmp'><br><font color='green'><strong>Share</strong></font></div></div></div>","null","ARRAY","1","trustrating_stim/white_mw078.bmp","1","noMatchOutcome","i","1500","","","","",""
"html-keyboard-response","137","342439","0.0-7.0-3.20","63f7eb4fd0c75f760998818c","bdp_wmem","Tue Mar 14 2023 18:56:46 GMT-0700 (Pacific Daylight Time)","614029","Match,No Match","","null","","","","","","<div class='trialBorder'><div class='vertical-center'><img src='img/fixation2_sml.jpg'</img></div></div>","null","DELAY","","","","","","","","","","",""
"html-keyboard-response","138","343570","0.0-7.0-4.20","63f7eb4fd0c75f760998818c","bdp_wmem","Tue Mar 14 2023 18:56:46 GMT-0700 (Pacific Daylight Time)","614029","Match,No Match","","1128","","","","","","<div class='trialBorder'><div class='targDiv'><div class='tc'><img class='introPic' src='trustrating_stim/white_mw078.bmp'><br><font color='red'><strong>Keep</strong></font></div></div><div class='respDiv'><div class='respDivL'>Match<br>(e)</div><div class='respDivR'>No Match<br>(i)</div></div></div>","i","TARGET","1","trustrating_stim/white_mw078.bmp","1","noMatchOutcome","i","1500","trustrating_stim/white_mw078.bmp","red","Keep","REAL","1"
"html-keyboard-response","139","344084","0.0-7.0-5.20","63f7eb4fd0c75f760998818c","bdp_wmem","Tue Mar 14 2023 18:56:46 GMT-0700 (Pacific Daylight Time)","614029","Match,No Match","","null","","","","","","<div class='trialBorder'><div class='vertical-center'><img src='img/correct.jpg'></div><div class='respDiv'><div class='respDivL'>Match<br>(e)</div><div class='respDivR'><font style='color:orange'>No Match<br>(i)</font></div></div></div>","null","FEEDBACK","","","","","","","","","","",""
"html-keyboard-response","140","344593","0.0-7.0-1.21","63f7eb4fd0c75f760998818c","bdp_wmem","Tue Mar 14 2023 18:56:46 GMT-0700 (Pacific Daylight Time)","614029","Match,No Match","","null","","","","","","<div class='trialBorder'><div class='vertical-center'><img src='img/fixation2_sml.jpg'</img></div></div>","null","FIX","","","","","","","","","","",""
"html-keyboard-response","141","349099","0.0-7.0-2.21","63f7eb4fd0c75f760998818c","bdp_wmem","Tue Mar 14 2023 18:56:46 GMT-0700 (Pacific Daylight Time)","614029","Match,No Match","","null","","","","","","<div class='trialBorder'><div class='vertical-center'><img style='vertical-align:center; align:center' src='img/fixation2_sml.jpg'></div><div class='arrayDiv3'><div class='tl'><img class='introPic' src='trustrating_stim/white_mw070.bmp'><br><font color='green'><strong>Share</strong></font></div><div class='tc'><img class='introPic' src='trustrating_stim/white_mw042.bmp'><br><font color='red'><strong>Keep</strong></font></div><div class='tr'><img class='introPic' src='trustrating_stim/white_mw012.bmp'><br><font color='green'><strong>Share</strong></font></div></div></div>","null","ARRAY","3","trustrating_stim/white_mw070.bmp,trustrating_stim/white_mw042.bmp,trustrating_stim/white_mw012.bmp","1,0,1","noMatchOutcome","i","4500","","","","",""
"html-keyboard-response","142","353107","0.0-7.0-3.21","63f7eb4fd0c75f760998818c","bdp_wmem","Tue Mar 14 2023 18:56:46 GMT-0700 (Pacific Daylight Time)","614029","Match,No Match","","null","","","","","","<div class='trialBorder'><div class='vertical-center'><img src='img/fixation2_sml.jpg'</img></div></div>","null","DELAY","","","","","","","","","","",""
"html-keyboard-response","143","355659","0.0-7.0-4.21","63f7eb4fd0c75f760998818c","bdp_wmem","Tue Mar 14 2023 18:56:46 GMT-0700 (Pacific Daylight Time)","614029","Match,No Match","","2550","","","","","","<div class='trialBorder'><div class='targDiv'><div class='tc'><img class='introPic' src='trustrating_stim/white_mw012.bmp'><br><font color='red'><strong>Keep</strong></font></div></div><div class='respDiv'><div class='respDivL'>Match<br>(e)</div><div class='respDivR'>No Match<br>(i)</div></div></div>","i","TARGET","3","trustrating_stim/white_mw070.bmp,trustrating_stim/white_mw042.bmp,trustrating_stim/white_mw012.bmp","1,0,1","noMatchOutcome","i","4500","trustrating_stim/white_mw012.bmp","red","Keep","REAL","1"
"html-keyboard-response","144","356166","0.0-7.0-5.21","63f7eb4fd0c75f760998818c","bdp_wmem","Tue Mar 14 2023 18:56:46 GMT-0700 (Pacific Daylight Time)","614029","Match,No Match","","null","","","","","","<div class='trialBorder'><div class='vertical-center'><img src='img/correct.jpg'></div><div class='respDiv'><div class='respDivL'>Match<br>(e)</div><div class='respDivR'><font style='color:orange'>No Match<br>(i)</font></div></div></div>","null","FEEDBACK","","","","","","","","","","",""
"html-keyboard-response","145","356669","0.0-7.0-1.22","63f7eb4fd0c75f760998818c","bdp_wmem","Tue Mar 14 2023 18:56:46 GMT-0700 (Pacific Daylight Time)","614029","Match,No Match","","null","","","","","","<div class='trialBorder'><div class='vertical-center'><img src='img/fixation2_sml.jpg'</img></div></div>","null","FIX","","","","","","","","","","",""
"html-keyboard-response","146","359676","0.0-7.0-2.22","63f7eb4fd0c75f760998818c","bdp_wmem","Tue Mar 14 2023 18:56:46 GMT-0700 (Pacific Daylight Time)","614029","Match,No Match","","null","","","","","","<div class='trialBorder'><div class='vertical-center'><img style='vertical-align:center; align:center' src='img/fixation2_sml.jpg'></div><div class='arrayDiv2'><div class='tl'><img class='introPic' src='trustrating_stim/white_mw003.bmp'><br><font color='green'><strong>Share</strong></font></div><div class='tr'><img class='introPic' src='trustrating_stim/white_mw091.bmp'><br><font color='red'><strong>Keep</strong></font></div></div></div>","null","ARRAY","2","trustrating_stim/white_mw003.bmp,trustrating_stim/white_mw091.bmp","1,0","Match","e","3000","","","","",""
"html-keyboard-response","147","363682","0.0-7.0-3.22","63f7eb4fd0c75f760998818c","bdp_wmem","Tue Mar 14 2023 18:56:46 GMT-0700 (Pacific Daylight Time)","614029","Match,No Match","","null","","","","","","<div class='trialBorder'><div class='vertical-center'><img src='img/fixation2_sml.jpg'</img></div></div>","null","DELAY","","","","","","","","","","",""
"html-keyboard-response","148","364971","0.0-7.0-4.22","63f7eb4fd0c75f760998818c","bdp_wmem","Tue Mar 14 2023 18:56:46 GMT-0700 (Pacific Daylight Time)","614029","Match,No Match","","1286","","","","","","<div class='trialBorder'><div class='targDiv'><div class='tc'><img class='introPic' src='trustrating_stim/white_mw003.bmp'><br><font color='green'><strong>Share</strong></font></div></div><div class='respDiv'><div class='respDivL'>Match<br>(e)</div><div class='respDivR'>No Match<br>(i)</div></div></div>","e","TARGET","2","trustrating_stim/white_mw003.bmp,trustrating_stim/white_mw091.bmp","1,0","Match","e","3000","trustrating_stim/white_mw003.bmp","green","Share","REAL","1"
"html-keyboard-response","149","365476","0.0-7.0-5.22","63f7eb4fd0c75f760998818c","bdp_wmem","Tue Mar 14 2023 18:56:46 GMT-0700 (Pacific Daylight Time)","614029","Match,No Match","","null","","","","","","<div class='trialBorder'><div class='vertical-center'><img src='img/correct.jpg'></div><div class='respDiv'><div class='respDivL'><font style='color:orange'>Match<br>(e)</font></div><div class='respDivR'>No Match<br>(i)</div></div></div>","null","FEEDBACK","","","","","","","","","","",""
"html-keyboard-response","150","365984","0.0-7.0-1.23","63f7eb4fd0c75f760998818c","bdp_wmem","Tue Mar 14 2023 18:56:46 GMT-0700 (Pacific Daylight Time)","614029","Match,No Match","","null","","","","","","<div class='trialBorder'><div class='vertical-center'><img src='img/fixation2_sml.jpg'</img></div></div>","null","FIX","","","","","","","","","","",""
"html-keyboard-response","151","369001","0.0-7.0-2.23","63f7eb4fd0c75f760998818c","bdp_wmem","Tue Mar 14 2023 18:56:46 GMT-0700 (Pacific Daylight Time)","614029","Match,No Match","","null","","","","","","<div class='trialBorder'><div class='vertical-center'><img style='vertical-align:center; align:center' src='img/fixation2_sml.jpg'></div><div class='arrayDiv2'><div class='tl'><img class='introPic' src='trustrating_stim/white_mw040.bmp'><br><font color='red'><strong>Keep</strong></font></div><div class='tr'><img class='introPic' src='trustrating_stim/white_mw070.bmp'><br><font color='green'><strong>Share</strong></font></div></div></div>","null","ARRAY","2","trustrating_stim/white_mw040.bmp,trustrating_stim/white_mw070.bmp","0,1","Match","e","3000","","","","",""
"html-keyboard-response","152","373010","0.0-7.0-3.23","63f7eb4fd0c75f760998818c","bdp_wmem","Tue Mar 14 2023 18:56:46 GMT-0700 (Pacific Daylight Time)","614029","Match,No Match","","null","","","","","","<div class='trialBorder'><div class='vertical-center'><img src='img/fixation2_sml.jpg'</img></div></div>","null","DELAY","","","","","","","","","","",""
"html-keyboard-response","153","374939","0.0-7.0-4.23","63f7eb4fd0c75f760998818c","bdp_wmem","Tue Mar 14 2023 18:56:46 GMT-0700 (Pacific Daylight Time)","614029","Match,No Match","","1927","","","","","","<div class='trialBorder'><div class='targDiv'><div class='tc'><img class='introPic' src='trustrating_stim/white_mw040.bmp'><br><font color='red'><strong>Keep</strong></font></div></div><div class='respDiv'><div class='respDivL'>Match<br>(e)</div><div class='respDivR'>No Match<br>(i)</div></div></div>","e","TARGET","2","trustrating_stim/white_mw040.bmp,trustrating_stim/white_mw070.bmp","0,1","Match","e","3000","trustrating_stim/white_mw040.bmp","red","Keep","REAL","1"
"html-keyboard-response","154","375449","0.0-7.0-5.23","63f7eb4fd0c75f760998818c","bdp_wmem","Tue Mar 14 2023 18:56:46 GMT-0700 (Pacific Daylight Time)","614029","Match,No Match","","null","","","","","","<div class='trialBorder'><div class='vertical-center'><img src='img/correct.jpg'></div><div class='respDiv'><div class='respDivL'><font style='color:orange'>Match<br>(e)</font></div><div class='respDivR'>No Match<br>(i)</div></div></div>","null","FEEDBACK","","","","","","","","","","",""
"html-keyboard-response","155","375960","0.0-7.0-1.24","63f7eb4fd0c75f760998818c","bdp_wmem","Tue Mar 14 2023 18:56:46 GMT-0700 (Pacific Daylight Time)","614029","Match,No Match","","null","","","","","","<div class='trialBorder'><div class='vertical-center'><img src='img/fixation2_sml.jpg'</img></div></div>","null","FIX","","","","","","","","","","",""
"html-keyboard-response","156","377460","0.0-7.0-2.24","63f7eb4fd0c75f760998818c","bdp_wmem","Tue Mar 14 2023 18:56:46 GMT-0700 (Pacific Daylight Time)","614029","Match,No Match","","null","","","","","","<div class='trialBorder'><div class='vertical-center'><img style='vertical-align:center; align:center' src='img/fixation2_sml.jpg'></div><div class='arrayDiv1'><div class='tc'><img class='introPic' src='trustrating_stim/white_mw012.bmp'><br><font color='green'><strong>Share</strong></font></div></div></div>","null","ARRAY","1","trustrating_stim/white_mw012.bmp","1","Match","e","1500","","","","",""
"html-keyboard-response","157","381474","0.0-7.0-3.24","63f7eb4fd0c75f760998818c","bdp_wmem","Tue Mar 14 2023 18:56:46 GMT-0700 (Pacific Daylight Time)","614029","Match,No Match","","null","","","","","","<div class='trialBorder'><div class='vertical-center'><img src='img/fixation2_sml.jpg'</img></div></div>","null","DELAY","","","","","","","","","","",""
"html-keyboard-response","158","382437","0.0-7.0-4.24","63f7eb4fd0c75f760998818c","bdp_wmem","Tue Mar 14 2023 18:56:46 GMT-0700 (Pacific Daylight Time)","614029","Match,No Match","","961","","","","","","<div class='trialBorder'><div class='targDiv'><div class='tc'><img class='introPic' src='trustrating_stim/white_mw012.bmp'><br><font color='green'><strong>Share</strong></font></div></div><div class='respDiv'><div class='respDivL'>Match<br>(e)</div><div class='respDivR'>No Match<br>(i)</div></div></div>","e","TARGET","1","trustrating_stim/white_mw012.bmp","1","Match","e","1500","trustrating_stim/white_mw012.bmp","green","Share","REAL","1"
"html-keyboard-response","159","382943","0.0-7.0-5.24","63f7eb4fd0c75f760998818c","bdp_wmem","Tue Mar 14 2023 18:56:46 GMT-0700 (Pacific Daylight Time)","614029","Match,No Match","","null","","","","","","<div class='trialBorder'><div class='vertical-center'><img src='img/correct.jpg'></div><div class='respDiv'><div class='respDivL'><font style='color:orange'>Match<br>(e)</font></div><div class='respDivR'>No Match<br>(i)</div></div></div>","null","FEEDBACK","","","","","","","","","","",""
"html-keyboard-response","160","383456","0.0-7.0-1.25","63f7eb4fd0c75f760998818c","bdp_wmem","Tue Mar 14 2023 18:56:46 GMT-0700 (Pacific Daylight Time)","614029","Match,No Match","","null","","","","","","<div class='trialBorder'><div class='vertical-center'><img src='img/fixation2_sml.jpg'</img></div></div>","null","FIX","","","","","","","","","","",""
"html-keyboard-response","161","387958","0.0-7.0-2.25","63f7eb4fd0c75f760998818c","bdp_wmem","Tue Mar 14 2023 18:56:46 GMT-0700 (Pacific Daylight Time)","614029","Match,No Match","","null","","","","","","<div class='trialBorder'><div class='vertical-center'><img style='vertical-align:center; align:center' src='img/fixation2_sml.jpg'></div><div class='arrayDiv3'><div class='tl'><img class='introPic' src='trustrating_stim/white_mw092.bmp'><br><font color='red'><strong>Keep</strong></font></div><div class='tc'><img class='introPic' src='trustrating_stim/white_mw070.bmp'><br><font color='red'><strong>Keep</strong></font></div><div class='tr'><img class='introPic' src='trustrating_stim/white_mw013.bmp'><br><font color='green'><strong>Share</strong></font></div></div></div>","null","ARRAY","3","trustrating_stim/white_mw092.bmp,trustrating_stim/white_mw070.bmp,trustrating_stim/white_mw013.bmp","0,0,1","noMatchFace","i","4500","","","","",""
"html-keyboard-response","162","391966","0.0-7.0-3.25","63f7eb4fd0c75f760998818c","bdp_wmem","Tue Mar 14 2023 18:56:46 GMT-0700 (Pacific Daylight Time)","614029","Match,No Match","","null","","","","","","<div class='trialBorder'><div class='vertical-center'><img src='img/fixation2_sml.jpg'</img></div></div>","null","DELAY","","","","","","","","","","",""
"html-keyboard-response","163","393617","0.0-7.0-4.25","63f7eb4fd0c75f760998818c","bdp_wmem","Tue Mar 14 2023 18:56:46 GMT-0700 (Pacific Daylight Time)","614029","Match,No Match","","1647","","","","","","<div class='trialBorder'><div class='targDiv'><div class='tc'><img class='introPic' src='trustrating_stim/white_mw003.bmp'><br><font color='red'><strong>Keep</strong></font></div></div><div class='respDiv'><div class='respDivL'>Match<br>(e)</div><div class='respDivR'>No Match<br>(i)</div></div></div>","i","TARGET","3","trustrating_stim/white_mw092.bmp,trustrating_stim/white_mw070.bmp,trustrating_stim/white_mw013.bmp","0,0,1","noMatchFace","i","4500","trustrating_stim/white_mw003.bmp","red","Keep","REAL","1"
"html-keyboard-response","164","394125","0.0-7.0-5.25","63f7eb4fd0c75f760998818c","bdp_wmem","Tue Mar 14 2023 18:56:46 GMT-0700 (Pacific Daylight Time)","614029","Match,No Match","","null","","","","","","<div class='trialBorder'><div class='vertical-center'><img src='img/correct.jpg'></div><div class='respDiv'><div class='respDivL'>Match<br>(e)</div><div class='respDivR'><font style='color:orange'>No Match<br>(i)</font></div></div></div>","null","FEEDBACK","","","","","","","","","","",""
"html-keyboard-response","165","394644","0.0-7.0-1.26","63f7eb4fd0c75f760998818c","bdp_wmem","Tue Mar 14 2023 18:56:46 GMT-0700 (Pacific Daylight Time)","614029","Match,No Match","","null","","","","","","<div class='trialBorder'><div class='vertical-center'><img src='img/fixation2_sml.jpg'</img></div></div>","null","FIX","","","","","","","","","","",""
"html-keyboard-response","166","397647","0.0-7.0-2.26","63f7eb4fd0c75f760998818c","bdp_wmem","Tue Mar 14 2023 18:56:46 GMT-0700 (Pacific Daylight Time)","614029","Match,No Match","","null","","","","","","<div class='trialBorder'><div class='vertical-center'><img style='vertical-align:center; align:center' src='img/fixation2_sml.jpg'></div><div class='arrayDiv2'><div class='tl'><img class='introPic' src='trustrating_stim/white_mw010.bmp'><br><font color='red'><strong>Keep</strong></font></div><div class='tr'><img class='introPic' src='trustrating_stim/white_mw012.bmp'><br><font color='green'><strong>Share</strong></font></div></div></div>","null","ARRAY","2","trustrating_stim/white_mw010.bmp,trustrating_stim/white_mw012.bmp","0,1","noMatchFace","i","3000","","","","",""
"html-keyboard-response","167","401657","0.0-7.0-3.26","63f7eb4fd0c75f760998818c","bdp_wmem","Tue Mar 14 2023 18:56:46 GMT-0700 (Pacific Daylight Time)","614029","Match,No Match","","null","","","","","","<div class='trialBorder'><div class='vertical-center'><img src='img/fixation2_sml.jpg'</img></div></div>","null","DELAY","","","","","","","","","","",""
"html-keyboard-response","168","403151","0.0-7.0-4.26","63f7eb4fd0c75f760998818c","bdp_wmem","Tue Mar 14 2023 18:56:46 GMT-0700 (Pacific Daylight Time)","614029","Match,No Match","","1491","","","","","","<div class='trialBorder'><div class='targDiv'><div class='tc'><img class='introPic' src='trustrating_stim/white_mw085.bmp'><br><font color='green'><strong>Share</strong></font></div></div><div class='respDiv'><div class='respDivL'>Match<br>(e)</div><div class='respDivR'>No Match<br>(i)</div></div></div>","i","TARGET","2","trustrating_stim/white_mw010.bmp,trustrating_stim/white_mw012.bmp","0,1","noMatchFace","i","3000","trustrating_stim/white_mw085.bmp","green","Share","REAL","1"
"html-keyboard-response","169","403662","0.0-7.0-5.26","63f7eb4fd0c75f760998818c","bdp_wmem","Tue Mar 14 2023 18:56:46 GMT-0700 (Pacific Daylight Time)","614029","Match,No Match","","null","","","","","","<div class='trialBorder'><div class='vertical-center'><img src='img/correct.jpg'></div><div class='respDiv'><div class='respDivL'>Match<br>(e)</div><div class='respDivR'><font style='color:orange'>No Match<br>(i)</font></div></div></div>","null","FEEDBACK","","","","","","","","","","",""
"html-keyboard-response","170","404167","0.0-7.0-1.27","63f7eb4fd0c75f760998818c","bdp_wmem","Tue Mar 14 2023 18:56:46 GMT-0700 (Pacific Daylight Time)","614029","Match,No Match","","null","","","","","","<div class='trialBorder'><div class='vertical-center'><img src='img/fixation2_sml.jpg'</img></div></div>","null","FIX","","","","","","","","","","",""
"html-keyboard-response","171","408673","0.0-7.0-2.27","63f7eb4fd0c75f760998818c","bdp_wmem","Tue Mar 14 2023 18:56:46 GMT-0700 (Pacific Daylight Time)","614029","Match,No Match","","null","","","","","","<div class='trialBorder'><div class='vertical-center'><img style='vertical-align:center; align:center' src='img/fixation2_sml.jpg'></div><div class='arrayDiv3'><div class='tl'><img class='introPic' src='trustrating_stim/white_mw012.bmp'><br><font color='green'><strong>Share</strong></font></div><div class='tc'><img class='introPic' src='trustrating_stim/white_mw010.bmp'><br><font color='green'><strong>Share</strong></font></div><div class='tr'><img class='introPic' src='trustrating_stim/white_mw070.bmp'><br><font color='red'><strong>Keep</strong></font></div></div></div>","null","ARRAY","3","trustrating_stim/white_mw012.bmp,trustrating_stim/white_mw010.bmp,trustrating_stim/white_mw070.bmp","1,1,0","noMatchFace","i","4500","","","","",""
"html-keyboard-response","172","412682","0.0-7.0-3.27","63f7eb4fd0c75f760998818c","bdp_wmem","Tue Mar 14 2023 18:56:46 GMT-0700 (Pacific Daylight Time)","614029","Match,No Match","","null","","","","","","<div class='trialBorder'><div class='vertical-center'><img src='img/fixation2_sml.jpg'</img></div></div>","null","DELAY","","","","","","","","","","",""
"html-keyboard-response","173","414124","0.0-7.0-4.27","63f7eb4fd0c75f760998818c","bdp_wmem","Tue Mar 14 2023 18:56:46 GMT-0700 (Pacific Daylight Time)","614029","Match,No Match","","1438","","","","","","<div class='trialBorder'><div class='targDiv'><div class='tc'><img class='introPic' src='trustrating_stim/white_mw038.bmp'><br><font color='green'><strong>Share</strong></font></div></div><div class='respDiv'><div class='respDivL'>Match<br>(e)</div><div class='respDivR'>No Match<br>(i)</div></div></div>","i","TARGET","3","trustrating_stim/white_mw012.bmp,trustrating_stim/white_mw010.bmp,trustrating_stim/white_mw070.bmp","1,1,0","noMatchFace","i","4500","trustrating_stim/white_mw038.bmp","green","Share","REAL","1"
"html-keyboard-response","174","414632","0.0-7.0-5.27","63f7eb4fd0c75f760998818c","bdp_wmem","Tue Mar 14 2023 18:56:46 GMT-0700 (Pacific Daylight Time)","614029","Match,No Match","","null","","","","","","<div class='trialBorder'><div class='vertical-center'><img src='img/correct.jpg'></div><div class='respDiv'><div class='respDivL'>Match<br>(e)</div><div class='respDivR'><font style='color:orange'>No Match<br>(i)</font></div></div></div>","null","FEEDBACK","","","","","","","","","","",""
"html-keyboard-response","175","415136","0.0-7.0-1.28","63f7eb4fd0c75f760998818c","bdp_wmem","Tue Mar 14 2023 18:56:46 GMT-0700 (Pacific Daylight Time)","614029","Match,No Match","","null","","","","","","<div class='trialBorder'><div class='vertical-center'><img src='img/fixation2_sml.jpg'</img></div></div>","null","FIX","","","","","","","","","","",""
"html-keyboard-response","176","419642","0.0-7.0-2.28","63f7eb4fd0c75f760998818c","bdp_wmem","Tue Mar 14 2023 18:56:46 GMT-0700 (Pacific Daylight Time)","614029","Match,No Match","","null","","","","","","<div class='trialBorder'><div class='vertical-center'><img style='vertical-align:center; align:center' src='img/fixation2_sml.jpg'></div><div class='arrayDiv3'><div class='tl'><img class='introPic' src='trustrating_stim/white_mw070.bmp'><br><font color='green'><strong>Share</strong></font></div><div class='tc'><img class='introPic' src='trustrating_stim/white_mw013.bmp'><br><font color='red'><strong>Keep</strong></font></div><div class='tr'><img class='introPic' src='trustrating_stim/white_mw038.bmp'><br><font color='green'><strong>Share</strong></font></div></div></div>","null","ARRAY","3","trustrating_stim/white_mw070.bmp,trustrating_stim/white_mw013.bmp,trustrating_stim/white_mw038.bmp","1,0,1","noMatchOutcome","i","4500","","","","",""
"html-keyboard-response","177","423662","0.0-7.0-3.28","63f7eb4fd0c75f760998818c","bdp_wmem","Tue Mar 14 2023 18:56:46 GMT-0700 (Pacific Daylight Time)","614029","Match,No Match","","null","","","","","","<div class='trialBorder'><div class='vertical-center'><img src='img/fixation2_sml.jpg'</img></div></div>","null","DELAY","","","","","","","","","","",""
"html-keyboard-response","178","426717","0.0-7.0-4.28","63f7eb4fd0c75f760998818c","bdp_wmem","Tue Mar 14 2023 18:56:46 GMT-0700 (Pacific Daylight Time)","614029","Match,No Match","","3053","","","","","","<div class='trialBorder'><div class='targDiv'><div class='tc'><img class='introPic' src='trustrating_stim/white_mw038.bmp'><br><font color='red'><strong>Keep</strong></font></div></div><div class='respDiv'><div class='respDivL'>Match<br>(e)</div><div class='respDivR'>No Match<br>(i)</div></div></div>","i","TARGET","3","trustrating_stim/white_mw070.bmp,trustrating_stim/white_mw013.bmp,trustrating_stim/white_mw038.bmp","1,0,1","noMatchOutcome","i","4500","trustrating_stim/white_mw038.bmp","red","Keep","REAL","1"
"html-keyboard-response","179","427225","0.0-7.0-5.28","63f7eb4fd0c75f760998818c","bdp_wmem","Tue Mar 14 2023 18:56:46 GMT-0700 (Pacific Daylight Time)","614029","Match,No Match","","null","","","","","","<div class='trialBorder'><div class='vertical-center'><img src='img/correct.jpg'></div><div class='respDiv'><div class='respDivL'>Match<br>(e)</div><div class='respDivR'><font style='color:orange'>No Match<br>(i)</font></div></div></div>","null","FEEDBACK","","","","","","","","","","",""
"html-keyboard-response","180","427731","0.0-7.0-1.29","63f7eb4fd0c75f760998818c","bdp_wmem","Tue Mar 14 2023 18:56:46 GMT-0700 (Pacific Daylight Time)","614029","Match,No Match","","null","","","","","","<div class='trialBorder'><div class='vertical-center'><img src='img/fixation2_sml.jpg'</img></div></div>","null","FIX","","","","","","","","","","",""
"html-keyboard-response","181","429235","0.0-7.0-2.29","63f7eb4fd0c75f760998818c","bdp_wmem","Tue Mar 14 2023 18:56:46 GMT-0700 (Pacific Daylight Time)","614029","Match,No Match","","null","","","","","","<div class='trialBorder'><div class='vertical-center'><img style='vertical-align:center; align:center' src='img/fixation2_sml.jpg'></div><div class='arrayDiv1'><div class='tc'><img class='introPic' src='trustrating_stim/white_mw010.bmp'><br><font color='green'><strong>Share</strong></font></div></div></div>","null","ARRAY","1","trustrating_stim/white_mw010.bmp","1","noMatchFace","i","1500","","","","",""
"html-keyboard-response","182","433242","0.0-7.0-3.29","63f7eb4fd0c75f760998818c","bdp_wmem","Tue Mar 14 2023 18:56:46 GMT-0700 (Pacific Daylight Time)","614029","Match,No Match","","null","","","","","","<div class='trialBorder'><div class='vertical-center'><img src='img/fixation2_sml.jpg'</img></div></div>","null","DELAY","","","","","","","","","","",""
"html-keyboard-response","183","434437","0.0-7.0-4.29","63f7eb4fd0c75f760998818c","bdp_wmem","Tue Mar 14 2023 18:56:46 GMT-0700 (Pacific Daylight Time)","614029","Match,No Match","","1193","","","","","","<div class='trialBorder'><div class='targDiv'><div class='tc'><img class='introPic' src='trustrating_stim/white_mw040.bmp'><br><font color='green'><strong>Share</strong></font></div></div><div class='respDiv'><div class='respDivL'>Match<br>(e)</div><div class='respDivR'>No Match<br>(i)</div></div></div>","i","TARGET","1","trustrating_stim/white_mw010.bmp","1","noMatchFace","i","1500","trustrating_stim/white_mw040.bmp","green","Share","REAL","1"
"html-keyboard-response","184","434942","0.0-7.0-5.29","63f7eb4fd0c75f760998818c","bdp_wmem","Tue Mar 14 2023 18:56:46 GMT-0700 (Pacific Daylight Time)","614029","Match,No Match","","null","","","","","","<div class='trialBorder'><div class='vertical-center'><img src='img/correct.jpg'></div><div class='respDiv'><div class='respDivL'>Match<br>(e)</div><div class='respDivR'><font style='color:orange'>No Match<br>(i)</font></div></div></div>","null","FEEDBACK","","","","","","","","","","",""
"html-keyboard-response","185","435449","0.0-7.0-1.30","63f7eb4fd0c75f760998818c","bdp_wmem","Tue Mar 14 2023 18:56:46 GMT-0700 (Pacific Daylight Time)","614029","Match,No Match","","null","","","","","","<div class='trialBorder'><div class='vertical-center'><img src='img/fixation2_sml.jpg'</img></div></div>","null","FIX","","","","","","","","","","",""
"html-keyboard-response","186","439957","0.0-7.0-2.30","63f7eb4fd0c75f760998818c","bdp_wmem","Tue Mar 14 2023 18:56:46 GMT-0700 (Pacific Daylight Time)","614029","Match,No Match","","null","","","","","","<div class='trialBorder'><div class='vertical-center'><img style='vertical-align:center; align:center' src='img/fixation2_sml.jpg'></div><div class='arrayDiv3'><div class='tl'><img class='introPic' src='trustrating_stim/white_mw003.bmp'><br><font color='green'><strong>Share</strong></font></div><div class='tc'><img class='introPic' src='trustrating_stim/white_mw012.bmp'><br><font color='red'><strong>Keep</strong></font></div><div class='tr'><img class='introPic' src='trustrating_stim/white_mw013.bmp'><br><font color='green'><strong>Share</strong></font></div></div></div>","null","ARRAY","3","trustrating_stim/white_mw003.bmp,trustrating_stim/white_mw012.bmp,trustrating_stim/white_mw013.bmp","1,0,1","Match","e","4500","","","","",""
"html-keyboard-response","187","443963","0.0-7.0-3.30","63f7eb4fd0c75f760998818c","bdp_wmem","Tue Mar 14 2023 18:56:46 GMT-0700 (Pacific Daylight Time)","614029","Match,No Match","","null","","","","","","<div class='trialBorder'><div class='vertical-center'><img src='img/fixation2_sml.jpg'</img></div></div>","null","DELAY","","","","","","","","","","",""
"html-keyboard-response","188","448868","0.0-7.0-4.30","63f7eb4fd0c75f760998818c","bdp_wmem","Tue Mar 14 2023 18:56:46 GMT-0700 (Pacific Daylight Time)","614029","Match,No Match","","4901","","","","","","<div class='trialBorder'><div class='targDiv'><div class='tc'><img class='introPic' src='trustrating_stim/white_mw013.bmp'><br><font color='green'><strong>Share</strong></font></div></div><div class='respDiv'><div class='respDivL'>Match<br>(e)</div><div class='respDivR'>No Match<br>(i)</div></div></div>","e","TARGET","3","trustrating_stim/white_mw003.bmp,trustrating_stim/white_mw012.bmp,trustrating_stim/white_mw013.bmp","1,0,1","Match","e","4500","trustrating_stim/white_mw013.bmp","green","Share","REAL","1"
