"trial_type","trial_index","time_elapsed","internal_node_id","subject_id","task","startTime","totalTime","labels","view_history","rt","event","trial","time","trialtype","success","stimulus","key_press","stimType","arraySize","arrayFaces","arrayOutcomes","matchType","corrResp","arrayDur","targFace","targCol","targOutcome","trialType","corr","numBlurs"
"pavlovia","0","2","0.0-0.0","620bdd8ca922fc3f247f6c82","bdp_wmem","Sat Apr 08 2023 13:26:23 GMT-0400 (EDT)","535183","Match,No Match","","","","","","","","","","","","","","","","","","","","","",""
"instructions","1","2339","0.0-1.0","620bdd8ca922fc3f247f6c82","bdp_wmem","Sat Apr 08 2023 13:26:23 GMT-0400 (EDT)","535183","Match,No Match","[{""page_index"":0,""viewing_time"":2337}]","2337","","","","","","","","","","","","","","","","","","","",""
"","","","","620bdd8ca922fc3f247f6c82","bdp_wmem","Sat Apr 08 2023 13:26:23 GMT-0400 (EDT)","535183","Match,No Match","","","fullscreenenter","2","9225","fullscreenenter","","","","","","","","","","","","","","","",""
"fullscreen","2","10182","0.0-2.0","620bdd8ca922fc3f247f6c82","bdp_wmem","Sat Apr 08 2023 13:26:23 GMT-0400 (EDT)","535183","Match,No Match","","","","","","","true","","","","","","","","","","","","","","",""
"instructions","3","34918","0.0-4.0","620bdd8ca922fc3f247f6c82","bdp_wmem","Sat Apr 08 2023 13:26:23 GMT-0400 (EDT)","535183","Match,No Match","[{""page_index"":0,""viewing_time"":14221},{""page_index"":1,""viewing_time"":7579},{""page_index"":2,""viewing_time"":1037},{""page_index"":3,""viewing_time"":415},{""page_index"":4,""viewing_time"":1482}]","24734","","","","","","","","","","","","","","","","","","","",""
"html-keyboard-response","4","35420","0.0-5.0-1.0","620bdd8ca922fc3f247f6c82","bdp_wmem","Sat Apr 08 2023 13:26:23 GMT-0400 (EDT)","535183","Match,No Match","","null","","","","","","<div class='trialBorder'><div class='vertical-center'><img src='img/fixation2_sml.jpg'</img></div></div>","null","FIX","","","","","","","","","","","",""
"html-keyboard-response","5","38423","0.0-5.0-2.0","620bdd8ca922fc3f247f6c82","bdp_wmem","Sat Apr 08 2023 13:26:23 GMT-0400 (EDT)","535183","Match,No Match","","null","","","","","","<div class='trialBorder'><div class='vertical-center'><img style='vertical-align:center; align:center' src='img/fixation2_sml.jpg'></div><div class='arrayDiv2'><div class='tl'><img class='introPic' src='trustrating_stim/white_mw040.bmp'><br><font color='green'><strong>Share</strong></font></div><div class='tr'><img class='introPic' src='trustrating_stim/white_mw092.bmp'><br><font color='red'><strong>Keep</strong></font></div></div></div>","null","ARRAY","2","trustrating_stim/white_mw040.bmp,trustrating_stim/white_mw092.bmp","1,0","Match","e","3000","","","","","",""
"html-keyboard-response","6","42426","0.0-5.0-3.0","620bdd8ca922fc3f247f6c82","bdp_wmem","Sat Apr 08 2023 13:26:23 GMT-0400 (EDT)","535183","Match,No Match","","null","","","","","","<div class='trialBorder'><div class='vertical-center'><img src='img/fixation2_sml.jpg'</img></div></div>","null","DELAY","","","","","","","","","","","",""
"html-keyboard-response","7","43091","0.0-5.0-4.0","620bdd8ca922fc3f247f6c82","bdp_wmem","Sat Apr 08 2023 13:26:23 GMT-0400 (EDT)","535183","Match,No Match","","662","","","","","","<div class='trialBorder'><div class='targDiv'><div class='tc'><img class='introPic' src='trustrating_stim/white_mw092.bmp'><br><font color='red'><strong>Keep</strong></font></div></div><div class='respDiv'><div class='respDivL'>Match<br>(e)</div><div class='respDivR'>No Match<br>(i)</div></div></div>","e","TARGET","2","trustrating_stim/white_mw040.bmp,trustrating_stim/white_mw092.bmp","1,0","Match","e","3000","trustrating_stim/white_mw092.bmp","red","Keep","PRACTICE","1",""
"html-keyboard-response","8","43594","0.0-5.0-5.0","620bdd8ca922fc3f247f6c82","bdp_wmem","Sat Apr 08 2023 13:26:23 GMT-0400 (EDT)","535183","Match,No Match","","null","","","","","","<div class='trialBorder'><div class='vertical-center'><img src='img/correct.jpg'></div><div class='respDiv'><div class='respDivL'><font style='color:orange'>Match<br>(e)</font></div><div class='respDivR'>No Match<br>(i)</div></div></div>","null","FEEDBACK","","","","","","","","","","","",""
"html-keyboard-response","9","44096","0.0-5.0-1.1","620bdd8ca922fc3f247f6c82","bdp_wmem","Sat Apr 08 2023 13:26:23 GMT-0400 (EDT)","535183","Match,No Match","","null","","","","","","<div class='trialBorder'><div class='vertical-center'><img src='img/fixation2_sml.jpg'</img></div></div>","null","FIX","","","","","","","","","","","",""
"html-keyboard-response","10","45599","0.0-5.0-2.1","620bdd8ca922fc3f247f6c82","bdp_wmem","Sat Apr 08 2023 13:26:23 GMT-0400 (EDT)","535183","Match,No Match","","null","","","","","","<div class='trialBorder'><div class='vertical-center'><img style='vertical-align:center; align:center' src='img/fixation2_sml.jpg'></div><div class='arrayDiv1'><div class='tc'><img class='introPic' src='trustrating_stim/white_mw091.bmp'><br><font color='red'><strong>Keep</strong></font></div></div></div>","null","ARRAY","1","trustrating_stim/white_mw091.bmp","0","noMatchFace","i","1500","","","","","",""
"html-keyboard-response","11","49602","0.0-5.0-3.1","620bdd8ca922fc3f247f6c82","bdp_wmem","Sat Apr 08 2023 13:26:23 GMT-0400 (EDT)","535183","Match,No Match","","null","","","","","","<div class='trialBorder'><div class='vertical-center'><img src='img/fixation2_sml.jpg'</img></div></div>","null","DELAY","","","","","","","","","","","",""
"html-keyboard-response","12","49907","0.0-5.0-4.1","620bdd8ca922fc3f247f6c82","bdp_wmem","Sat Apr 08 2023 13:26:23 GMT-0400 (EDT)","535183","Match,No Match","","304","","","","","","<div class='trialBorder'><div class='targDiv'><div class='tc'><img class='introPic' src='trustrating_stim/white_mw003.bmp'><br><font color='red'><strong>Keep</strong></font></div></div><div class='respDiv'><div class='respDivL'>Match<br>(e)</div><div class='respDivR'>No Match<br>(i)</div></div></div>","i","TARGET","1","trustrating_stim/white_mw091.bmp","0","noMatchFace","i","1500","trustrating_stim/white_mw003.bmp","red","Keep","PRACTICE","1",""
"html-keyboard-response","13","50410","0.0-5.0-5.1","620bdd8ca922fc3f247f6c82","bdp_wmem","Sat Apr 08 2023 13:26:23 GMT-0400 (EDT)","535183","Match,No Match","","null","","","","","","<div class='trialBorder'><div class='vertical-center'><img src='img/correct.jpg'></div><div class='respDiv'><div class='respDivL'>Match<br>(e)</div><div class='respDivR'><font style='color:orange'>No Match<br>(i)</font></div></div></div>","null","FEEDBACK","","","","","","","","","","","",""
"html-keyboard-response","14","50911","0.0-5.0-1.2","620bdd8ca922fc3f247f6c82","bdp_wmem","Sat Apr 08 2023 13:26:23 GMT-0400 (EDT)","535183","Match,No Match","","null","","","","","","<div class='trialBorder'><div class='vertical-center'><img src='img/fixation2_sml.jpg'</img></div></div>","null","FIX","","","","","","","","","","","",""
"html-keyboard-response","15","55415","0.0-5.0-2.2","620bdd8ca922fc3f247f6c82","bdp_wmem","Sat Apr 08 2023 13:26:23 GMT-0400 (EDT)","535183","Match,No Match","","null","","","","","","<div class='trialBorder'><div class='vertical-center'><img style='vertical-align:center; align:center' src='img/fixation2_sml.jpg'></div><div class='arrayDiv3'><div class='tl'><img class='introPic' src='trustrating_stim/white_mw070.bmp'><br><font color='green'><strong>Share</strong></font></div><div class='tc'><img class='introPic' src='trustrating_stim/white_mw038.bmp'><br><font color='green'><strong>Share</strong></font></div><div class='tr'><img class='introPic' src='trustrating_stim/white_mw091.bmp'><br><font color='red'><strong>Keep</strong></font></div></div></div>","null","ARRAY","3","trustrating_stim/white_mw070.bmp,trustrating_stim/white_mw038.bmp,trustrating_stim/white_mw091.bmp","1,1,0","noMatchOutcome","i","4500","","","","","",""
"html-keyboard-response","16","59417","0.0-5.0-3.2","620bdd8ca922fc3f247f6c82","bdp_wmem","Sat Apr 08 2023 13:26:23 GMT-0400 (EDT)","535183","Match,No Match","","null","","","","","","<div class='trialBorder'><div class='vertical-center'><img src='img/fixation2_sml.jpg'</img></div></div>","null","DELAY","","","","","","","","","","","",""
"html-keyboard-response","17","60395","0.0-5.0-4.2","620bdd8ca922fc3f247f6c82","bdp_wmem","Sat Apr 08 2023 13:26:23 GMT-0400 (EDT)","535183","Match,No Match","","976","","","","","","<div class='trialBorder'><div class='targDiv'><div class='tc'><img class='introPic' src='trustrating_stim/white_mw091.bmp'><br><font color='green'><strong>Share</strong></font></div></div><div class='respDiv'><div class='respDivL'>Match<br>(e)</div><div class='respDivR'>No Match<br>(i)</div></div></div>","i","TARGET","3","trustrating_stim/white_mw070.bmp,trustrating_stim/white_mw038.bmp,trustrating_stim/white_mw091.bmp","1,1,0","noMatchOutcome","i","4500","trustrating_stim/white_mw091.bmp","green","Share","PRACTICE","1",""
"html-keyboard-response","18","60897","0.0-5.0-5.2","620bdd8ca922fc3f247f6c82","bdp_wmem","Sat Apr 08 2023 13:26:23 GMT-0400 (EDT)","535183","Match,No Match","","null","","","","","","<div class='trialBorder'><div class='vertical-center'><img src='img/correct.jpg'></div><div class='respDiv'><div class='respDivL'>Match<br>(e)</div><div class='respDivR'><font style='color:orange'>No Match<br>(i)</font></div></div></div>","null","FEEDBACK","","","","","","","","","","","",""
"html-keyboard-response","19","61400","0.0-5.0-1.3","620bdd8ca922fc3f247f6c82","bdp_wmem","Sat Apr 08 2023 13:26:23 GMT-0400 (EDT)","535183","Match,No Match","","null","","","","","","<div class='trialBorder'><div class='vertical-center'><img src='img/fixation2_sml.jpg'</img></div></div>","null","FIX","","","","","","","","","","","",""
"html-keyboard-response","20","64403","0.0-5.0-2.3","620bdd8ca922fc3f247f6c82","bdp_wmem","Sat Apr 08 2023 13:26:23 GMT-0400 (EDT)","535183","Match,No Match","","null","","","","","","<div class='trialBorder'><div class='vertical-center'><img style='vertical-align:center; align:center' src='img/fixation2_sml.jpg'></div><div class='arrayDiv2'><div class='tl'><img class='introPic' src='trustrating_stim/white_mw092.bmp'><br><font color='green'><strong>Share</strong></font></div><div class='tr'><img class='introPic' src='trustrating_stim/white_mw091.bmp'><br><font color='red'><strong>Keep</strong></font></div></div></div>","null","ARRAY","2","trustrating_stim/white_mw092.bmp,trustrating_stim/white_mw091.bmp","1,0","noMatchOutcome","i","3000","","","","","",""
"html-keyboard-response","21","68405","0.0-5.0-3.3","620bdd8ca922fc3f247f6c82","bdp_wmem","Sat Apr 08 2023 13:26:23 GMT-0400 (EDT)","535183","Match,No Match","","null","","","","","","<div class='trialBorder'><div class='vertical-center'><img src='img/fixation2_sml.jpg'</img></div></div>","null","DELAY","","","","","","","","","","","",""
"html-keyboard-response","22","69450","0.0-5.0-4.3","620bdd8ca922fc3f247f6c82","bdp_wmem","Sat Apr 08 2023 13:26:23 GMT-0400 (EDT)","535183","Match,No Match","","1039","","","","","","<div class='trialBorder'><div class='targDiv'><div class='tc'><img class='introPic' src='trustrating_stim/white_mw092.bmp'><br><font color='red'><strong>Keep</strong></font></div></div><div class='respDiv'><div class='respDivL'>Match<br>(e)</div><div class='respDivR'>No Match<br>(i)</div></div></div>","e","TARGET","2","trustrating_stim/white_mw092.bmp,trustrating_stim/white_mw091.bmp","1,0","noMatchOutcome","i","3000","trustrating_stim/white_mw092.bmp","red","Keep","PRACTICE","0",""
"html-keyboard-response","23","69953","0.0-5.0-5.3","620bdd8ca922fc3f247f6c82","bdp_wmem","Sat Apr 08 2023 13:26:23 GMT-0400 (EDT)","535183","Match,No Match","","null","","","","","","<div class='trialBorder'><div class='vertical-center'><img src='img/error.jpg'></div><div class='respDiv'><div class='respDivL'><font style='color:orange'>Match<br>(e)</font></div><div class='respDivR'>No Match<br>(i)</div></div></div>","null","FEEDBACK","","","","","","","","","","","",""
"html-keyboard-response","24","70455","0.0-5.0-1.4","620bdd8ca922fc3f247f6c82","bdp_wmem","Sat Apr 08 2023 13:26:23 GMT-0400 (EDT)","535183","Match,No Match","","null","","","","","","<div class='trialBorder'><div class='vertical-center'><img src='img/fixation2_sml.jpg'</img></div></div>","null","FIX","","","","","","","","","","","",""
"html-keyboard-response","25","74958","0.0-5.0-2.4","620bdd8ca922fc3f247f6c82","bdp_wmem","Sat Apr 08 2023 13:26:23 GMT-0400 (EDT)","535183","Match,No Match","","null","","","","","","<div class='trialBorder'><div class='vertical-center'><img style='vertical-align:center; align:center' src='img/fixation2_sml.jpg'></div><div class='arrayDiv3'><div class='tl'><img class='introPic' src='trustrating_stim/white_mw091.bmp'><br><font color='red'><strong>Keep</strong></font></div><div class='tc'><img class='introPic' src='trustrating_stim/white_mw012.bmp'><br><font color='green'><strong>Share</strong></font></div><div class='tr'><img class='introPic' src='trustrating_stim/white_mw013.bmp'><br><font color='red'><strong>Keep</strong></font></div></div></div>","null","ARRAY","3","trustrating_stim/white_mw091.bmp,trustrating_stim/white_mw012.bmp,trustrating_stim/white_mw013.bmp","0,1,0","Match","e","4500","","","","","",""
"html-keyboard-response","26","78960","0.0-5.0-3.4","620bdd8ca922fc3f247f6c82","bdp_wmem","Sat Apr 08 2023 13:26:23 GMT-0400 (EDT)","535183","Match,No Match","","null","","","","","","<div class='trialBorder'><div class='vertical-center'><img src='img/fixation2_sml.jpg'</img></div></div>","null","DELAY","","","","","","","","","","","",""
"html-keyboard-response","27","79620","0.0-5.0-4.4","620bdd8ca922fc3f247f6c82","bdp_wmem","Sat Apr 08 2023 13:26:23 GMT-0400 (EDT)","535183","Match,No Match","","658","","","","","","<div class='trialBorder'><div class='targDiv'><div class='tc'><img class='introPic' src='trustrating_stim/white_mw013.bmp'><br><font color='red'><strong>Keep</strong></font></div></div><div class='respDiv'><div class='respDivL'>Match<br>(e)</div><div class='respDivR'>No Match<br>(i)</div></div></div>","e","TARGET","3","trustrating_stim/white_mw091.bmp,trustrating_stim/white_mw012.bmp,trustrating_stim/white_mw013.bmp","0,1,0","Match","e","4500","trustrating_stim/white_mw013.bmp","red","Keep","PRACTICE","1",""
"html-keyboard-response","28","80122","0.0-5.0-5.4","620bdd8ca922fc3f247f6c82","bdp_wmem","Sat Apr 08 2023 13:26:23 GMT-0400 (EDT)","535183","Match,No Match","","null","","","","","","<div class='trialBorder'><div class='vertical-center'><img src='img/correct.jpg'></div><div class='respDiv'><div class='respDivL'><font style='color:orange'>Match<br>(e)</font></div><div class='respDivR'>No Match<br>(i)</div></div></div>","null","FEEDBACK","","","","","","","","","","","",""
"html-keyboard-response","29","80624","0.0-5.0-1.5","620bdd8ca922fc3f247f6c82","bdp_wmem","Sat Apr 08 2023 13:26:23 GMT-0400 (EDT)","535183","Match,No Match","","null","","","","","","<div class='trialBorder'><div class='vertical-center'><img src='img/fixation2_sml.jpg'</img></div></div>","null","FIX","","","","","","","","","","","",""
"html-keyboard-response","30","82127","0.0-5.0-2.5","620bdd8ca922fc3f247f6c82","bdp_wmem","Sat Apr 08 2023 13:26:23 GMT-0400 (EDT)","535183","Match,No Match","","null","","","","","","<div class='trialBorder'><div class='vertical-center'><img style='vertical-align:center; align:center' src='img/fixation2_sml.jpg'></div><div class='arrayDiv1'><div class='tc'><img class='introPic' src='trustrating_stim/white_mw012.bmp'><br><font color='red'><strong>Keep</strong></font></div></div></div>","null","ARRAY","1","trustrating_stim/white_mw012.bmp","0","Match","e","1500","","","","","",""
"html-keyboard-response","31","86129","0.0-5.0-3.5","620bdd8ca922fc3f247f6c82","bdp_wmem","Sat Apr 08 2023 13:26:23 GMT-0400 (EDT)","535183","Match,No Match","","null","","","","","","<div class='trialBorder'><div class='vertical-center'><img src='img/fixation2_sml.jpg'</img></div></div>","null","DELAY","","","","","","","","","","","",""
"html-keyboard-response","32","87418","0.0-5.0-4.5","620bdd8ca922fc3f247f6c82","bdp_wmem","Sat Apr 08 2023 13:26:23 GMT-0400 (EDT)","535183","Match,No Match","","1287","","","","","","<div class='trialBorder'><div class='targDiv'><div class='tc'><img class='introPic' src='trustrating_stim/white_mw012.bmp'><br><font color='red'><strong>Keep</strong></font></div></div><div class='respDiv'><div class='respDivL'>Match<br>(e)</div><div class='respDivR'>No Match<br>(i)</div></div></div>","i","TARGET","1","trustrating_stim/white_mw012.bmp","0","Match","e","1500","trustrating_stim/white_mw012.bmp","red","Keep","PRACTICE","0",""
"html-keyboard-response","33","87921","0.0-5.0-5.5","620bdd8ca922fc3f247f6c82","bdp_wmem","Sat Apr 08 2023 13:26:23 GMT-0400 (EDT)","535183","Match,No Match","","null","","","","","","<div class='trialBorder'><div class='vertical-center'><img src='img/error.jpg'></div><div class='respDiv'><div class='respDivL'>Match<br>(e)</div><div class='respDivR'><font style='color:orange'>No Match<br>(i)</font></div></div></div>","null","FEEDBACK","","","","","","","","","","","",""
"instructions","34","90824","0.0-6.0","620bdd8ca922fc3f247f6c82","bdp_wmem","Sat Apr 08 2023 13:26:23 GMT-0400 (EDT)","535183","Match,No Match","[{""page_index"":0,""viewing_time"":2903}]","2903","","","","","","","","","","","","","","","","","","","",""
"html-keyboard-response","35","91326","0.0-7.0-1.0","620bdd8ca922fc3f247f6c82","bdp_wmem","Sat Apr 08 2023 13:26:23 GMT-0400 (EDT)","535183","Match,No Match","","null","","","","","","<div class='trialBorder'><div class='vertical-center'><img src='img/fixation2_sml.jpg'</img></div></div>","null","FIX","","","","","","","","","","","",""
"html-keyboard-response","36","94328","0.0-7.0-2.0","620bdd8ca922fc3f247f6c82","bdp_wmem","Sat Apr 08 2023 13:26:23 GMT-0400 (EDT)","535183","Match,No Match","","null","","","","","","<div class='trialBorder'><div class='vertical-center'><img style='vertical-align:center; align:center' src='img/fixation2_sml.jpg'></div><div class='arrayDiv2'><div class='tl'><img class='introPic' src='trustrating_stim/white_mw092.bmp'><br><font color='green'><strong>Share</strong></font></div><div class='tr'><img class='introPic' src='trustrating_stim/white_mw078.bmp'><br><font color='red'><strong>Keep</strong></font></div></div></div>","null","ARRAY","2","trustrating_stim/white_mw092.bmp,trustrating_stim/white_mw078.bmp","1,0","Match","e","3000","","","","","",""
"html-keyboard-response","37","98331","0.0-7.0-3.0","620bdd8ca922fc3f247f6c82","bdp_wmem","Sat Apr 08 2023 13:26:23 GMT-0400 (EDT)","535183","Match,No Match","","null","","","","","","<div class='trialBorder'><div class='vertical-center'><img src='img/fixation2_sml.jpg'</img></div></div>","null","DELAY","","","","","","","","","","","",""
"html-keyboard-response","38","100636","0.0-7.0-4.0","620bdd8ca922fc3f247f6c82","bdp_wmem","Sat Apr 08 2023 13:26:23 GMT-0400 (EDT)","535183","Match,No Match","","2304","","","","","","<div class='trialBorder'><div class='targDiv'><div class='tc'><img class='introPic' src='trustrating_stim/white_mw092.bmp'><br><font color='green'><strong>Share</strong></font></div></div><div class='respDiv'><div class='respDivL'>Match<br>(e)</div><div class='respDivR'>No Match<br>(i)</div></div></div>","e","TARGET","2","trustrating_stim/white_mw092.bmp,trustrating_stim/white_mw078.bmp","1,0","Match","e","3000","trustrating_stim/white_mw092.bmp","green","Share","REAL","1",""
"html-keyboard-response","39","101139","0.0-7.0-5.0","620bdd8ca922fc3f247f6c82","bdp_wmem","Sat Apr 08 2023 13:26:23 GMT-0400 (EDT)","535183","Match,No Match","","null","","","","","","<div class='trialBorder'><div class='vertical-center'><img src='img/correct.jpg'></div><div class='respDiv'><div class='respDivL'><font style='color:orange'>Match<br>(e)</font></div><div class='respDivR'>No Match<br>(i)</div></div></div>","null","FEEDBACK","","","","","","","","","","","",""
"html-keyboard-response","40","101641","0.0-7.0-1.1","620bdd8ca922fc3f247f6c82","bdp_wmem","Sat Apr 08 2023 13:26:23 GMT-0400 (EDT)","535183","Match,No Match","","null","","","","","","<div class='trialBorder'><div class='vertical-center'><img src='img/fixation2_sml.jpg'</img></div></div>","null","FIX","","","","","","","","","","","",""
"html-keyboard-response","41","103143","0.0-7.0-2.1","620bdd8ca922fc3f247f6c82","bdp_wmem","Sat Apr 08 2023 13:26:23 GMT-0400 (EDT)","535183","Match,No Match","","null","","","","","","<div class='trialBorder'><div class='vertical-center'><img style='vertical-align:center; align:center' src='img/fixation2_sml.jpg'></div><div class='arrayDiv1'><div class='tc'><img class='introPic' src='trustrating_stim/white_mw012.bmp'><br><font color='red'><strong>Keep</strong></font></div></div></div>","null","ARRAY","1","trustrating_stim/white_mw012.bmp","0","noMatchFace","i","1500","","","","","",""
"html-keyboard-response","42","107145","0.0-7.0-3.1","620bdd8ca922fc3f247f6c82","bdp_wmem","Sat Apr 08 2023 13:26:23 GMT-0400 (EDT)","535183","Match,No Match","","null","","","","","","<div class='trialBorder'><div class='vertical-center'><img src='img/fixation2_sml.jpg'</img></div></div>","null","DELAY","","","","","","","","","","","",""
"html-keyboard-response","43","108375","0.0-7.0-4.1","620bdd8ca922fc3f247f6c82","bdp_wmem","Sat Apr 08 2023 13:26:23 GMT-0400 (EDT)","535183","Match,No Match","","1229","","","","","","<div class='trialBorder'><div class='targDiv'><div class='tc'><img class='introPic' src='trustrating_stim/white_mw038.bmp'><br><font color='red'><strong>Keep</strong></font></div></div><div class='respDiv'><div class='respDivL'>Match<br>(e)</div><div class='respDivR'>No Match<br>(i)</div></div></div>","i","TARGET","1","trustrating_stim/white_mw012.bmp","0","noMatchFace","i","1500","trustrating_stim/white_mw038.bmp","red","Keep","REAL","1",""
"html-keyboard-response","44","108877","0.0-7.0-5.1","620bdd8ca922fc3f247f6c82","bdp_wmem","Sat Apr 08 2023 13:26:23 GMT-0400 (EDT)","535183","Match,No Match","","null","","","","","","<div class='trialBorder'><div class='vertical-center'><img src='img/correct.jpg'></div><div class='respDiv'><div class='respDivL'>Match<br>(e)</div><div class='respDivR'><font style='color:orange'>No Match<br>(i)</font></div></div></div>","null","FEEDBACK","","","","","","","","","","","",""
"html-keyboard-response","45","109379","0.0-7.0-1.2","620bdd8ca922fc3f247f6c82","bdp_wmem","Sat Apr 08 2023 13:26:23 GMT-0400 (EDT)","535183","Match,No Match","","null","","","","","","<div class='trialBorder'><div class='vertical-center'><img src='img/fixation2_sml.jpg'</img></div></div>","null","FIX","","","","","","","","","","","",""
"html-keyboard-response","46","112382","0.0-7.0-2.2","620bdd8ca922fc3f247f6c82","bdp_wmem","Sat Apr 08 2023 13:26:23 GMT-0400 (EDT)","535183","Match,No Match","","null","","","","","","<div class='trialBorder'><div class='vertical-center'><img style='vertical-align:center; align:center' src='img/fixation2_sml.jpg'></div><div class='arrayDiv2'><div class='tl'><img class='introPic' src='trustrating_stim/white_mw013.bmp'><br><font color='green'><strong>Share</strong></font></div><div class='tr'><img class='introPic' src='trustrating_stim/white_mw091.bmp'><br><font color='red'><strong>Keep</strong></font></div></div></div>","null","ARRAY","2","trustrating_stim/white_mw013.bmp,trustrating_stim/white_mw091.bmp","1,0","noMatchFace","i","3000","","","","","",""
"html-keyboard-response","47","116384","0.0-7.0-3.2","620bdd8ca922fc3f247f6c82","bdp_wmem","Sat Apr 08 2023 13:26:23 GMT-0400 (EDT)","535183","Match,No Match","","null","","","","","","<div class='trialBorder'><div class='vertical-center'><img src='img/fixation2_sml.jpg'</img></div></div>","null","DELAY","","","","","","","","","","","",""
"html-keyboard-response","48","117447","0.0-7.0-4.2","620bdd8ca922fc3f247f6c82","bdp_wmem","Sat Apr 08 2023 13:26:23 GMT-0400 (EDT)","535183","Match,No Match","","1062","","","","","","<div class='trialBorder'><div class='targDiv'><div class='tc'><img class='introPic' src='trustrating_stim/white_mw042.bmp'><br><font color='green'><strong>Share</strong></font></div></div><div class='respDiv'><div class='respDivL'>Match<br>(e)</div><div class='respDivR'>No Match<br>(i)</div></div></div>","e","TARGET","2","trustrating_stim/white_mw013.bmp,trustrating_stim/white_mw091.bmp","1,0","noMatchFace","i","3000","trustrating_stim/white_mw042.bmp","green","Share","REAL","0",""
"html-keyboard-response","49","117950","0.0-7.0-5.2","620bdd8ca922fc3f247f6c82","bdp_wmem","Sat Apr 08 2023 13:26:23 GMT-0400 (EDT)","535183","Match,No Match","","null","","","","","","<div class='trialBorder'><div class='vertical-center'><img src='img/error.jpg'></div><div class='respDiv'><div class='respDivL'><font style='color:orange'>Match<br>(e)</font></div><div class='respDivR'>No Match<br>(i)</div></div></div>","null","FEEDBACK","","","","","","","","","","","",""
"html-keyboard-response","50","118452","0.0-7.0-1.3","620bdd8ca922fc3f247f6c82","bdp_wmem","Sat Apr 08 2023 13:26:23 GMT-0400 (EDT)","535183","Match,No Match","","null","","","","","","<div class='trialBorder'><div class='vertical-center'><img src='img/fixation2_sml.jpg'</img></div></div>","null","FIX","","","","","","","","","","","",""
"html-keyboard-response","51","119954","0.0-7.0-2.3","620bdd8ca922fc3f247f6c82","bdp_wmem","Sat Apr 08 2023 13:26:23 GMT-0400 (EDT)","535183","Match,No Match","","null","","","","","","<div class='trialBorder'><div class='vertical-center'><img style='vertical-align:center; align:center' src='img/fixation2_sml.jpg'></div><div class='arrayDiv1'><div class='tc'><img class='introPic' src='trustrating_stim/white_mw078.bmp'><br><font color='green'><strong>Share</strong></font></div></div></div>","null","ARRAY","1","trustrating_stim/white_mw078.bmp","1","Match","e","1500","","","","","",""
"html-keyboard-response","52","123956","0.0-7.0-3.3","620bdd8ca922fc3f247f6c82","bdp_wmem","Sat Apr 08 2023 13:26:23 GMT-0400 (EDT)","535183","Match,No Match","","null","","","","","","<div class='trialBorder'><div class='vertical-center'><img src='img/fixation2_sml.jpg'</img></div></div>","null","DELAY","","","","","","","","","","","",""
"html-keyboard-response","53","124941","0.0-7.0-4.3","620bdd8ca922fc3f247f6c82","bdp_wmem","Sat Apr 08 2023 13:26:23 GMT-0400 (EDT)","535183","Match,No Match","","983","","","","","","<div class='trialBorder'><div class='targDiv'><div class='tc'><img class='introPic' src='trustrating_stim/white_mw078.bmp'><br><font color='green'><strong>Share</strong></font></div></div><div class='respDiv'><div class='respDivL'>Match<br>(e)</div><div class='respDivR'>No Match<br>(i)</div></div></div>","i","TARGET","1","trustrating_stim/white_mw078.bmp","1","Match","e","1500","trustrating_stim/white_mw078.bmp","green","Share","REAL","0",""
"html-keyboard-response","54","125444","0.0-7.0-5.3","620bdd8ca922fc3f247f6c82","bdp_wmem","Sat Apr 08 2023 13:26:23 GMT-0400 (EDT)","535183","Match,No Match","","null","","","","","","<div class='trialBorder'><div class='vertical-center'><img src='img/error.jpg'></div><div class='respDiv'><div class='respDivL'>Match<br>(e)</div><div class='respDivR'><font style='color:orange'>No Match<br>(i)</font></div></div></div>","null","FEEDBACK","","","","","","","","","","","",""
"html-keyboard-response","55","125945","0.0-7.0-1.4","620bdd8ca922fc3f247f6c82","bdp_wmem","Sat Apr 08 2023 13:26:23 GMT-0400 (EDT)","535183","Match,No Match","","null","","","","","","<div class='trialBorder'><div class='vertical-center'><img src='img/fixation2_sml.jpg'</img></div></div>","null","FIX","","","","","","","","","","","",""
"html-keyboard-response","56","127447","0.0-7.0-2.4","620bdd8ca922fc3f247f6c82","bdp_wmem","Sat Apr 08 2023 13:26:23 GMT-0400 (EDT)","535183","Match,No Match","","null","","","","","","<div class='trialBorder'><div class='vertical-center'><img style='vertical-align:center; align:center' src='img/fixation2_sml.jpg'></div><div class='arrayDiv1'><div class='tc'><img class='introPic' src='trustrating_stim/white_mw040.bmp'><br><font color='green'><strong>Share</strong></font></div></div></div>","null","ARRAY","1","trustrating_stim/white_mw040.bmp","1","Match","e","1500","","","","","",""
"html-keyboard-response","57","131449","0.0-7.0-3.4","620bdd8ca922fc3f247f6c82","bdp_wmem","Sat Apr 08 2023 13:26:23 GMT-0400 (EDT)","535183","Match,No Match","","null","","","","","","<div class='trialBorder'><div class='vertical-center'><img src='img/fixation2_sml.jpg'</img></div></div>","null","DELAY","","","","","","","","","","","",""
"html-keyboard-response","58","132096","0.0-7.0-4.4","620bdd8ca922fc3f247f6c82","bdp_wmem","Sat Apr 08 2023 13:26:23 GMT-0400 (EDT)","535183","Match,No Match","","646","","","","","","<div class='trialBorder'><div class='targDiv'><div class='tc'><img class='introPic' src='trustrating_stim/white_mw040.bmp'><br><font color='green'><strong>Share</strong></font></div></div><div class='respDiv'><div class='respDivL'>Match<br>(e)</div><div class='respDivR'>No Match<br>(i)</div></div></div>","e","TARGET","1","trustrating_stim/white_mw040.bmp","1","Match","e","1500","trustrating_stim/white_mw040.bmp","green","Share","REAL","1",""
"html-keyboard-response","59","132598","0.0-7.0-5.4","620bdd8ca922fc3f247f6c82","bdp_wmem","Sat Apr 08 2023 13:26:23 GMT-0400 (EDT)","535183","Match,No Match","","null","","","","","","<div class='trialBorder'><div class='vertical-center'><img src='img/correct.jpg'></div><div class='respDiv'><div class='respDivL'><font style='color:orange'>Match<br>(e)</font></div><div class='respDivR'>No Match<br>(i)</div></div></div>","null","FEEDBACK","","","","","","","","","","","",""
"html-keyboard-response","60","133100","0.0-7.0-1.5","620bdd8ca922fc3f247f6c82","bdp_wmem","Sat Apr 08 2023 13:26:23 GMT-0400 (EDT)","535183","Match,No Match","","null","","","","","","<div class='trialBorder'><div class='vertical-center'><img src='img/fixation2_sml.jpg'</img></div></div>","null","FIX","","","","","","","","","","","",""
"html-keyboard-response","61","137603","0.0-7.0-2.5","620bdd8ca922fc3f247f6c82","bdp_wmem","Sat Apr 08 2023 13:26:23 GMT-0400 (EDT)","535183","Match,No Match","","null","","","","","","<div class='trialBorder'><div class='vertical-center'><img style='vertical-align:center; align:center' src='img/fixation2_sml.jpg'></div><div class='arrayDiv3'><div class='tl'><img class='introPic' src='trustrating_stim/white_mw013.bmp'><br><font color='red'><strong>Keep</strong></font></div><div class='tc'><img class='introPic' src='trustrating_stim/white_mw042.bmp'><br><font color='green'><strong>Share</strong></font></div><div class='tr'><img class='introPic' src='trustrating_stim/white_mw012.bmp'><br><font color='red'><strong>Keep</strong></font></div></div></div>","null","ARRAY","3","trustrating_stim/white_mw013.bmp,trustrating_stim/white_mw042.bmp,trustrating_stim/white_mw012.bmp","0,1,0","Match","e","4500","","","","","",""
"html-keyboard-response","62","141605","0.0-7.0-3.5","620bdd8ca922fc3f247f6c82","bdp_wmem","Sat Apr 08 2023 13:26:23 GMT-0400 (EDT)","535183","Match,No Match","","null","","","","","","<div class='trialBorder'><div class='vertical-center'><img src='img/fixation2_sml.jpg'</img></div></div>","null","DELAY","","","","","","","","","","","",""
"html-keyboard-response","63","142506","0.0-7.0-4.5","620bdd8ca922fc3f247f6c82","bdp_wmem","Sat Apr 08 2023 13:26:23 GMT-0400 (EDT)","535183","Match,No Match","","900","","","","","","<div class='trialBorder'><div class='targDiv'><div class='tc'><img class='introPic' src='trustrating_stim/white_mw013.bmp'><br><font color='red'><strong>Keep</strong></font></div></div><div class='respDiv'><div class='respDivL'>Match<br>(e)</div><div class='respDivR'>No Match<br>(i)</div></div></div>","i","TARGET","3","trustrating_stim/white_mw013.bmp,trustrating_stim/white_mw042.bmp,trustrating_stim/white_mw012.bmp","0,1,0","Match","e","4500","trustrating_stim/white_mw013.bmp","red","Keep","REAL","0",""
"html-keyboard-response","64","143008","0.0-7.0-5.5","620bdd8ca922fc3f247f6c82","bdp_wmem","Sat Apr 08 2023 13:26:23 GMT-0400 (EDT)","535183","Match,No Match","","null","","","","","","<div class='trialBorder'><div class='vertical-center'><img src='img/error.jpg'></div><div class='respDiv'><div class='respDivL'>Match<br>(e)</div><div class='respDivR'><font style='color:orange'>No Match<br>(i)</font></div></div></div>","null","FEEDBACK","","","","","","","","","","","",""
"html-keyboard-response","65","143510","0.0-7.0-1.6","620bdd8ca922fc3f247f6c82","bdp_wmem","Sat Apr 08 2023 13:26:23 GMT-0400 (EDT)","535183","Match,No Match","","null","","","","","","<div class='trialBorder'><div class='vertical-center'><img src='img/fixation2_sml.jpg'</img></div></div>","null","FIX","","","","","","","","","","","",""
"html-keyboard-response","66","148013","0.0-7.0-2.6","620bdd8ca922fc3f247f6c82","bdp_wmem","Sat Apr 08 2023 13:26:23 GMT-0400 (EDT)","535183","Match,No Match","","null","","","","","","<div class='trialBorder'><div class='vertical-center'><img style='vertical-align:center; align:center' src='img/fixation2_sml.jpg'></div><div class='arrayDiv3'><div class='tl'><img class='introPic' src='trustrating_stim/white_mw012.bmp'><br><font color='red'><strong>Keep</strong></font></div><div class='tc'><img class='introPic' src='trustrating_stim/white_mw092.bmp'><br><font color='red'><strong>Keep</strong></font></div><div class='tr'><img class='introPic' src='trustrating_stim/white_mw010.bmp'><br><font color='green'><strong>Share</strong></font></div></div></div>","null","ARRAY","3","trustrating_stim/white_mw012.bmp,trustrating_stim/white_mw092.bmp,trustrating_stim/white_mw010.bmp","0,0,1","Match","e","4500","","","","","",""
"html-keyboard-response","67","152015","0.0-7.0-3.6","620bdd8ca922fc3f247f6c82","bdp_wmem","Sat Apr 08 2023 13:26:23 GMT-0400 (EDT)","535183","Match,No Match","","null","","","","","","<div class='trialBorder'><div class='vertical-center'><img src='img/fixation2_sml.jpg'</img></div></div>","null","DELAY","","","","","","","","","","","",""
"html-keyboard-response","68","152662","0.0-7.0-4.6","620bdd8ca922fc3f247f6c82","bdp_wmem","Sat Apr 08 2023 13:26:23 GMT-0400 (EDT)","535183","Match,No Match","","646","","","","","","<div class='trialBorder'><div class='targDiv'><div class='tc'><img class='introPic' src='trustrating_stim/white_mw010.bmp'><br><font color='green'><strong>Share</strong></font></div></div><div class='respDiv'><div class='respDivL'>Match<br>(e)</div><div class='respDivR'>No Match<br>(i)</div></div></div>","e","TARGET","3","trustrating_stim/white_mw012.bmp,trustrating_stim/white_mw092.bmp,trustrating_stim/white_mw010.bmp","0,0,1","Match","e","4500","trustrating_stim/white_mw010.bmp","green","Share","REAL","1",""
"html-keyboard-response","69","153164","0.0-7.0-5.6","620bdd8ca922fc3f247f6c82","bdp_wmem","Sat Apr 08 2023 13:26:23 GMT-0400 (EDT)","535183","Match,No Match","","null","","","","","","<div class='trialBorder'><div class='vertical-center'><img src='img/correct.jpg'></div><div class='respDiv'><div class='respDivL'><font style='color:orange'>Match<br>(e)</font></div><div class='respDivR'>No Match<br>(i)</div></div></div>","null","FEEDBACK","","","","","","","","","","","",""
"html-keyboard-response","70","153667","0.0-7.0-1.7","620bdd8ca922fc3f247f6c82","bdp_wmem","Sat Apr 08 2023 13:26:23 GMT-0400 (EDT)","535183","Match,No Match","","null","","","","","","<div class='trialBorder'><div class='vertical-center'><img src='img/fixation2_sml.jpg'</img></div></div>","null","FIX","","","","","","","","","","","",""
"html-keyboard-response","71","156669","0.0-7.0-2.7","620bdd8ca922fc3f247f6c82","bdp_wmem","Sat Apr 08 2023 13:26:23 GMT-0400 (EDT)","535183","Match,No Match","","null","","","","","","<div class='trialBorder'><div class='vertical-center'><img style='vertical-align:center; align:center' src='img/fixation2_sml.jpg'></div><div class='arrayDiv2'><div class='tl'><img class='introPic' src='trustrating_stim/white_mw091.bmp'><br><font color='red'><strong>Keep</strong></font></div><div class='tr'><img class='introPic' src='trustrating_stim/white_mw003.bmp'><br><font color='green'><strong>Share</strong></font></div></div></div>","null","ARRAY","2","trustrating_stim/white_mw091.bmp,trustrating_stim/white_mw003.bmp","0,1","noMatchOutcome","i","3000","","","","","",""
"html-keyboard-response","72","160671","0.0-7.0-3.7","620bdd8ca922fc3f247f6c82","bdp_wmem","Sat Apr 08 2023 13:26:23 GMT-0400 (EDT)","535183","Match,No Match","","null","","","","","","<div class='trialBorder'><div class='vertical-center'><img src='img/fixation2_sml.jpg'</img></div></div>","null","DELAY","","","","","","","","","","","",""
"html-keyboard-response","73","161568","0.0-7.0-4.7","620bdd8ca922fc3f247f6c82","bdp_wmem","Sat Apr 08 2023 13:26:23 GMT-0400 (EDT)","535183","Match,No Match","","895","","","","","","<div class='trialBorder'><div class='targDiv'><div class='tc'><img class='introPic' src='trustrating_stim/white_mw091.bmp'><br><font color='green'><strong>Share</strong></font></div></div><div class='respDiv'><div class='respDivL'>Match<br>(e)</div><div class='respDivR'>No Match<br>(i)</div></div></div>","e","TARGET","2","trustrating_stim/white_mw091.bmp,trustrating_stim/white_mw003.bmp","0,1","noMatchOutcome","i","3000","trustrating_stim/white_mw091.bmp","green","Share","REAL","0",""
"html-keyboard-response","74","162070","0.0-7.0-5.7","620bdd8ca922fc3f247f6c82","bdp_wmem","Sat Apr 08 2023 13:26:23 GMT-0400 (EDT)","535183","Match,No Match","","null","","","","","","<div class='trialBorder'><div class='vertical-center'><img src='img/error.jpg'></div><div class='respDiv'><div class='respDivL'><font style='color:orange'>Match<br>(e)</font></div><div class='respDivR'>No Match<br>(i)</div></div></div>","null","FEEDBACK","","","","","","","","","","","",""
"html-keyboard-response","75","162572","0.0-7.0-1.8","620bdd8ca922fc3f247f6c82","bdp_wmem","Sat Apr 08 2023 13:26:23 GMT-0400 (EDT)","535183","Match,No Match","","null","","","","","","<div class='trialBorder'><div class='vertical-center'><img src='img/fixation2_sml.jpg'</img></div></div>","null","FIX","","","","","","","","","","","",""
"html-keyboard-response","76","165575","0.0-7.0-2.8","620bdd8ca922fc3f247f6c82","bdp_wmem","Sat Apr 08 2023 13:26:23 GMT-0400 (EDT)","535183","Match,No Match","","null","","","","","","<div class='trialBorder'><div class='vertical-center'><img style='vertical-align:center; align:center' src='img/fixation2_sml.jpg'></div><div class='arrayDiv2'><div class='tl'><img class='introPic' src='trustrating_stim/white_mw070.bmp'><br><font color='green'><strong>Share</strong></font></div><div class='tr'><img class='introPic' src='trustrating_stim/white_mw013.bmp'><br><font color='red'><strong>Keep</strong></font></div></div></div>","null","ARRAY","2","trustrating_stim/white_mw070.bmp,trustrating_stim/white_mw013.bmp","1,0","noMatchOutcome","i","3000","","","","","",""
"html-keyboard-response","77","169577","0.0-7.0-3.8","620bdd8ca922fc3f247f6c82","bdp_wmem","Sat Apr 08 2023 13:26:23 GMT-0400 (EDT)","535183","Match,No Match","","null","","","","","","<div class='trialBorder'><div class='vertical-center'><img src='img/fixation2_sml.jpg'</img></div></div>","null","DELAY","","","","","","","","","","","",""
"html-keyboard-response","78","170401","0.0-7.0-4.8","620bdd8ca922fc3f247f6c82","bdp_wmem","Sat Apr 08 2023 13:26:23 GMT-0400 (EDT)","535183","Match,No Match","","823","","","","","","<div class='trialBorder'><div class='targDiv'><div class='tc'><img class='introPic' src='trustrating_stim/white_mw070.bmp'><br><font color='red'><strong>Keep</strong></font></div></div><div class='respDiv'><div class='respDivL'>Match<br>(e)</div><div class='respDivR'>No Match<br>(i)</div></div></div>","i","TARGET","2","trustrating_stim/white_mw070.bmp,trustrating_stim/white_mw013.bmp","1,0","noMatchOutcome","i","3000","trustrating_stim/white_mw070.bmp","red","Keep","REAL","1",""
"html-keyboard-response","79","170903","0.0-7.0-5.8","620bdd8ca922fc3f247f6c82","bdp_wmem","Sat Apr 08 2023 13:26:23 GMT-0400 (EDT)","535183","Match,No Match","","null","","","","","","<div class='trialBorder'><div class='vertical-center'><img src='img/correct.jpg'></div><div class='respDiv'><div class='respDivL'>Match<br>(e)</div><div class='respDivR'><font style='color:orange'>No Match<br>(i)</font></div></div></div>","null","FEEDBACK","","","","","","","","","","","",""
"html-keyboard-response","80","171405","0.0-7.0-1.9","620bdd8ca922fc3f247f6c82","bdp_wmem","Sat Apr 08 2023 13:26:23 GMT-0400 (EDT)","535183","Match,No Match","","null","","","","","","<div class='trialBorder'><div class='vertical-center'><img src='img/fixation2_sml.jpg'</img></div></div>","null","FIX","","","","","","","","","","","",""
"html-keyboard-response","81","174407","0.0-7.0-2.9","620bdd8ca922fc3f247f6c82","bdp_wmem","Sat Apr 08 2023 13:26:23 GMT-0400 (EDT)","535183","Match,No Match","","null","","","","","","<div class='trialBorder'><div class='vertical-center'><img style='vertical-align:center; align:center' src='img/fixation2_sml.jpg'></div><div class='arrayDiv2'><div class='tl'><img class='introPic' src='trustrating_stim/white_mw040.bmp'><br><font color='red'><strong>Keep</strong></font></div><div class='tr'><img class='introPic' src='trustrating_stim/white_mw092.bmp'><br><font color='green'><strong>Share</strong></font></div></div></div>","null","ARRAY","2","trustrating_stim/white_mw040.bmp,trustrating_stim/white_mw092.bmp","0,1","Match","e","3000","","","","","",""
"html-keyboard-response","82","178409","0.0-7.0-3.9","620bdd8ca922fc3f247f6c82","bdp_wmem","Sat Apr 08 2023 13:26:23 GMT-0400 (EDT)","535183","Match,No Match","","null","","","","","","<div class='trialBorder'><div class='vertical-center'><img src='img/fixation2_sml.jpg'</img></div></div>","null","DELAY","","","","","","","","","","","",""
"html-keyboard-response","83","181598","0.0-7.0-4.9","620bdd8ca922fc3f247f6c82","bdp_wmem","Sat Apr 08 2023 13:26:23 GMT-0400 (EDT)","535183","Match,No Match","","3188","","","","","","<div class='trialBorder'><div class='targDiv'><div class='tc'><img class='introPic' src='trustrating_stim/white_mw092.bmp'><br><font color='green'><strong>Share</strong></font></div></div><div class='respDiv'><div class='respDivL'>Match<br>(e)</div><div class='respDivR'>No Match<br>(i)</div></div></div>","e","TARGET","2","trustrating_stim/white_mw040.bmp,trustrating_stim/white_mw092.bmp","0,1","Match","e","3000","trustrating_stim/white_mw092.bmp","green","Share","REAL","1",""
"html-keyboard-response","84","182100","0.0-7.0-5.9","620bdd8ca922fc3f247f6c82","bdp_wmem","Sat Apr 08 2023 13:26:23 GMT-0400 (EDT)","535183","Match,No Match","","null","","","","","","<div class='trialBorder'><div class='vertical-center'><img src='img/correct.jpg'></div><div class='respDiv'><div class='respDivL'><font style='color:orange'>Match<br>(e)</font></div><div class='respDivR'>No Match<br>(i)</div></div></div>","null","FEEDBACK","","","","","","","","","","","",""
"html-keyboard-response","85","182602","0.0-7.0-1.10","620bdd8ca922fc3f247f6c82","bdp_wmem","Sat Apr 08 2023 13:26:23 GMT-0400 (EDT)","535183","Match,No Match","","null","","","","","","<div class='trialBorder'><div class='vertical-center'><img src='img/fixation2_sml.jpg'</img></div></div>","null","FIX","","","","","","","","","","","",""
"html-keyboard-response","86","184104","0.0-7.0-2.10","620bdd8ca922fc3f247f6c82","bdp_wmem","Sat Apr 08 2023 13:26:23 GMT-0400 (EDT)","535183","Match,No Match","","null","","","","","","<div class='trialBorder'><div class='vertical-center'><img style='vertical-align:center; align:center' src='img/fixation2_sml.jpg'></div><div class='arrayDiv1'><div class='tc'><img class='introPic' src='trustrating_stim/white_mw012.bmp'><br><font color='red'><strong>Keep</strong></font></div></div></div>","null","ARRAY","1","trustrating_stim/white_mw012.bmp","0","Match","e","1500","","","","","",""
"html-keyboard-response","87","188107","0.0-7.0-3.10","620bdd8ca922fc3f247f6c82","bdp_wmem","Sat Apr 08 2023 13:26:23 GMT-0400 (EDT)","535183","Match,No Match","","null","","","","","","<div class='trialBorder'><div class='vertical-center'><img src='img/fixation2_sml.jpg'</img></div></div>","null","DELAY","","","","","","","","","","","",""
"html-keyboard-response","88","190273","0.0-7.0-4.10","620bdd8ca922fc3f247f6c82","bdp_wmem","Sat Apr 08 2023 13:26:23 GMT-0400 (EDT)","535183","Match,No Match","","2164","","","","","","<div class='trialBorder'><div class='targDiv'><div class='tc'><img class='introPic' src='trustrating_stim/white_mw012.bmp'><br><font color='red'><strong>Keep</strong></font></div></div><div class='respDiv'><div class='respDivL'>Match<br>(e)</div><div class='respDivR'>No Match<br>(i)</div></div></div>","i","TARGET","1","trustrating_stim/white_mw012.bmp","0","Match","e","1500","trustrating_stim/white_mw012.bmp","red","Keep","REAL","0",""
"html-keyboard-response","89","190775","0.0-7.0-5.10","620bdd8ca922fc3f247f6c82","bdp_wmem","Sat Apr 08 2023 13:26:23 GMT-0400 (EDT)","535183","Match,No Match","","null","","","","","","<div class='trialBorder'><div class='vertical-center'><img src='img/error.jpg'></div><div class='respDiv'><div class='respDivL'>Match<br>(e)</div><div class='respDivR'><font style='color:orange'>No Match<br>(i)</font></div></div></div>","null","FEEDBACK","","","","","","","","","","","",""
"html-keyboard-response","90","191277","0.0-7.0-1.11","620bdd8ca922fc3f247f6c82","bdp_wmem","Sat Apr 08 2023 13:26:23 GMT-0400 (EDT)","535183","Match,No Match","","null","","","","","","<div class='trialBorder'><div class='vertical-center'><img src='img/fixation2_sml.jpg'</img></div></div>","null","FIX","","","","","","","","","","","",""
"html-keyboard-response","91","195780","0.0-7.0-2.11","620bdd8ca922fc3f247f6c82","bdp_wmem","Sat Apr 08 2023 13:26:23 GMT-0400 (EDT)","535183","Match,No Match","","null","","","","","","<div class='trialBorder'><div class='vertical-center'><img style='vertical-align:center; align:center' src='img/fixation2_sml.jpg'></div><div class='arrayDiv3'><div class='tl'><img class='introPic' src='trustrating_stim/white_mw040.bmp'><br><font color='red'><strong>Keep</strong></font></div><div class='tc'><img class='introPic' src='trustrating_stim/white_mw070.bmp'><br><font color='red'><strong>Keep</strong></font></div><div class='tr'><img class='introPic' src='trustrating_stim/white_mw042.bmp'><br><font color='green'><strong>Share</strong></font></div></div></div>","null","ARRAY","3","trustrating_stim/white_mw040.bmp,trustrating_stim/white_mw070.bmp,trustrating_stim/white_mw042.bmp","0,0,1","noMatchFace","i","4500","","","","","",""
"html-keyboard-response","92","199782","0.0-7.0-3.11","620bdd8ca922fc3f247f6c82","bdp_wmem","Sat Apr 08 2023 13:26:23 GMT-0400 (EDT)","535183","Match,No Match","","null","","","","","","<div class='trialBorder'><div class='vertical-center'><img src='img/fixation2_sml.jpg'</img></div></div>","null","DELAY","","","","","","","","","","","",""
"html-keyboard-response","93","200742","0.0-7.0-4.11","620bdd8ca922fc3f247f6c82","bdp_wmem","Sat Apr 08 2023 13:26:23 GMT-0400 (EDT)","535183","Match,No Match","","959","","","","","","<div class='trialBorder'><div class='targDiv'><div class='tc'><img class='introPic' src='trustrating_stim/white_mw092.bmp'><br><font color='red'><strong>Keep</strong></font></div></div><div class='respDiv'><div class='respDivL'>Match<br>(e)</div><div class='respDivR'>No Match<br>(i)</div></div></div>","i","TARGET","3","trustrating_stim/white_mw040.bmp,trustrating_stim/white_mw070.bmp,trustrating_stim/white_mw042.bmp","0,0,1","noMatchFace","i","4500","trustrating_stim/white_mw092.bmp","red","Keep","REAL","1",""
"html-keyboard-response","94","201245","0.0-7.0-5.11","620bdd8ca922fc3f247f6c82","bdp_wmem","Sat Apr 08 2023 13:26:23 GMT-0400 (EDT)","535183","Match,No Match","","null","","","","","","<div class='trialBorder'><div class='vertical-center'><img src='img/correct.jpg'></div><div class='respDiv'><div class='respDivL'>Match<br>(e)</div><div class='respDivR'><font style='color:orange'>No Match<br>(i)</font></div></div></div>","null","FEEDBACK","","","","","","","","","","","",""
"html-keyboard-response","95","201747","0.0-7.0-1.12","620bdd8ca922fc3f247f6c82","bdp_wmem","Sat Apr 08 2023 13:26:23 GMT-0400 (EDT)","535183","Match,No Match","","null","","","","","","<div class='trialBorder'><div class='vertical-center'><img src='img/fixation2_sml.jpg'</img></div></div>","null","FIX","","","","","","","","","","","",""
"html-keyboard-response","96","203249","0.0-7.0-2.12","620bdd8ca922fc3f247f6c82","bdp_wmem","Sat Apr 08 2023 13:26:23 GMT-0400 (EDT)","535183","Match,No Match","","null","","","","","","<div class='trialBorder'><div class='vertical-center'><img style='vertical-align:center; align:center' src='img/fixation2_sml.jpg'></div><div class='arrayDiv1'><div class='tc'><img class='introPic' src='trustrating_stim/white_mw003.bmp'><br><font color='green'><strong>Share</strong></font></div></div></div>","null","ARRAY","1","trustrating_stim/white_mw003.bmp","1","Match","e","1500","","","","","",""
"html-keyboard-response","97","207251","0.0-7.0-3.12","620bdd8ca922fc3f247f6c82","bdp_wmem","Sat Apr 08 2023 13:26:23 GMT-0400 (EDT)","535183","Match,No Match","","null","","","","","","<div class='trialBorder'><div class='vertical-center'><img src='img/fixation2_sml.jpg'</img></div></div>","null","DELAY","","","","","","","","","","","",""
"html-keyboard-response","98","207931","0.0-7.0-4.12","620bdd8ca922fc3f247f6c82","bdp_wmem","Sat Apr 08 2023 13:26:23 GMT-0400 (EDT)","535183","Match,No Match","","678","","","","","","<div class='trialBorder'><div class='targDiv'><div class='tc'><img class='introPic' src='trustrating_stim/white_mw003.bmp'><br><font color='green'><strong>Share</strong></font></div></div><div class='respDiv'><div class='respDivL'>Match<br>(e)</div><div class='respDivR'>No Match<br>(i)</div></div></div>","i","TARGET","1","trustrating_stim/white_mw003.bmp","1","Match","e","1500","trustrating_stim/white_mw003.bmp","green","Share","REAL","0",""
"html-keyboard-response","99","208433","0.0-7.0-5.12","620bdd8ca922fc3f247f6c82","bdp_wmem","Sat Apr 08 2023 13:26:23 GMT-0400 (EDT)","535183","Match,No Match","","null","","","","","","<div class='trialBorder'><div class='vertical-center'><img src='img/error.jpg'></div><div class='respDiv'><div class='respDivL'>Match<br>(e)</div><div class='respDivR'><font style='color:orange'>No Match<br>(i)</font></div></div></div>","null","FEEDBACK","","","","","","","","","","","",""
"html-keyboard-response","100","208935","0.0-7.0-1.13","620bdd8ca922fc3f247f6c82","bdp_wmem","Sat Apr 08 2023 13:26:23 GMT-0400 (EDT)","535183","Match,No Match","","null","","","","","","<div class='trialBorder'><div class='vertical-center'><img src='img/fixation2_sml.jpg'</img></div></div>","null","FIX","","","","","","","","","","","",""
"html-keyboard-response","101","210437","0.0-7.0-2.13","620bdd8ca922fc3f247f6c82","bdp_wmem","Sat Apr 08 2023 13:26:23 GMT-0400 (EDT)","535183","Match,No Match","","null","","","","","","<div class='trialBorder'><div class='vertical-center'><img style='vertical-align:center; align:center' src='img/fixation2_sml.jpg'></div><div class='arrayDiv1'><div class='tc'><img class='introPic' src='trustrating_stim/white_mw038.bmp'><br><font color='green'><strong>Share</strong></font></div></div></div>","null","ARRAY","1","trustrating_stim/white_mw038.bmp","1","noMatchFace","i","1500","","","","","",""
"html-keyboard-response","102","214439","0.0-7.0-3.13","620bdd8ca922fc3f247f6c82","bdp_wmem","Sat Apr 08 2023 13:26:23 GMT-0400 (EDT)","535183","Match,No Match","","null","","","","","","<div class='trialBorder'><div class='vertical-center'><img src='img/fixation2_sml.jpg'</img></div></div>","null","DELAY","","","","","","","","","","","",""
"html-keyboard-response","103","215574","0.0-7.0-4.13","620bdd8ca922fc3f247f6c82","bdp_wmem","Sat Apr 08 2023 13:26:23 GMT-0400 (EDT)","535183","Match,No Match","","1134","","","","","","<div class='trialBorder'><div class='targDiv'><div class='tc'><img class='introPic' src='trustrating_stim/white_mw091.bmp'><br><font color='green'><strong>Share</strong></font></div></div><div class='respDiv'><div class='respDivL'>Match<br>(e)</div><div class='respDivR'>No Match<br>(i)</div></div></div>","e","TARGET","1","trustrating_stim/white_mw038.bmp","1","noMatchFace","i","1500","trustrating_stim/white_mw091.bmp","green","Share","REAL","0",""
"html-keyboard-response","104","216076","0.0-7.0-5.13","620bdd8ca922fc3f247f6c82","bdp_wmem","Sat Apr 08 2023 13:26:23 GMT-0400 (EDT)","535183","Match,No Match","","null","","","","","","<div class='trialBorder'><div class='vertical-center'><img src='img/error.jpg'></div><div class='respDiv'><div class='respDivL'><font style='color:orange'>Match<br>(e)</font></div><div class='respDivR'>No Match<br>(i)</div></div></div>","null","FEEDBACK","","","","","","","","","","","",""
"html-keyboard-response","105","216578","0.0-7.0-1.14","620bdd8ca922fc3f247f6c82","bdp_wmem","Sat Apr 08 2023 13:26:23 GMT-0400 (EDT)","535183","Match,No Match","","null","","","","","","<div class='trialBorder'><div class='vertical-center'><img src='img/fixation2_sml.jpg'</img></div></div>","null","FIX","","","","","","","","","","","",""
"html-keyboard-response","106","221081","0.0-7.0-2.14","620bdd8ca922fc3f247f6c82","bdp_wmem","Sat Apr 08 2023 13:26:23 GMT-0400 (EDT)","535183","Match,No Match","","null","","","","","","<div class='trialBorder'><div class='vertical-center'><img style='vertical-align:center; align:center' src='img/fixation2_sml.jpg'></div><div class='arrayDiv3'><div class='tl'><img class='introPic' src='trustrating_stim/white_mw085.bmp'><br><font color='red'><strong>Keep</strong></font></div><div class='tc'><img class='introPic' src='trustrating_stim/white_mw003.bmp'><br><font color='green'><strong>Share</strong></font></div><div class='tr'><img class='introPic' src='trustrating_stim/white_mw012.bmp'><br><font color='green'><strong>Share</strong></font></div></div></div>","null","ARRAY","3","trustrating_stim/white_mw085.bmp,trustrating_stim/white_mw003.bmp,trustrating_stim/white_mw012.bmp","0,1,1","Match","e","4500","","","","","",""
"html-keyboard-response","107","225083","0.0-7.0-3.14","620bdd8ca922fc3f247f6c82","bdp_wmem","Sat Apr 08 2023 13:26:23 GMT-0400 (EDT)","535183","Match,No Match","","null","","","","","","<div class='trialBorder'><div class='vertical-center'><img src='img/fixation2_sml.jpg'</img></div></div>","null","DELAY","","","","","","","","","","","",""
"html-keyboard-response","108","226291","0.0-7.0-4.14","620bdd8ca922fc3f247f6c82","bdp_wmem","Sat Apr 08 2023 13:26:23 GMT-0400 (EDT)","535183","Match,No Match","","1207","","","","","","<div class='trialBorder'><div class='targDiv'><div class='tc'><img class='introPic' src='trustrating_stim/white_mw085.bmp'><br><font color='red'><strong>Keep</strong></font></div></div><div class='respDiv'><div class='respDivL'>Match<br>(e)</div><div class='respDivR'>No Match<br>(i)</div></div></div>","e","TARGET","3","trustrating_stim/white_mw085.bmp,trustrating_stim/white_mw003.bmp,trustrating_stim/white_mw012.bmp","0,1,1","Match","e","4500","trustrating_stim/white_mw085.bmp","red","Keep","REAL","1",""
"html-keyboard-response","109","226794","0.0-7.0-5.14","620bdd8ca922fc3f247f6c82","bdp_wmem","Sat Apr 08 2023 13:26:23 GMT-0400 (EDT)","535183","Match,No Match","","null","","","","","","<div class='trialBorder'><div class='vertical-center'><img src='img/correct.jpg'></div><div class='respDiv'><div class='respDivL'><font style='color:orange'>Match<br>(e)</font></div><div class='respDivR'>No Match<br>(i)</div></div></div>","null","FEEDBACK","","","","","","","","","","","",""
"html-keyboard-response","110","227296","0.0-7.0-1.15","620bdd8ca922fc3f247f6c82","bdp_wmem","Sat Apr 08 2023 13:26:23 GMT-0400 (EDT)","535183","Match,No Match","","null","","","","","","<div class='trialBorder'><div class='vertical-center'><img src='img/fixation2_sml.jpg'</img></div></div>","null","FIX","","","","","","","","","","","",""
"html-keyboard-response","111","228798","0.0-7.0-2.15","620bdd8ca922fc3f247f6c82","bdp_wmem","Sat Apr 08 2023 13:26:23 GMT-0400 (EDT)","535183","Match,No Match","","null","","","","","","<div class='trialBorder'><div class='vertical-center'><img style='vertical-align:center; align:center' src='img/fixation2_sml.jpg'></div><div class='arrayDiv1'><div class='tc'><img class='introPic' src='trustrating_stim/white_mw078.bmp'><br><font color='green'><strong>Share</strong></font></div></div></div>","null","ARRAY","1","trustrating_stim/white_mw078.bmp","1","noMatchFace","i","1500","","","","","",""
"html-keyboard-response","112","232800","0.0-7.0-3.15","620bdd8ca922fc3f247f6c82","bdp_wmem","Sat Apr 08 2023 13:26:23 GMT-0400 (EDT)","535183","Match,No Match","","null","","","","","","<div class='trialBorder'><div class='vertical-center'><img src='img/fixation2_sml.jpg'</img></div></div>","null","DELAY","","","","","","","","","","","",""
"html-keyboard-response","113","233695","0.0-7.0-4.15","620bdd8ca922fc3f247f6c82","bdp_wmem","Sat Apr 08 2023 13:26:23 GMT-0400 (EDT)","535183","Match,No Match","","894","","","","","","<div class='trialBorder'><div class='targDiv'><div class='tc'><img class='introPic' src='trustrating_stim/white_mw070.bmp'><br><font color='green'><strong>Share</strong></font></div></div><div class='respDiv'><div class='respDivL'>Match<br>(e)</div><div class='respDivR'>No Match<br>(i)</div></div></div>","i","TARGET","1","trustrating_stim/white_mw078.bmp","1","noMatchFace","i","1500","trustrating_stim/white_mw070.bmp","green","Share","REAL","1",""
"html-keyboard-response","114","234198","0.0-7.0-5.15","620bdd8ca922fc3f247f6c82","bdp_wmem","Sat Apr 08 2023 13:26:23 GMT-0400 (EDT)","535183","Match,No Match","","null","","","","","","<div class='trialBorder'><div class='vertical-center'><img src='img/correct.jpg'></div><div class='respDiv'><div class='respDivL'>Match<br>(e)</div><div class='respDivR'><font style='color:orange'>No Match<br>(i)</font></div></div></div>","null","FEEDBACK","","","","","","","","","","","",""
"html-keyboard-response","115","234700","0.0-7.0-1.16","620bdd8ca922fc3f247f6c82","bdp_wmem","Sat Apr 08 2023 13:26:23 GMT-0400 (EDT)","535183","Match,No Match","","null","","","","","","<div class='trialBorder'><div class='vertical-center'><img src='img/fixation2_sml.jpg'</img></div></div>","null","FIX","","","","","","","","","","","",""
"html-keyboard-response","116","237701","0.0-7.0-2.16","620bdd8ca922fc3f247f6c82","bdp_wmem","Sat Apr 08 2023 13:26:23 GMT-0400 (EDT)","535183","Match,No Match","","null","","","","","","<div class='trialBorder'><div class='vertical-center'><img style='vertical-align:center; align:center' src='img/fixation2_sml.jpg'></div><div class='arrayDiv2'><div class='tl'><img class='introPic' src='trustrating_stim/white_mw003.bmp'><br><font color='red'><strong>Keep</strong></font></div><div class='tr'><img class='introPic' src='trustrating_stim/white_mw013.bmp'><br><font color='green'><strong>Share</strong></font></div></div></div>","null","ARRAY","2","trustrating_stim/white_mw003.bmp,trustrating_stim/white_mw013.bmp","0,1","noMatchFace","i","3000","","","","","",""
"html-keyboard-response","117","241703","0.0-7.0-3.16","620bdd8ca922fc3f247f6c82","bdp_wmem","Sat Apr 08 2023 13:26:23 GMT-0400 (EDT)","535183","Match,No Match","","null","","","","","","<div class='trialBorder'><div class='vertical-center'><img src='img/fixation2_sml.jpg'</img></div></div>","null","DELAY","","","","","","","","","","","",""
"html-keyboard-response","118","242585","0.0-7.0-4.16","620bdd8ca922fc3f247f6c82","bdp_wmem","Sat Apr 08 2023 13:26:23 GMT-0400 (EDT)","535183","Match,No Match","","881","","","","","","<div class='trialBorder'><div class='targDiv'><div class='tc'><img class='introPic' src='trustrating_stim/white_mw010.bmp'><br><font color='red'><strong>Keep</strong></font></div></div><div class='respDiv'><div class='respDivL'>Match<br>(e)</div><div class='respDivR'>No Match<br>(i)</div></div></div>","i","TARGET","2","trustrating_stim/white_mw003.bmp,trustrating_stim/white_mw013.bmp","0,1","noMatchFace","i","3000","trustrating_stim/white_mw010.bmp","red","Keep","REAL","1",""
"html-keyboard-response","119","243088","0.0-7.0-5.16","620bdd8ca922fc3f247f6c82","bdp_wmem","Sat Apr 08 2023 13:26:23 GMT-0400 (EDT)","535183","Match,No Match","","null","","","","","","<div class='trialBorder'><div class='vertical-center'><img src='img/correct.jpg'></div><div class='respDiv'><div class='respDivL'>Match<br>(e)</div><div class='respDivR'><font style='color:orange'>No Match<br>(i)</font></div></div></div>","null","FEEDBACK","","","","","","","","","","","",""
"html-keyboard-response","120","243590","0.0-7.0-1.17","620bdd8ca922fc3f247f6c82","bdp_wmem","Sat Apr 08 2023 13:26:23 GMT-0400 (EDT)","535183","Match,No Match","","null","","","","","","<div class='trialBorder'><div class='vertical-center'><img src='img/fixation2_sml.jpg'</img></div></div>","null","FIX","","","","","","","","","","","",""
"html-keyboard-response","121","248092","0.0-7.0-2.17","620bdd8ca922fc3f247f6c82","bdp_wmem","Sat Apr 08 2023 13:26:23 GMT-0400 (EDT)","535183","Match,No Match","","null","","","","","","<div class='trialBorder'><div class='vertical-center'><img style='vertical-align:center; align:center' src='img/fixation2_sml.jpg'></div><div class='arrayDiv3'><div class='tl'><img class='introPic' src='trustrating_stim/white_mw010.bmp'><br><font color='green'><strong>Share</strong></font></div><div class='tc'><img class='introPic' src='trustrating_stim/white_mw085.bmp'><br><font color='red'><strong>Keep</strong></font></div><div class='tr'><img class='introPic' src='trustrating_stim/white_mw091.bmp'><br><font color='green'><strong>Share</strong></font></div></div></div>","null","ARRAY","3","trustrating_stim/white_mw010.bmp,trustrating_stim/white_mw085.bmp,trustrating_stim/white_mw091.bmp","1,0,1","noMatchFace","i","4500","","","","","",""
"html-keyboard-response","122","252094","0.0-7.0-3.17","620bdd8ca922fc3f247f6c82","bdp_wmem","Sat Apr 08 2023 13:26:23 GMT-0400 (EDT)","535183","Match,No Match","","null","","","","","","<div class='trialBorder'><div class='vertical-center'><img src='img/fixation2_sml.jpg'</img></div></div>","null","DELAY","","","","","","","","","","","",""
"html-keyboard-response","123","252631","0.0-7.0-4.17","620bdd8ca922fc3f247f6c82","bdp_wmem","Sat Apr 08 2023 13:26:23 GMT-0400 (EDT)","535183","Match,No Match","","535","","","","","","<div class='trialBorder'><div class='targDiv'><div class='tc'><img class='introPic' src='trustrating_stim/white_mw040.bmp'><br><font color='red'><strong>Keep</strong></font></div></div><div class='respDiv'><div class='respDivL'>Match<br>(e)</div><div class='respDivR'>No Match<br>(i)</div></div></div>","e","TARGET","3","trustrating_stim/white_mw010.bmp,trustrating_stim/white_mw085.bmp,trustrating_stim/white_mw091.bmp","1,0,1","noMatchFace","i","4500","trustrating_stim/white_mw040.bmp","red","Keep","REAL","0",""
"html-keyboard-response","124","253133","0.0-7.0-5.17","620bdd8ca922fc3f247f6c82","bdp_wmem","Sat Apr 08 2023 13:26:23 GMT-0400 (EDT)","535183","Match,No Match","","null","","","","","","<div class='trialBorder'><div class='vertical-center'><img src='img/error.jpg'></div><div class='respDiv'><div class='respDivL'><font style='color:orange'>Match<br>(e)</font></div><div class='respDivR'>No Match<br>(i)</div></div></div>","null","FEEDBACK","","","","","","","","","","","",""
"html-keyboard-response","125","253635","0.0-7.0-1.18","620bdd8ca922fc3f247f6c82","bdp_wmem","Sat Apr 08 2023 13:26:23 GMT-0400 (EDT)","535183","Match,No Match","","null","","","","","","<div class='trialBorder'><div class='vertical-center'><img src='img/fixation2_sml.jpg'</img></div></div>","null","FIX","","","","","","","","","","","",""
"html-keyboard-response","126","256637","0.0-7.0-2.18","620bdd8ca922fc3f247f6c82","bdp_wmem","Sat Apr 08 2023 13:26:23 GMT-0400 (EDT)","535183","Match,No Match","","null","","","","","","<div class='trialBorder'><div class='vertical-center'><img style='vertical-align:center; align:center' src='img/fixation2_sml.jpg'></div><div class='arrayDiv2'><div class='tl'><img class='introPic' src='trustrating_stim/white_mw091.bmp'><br><font color='green'><strong>Share</strong></font></div><div class='tr'><img class='introPic' src='trustrating_stim/white_mw042.bmp'><br><font color='red'><strong>Keep</strong></font></div></div></div>","null","ARRAY","2","trustrating_stim/white_mw091.bmp,trustrating_stim/white_mw042.bmp","1,0","noMatchFace","i","3000","","","","","",""
"html-keyboard-response","127","260639","0.0-7.0-3.18","620bdd8ca922fc3f247f6c82","bdp_wmem","Sat Apr 08 2023 13:26:23 GMT-0400 (EDT)","535183","Match,No Match","","null","","","","","","<div class='trialBorder'><div class='vertical-center'><img src='img/fixation2_sml.jpg'</img></div></div>","null","DELAY","","","","","","","","","","","",""
"html-keyboard-response","128","261636","0.0-7.0-4.18","620bdd8ca922fc3f247f6c82","bdp_wmem","Sat Apr 08 2023 13:26:23 GMT-0400 (EDT)","535183","Match,No Match","","997","","","","","","<div class='trialBorder'><div class='targDiv'><div class='tc'><img class='introPic' src='trustrating_stim/white_mw070.bmp'><br><font color='green'><strong>Share</strong></font></div></div><div class='respDiv'><div class='respDivL'>Match<br>(e)</div><div class='respDivR'>No Match<br>(i)</div></div></div>","i","TARGET","2","trustrating_stim/white_mw091.bmp,trustrating_stim/white_mw042.bmp","1,0","noMatchFace","i","3000","trustrating_stim/white_mw070.bmp","green","Share","REAL","1",""
"html-keyboard-response","129","262139","0.0-7.0-5.18","620bdd8ca922fc3f247f6c82","bdp_wmem","Sat Apr 08 2023 13:26:23 GMT-0400 (EDT)","535183","Match,No Match","","null","","","","","","<div class='trialBorder'><div class='vertical-center'><img src='img/correct.jpg'></div><div class='respDiv'><div class='respDivL'>Match<br>(e)</div><div class='respDivR'><font style='color:orange'>No Match<br>(i)</font></div></div></div>","null","FEEDBACK","","","","","","","","","","","",""
"html-keyboard-response","130","262641","0.0-7.0-1.19","620bdd8ca922fc3f247f6c82","bdp_wmem","Sat Apr 08 2023 13:26:23 GMT-0400 (EDT)","535183","Match,No Match","","null","","","","","","<div class='trialBorder'><div class='vertical-center'><img src='img/fixation2_sml.jpg'</img></div></div>","null","FIX","","","","","","","","","","","",""
"html-keyboard-response","131","267143","0.0-7.0-2.19","620bdd8ca922fc3f247f6c82","bdp_wmem","Sat Apr 08 2023 13:26:23 GMT-0400 (EDT)","535183","Match,No Match","","null","","","","","","<div class='trialBorder'><div class='vertical-center'><img style='vertical-align:center; align:center' src='img/fixation2_sml.jpg'></div><div class='arrayDiv3'><div class='tl'><img class='introPic' src='trustrating_stim/white_mw085.bmp'><br><font color='green'><strong>Share</strong></font></div><div class='tc'><img class='introPic' src='trustrating_stim/white_mw010.bmp'><br><font color='red'><strong>Keep</strong></font></div><div class='tr'><img class='introPic' src='trustrating_stim/white_mw042.bmp'><br><font color='green'><strong>Share</strong></font></div></div></div>","null","ARRAY","3","trustrating_stim/white_mw085.bmp,trustrating_stim/white_mw010.bmp,trustrating_stim/white_mw042.bmp","1,0,1","Match","e","4500","","","","","",""
"html-keyboard-response","132","271145","0.0-7.0-3.19","620bdd8ca922fc3f247f6c82","bdp_wmem","Sat Apr 08 2023 13:26:23 GMT-0400 (EDT)","535183","Match,No Match","","null","","","","","","<div class='trialBorder'><div class='vertical-center'><img src='img/fixation2_sml.jpg'</img></div></div>","null","DELAY","","","","","","","","","","","",""
"html-keyboard-response","133","271947","0.0-7.0-4.19","620bdd8ca922fc3f247f6c82","bdp_wmem","Sat Apr 08 2023 13:26:23 GMT-0400 (EDT)","535183","Match,No Match","","801","","","","","","<div class='trialBorder'><div class='targDiv'><div class='tc'><img class='introPic' src='trustrating_stim/white_mw042.bmp'><br><font color='green'><strong>Share</strong></font></div></div><div class='respDiv'><div class='respDivL'>Match<br>(e)</div><div class='respDivR'>No Match<br>(i)</div></div></div>","e","TARGET","3","trustrating_stim/white_mw085.bmp,trustrating_stim/white_mw010.bmp,trustrating_stim/white_mw042.bmp","1,0,1","Match","e","4500","trustrating_stim/white_mw042.bmp","green","Share","REAL","1",""
"html-keyboard-response","134","272449","0.0-7.0-5.19","620bdd8ca922fc3f247f6c82","bdp_wmem","Sat Apr 08 2023 13:26:23 GMT-0400 (EDT)","535183","Match,No Match","","null","","","","","","<div class='trialBorder'><div class='vertical-center'><img src='img/correct.jpg'></div><div class='respDiv'><div class='respDivL'><font style='color:orange'>Match<br>(e)</font></div><div class='respDivR'>No Match<br>(i)</div></div></div>","null","FEEDBACK","","","","","","","","","","","",""
"html-keyboard-response","135","272951","0.0-7.0-1.20","620bdd8ca922fc3f247f6c82","bdp_wmem","Sat Apr 08 2023 13:26:23 GMT-0400 (EDT)","535183","Match,No Match","","null","","","","","","<div class='trialBorder'><div class='vertical-center'><img src='img/fixation2_sml.jpg'</img></div></div>","null","FIX","","","","","","","","","","","",""
"html-keyboard-response","136","275954","0.0-7.0-2.20","620bdd8ca922fc3f247f6c82","bdp_wmem","Sat Apr 08 2023 13:26:23 GMT-0400 (EDT)","535183","Match,No Match","","null","","","","","","<div class='trialBorder'><div class='vertical-center'><img style='vertical-align:center; align:center' src='img/fixation2_sml.jpg'></div><div class='arrayDiv2'><div class='tl'><img class='introPic' src='trustrating_stim/white_mw091.bmp'><br><font color='red'><strong>Keep</strong></font></div><div class='tr'><img class='introPic' src='trustrating_stim/white_mw042.bmp'><br><font color='green'><strong>Share</strong></font></div></div></div>","null","ARRAY","2","trustrating_stim/white_mw091.bmp,trustrating_stim/white_mw042.bmp","0,1","Match","e","3000","","","","","",""
"html-keyboard-response","137","279956","0.0-7.0-3.20","620bdd8ca922fc3f247f6c82","bdp_wmem","Sat Apr 08 2023 13:26:23 GMT-0400 (EDT)","535183","Match,No Match","","null","","","","","","<div class='trialBorder'><div class='vertical-center'><img src='img/fixation2_sml.jpg'</img></div></div>","null","DELAY","","","","","","","","","","","",""
"html-keyboard-response","138","280426","0.0-7.0-4.20","620bdd8ca922fc3f247f6c82","bdp_wmem","Sat Apr 08 2023 13:26:23 GMT-0400 (EDT)","535183","Match,No Match","","469","","","","","","<div class='trialBorder'><div class='targDiv'><div class='tc'><img class='introPic' src='trustrating_stim/white_mw042.bmp'><br><font color='green'><strong>Share</strong></font></div></div><div class='respDiv'><div class='respDivL'>Match<br>(e)</div><div class='respDivR'>No Match<br>(i)</div></div></div>","i","TARGET","2","trustrating_stim/white_mw091.bmp,trustrating_stim/white_mw042.bmp","0,1","Match","e","3000","trustrating_stim/white_mw042.bmp","green","Share","REAL","0",""
"html-keyboard-response","139","280929","0.0-7.0-5.20","620bdd8ca922fc3f247f6c82","bdp_wmem","Sat Apr 08 2023 13:26:23 GMT-0400 (EDT)","535183","Match,No Match","","null","","","","","","<div class='trialBorder'><div class='vertical-center'><img src='img/error.jpg'></div><div class='respDiv'><div class='respDivL'>Match<br>(e)</div><div class='respDivR'><font style='color:orange'>No Match<br>(i)</font></div></div></div>","null","FEEDBACK","","","","","","","","","","","",""
"html-keyboard-response","140","281431","0.0-7.0-1.21","620bdd8ca922fc3f247f6c82","bdp_wmem","Sat Apr 08 2023 13:26:23 GMT-0400 (EDT)","535183","Match,No Match","","null","","","","","","<div class='trialBorder'><div class='vertical-center'><img src='img/fixation2_sml.jpg'</img></div></div>","null","FIX","","","","","","","","","","","",""
"html-keyboard-response","141","284433","0.0-7.0-2.21","620bdd8ca922fc3f247f6c82","bdp_wmem","Sat Apr 08 2023 13:26:23 GMT-0400 (EDT)","535183","Match,No Match","","null","","","","","","<div class='trialBorder'><div class='vertical-center'><img style='vertical-align:center; align:center' src='img/fixation2_sml.jpg'></div><div class='arrayDiv2'><div class='tl'><img class='introPic' src='trustrating_stim/white_mw040.bmp'><br><font color='red'><strong>Keep</strong></font></div><div class='tr'><img class='introPic' src='trustrating_stim/white_mw070.bmp'><br><font color='green'><strong>Share</strong></font></div></div></div>","null","ARRAY","2","trustrating_stim/white_mw040.bmp,trustrating_stim/white_mw070.bmp","0,1","noMatchOutcome","i","3000","","","","","",""
"html-keyboard-response","142","288436","0.0-7.0-3.21","620bdd8ca922fc3f247f6c82","bdp_wmem","Sat Apr 08 2023 13:26:23 GMT-0400 (EDT)","535183","Match,No Match","","null","","","","","","<div class='trialBorder'><div class='vertical-center'><img src='img/fixation2_sml.jpg'</img></div></div>","null","DELAY","","","","","","","","","","","",""
"html-keyboard-response","143","288886","0.0-7.0-4.21","620bdd8ca922fc3f247f6c82","bdp_wmem","Sat Apr 08 2023 13:26:23 GMT-0400 (EDT)","535183","Match,No Match","","444","","","","","","<div class='trialBorder'><div class='targDiv'><div class='tc'><img class='introPic' src='trustrating_stim/white_mw040.bmp'><br><font color='green'><strong>Share</strong></font></div></div><div class='respDiv'><div class='respDivL'>Match<br>(e)</div><div class='respDivR'>No Match<br>(i)</div></div></div>","e","TARGET","2","trustrating_stim/white_mw040.bmp,trustrating_stim/white_mw070.bmp","0,1","noMatchOutcome","i","3000","trustrating_stim/white_mw040.bmp","green","Share","REAL","0",""
"html-keyboard-response","144","289388","0.0-7.0-5.21","620bdd8ca922fc3f247f6c82","bdp_wmem","Sat Apr 08 2023 13:26:23 GMT-0400 (EDT)","535183","Match,No Match","","null","","","","","","<div class='trialBorder'><div class='vertical-center'><img src='img/error.jpg'></div><div class='respDiv'><div class='respDivL'><font style='color:orange'>Match<br>(e)</font></div><div class='respDivR'>No Match<br>(i)</div></div></div>","null","FEEDBACK","","","","","","","","","","","",""
"html-keyboard-response","145","289890","0.0-7.0-1.22","620bdd8ca922fc3f247f6c82","bdp_wmem","Sat Apr 08 2023 13:26:23 GMT-0400 (EDT)","535183","Match,No Match","","null","","","","","","<div class='trialBorder'><div class='vertical-center'><img src='img/fixation2_sml.jpg'</img></div></div>","null","FIX","","","","","","","","","","","",""
"html-keyboard-response","146","291392","0.0-7.0-2.22","620bdd8ca922fc3f247f6c82","bdp_wmem","Sat Apr 08 2023 13:26:23 GMT-0400 (EDT)","535183","Match,No Match","","null","","","","","","<div class='trialBorder'><div class='vertical-center'><img style='vertical-align:center; align:center' src='img/fixation2_sml.jpg'></div><div class='arrayDiv1'><div class='tc'><img class='introPic' src='trustrating_stim/white_mw013.bmp'><br><font color='green'><strong>Share</strong></font></div></div></div>","null","ARRAY","1","trustrating_stim/white_mw013.bmp","1","Match","e","1500","","","","","",""
"html-keyboard-response","147","295394","0.0-7.0-3.22","620bdd8ca922fc3f247f6c82","bdp_wmem","Sat Apr 08 2023 13:26:23 GMT-0400 (EDT)","535183","Match,No Match","","null","","","","","","<div class='trialBorder'><div class='vertical-center'><img src='img/fixation2_sml.jpg'</img></div></div>","null","DELAY","","","","","","","","","","","",""
"html-keyboard-response","148","296046","0.0-7.0-4.22","620bdd8ca922fc3f247f6c82","bdp_wmem","Sat Apr 08 2023 13:26:23 GMT-0400 (EDT)","535183","Match,No Match","","651","","","","","","<div class='trialBorder'><div class='targDiv'><div class='tc'><img class='introPic' src='trustrating_stim/white_mw013.bmp'><br><font color='green'><strong>Share</strong></font></div></div><div class='respDiv'><div class='respDivL'>Match<br>(e)</div><div class='respDivR'>No Match<br>(i)</div></div></div>","i","TARGET","1","trustrating_stim/white_mw013.bmp","1","Match","e","1500","trustrating_stim/white_mw013.bmp","green","Share","REAL","0",""
"html-keyboard-response","149","296549","0.0-7.0-5.22","620bdd8ca922fc3f247f6c82","bdp_wmem","Sat Apr 08 2023 13:26:23 GMT-0400 (EDT)","535183","Match,No Match","","null","","","","","","<div class='trialBorder'><div class='vertical-center'><img src='img/error.jpg'></div><div class='respDiv'><div class='respDivL'>Match<br>(e)</div><div class='respDivR'><font style='color:orange'>No Match<br>(i)</font></div></div></div>","null","FEEDBACK","","","","","","","","","","","",""
"html-keyboard-response","150","297051","0.0-7.0-1.23","620bdd8ca922fc3f247f6c82","bdp_wmem","Sat Apr 08 2023 13:26:23 GMT-0400 (EDT)","535183","Match,No Match","","null","","","","","","<div class='trialBorder'><div class='vertical-center'><img src='img/fixation2_sml.jpg'</img></div></div>","null","FIX","","","","","","","","","","","",""
"html-keyboard-response","151","301553","0.0-7.0-2.23","620bdd8ca922fc3f247f6c82","bdp_wmem","Sat Apr 08 2023 13:26:23 GMT-0400 (EDT)","535183","Match,No Match","","null","","","","","","<div class='trialBorder'><div class='vertical-center'><img style='vertical-align:center; align:center' src='img/fixation2_sml.jpg'></div><div class='arrayDiv3'><div class='tl'><img class='introPic' src='trustrating_stim/white_mw003.bmp'><br><font color='red'><strong>Keep</strong></font></div><div class='tc'><img class='introPic' src='trustrating_stim/white_mw013.bmp'><br><font color='red'><strong>Keep</strong></font></div><div class='tr'><img class='introPic' src='trustrating_stim/white_mw038.bmp'><br><font color='green'><strong>Share</strong></font></div></div></div>","null","ARRAY","3","trustrating_stim/white_mw003.bmp,trustrating_stim/white_mw013.bmp,trustrating_stim/white_mw038.bmp","0,0,1","noMatchOutcome","i","4500","","","","","",""
"html-keyboard-response","152","305555","0.0-7.0-3.23","620bdd8ca922fc3f247f6c82","bdp_wmem","Sat Apr 08 2023 13:26:23 GMT-0400 (EDT)","535183","Match,No Match","","null","","","","","","<div class='trialBorder'><div class='vertical-center'><img src='img/fixation2_sml.jpg'</img></div></div>","null","DELAY","","","","","","","","","","","",""
"html-keyboard-response","153","306416","0.0-7.0-4.23","620bdd8ca922fc3f247f6c82","bdp_wmem","Sat Apr 08 2023 13:26:23 GMT-0400 (EDT)","535183","Match,No Match","","859","","","","","","<div class='trialBorder'><div class='targDiv'><div class='tc'><img class='introPic' src='trustrating_stim/white_mw003.bmp'><br><font color='green'><strong>Share</strong></font></div></div><div class='respDiv'><div class='respDivL'>Match<br>(e)</div><div class='respDivR'>No Match<br>(i)</div></div></div>","e","TARGET","3","trustrating_stim/white_mw003.bmp,trustrating_stim/white_mw013.bmp,trustrating_stim/white_mw038.bmp","0,0,1","noMatchOutcome","i","4500","trustrating_stim/white_mw003.bmp","green","Share","REAL","0",""
"html-keyboard-response","154","306919","0.0-7.0-5.23","620bdd8ca922fc3f247f6c82","bdp_wmem","Sat Apr 08 2023 13:26:23 GMT-0400 (EDT)","535183","Match,No Match","","null","","","","","","<div class='trialBorder'><div class='vertical-center'><img src='img/error.jpg'></div><div class='respDiv'><div class='respDivL'><font style='color:orange'>Match<br>(e)</font></div><div class='respDivR'>No Match<br>(i)</div></div></div>","null","FEEDBACK","","","","","","","","","","","",""
"html-keyboard-response","155","307421","0.0-7.0-1.24","620bdd8ca922fc3f247f6c82","bdp_wmem","Sat Apr 08 2023 13:26:23 GMT-0400 (EDT)","535183","Match,No Match","","null","","","","","","<div class='trialBorder'><div class='vertical-center'><img src='img/fixation2_sml.jpg'</img></div></div>","null","FIX","","","","","","","","","","","",""
"html-keyboard-response","156","311924","0.0-7.0-2.24","620bdd8ca922fc3f247f6c82","bdp_wmem","Sat Apr 08 2023 13:26:23 GMT-0400 (EDT)","535183","Match,No Match","","null","","","","","","<div class='trialBorder'><div class='vertical-center'><img style='vertical-align:center; align:center' src='img/fixation2_sml.jpg'></div><div class='arrayDiv3'><div class='tl'><img class='introPic' src='trustrating_stim/white_mw013.bmp'><br><font color='red'><strong>Keep</strong></font></div><div class='tc'><img class='introPic' src='trustrating_stim/white_mw003.bmp'><br><font color='green'><strong>Share</strong></font></div><div class='tr'><img class='introPic' src='trustrating_stim/white_mw092.bmp'><br><font color='red'><strong>Keep</strong></font></div></div></div>","null","ARRAY","3","trustrating_stim/white_mw013.bmp,trustrating_stim/white_mw003.bmp,trustrating_stim/white_mw092.bmp","0,1,0","Match","e","4500","","","","","",""
"html-keyboard-response","157","315926","0.0-7.0-3.24","620bdd8ca922fc3f247f6c82","bdp_wmem","Sat Apr 08 2023 13:26:23 GMT-0400 (EDT)","535183","Match,No Match","","null","","","","","","<div class='trialBorder'><div class='vertical-center'><img src='img/fixation2_sml.jpg'</img></div></div>","null","DELAY","","","","","","","","","","","",""
"html-keyboard-response","158","316669","0.0-7.0-4.24","620bdd8ca922fc3f247f6c82","bdp_wmem","Sat Apr 08 2023 13:26:23 GMT-0400 (EDT)","535183","Match,No Match","","742","","","","","","<div class='trialBorder'><div class='targDiv'><div class='tc'><img class='introPic' src='trustrating_stim/white_mw092.bmp'><br><font color='red'><strong>Keep</strong></font></div></div><div class='respDiv'><div class='respDivL'>Match<br>(e)</div><div class='respDivR'>No Match<br>(i)</div></div></div>","i","TARGET","3","trustrating_stim/white_mw013.bmp,trustrating_stim/white_mw003.bmp,trustrating_stim/white_mw092.bmp","0,1,0","Match","e","4500","trustrating_stim/white_mw092.bmp","red","Keep","REAL","0",""
"html-keyboard-response","159","317171","0.0-7.0-5.24","620bdd8ca922fc3f247f6c82","bdp_wmem","Sat Apr 08 2023 13:26:23 GMT-0400 (EDT)","535183","Match,No Match","","null","","","","","","<div class='trialBorder'><div class='vertical-center'><img src='img/error.jpg'></div><div class='respDiv'><div class='respDivL'>Match<br>(e)</div><div class='respDivR'><font style='color:orange'>No Match<br>(i)</font></div></div></div>","null","FEEDBACK","","","","","","","","","","","",""
"html-keyboard-response","160","317673","0.0-7.0-1.25","620bdd8ca922fc3f247f6c82","bdp_wmem","Sat Apr 08 2023 13:26:23 GMT-0400 (EDT)","535183","Match,No Match","","null","","","","","","<div class='trialBorder'><div class='vertical-center'><img src='img/fixation2_sml.jpg'</img></div></div>","null","FIX","","","","","","","","","","","",""
"html-keyboard-response","161","320676","0.0-7.0-2.25","620bdd8ca922fc3f247f6c82","bdp_wmem","Sat Apr 08 2023 13:26:23 GMT-0400 (EDT)","535183","Match,No Match","","null","","","","","","<div class='trialBorder'><div class='vertical-center'><img style='vertical-align:center; align:center' src='img/fixation2_sml.jpg'></div><div class='arrayDiv2'><div class='tl'><img class='introPic' src='trustrating_stim/white_mw092.bmp'><br><font color='green'><strong>Share</strong></font></div><div class='tr'><img class='introPic' src='trustrating_stim/white_mw042.bmp'><br><font color='red'><strong>Keep</strong></font></div></div></div>","null","ARRAY","2","trustrating_stim/white_mw092.bmp,trustrating_stim/white_mw042.bmp","1,0","Match","e","3000","","","","","",""
"html-keyboard-response","162","324678","0.0-7.0-3.25","620bdd8ca922fc3f247f6c82","bdp_wmem","Sat Apr 08 2023 13:26:23 GMT-0400 (EDT)","535183","Match,No Match","","null","","","","","","<div class='trialBorder'><div class='vertical-center'><img src='img/fixation2_sml.jpg'</img></div></div>","null","DELAY","","","","","","","","","","","",""
"html-keyboard-response","163","325463","0.0-7.0-4.25","620bdd8ca922fc3f247f6c82","bdp_wmem","Sat Apr 08 2023 13:26:23 GMT-0400 (EDT)","535183","Match,No Match","","784","","","","","","<div class='trialBorder'><div class='targDiv'><div class='tc'><img class='introPic' src='trustrating_stim/white_mw042.bmp'><br><font color='red'><strong>Keep</strong></font></div></div><div class='respDiv'><div class='respDivL'>Match<br>(e)</div><div class='respDivR'>No Match<br>(i)</div></div></div>","e","TARGET","2","trustrating_stim/white_mw092.bmp,trustrating_stim/white_mw042.bmp","1,0","Match","e","3000","trustrating_stim/white_mw042.bmp","red","Keep","REAL","1",""
"html-keyboard-response","164","325965","0.0-7.0-5.25","620bdd8ca922fc3f247f6c82","bdp_wmem","Sat Apr 08 2023 13:26:23 GMT-0400 (EDT)","535183","Match,No Match","","null","","","","","","<div class='trialBorder'><div class='vertical-center'><img src='img/correct.jpg'></div><div class='respDiv'><div class='respDivL'><font style='color:orange'>Match<br>(e)</font></div><div class='respDivR'>No Match<br>(i)</div></div></div>","null","FEEDBACK","","","","","","","","","","","",""
"html-keyboard-response","165","326467","0.0-7.0-1.26","620bdd8ca922fc3f247f6c82","bdp_wmem","Sat Apr 08 2023 13:26:23 GMT-0400 (EDT)","535183","Match,No Match","","null","","","","","","<div class='trialBorder'><div class='vertical-center'><img src='img/fixation2_sml.jpg'</img></div></div>","null","FIX","","","","","","","","","","","",""
"html-keyboard-response","166","329469","0.0-7.0-2.26","620bdd8ca922fc3f247f6c82","bdp_wmem","Sat Apr 08 2023 13:26:23 GMT-0400 (EDT)","535183","Match,No Match","","null","","","","","","<div class='trialBorder'><div class='vertical-center'><img style='vertical-align:center; align:center' src='img/fixation2_sml.jpg'></div><div class='arrayDiv2'><div class='tl'><img class='introPic' src='trustrating_stim/white_mw091.bmp'><br><font color='red'><strong>Keep</strong></font></div><div class='tr'><img class='introPic' src='trustrating_stim/white_mw042.bmp'><br><font color='green'><strong>Share</strong></font></div></div></div>","null","ARRAY","2","trustrating_stim/white_mw091.bmp,trustrating_stim/white_mw042.bmp","0,1","Match","e","3000","","","","","",""
"html-keyboard-response","167","333472","0.0-7.0-3.26","620bdd8ca922fc3f247f6c82","bdp_wmem","Sat Apr 08 2023 13:26:23 GMT-0400 (EDT)","535183","Match,No Match","","null","","","","","","<div class='trialBorder'><div class='vertical-center'><img src='img/fixation2_sml.jpg'</img></div></div>","null","DELAY","","","","","","","","","","","",""
"html-keyboard-response","168","334415","0.0-7.0-4.26","620bdd8ca922fc3f247f6c82","bdp_wmem","Sat Apr 08 2023 13:26:23 GMT-0400 (EDT)","535183","Match,No Match","","943","","","","","","<div class='trialBorder'><div class='targDiv'><div class='tc'><img class='introPic' src='trustrating_stim/white_mw042.bmp'><br><font color='green'><strong>Share</strong></font></div></div><div class='respDiv'><div class='respDivL'>Match<br>(e)</div><div class='respDivR'>No Match<br>(i)</div></div></div>","e","TARGET","2","trustrating_stim/white_mw091.bmp,trustrating_stim/white_mw042.bmp","0,1","Match","e","3000","trustrating_stim/white_mw042.bmp","green","Share","REAL","1",""
"html-keyboard-response","169","334918","0.0-7.0-5.26","620bdd8ca922fc3f247f6c82","bdp_wmem","Sat Apr 08 2023 13:26:23 GMT-0400 (EDT)","535183","Match,No Match","","null","","","","","","<div class='trialBorder'><div class='vertical-center'><img src='img/correct.jpg'></div><div class='respDiv'><div class='respDivL'><font style='color:orange'>Match<br>(e)</font></div><div class='respDivR'>No Match<br>(i)</div></div></div>","null","FEEDBACK","","","","","","","","","","","",""
"html-keyboard-response","170","335420","0.0-7.0-1.27","620bdd8ca922fc3f247f6c82","bdp_wmem","Sat Apr 08 2023 13:26:23 GMT-0400 (EDT)","535183","Match,No Match","","null","","","","","","<div class='trialBorder'><div class='vertical-center'><img src='img/fixation2_sml.jpg'</img></div></div>","null","FIX","","","","","","","","","","","",""
"html-keyboard-response","171","336921","0.0-7.0-2.27","620bdd8ca922fc3f247f6c82","bdp_wmem","Sat Apr 08 2023 13:26:23 GMT-0400 (EDT)","535183","Match,No Match","","null","","","","","","<div class='trialBorder'><div class='vertical-center'><img style='vertical-align:center; align:center' src='img/fixation2_sml.jpg'></div><div class='arrayDiv1'><div class='tc'><img class='introPic' src='trustrating_stim/white_mw010.bmp'><br><font color='red'><strong>Keep</strong></font></div></div></div>","null","ARRAY","1","trustrating_stim/white_mw010.bmp","0","noMatchOutcome","i","1500","","","","","",""
"html-keyboard-response","172","340923","0.0-7.0-3.27","620bdd8ca922fc3f247f6c82","bdp_wmem","Sat Apr 08 2023 13:26:23 GMT-0400 (EDT)","535183","Match,No Match","","null","","","","","","<div class='trialBorder'><div class='vertical-center'><img src='img/fixation2_sml.jpg'</img></div></div>","null","DELAY","","","","","","","","","","","",""
"html-keyboard-response","173","341928","0.0-7.0-4.27","620bdd8ca922fc3f247f6c82","bdp_wmem","Sat Apr 08 2023 13:26:23 GMT-0400 (EDT)","535183","Match,No Match","","1004","","","","","","<div class='trialBorder'><div class='targDiv'><div class='tc'><img class='introPic' src='trustrating_stim/white_mw010.bmp'><br><font color='green'><strong>Share</strong></font></div></div><div class='respDiv'><div class='respDivL'>Match<br>(e)</div><div class='respDivR'>No Match<br>(i)</div></div></div>","i","TARGET","1","trustrating_stim/white_mw010.bmp","0","noMatchOutcome","i","1500","trustrating_stim/white_mw010.bmp","green","Share","REAL","1",""
"html-keyboard-response","174","342431","0.0-7.0-5.27","620bdd8ca922fc3f247f6c82","bdp_wmem","Sat Apr 08 2023 13:26:23 GMT-0400 (EDT)","535183","Match,No Match","","null","","","","","","<div class='trialBorder'><div class='vertical-center'><img src='img/correct.jpg'></div><div class='respDiv'><div class='respDivL'>Match<br>(e)</div><div class='respDivR'><font style='color:orange'>No Match<br>(i)</font></div></div></div>","null","FEEDBACK","","","","","","","","","","","",""
"html-keyboard-response","175","342933","0.0-7.0-1.28","620bdd8ca922fc3f247f6c82","bdp_wmem","Sat Apr 08 2023 13:26:23 GMT-0400 (EDT)","535183","Match,No Match","","null","","","","","","<div class='trialBorder'><div class='vertical-center'><img src='img/fixation2_sml.jpg'</img></div></div>","null","FIX","","","","","","","","","","","",""
"html-keyboard-response","176","347435","0.0-7.0-2.28","620bdd8ca922fc3f247f6c82","bdp_wmem","Sat Apr 08 2023 13:26:23 GMT-0400 (EDT)","535183","Match,No Match","","null","","","","","","<div class='trialBorder'><div class='vertical-center'><img style='vertical-align:center; align:center' src='img/fixation2_sml.jpg'></div><div class='arrayDiv3'><div class='tl'><img class='introPic' src='trustrating_stim/white_mw091.bmp'><br><font color='green'><strong>Share</strong></font></div><div class='tc'><img class='introPic' src='trustrating_stim/white_mw013.bmp'><br><font color='green'><strong>Share</strong></font></div><div class='tr'><img class='introPic' src='trustrating_stim/white_mw040.bmp'><br><font color='red'><strong>Keep</strong></font></div></div></div>","null","ARRAY","3","trustrating_stim/white_mw091.bmp,trustrating_stim/white_mw013.bmp,trustrating_stim/white_mw040.bmp","1,1,0","noMatchFace","i","4500","","","","","",""
"html-keyboard-response","177","351437","0.0-7.0-3.28","620bdd8ca922fc3f247f6c82","bdp_wmem","Sat Apr 08 2023 13:26:23 GMT-0400 (EDT)","535183","Match,No Match","","null","","","","","","<div class='trialBorder'><div class='vertical-center'><img src='img/fixation2_sml.jpg'</img></div></div>","null","DELAY","","","","","","","","","","","",""
"html-keyboard-response","178","352369","0.0-7.0-4.28","620bdd8ca922fc3f247f6c82","bdp_wmem","Sat Apr 08 2023 13:26:23 GMT-0400 (EDT)","535183","Match,No Match","","931","","","","","","<div class='trialBorder'><div class='targDiv'><div class='tc'><img class='introPic' src='trustrating_stim/white_mw070.bmp'><br><font color='green'><strong>Share</strong></font></div></div><div class='respDiv'><div class='respDivL'>Match<br>(e)</div><div class='respDivR'>No Match<br>(i)</div></div></div>","e","TARGET","3","trustrating_stim/white_mw091.bmp,trustrating_stim/white_mw013.bmp,trustrating_stim/white_mw040.bmp","1,1,0","noMatchFace","i","4500","trustrating_stim/white_mw070.bmp","green","Share","REAL","0",""
"html-keyboard-response","179","352872","0.0-7.0-5.28","620bdd8ca922fc3f247f6c82","bdp_wmem","Sat Apr 08 2023 13:26:23 GMT-0400 (EDT)","535183","Match,No Match","","null","","","","","","<div class='trialBorder'><div class='vertical-center'><img src='img/error.jpg'></div><div class='respDiv'><div class='respDivL'><font style='color:orange'>Match<br>(e)</font></div><div class='respDivR'>No Match<br>(i)</div></div></div>","null","FEEDBACK","","","","","","","","","","","",""
"html-keyboard-response","180","353374","0.0-7.0-1.29","620bdd8ca922fc3f247f6c82","bdp_wmem","Sat Apr 08 2023 13:26:23 GMT-0400 (EDT)","535183","Match,No Match","","null","","","","","","<div class='trialBorder'><div class='vertical-center'><img src='img/fixation2_sml.jpg'</img></div></div>","null","FIX","","","","","","","","","","","",""
"html-keyboard-response","181","357876","0.0-7.0-2.29","620bdd8ca922fc3f247f6c82","bdp_wmem","Sat Apr 08 2023 13:26:23 GMT-0400 (EDT)","535183","Match,No Match","","null","","","","","","<div class='trialBorder'><div class='vertical-center'><img style='vertical-align:center; align:center' src='img/fixation2_sml.jpg'></div><div class='arrayDiv3'><div class='tl'><img class='introPic' src='trustrating_stim/white_mw092.bmp'><br><font color='green'><strong>Share</strong></font></div><div class='tc'><img class='introPic' src='trustrating_stim/white_mw012.bmp'><br><font color='green'><strong>Share</strong></font></div><div class='tr'><img class='introPic' src='trustrating_stim/white_mw040.bmp'><br><font color='red'><strong>Keep</strong></font></div></div></div>","null","ARRAY","3","trustrating_stim/white_mw092.bmp,trustrating_stim/white_mw012.bmp,trustrating_stim/white_mw040.bmp","1,1,0","Match","e","4500","","","","","",""
"html-keyboard-response","182","361878","0.0-7.0-3.29","620bdd8ca922fc3f247f6c82","bdp_wmem","Sat Apr 08 2023 13:26:23 GMT-0400 (EDT)","535183","Match,No Match","","null","","","","","","<div class='trialBorder'><div class='vertical-center'><img src='img/fixation2_sml.jpg'</img></div></div>","null","DELAY","","","","","","","","","","","",""
"html-keyboard-response","183","365261","0.0-7.0-4.29","620bdd8ca922fc3f247f6c82","bdp_wmem","Sat Apr 08 2023 13:26:23 GMT-0400 (EDT)","535183","Match,No Match","","3382","","","","","","<div class='trialBorder'><div class='targDiv'><div class='tc'><img class='introPic' src='trustrating_stim/white_mw012.bmp'><br><font color='green'><strong>Share</strong></font></div></div><div class='respDiv'><div class='respDivL'>Match<br>(e)</div><div class='respDivR'>No Match<br>(i)</div></div></div>","i","TARGET","3","trustrating_stim/white_mw092.bmp,trustrating_stim/white_mw012.bmp,trustrating_stim/white_mw040.bmp","1,1,0","Match","e","4500","trustrating_stim/white_mw012.bmp","green","Share","REAL","0",""
"html-keyboard-response","184","365764","0.0-7.0-5.29","620bdd8ca922fc3f247f6c82","bdp_wmem","Sat Apr 08 2023 13:26:23 GMT-0400 (EDT)","535183","Match,No Match","","null","","","","","","<div class='trialBorder'><div class='vertical-center'><img src='img/error.jpg'></div><div class='respDiv'><div class='respDivL'>Match<br>(e)</div><div class='respDivR'><font style='color:orange'>No Match<br>(i)</font></div></div></div>","null","FEEDBACK","","","","","","","","","","","",""
"html-keyboard-response","185","366265","0.0-7.0-1.30","620bdd8ca922fc3f247f6c82","bdp_wmem","Sat Apr 08 2023 13:26:23 GMT-0400 (EDT)","535183","Match,No Match","","null","","","","","","<div class='trialBorder'><div class='vertical-center'><img src='img/fixation2_sml.jpg'</img></div></div>","null","FIX","","","","","","","","","","","",""
"html-keyboard-response","186","369267","0.0-7.0-2.30","620bdd8ca922fc3f247f6c82","bdp_wmem","Sat Apr 08 2023 13:26:23 GMT-0400 (EDT)","535183","Match,No Match","","null","","","","","","<div class='trialBorder'><div class='vertical-center'><img style='vertical-align:center; align:center' src='img/fixation2_sml.jpg'></div><div class='arrayDiv2'><div class='tl'><img class='introPic' src='trustrating_stim/white_mw070.bmp'><br><font color='red'><strong>Keep</strong></font></div><div class='tr'><img class='introPic' src='trustrating_stim/white_mw013.bmp'><br><font color='green'><strong>Share</strong></font></div></div></div>","null","ARRAY","2","trustrating_stim/white_mw070.bmp,trustrating_stim/white_mw013.bmp","0,1","Match","e","3000","","","","","",""
"html-keyboard-response","187","373269","0.0-7.0-3.30","620bdd8ca922fc3f247f6c82","bdp_wmem","Sat Apr 08 2023 13:26:23 GMT-0400 (EDT)","535183","Match,No Match","","null","","","","","","<div class='trialBorder'><div class='vertical-center'><img src='img/fixation2_sml.jpg'</img></div></div>","null","DELAY","","","","","","","","","","","",""
"html-keyboard-response","188","375038","0.0-7.0-4.30","620bdd8ca922fc3f247f6c82","bdp_wmem","Sat Apr 08 2023 13:26:23 GMT-0400 (EDT)","535183","Match,No Match","","1768","","","","","","<div class='trialBorder'><div class='targDiv'><div class='tc'><img class='introPic' src='trustrating_stim/white_mw013.bmp'><br><font color='green'><strong>Share</strong></font></div></div><div class='respDiv'><div class='respDivL'>Match<br>(e)</div><div class='respDivR'>No Match<br>(i)</div></div></div>","e","TARGET","2","trustrating_stim/white_mw070.bmp,trustrating_stim/white_mw013.bmp","0,1","Match","e","3000","trustrating_stim/white_mw013.bmp","green","Share","REAL","1",""
"html-keyboard-response","189","375541","0.0-7.0-5.30","620bdd8ca922fc3f247f6c82","bdp_wmem","Sat Apr 08 2023 13:26:23 GMT-0400 (EDT)","535183","Match,No Match","","null","","","","","","<div class='trialBorder'><div class='vertical-center'><img src='img/correct.jpg'></div><div class='respDiv'><div class='respDivL'><font style='color:orange'>Match<br>(e)</font></div><div class='respDivR'>No Match<br>(i)</div></div></div>","null","FEEDBACK","","","","","","","","","","","",""
"html-keyboard-response","190","376042","0.0-7.0-1.31","620bdd8ca922fc3f247f6c82","bdp_wmem","Sat Apr 08 2023 13:26:23 GMT-0400 (EDT)","535183","Match,No Match","","null","","","","","","<div class='trialBorder'><div class='vertical-center'><img src='img/fixation2_sml.jpg'</img></div></div>","null","FIX","","","","","","","","","","","",""
"html-keyboard-response","191","379045","0.0-7.0-2.31","620bdd8ca922fc3f247f6c82","bdp_wmem","Sat Apr 08 2023 13:26:23 GMT-0400 (EDT)","535183","Match,No Match","","null","","","","","","<div class='trialBorder'><div class='vertical-center'><img style='vertical-align:center; align:center' src='img/fixation2_sml.jpg'></div><div class='arrayDiv2'><div class='tl'><img class='introPic' src='trustrating_stim/white_mw013.bmp'><br><font color='red'><strong>Keep</strong></font></div><div class='tr'><img class='introPic' src='trustrating_stim/white_mw070.bmp'><br><font color='green'><strong>Share</strong></font></div></div></div>","null","ARRAY","2","trustrating_stim/white_mw013.bmp,trustrating_stim/white_mw070.bmp","0,1","Match","e","3000","","","","","",""
"html-keyboard-response","192","383051","0.0-7.0-3.31","620bdd8ca922fc3f247f6c82","bdp_wmem","Sat Apr 08 2023 13:26:23 GMT-0400 (EDT)","535183","Match,No Match","","null","","","","","","<div class='trialBorder'><div class='vertical-center'><img src='img/fixation2_sml.jpg'</img></div></div>","null","DELAY","","","","","","","","","","","",""
