"trial_type","trial_index","time_elapsed","internal_node_id","subject_id","task","startTime","totalTime","labels","view_history","rt","event","trial","time","trialtype","success","stimulus","key_press","stimType","arraySize","arrayFaces","arrayOutcomes","matchType","corrResp","arrayDur","targFace","targCol","targOutcome","trialType","corr"
"pavlovia","0","12","0.0-0.0","63614cab87b22b72231c66e0","bdp_wmem","Tue Mar 14 2023 00:42:43 GMT-0400 (Eastern Daylight Time)","774555","Match,No Match","","","","","","","","","","","","","","","","","","","","",""
"instructions","1","10942","0.0-1.0","63614cab87b22b72231c66e0","bdp_wmem","Tue Mar 14 2023 00:42:43 GMT-0400 (Eastern Daylight Time)","774555","Match,No Match","[{""page_index"":0,""viewing_time"":10927}]","10927","","","","","","","","","","","","","","","","","","",""
"","","","","63614cab87b22b72231c66e0","bdp_wmem","Tue Mar 14 2023 00:42:43 GMT-0400 (Eastern Daylight Time)","774555","Match,No Match","","","fullscreenenter","2","29416","fullscreenenter","","","","","","","","","","","","","","",""
"fullscreen","2","30416","0.0-2.0","63614cab87b22b72231c66e0","bdp_wmem","Tue Mar 14 2023 00:42:43 GMT-0400 (Eastern Daylight Time)","774555","Match,No Match","","","","","","","true","","","","","","","","","","","","","",""
"instructions","3","126238","0.0-4.0","63614cab87b22b72231c66e0","bdp_wmem","Tue Mar 14 2023 00:42:43 GMT-0400 (Eastern Daylight Time)","774555","Match,No Match","[{""page_index"":0,""viewing_time"":73732},{""page_index"":1,""viewing_time"":11447},{""page_index"":2,""viewing_time"":5444},{""page_index"":3,""viewing_time"":3884},{""page_index"":4,""viewing_time"":1306}]","95814","","","","","","","","","","","","","","","","","","",""
"html-keyboard-response","4","126746","0.0-5.0-1.0","63614cab87b22b72231c66e0","bdp_wmem","Tue Mar 14 2023 00:42:43 GMT-0400 (Eastern Daylight Time)","774555","Match,No Match","","null","","","","","","<div class='trialBorder'><div class='vertical-center'><img src='img/fixation2_sml.jpg'</img></div></div>","null","FIX","","","","","","","","","","",""
"html-keyboard-response","5","131258","0.0-5.0-2.0","63614cab87b22b72231c66e0","bdp_wmem","Tue Mar 14 2023 00:42:43 GMT-0400 (Eastern Daylight Time)","774555","Match,No Match","","null","","","","","","<div class='trialBorder'><div class='vertical-center'><img style='vertical-align:center; align:center' src='img/fixation2_sml.jpg'></div><div class='arrayDiv3'><div class='tl'><img class='introPic' src='trustrating_stim/white_mw070.bmp'><br><font color='green'><strong>Share</strong></font></div><div class='tc'><img class='introPic' src='trustrating_stim/white_mw038.bmp'><br><font color='red'><strong>Keep</strong></font></div><div class='tr'><img class='introPic' src='trustrating_stim/white_mw003.bmp'><br><font color='red'><strong>Keep</strong></font></div></div></div>","null","ARRAY","3","trustrating_stim/white_mw070.bmp,trustrating_stim/white_mw038.bmp,trustrating_stim/white_mw003.bmp","1,0,0","Match","e","4500","","","","",""
"html-keyboard-response","6","135264","0.0-5.0-3.0","63614cab87b22b72231c66e0","bdp_wmem","Tue Mar 14 2023 00:42:43 GMT-0400 (Eastern Daylight Time)","774555","Match,No Match","","null","","","","","","<div class='trialBorder'><div class='vertical-center'><img src='img/fixation2_sml.jpg'</img></div></div>","null","DELAY","","","","","","","","","","",""
"html-keyboard-response","7","135328","0.0-5.0-4.0","63614cab87b22b72231c66e0","bdp_wmem","Tue Mar 14 2023 00:42:43 GMT-0400 (Eastern Daylight Time)","774555","Match,No Match","","58","","","","","","<div class='trialBorder'><div class='targDiv'><div class='tc'><img class='introPic' src='trustrating_stim/white_mw070.bmp'><br><font color='green'><strong>Share</strong></font></div></div><div class='respDiv'><div class='respDivL'>Match<br>(e)</div><div class='respDivR'>No Match<br>(i)</div></div></div>","e","TARGET","3","trustrating_stim/white_mw070.bmp,trustrating_stim/white_mw038.bmp,trustrating_stim/white_mw003.bmp","1,0,0","Match","e","4500","trustrating_stim/white_mw070.bmp","green","Share","PRACTICE","1"
"html-keyboard-response","8","135832","0.0-5.0-5.0","63614cab87b22b72231c66e0","bdp_wmem","Tue Mar 14 2023 00:42:43 GMT-0400 (Eastern Daylight Time)","774555","Match,No Match","","null","","","","","","<div class='trialBorder'><div class='vertical-center'><img src='img/correct.jpg'></div><div class='respDiv'><div class='respDivL'><font style='color:orange'>Match<br>(e)</font></div><div class='respDivR'>No Match<br>(i)</div></div></div>","null","FEEDBACK","","","","","","","","","","",""
"html-keyboard-response","9","136337","0.0-5.0-1.1","63614cab87b22b72231c66e0","bdp_wmem","Tue Mar 14 2023 00:42:43 GMT-0400 (Eastern Daylight Time)","774555","Match,No Match","","null","","","","","","<div class='trialBorder'><div class='vertical-center'><img src='img/fixation2_sml.jpg'</img></div></div>","null","FIX","","","","","","","","","","",""
"html-keyboard-response","10","139344","0.0-5.0-2.1","63614cab87b22b72231c66e0","bdp_wmem","Tue Mar 14 2023 00:42:43 GMT-0400 (Eastern Daylight Time)","774555","Match,No Match","","null","","","","","","<div class='trialBorder'><div class='vertical-center'><img style='vertical-align:center; align:center' src='img/fixation2_sml.jpg'></div><div class='arrayDiv2'><div class='tl'><img class='introPic' src='trustrating_stim/white_mw040.bmp'><br><font color='green'><strong>Share</strong></font></div><div class='tr'><img class='introPic' src='trustrating_stim/white_mw070.bmp'><br><font color='red'><strong>Keep</strong></font></div></div></div>","null","ARRAY","2","trustrating_stim/white_mw040.bmp,trustrating_stim/white_mw070.bmp","1,0","noMatchFace","i","3000","","","","",""
"html-keyboard-response","11","143353","0.0-5.0-3.1","63614cab87b22b72231c66e0","bdp_wmem","Tue Mar 14 2023 00:42:43 GMT-0400 (Eastern Daylight Time)","774555","Match,No Match","","null","","","","","","<div class='trialBorder'><div class='vertical-center'><img src='img/fixation2_sml.jpg'</img></div></div>","null","DELAY","","","","","","","","","","",""
"html-keyboard-response","12","146227","0.0-5.0-4.1","63614cab87b22b72231c66e0","bdp_wmem","Tue Mar 14 2023 00:42:43 GMT-0400 (Eastern Daylight Time)","774555","Match,No Match","","2869","","","","","","<div class='trialBorder'><div class='targDiv'><div class='tc'><img class='introPic' src='trustrating_stim/white_mw010.bmp'><br><font color='green'><strong>Share</strong></font></div></div><div class='respDiv'><div class='respDivL'>Match<br>(e)</div><div class='respDivR'>No Match<br>(i)</div></div></div>","e","TARGET","2","trustrating_stim/white_mw040.bmp,trustrating_stim/white_mw070.bmp","1,0","noMatchFace","i","3000","trustrating_stim/white_mw010.bmp","green","Share","PRACTICE","0"
"html-keyboard-response","13","146737","0.0-5.0-5.1","63614cab87b22b72231c66e0","bdp_wmem","Tue Mar 14 2023 00:42:43 GMT-0400 (Eastern Daylight Time)","774555","Match,No Match","","null","","","","","","<div class='trialBorder'><div class='vertical-center'><img src='img/error.jpg'></div><div class='respDiv'><div class='respDivL'><font style='color:orange'>Match<br>(e)</font></div><div class='respDivR'>No Match<br>(i)</div></div></div>","null","FEEDBACK","","","","","","","","","","",""
"html-keyboard-response","14","147240","0.0-5.0-1.2","63614cab87b22b72231c66e0","bdp_wmem","Tue Mar 14 2023 00:42:43 GMT-0400 (Eastern Daylight Time)","774555","Match,No Match","","null","","","","","","<div class='trialBorder'><div class='vertical-center'><img src='img/fixation2_sml.jpg'</img></div></div>","null","FIX","","","","","","","","","","",""
"html-keyboard-response","15","151744","0.0-5.0-2.2","63614cab87b22b72231c66e0","bdp_wmem","Tue Mar 14 2023 00:42:43 GMT-0400 (Eastern Daylight Time)","774555","Match,No Match","","null","","","","","","<div class='trialBorder'><div class='vertical-center'><img style='vertical-align:center; align:center' src='img/fixation2_sml.jpg'></div><div class='arrayDiv3'><div class='tl'><img class='introPic' src='trustrating_stim/white_mw091.bmp'><br><font color='green'><strong>Share</strong></font></div><div class='tc'><img class='introPic' src='trustrating_stim/white_mw092.bmp'><br><font color='green'><strong>Share</strong></font></div><div class='tr'><img class='introPic' src='trustrating_stim/white_mw003.bmp'><br><font color='red'><strong>Keep</strong></font></div></div></div>","null","ARRAY","3","trustrating_stim/white_mw091.bmp,trustrating_stim/white_mw092.bmp,trustrating_stim/white_mw003.bmp","1,1,0","noMatchOutcome","i","4500","","","","",""
"html-keyboard-response","16","155752","0.0-5.0-3.2","63614cab87b22b72231c66e0","bdp_wmem","Tue Mar 14 2023 00:42:43 GMT-0400 (Eastern Daylight Time)","774555","Match,No Match","","null","","","","","","<div class='trialBorder'><div class='vertical-center'><img src='img/fixation2_sml.jpg'</img></div></div>","null","DELAY","","","","","","","","","","",""
"html-keyboard-response","17","156659","0.0-5.0-4.2","63614cab87b22b72231c66e0","bdp_wmem","Tue Mar 14 2023 00:42:43 GMT-0400 (Eastern Daylight Time)","774555","Match,No Match","","903","","","","","","<div class='trialBorder'><div class='targDiv'><div class='tc'><img class='introPic' src='trustrating_stim/white_mw091.bmp'><br><font color='red'><strong>Keep</strong></font></div></div><div class='respDiv'><div class='respDivL'>Match<br>(e)</div><div class='respDivR'>No Match<br>(i)</div></div></div>","i","TARGET","3","trustrating_stim/white_mw091.bmp,trustrating_stim/white_mw092.bmp,trustrating_stim/white_mw003.bmp","1,1,0","noMatchOutcome","i","4500","trustrating_stim/white_mw091.bmp","red","Keep","PRACTICE","1"
"html-keyboard-response","18","157169","0.0-5.0-5.2","63614cab87b22b72231c66e0","bdp_wmem","Tue Mar 14 2023 00:42:43 GMT-0400 (Eastern Daylight Time)","774555","Match,No Match","","null","","","","","","<div class='trialBorder'><div class='vertical-center'><img src='img/correct.jpg'></div><div class='respDiv'><div class='respDivL'>Match<br>(e)</div><div class='respDivR'><font style='color:orange'>No Match<br>(i)</font></div></div></div>","null","FEEDBACK","","","","","","","","","","",""
"html-keyboard-response","19","157672","0.0-5.0-1.3","63614cab87b22b72231c66e0","bdp_wmem","Tue Mar 14 2023 00:42:43 GMT-0400 (Eastern Daylight Time)","774555","Match,No Match","","null","","","","","","<div class='trialBorder'><div class='vertical-center'><img src='img/fixation2_sml.jpg'</img></div></div>","null","FIX","","","","","","","","","","",""
"html-keyboard-response","20","159176","0.0-5.0-2.3","63614cab87b22b72231c66e0","bdp_wmem","Tue Mar 14 2023 00:42:43 GMT-0400 (Eastern Daylight Time)","774555","Match,No Match","","null","","","","","","<div class='trialBorder'><div class='vertical-center'><img style='vertical-align:center; align:center' src='img/fixation2_sml.jpg'></div><div class='arrayDiv1'><div class='tc'><img class='introPic' src='trustrating_stim/white_mw042.bmp'><br><font color='green'><strong>Share</strong></font></div></div></div>","null","ARRAY","1","trustrating_stim/white_mw042.bmp","1","noMatchFace","i","1500","","","","",""
"html-keyboard-response","21","163184","0.0-5.0-3.3","63614cab87b22b72231c66e0","bdp_wmem","Tue Mar 14 2023 00:42:43 GMT-0400 (Eastern Daylight Time)","774555","Match,No Match","","null","","","","","","<div class='trialBorder'><div class='vertical-center'><img src='img/fixation2_sml.jpg'</img></div></div>","null","DELAY","","","","","","","","","","",""
"html-keyboard-response","22","173715","0.0-5.0-4.3","63614cab87b22b72231c66e0","bdp_wmem","Tue Mar 14 2023 00:42:43 GMT-0400 (Eastern Daylight Time)","774555","Match,No Match","","10528","","","","","","<div class='trialBorder'><div class='targDiv'><div class='tc'><img class='introPic' src='trustrating_stim/white_mw038.bmp'><br><font color='green'><strong>Share</strong></font></div></div><div class='respDiv'><div class='respDivL'>Match<br>(e)</div><div class='respDivR'>No Match<br>(i)</div></div></div>","e","TARGET","1","trustrating_stim/white_mw042.bmp","1","noMatchFace","i","1500","trustrating_stim/white_mw038.bmp","green","Share","PRACTICE","0"
"html-keyboard-response","23","174224","0.0-5.0-5.3","63614cab87b22b72231c66e0","bdp_wmem","Tue Mar 14 2023 00:42:43 GMT-0400 (Eastern Daylight Time)","774555","Match,No Match","","null","","","","","","<div class='trialBorder'><div class='vertical-center'><img src='img/error.jpg'></div><div class='respDiv'><div class='respDivL'><font style='color:orange'>Match<br>(e)</font></div><div class='respDivR'>No Match<br>(i)</div></div></div>","null","FEEDBACK","","","","","","","","","","",""
"html-keyboard-response","24","174728","0.0-5.0-1.4","63614cab87b22b72231c66e0","bdp_wmem","Tue Mar 14 2023 00:42:43 GMT-0400 (Eastern Daylight Time)","774555","Match,No Match","","null","","","","","","<div class='trialBorder'><div class='vertical-center'><img src='img/fixation2_sml.jpg'</img></div></div>","null","FIX","","","","","","","","","","",""
"html-keyboard-response","25","177736","0.0-5.0-2.4","63614cab87b22b72231c66e0","bdp_wmem","Tue Mar 14 2023 00:42:43 GMT-0400 (Eastern Daylight Time)","774555","Match,No Match","","null","","","","","","<div class='trialBorder'><div class='vertical-center'><img style='vertical-align:center; align:center' src='img/fixation2_sml.jpg'></div><div class='arrayDiv2'><div class='tl'><img class='introPic' src='trustrating_stim/white_mw092.bmp'><br><font color='red'><strong>Keep</strong></font></div><div class='tr'><img class='introPic' src='trustrating_stim/white_mw003.bmp'><br><font color='green'><strong>Share</strong></font></div></div></div>","null","ARRAY","2","trustrating_stim/white_mw092.bmp,trustrating_stim/white_mw003.bmp","0,1","Match","e","3000","","","","",""
"html-keyboard-response","26","181745","0.0-5.0-3.4","63614cab87b22b72231c66e0","bdp_wmem","Tue Mar 14 2023 00:42:43 GMT-0400 (Eastern Daylight Time)","774555","Match,No Match","","null","","","","","","<div class='trialBorder'><div class='vertical-center'><img src='img/fixation2_sml.jpg'</img></div></div>","null","DELAY","","","","","","","","","","",""
"html-keyboard-response","27","184266","0.0-5.0-4.4","63614cab87b22b72231c66e0","bdp_wmem","Tue Mar 14 2023 00:42:43 GMT-0400 (Eastern Daylight Time)","774555","Match,No Match","","2518","","","","","","<div class='trialBorder'><div class='targDiv'><div class='tc'><img class='introPic' src='trustrating_stim/white_mw003.bmp'><br><font color='green'><strong>Share</strong></font></div></div><div class='respDiv'><div class='respDivL'>Match<br>(e)</div><div class='respDivR'>No Match<br>(i)</div></div></div>","i","TARGET","2","trustrating_stim/white_mw092.bmp,trustrating_stim/white_mw003.bmp","0,1","Match","e","3000","trustrating_stim/white_mw003.bmp","green","Share","PRACTICE","0"
"html-keyboard-response","28","184768","0.0-5.0-5.4","63614cab87b22b72231c66e0","bdp_wmem","Tue Mar 14 2023 00:42:43 GMT-0400 (Eastern Daylight Time)","774555","Match,No Match","","null","","","","","","<div class='trialBorder'><div class='vertical-center'><img src='img/error.jpg'></div><div class='respDiv'><div class='respDivL'>Match<br>(e)</div><div class='respDivR'><font style='color:orange'>No Match<br>(i)</font></div></div></div>","null","FEEDBACK","","","","","","","","","","",""
"html-keyboard-response","29","185272","0.0-5.0-1.5","63614cab87b22b72231c66e0","bdp_wmem","Tue Mar 14 2023 00:42:43 GMT-0400 (Eastern Daylight Time)","774555","Match,No Match","","null","","","","","","<div class='trialBorder'><div class='vertical-center'><img src='img/fixation2_sml.jpg'</img></div></div>","null","FIX","","","","","","","","","","",""
"html-keyboard-response","30","186777","0.0-5.0-2.5","63614cab87b22b72231c66e0","bdp_wmem","Tue Mar 14 2023 00:42:43 GMT-0400 (Eastern Daylight Time)","774555","Match,No Match","","null","","","","","","<div class='trialBorder'><div class='vertical-center'><img style='vertical-align:center; align:center' src='img/fixation2_sml.jpg'></div><div class='arrayDiv1'><div class='tc'><img class='introPic' src='trustrating_stim/white_mw092.bmp'><br><font color='green'><strong>Share</strong></font></div></div></div>","null","ARRAY","1","trustrating_stim/white_mw092.bmp","1","Match","e","1500","","","","",""
"html-keyboard-response","31","190784","0.0-5.0-3.5","63614cab87b22b72231c66e0","bdp_wmem","Tue Mar 14 2023 00:42:43 GMT-0400 (Eastern Daylight Time)","774555","Match,No Match","","null","","","","","","<div class='trialBorder'><div class='vertical-center'><img src='img/fixation2_sml.jpg'</img></div></div>","null","DELAY","","","","","","","","","","",""
"html-keyboard-response","32","191537","0.0-5.0-4.5","63614cab87b22b72231c66e0","bdp_wmem","Tue Mar 14 2023 00:42:43 GMT-0400 (Eastern Daylight Time)","774555","Match,No Match","","748","","","","","","<div class='trialBorder'><div class='targDiv'><div class='tc'><img class='introPic' src='trustrating_stim/white_mw092.bmp'><br><font color='green'><strong>Share</strong></font></div></div><div class='respDiv'><div class='respDivL'>Match<br>(e)</div><div class='respDivR'>No Match<br>(i)</div></div></div>","e","TARGET","1","trustrating_stim/white_mw092.bmp","1","Match","e","1500","trustrating_stim/white_mw092.bmp","green","Share","PRACTICE","1"
"html-keyboard-response","33","192040","0.0-5.0-5.5","63614cab87b22b72231c66e0","bdp_wmem","Tue Mar 14 2023 00:42:43 GMT-0400 (Eastern Daylight Time)","774555","Match,No Match","","null","","","","","","<div class='trialBorder'><div class='vertical-center'><img src='img/correct.jpg'></div><div class='respDiv'><div class='respDivL'><font style='color:orange'>Match<br>(e)</font></div><div class='respDivR'>No Match<br>(i)</div></div></div>","null","FEEDBACK","","","","","","","","","","",""
"instructions","34","197694","0.0-6.0","63614cab87b22b72231c66e0","bdp_wmem","Tue Mar 14 2023 00:42:43 GMT-0400 (Eastern Daylight Time)","774555","Match,No Match","[{""page_index"":0,""viewing_time"":5653}]","5653","","","","","","","","","","","","","","","","","","",""
"html-keyboard-response","35","198200","0.0-7.0-1.0","63614cab87b22b72231c66e0","bdp_wmem","Tue Mar 14 2023 00:42:43 GMT-0400 (Eastern Daylight Time)","774555","Match,No Match","","null","","","","","","<div class='trialBorder'><div class='vertical-center'><img src='img/fixation2_sml.jpg'</img></div></div>","null","FIX","","","","","","","","","","",""
"html-keyboard-response","36","199704","0.0-7.0-2.0","63614cab87b22b72231c66e0","bdp_wmem","Tue Mar 14 2023 00:42:43 GMT-0400 (Eastern Daylight Time)","774555","Match,No Match","","null","","","","","","<div class='trialBorder'><div class='vertical-center'><img style='vertical-align:center; align:center' src='img/fixation2_sml.jpg'></div><div class='arrayDiv1'><div class='tc'><img class='introPic' src='trustrating_stim/white_mw040.bmp'><br><font color='red'><strong>Keep</strong></font></div></div></div>","null","ARRAY","1","trustrating_stim/white_mw040.bmp","0","noMatchOutcome","i","1500","","","","",""
"html-keyboard-response","37","203718","0.0-7.0-3.0","63614cab87b22b72231c66e0","bdp_wmem","Tue Mar 14 2023 00:42:43 GMT-0400 (Eastern Daylight Time)","774555","Match,No Match","","null","","","","","","<div class='trialBorder'><div class='vertical-center'><img src='img/fixation2_sml.jpg'</img></div></div>","null","DELAY","","","","","","","","","","",""
"html-keyboard-response","38","204743","0.0-7.0-4.0","63614cab87b22b72231c66e0","bdp_wmem","Tue Mar 14 2023 00:42:43 GMT-0400 (Eastern Daylight Time)","774555","Match,No Match","","1022","","","","","","<div class='trialBorder'><div class='targDiv'><div class='tc'><img class='introPic' src='trustrating_stim/white_mw040.bmp'><br><font color='green'><strong>Share</strong></font></div></div><div class='respDiv'><div class='respDivL'>Match<br>(e)</div><div class='respDivR'>No Match<br>(i)</div></div></div>","i","TARGET","1","trustrating_stim/white_mw040.bmp","0","noMatchOutcome","i","1500","trustrating_stim/white_mw040.bmp","green","Share","REAL","1"
"html-keyboard-response","39","205249","0.0-7.0-5.0","63614cab87b22b72231c66e0","bdp_wmem","Tue Mar 14 2023 00:42:43 GMT-0400 (Eastern Daylight Time)","774555","Match,No Match","","null","","","","","","<div class='trialBorder'><div class='vertical-center'><img src='img/correct.jpg'></div><div class='respDiv'><div class='respDivL'>Match<br>(e)</div><div class='respDivR'><font style='color:orange'>No Match<br>(i)</font></div></div></div>","null","FEEDBACK","","","","","","","","","","",""
"html-keyboard-response","40","205753","0.0-7.0-1.1","63614cab87b22b72231c66e0","bdp_wmem","Tue Mar 14 2023 00:42:43 GMT-0400 (Eastern Daylight Time)","774555","Match,No Match","","null","","","","","","<div class='trialBorder'><div class='vertical-center'><img src='img/fixation2_sml.jpg'</img></div></div>","null","FIX","","","","","","","","","","",""
"html-keyboard-response","41","210264","0.0-7.0-2.1","63614cab87b22b72231c66e0","bdp_wmem","Tue Mar 14 2023 00:42:43 GMT-0400 (Eastern Daylight Time)","774555","Match,No Match","","null","","","","","","<div class='trialBorder'><div class='vertical-center'><img style='vertical-align:center; align:center' src='img/fixation2_sml.jpg'></div><div class='arrayDiv3'><div class='tl'><img class='introPic' src='trustrating_stim/white_mw003.bmp'><br><font color='red'><strong>Keep</strong></font></div><div class='tc'><img class='introPic' src='trustrating_stim/white_mw092.bmp'><br><font color='green'><strong>Share</strong></font></div><div class='tr'><img class='introPic' src='trustrating_stim/white_mw012.bmp'><br><font color='red'><strong>Keep</strong></font></div></div></div>","null","ARRAY","3","trustrating_stim/white_mw003.bmp,trustrating_stim/white_mw092.bmp,trustrating_stim/white_mw012.bmp","0,1,0","Match","e","4500","","","","",""
"html-keyboard-response","42","214272","0.0-7.0-3.1","63614cab87b22b72231c66e0","bdp_wmem","Tue Mar 14 2023 00:42:43 GMT-0400 (Eastern Daylight Time)","774555","Match,No Match","","null","","","","","","<div class='trialBorder'><div class='vertical-center'><img src='img/fixation2_sml.jpg'</img></div></div>","null","DELAY","","","","","","","","","","",""
"html-keyboard-response","43","215378","0.0-7.0-4.1","63614cab87b22b72231c66e0","bdp_wmem","Tue Mar 14 2023 00:42:43 GMT-0400 (Eastern Daylight Time)","774555","Match,No Match","","1102","","","","","","<div class='trialBorder'><div class='targDiv'><div class='tc'><img class='introPic' src='trustrating_stim/white_mw092.bmp'><br><font color='green'><strong>Share</strong></font></div></div><div class='respDiv'><div class='respDivL'>Match<br>(e)</div><div class='respDivR'>No Match<br>(i)</div></div></div>","i","TARGET","3","trustrating_stim/white_mw003.bmp,trustrating_stim/white_mw092.bmp,trustrating_stim/white_mw012.bmp","0,1,0","Match","e","4500","trustrating_stim/white_mw092.bmp","green","Share","REAL","0"
"html-keyboard-response","44","215880","0.0-7.0-5.1","63614cab87b22b72231c66e0","bdp_wmem","Tue Mar 14 2023 00:42:43 GMT-0400 (Eastern Daylight Time)","774555","Match,No Match","","null","","","","","","<div class='trialBorder'><div class='vertical-center'><img src='img/error.jpg'></div><div class='respDiv'><div class='respDivL'>Match<br>(e)</div><div class='respDivR'><font style='color:orange'>No Match<br>(i)</font></div></div></div>","null","FEEDBACK","","","","","","","","","","",""
"html-keyboard-response","45","216384","0.0-7.0-1.2","63614cab87b22b72231c66e0","bdp_wmem","Tue Mar 14 2023 00:42:43 GMT-0400 (Eastern Daylight Time)","774555","Match,No Match","","null","","","","","","<div class='trialBorder'><div class='vertical-center'><img src='img/fixation2_sml.jpg'</img></div></div>","null","FIX","","","","","","","","","","",""
"html-keyboard-response","46","219393","0.0-7.0-2.2","63614cab87b22b72231c66e0","bdp_wmem","Tue Mar 14 2023 00:42:43 GMT-0400 (Eastern Daylight Time)","774555","Match,No Match","","null","","","","","","<div class='trialBorder'><div class='vertical-center'><img style='vertical-align:center; align:center' src='img/fixation2_sml.jpg'></div><div class='arrayDiv2'><div class='tl'><img class='introPic' src='trustrating_stim/white_mw078.bmp'><br><font color='green'><strong>Share</strong></font></div><div class='tr'><img class='introPic' src='trustrating_stim/white_mw042.bmp'><br><font color='red'><strong>Keep</strong></font></div></div></div>","null","ARRAY","2","trustrating_stim/white_mw078.bmp,trustrating_stim/white_mw042.bmp","1,0","noMatchOutcome","i","3000","","","","",""
"html-keyboard-response","47","223400","0.0-7.0-3.2","63614cab87b22b72231c66e0","bdp_wmem","Tue Mar 14 2023 00:42:43 GMT-0400 (Eastern Daylight Time)","774555","Match,No Match","","null","","","","","","<div class='trialBorder'><div class='vertical-center'><img src='img/fixation2_sml.jpg'</img></div></div>","null","DELAY","","","","","","","","","","",""
"html-keyboard-response","48","227633","0.0-7.0-4.2","63614cab87b22b72231c66e0","bdp_wmem","Tue Mar 14 2023 00:42:43 GMT-0400 (Eastern Daylight Time)","774555","Match,No Match","","4231","","","","","","<div class='trialBorder'><div class='targDiv'><div class='tc'><img class='introPic' src='trustrating_stim/white_mw078.bmp'><br><font color='red'><strong>Keep</strong></font></div></div><div class='respDiv'><div class='respDivL'>Match<br>(e)</div><div class='respDivR'>No Match<br>(i)</div></div></div>","i","TARGET","2","trustrating_stim/white_mw078.bmp,trustrating_stim/white_mw042.bmp","1,0","noMatchOutcome","i","3000","trustrating_stim/white_mw078.bmp","red","Keep","REAL","1"
"html-keyboard-response","49","228136","0.0-7.0-5.2","63614cab87b22b72231c66e0","bdp_wmem","Tue Mar 14 2023 00:42:43 GMT-0400 (Eastern Daylight Time)","774555","Match,No Match","","null","","","","","","<div class='trialBorder'><div class='vertical-center'><img src='img/correct.jpg'></div><div class='respDiv'><div class='respDivL'>Match<br>(e)</div><div class='respDivR'><font style='color:orange'>No Match<br>(i)</font></div></div></div>","null","FEEDBACK","","","","","","","","","","",""
"html-keyboard-response","50","228640","0.0-7.0-1.3","63614cab87b22b72231c66e0","bdp_wmem","Tue Mar 14 2023 00:42:43 GMT-0400 (Eastern Daylight Time)","774555","Match,No Match","","null","","","","","","<div class='trialBorder'><div class='vertical-center'><img src='img/fixation2_sml.jpg'</img></div></div>","null","FIX","","","","","","","","","","",""
"html-keyboard-response","51","230152","0.0-7.0-2.3","63614cab87b22b72231c66e0","bdp_wmem","Tue Mar 14 2023 00:42:43 GMT-0400 (Eastern Daylight Time)","774555","Match,No Match","","null","","","","","","<div class='trialBorder'><div class='vertical-center'><img style='vertical-align:center; align:center' src='img/fixation2_sml.jpg'></div><div class='arrayDiv1'><div class='tc'><img class='introPic' src='trustrating_stim/white_mw012.bmp'><br><font color='green'><strong>Share</strong></font></div></div></div>","null","ARRAY","1","trustrating_stim/white_mw012.bmp","1","Match","e","1500","","","","",""
"html-keyboard-response","52","234161","0.0-7.0-3.3","63614cab87b22b72231c66e0","bdp_wmem","Tue Mar 14 2023 00:42:43 GMT-0400 (Eastern Daylight Time)","774555","Match,No Match","","null","","","","","","<div class='trialBorder'><div class='vertical-center'><img src='img/fixation2_sml.jpg'</img></div></div>","null","DELAY","","","","","","","","","","",""
"html-keyboard-response","53","237267","0.0-7.0-4.3","63614cab87b22b72231c66e0","bdp_wmem","Tue Mar 14 2023 00:42:43 GMT-0400 (Eastern Daylight Time)","774555","Match,No Match","","3103","","","","","","<div class='trialBorder'><div class='targDiv'><div class='tc'><img class='introPic' src='trustrating_stim/white_mw012.bmp'><br><font color='green'><strong>Share</strong></font></div></div><div class='respDiv'><div class='respDivL'>Match<br>(e)</div><div class='respDivR'>No Match<br>(i)</div></div></div>","e","TARGET","1","trustrating_stim/white_mw012.bmp","1","Match","e","1500","trustrating_stim/white_mw012.bmp","green","Share","REAL","1"
"html-keyboard-response","54","237776","0.0-7.0-5.3","63614cab87b22b72231c66e0","bdp_wmem","Tue Mar 14 2023 00:42:43 GMT-0400 (Eastern Daylight Time)","774555","Match,No Match","","null","","","","","","<div class='trialBorder'><div class='vertical-center'><img src='img/correct.jpg'></div><div class='respDiv'><div class='respDivL'><font style='color:orange'>Match<br>(e)</font></div><div class='respDivR'>No Match<br>(i)</div></div></div>","null","FEEDBACK","","","","","","","","","","",""
"html-keyboard-response","55","238280","0.0-7.0-1.4","63614cab87b22b72231c66e0","bdp_wmem","Tue Mar 14 2023 00:42:43 GMT-0400 (Eastern Daylight Time)","774555","Match,No Match","","null","","","","","","<div class='trialBorder'><div class='vertical-center'><img src='img/fixation2_sml.jpg'</img></div></div>","null","FIX","","","","","","","","","","",""
"html-keyboard-response","56","242785","0.0-7.0-2.4","63614cab87b22b72231c66e0","bdp_wmem","Tue Mar 14 2023 00:42:43 GMT-0400 (Eastern Daylight Time)","774555","Match,No Match","","null","","","","","","<div class='trialBorder'><div class='vertical-center'><img style='vertical-align:center; align:center' src='img/fixation2_sml.jpg'></div><div class='arrayDiv3'><div class='tl'><img class='introPic' src='trustrating_stim/white_mw013.bmp'><br><font color='red'><strong>Keep</strong></font></div><div class='tc'><img class='introPic' src='trustrating_stim/white_mw003.bmp'><br><font color='green'><strong>Share</strong></font></div><div class='tr'><img class='introPic' src='trustrating_stim/white_mw012.bmp'><br><font color='green'><strong>Share</strong></font></div></div></div>","null","ARRAY","3","trustrating_stim/white_mw013.bmp,trustrating_stim/white_mw003.bmp,trustrating_stim/white_mw012.bmp","0,1,1","Match","e","4500","","","","",""
"html-keyboard-response","57","246792","0.0-7.0-3.4","63614cab87b22b72231c66e0","bdp_wmem","Tue Mar 14 2023 00:42:43 GMT-0400 (Eastern Daylight Time)","774555","Match,No Match","","null","","","","","","<div class='trialBorder'><div class='vertical-center'><img src='img/fixation2_sml.jpg'</img></div></div>","null","DELAY","","","","","","","","","","",""
"html-keyboard-response","58","247404","0.0-7.0-4.4","63614cab87b22b72231c66e0","bdp_wmem","Tue Mar 14 2023 00:42:43 GMT-0400 (Eastern Daylight Time)","774555","Match,No Match","","610","","","","","","<div class='trialBorder'><div class='targDiv'><div class='tc'><img class='introPic' src='trustrating_stim/white_mw012.bmp'><br><font color='green'><strong>Share</strong></font></div></div><div class='respDiv'><div class='respDivL'>Match<br>(e)</div><div class='respDivR'>No Match<br>(i)</div></div></div>","e","TARGET","3","trustrating_stim/white_mw013.bmp,trustrating_stim/white_mw003.bmp,trustrating_stim/white_mw012.bmp","0,1,1","Match","e","4500","trustrating_stim/white_mw012.bmp","green","Share","REAL","1"
"html-keyboard-response","59","247912","0.0-7.0-5.4","63614cab87b22b72231c66e0","bdp_wmem","Tue Mar 14 2023 00:42:43 GMT-0400 (Eastern Daylight Time)","774555","Match,No Match","","null","","","","","","<div class='trialBorder'><div class='vertical-center'><img src='img/correct.jpg'></div><div class='respDiv'><div class='respDivL'><font style='color:orange'>Match<br>(e)</font></div><div class='respDivR'>No Match<br>(i)</div></div></div>","null","FEEDBACK","","","","","","","","","","",""
"html-keyboard-response","60","248416","0.0-7.0-1.5","63614cab87b22b72231c66e0","bdp_wmem","Tue Mar 14 2023 00:42:43 GMT-0400 (Eastern Daylight Time)","774555","Match,No Match","","null","","","","","","<div class='trialBorder'><div class='vertical-center'><img src='img/fixation2_sml.jpg'</img></div></div>","null","FIX","","","","","","","","","","",""
"html-keyboard-response","61","252929","0.0-7.0-2.5","63614cab87b22b72231c66e0","bdp_wmem","Tue Mar 14 2023 00:42:43 GMT-0400 (Eastern Daylight Time)","774555","Match,No Match","","null","","","","","","<div class='trialBorder'><div class='vertical-center'><img style='vertical-align:center; align:center' src='img/fixation2_sml.jpg'></div><div class='arrayDiv3'><div class='tl'><img class='introPic' src='trustrating_stim/white_mw040.bmp'><br><font color='green'><strong>Share</strong></font></div><div class='tc'><img class='introPic' src='trustrating_stim/white_mw070.bmp'><br><font color='red'><strong>Keep</strong></font></div><div class='tr'><img class='introPic' src='trustrating_stim/white_mw013.bmp'><br><font color='red'><strong>Keep</strong></font></div></div></div>","null","ARRAY","3","trustrating_stim/white_mw040.bmp,trustrating_stim/white_mw070.bmp,trustrating_stim/white_mw013.bmp","1,0,0","Match","e","4500","","","","",""
"html-keyboard-response","62","256936","0.0-7.0-3.5","63614cab87b22b72231c66e0","bdp_wmem","Tue Mar 14 2023 00:42:43 GMT-0400 (Eastern Daylight Time)","774555","Match,No Match","","null","","","","","","<div class='trialBorder'><div class='vertical-center'><img src='img/fixation2_sml.jpg'</img></div></div>","null","DELAY","","","","","","","","","","",""
"html-keyboard-response","63","257817","0.0-7.0-4.5","63614cab87b22b72231c66e0","bdp_wmem","Tue Mar 14 2023 00:42:43 GMT-0400 (Eastern Daylight Time)","774555","Match,No Match","","878","","","","","","<div class='trialBorder'><div class='targDiv'><div class='tc'><img class='introPic' src='trustrating_stim/white_mw040.bmp'><br><font color='green'><strong>Share</strong></font></div></div><div class='respDiv'><div class='respDivL'>Match<br>(e)</div><div class='respDivR'>No Match<br>(i)</div></div></div>","i","TARGET","3","trustrating_stim/white_mw040.bmp,trustrating_stim/white_mw070.bmp,trustrating_stim/white_mw013.bmp","1,0,0","Match","e","4500","trustrating_stim/white_mw040.bmp","green","Share","REAL","0"
"html-keyboard-response","64","258321","0.0-7.0-5.5","63614cab87b22b72231c66e0","bdp_wmem","Tue Mar 14 2023 00:42:43 GMT-0400 (Eastern Daylight Time)","774555","Match,No Match","","null","","","","","","<div class='trialBorder'><div class='vertical-center'><img src='img/error.jpg'></div><div class='respDiv'><div class='respDivL'>Match<br>(e)</div><div class='respDivR'><font style='color:orange'>No Match<br>(i)</font></div></div></div>","null","FEEDBACK","","","","","","","","","","",""
"html-keyboard-response","65","258824","0.0-7.0-1.6","63614cab87b22b72231c66e0","bdp_wmem","Tue Mar 14 2023 00:42:43 GMT-0400 (Eastern Daylight Time)","774555","Match,No Match","","null","","","","","","<div class='trialBorder'><div class='vertical-center'><img src='img/fixation2_sml.jpg'</img></div></div>","null","FIX","","","","","","","","","","",""
"html-keyboard-response","66","263328","0.0-7.0-2.6","63614cab87b22b72231c66e0","bdp_wmem","Tue Mar 14 2023 00:42:43 GMT-0400 (Eastern Daylight Time)","774555","Match,No Match","","null","","","","","","<div class='trialBorder'><div class='vertical-center'><img style='vertical-align:center; align:center' src='img/fixation2_sml.jpg'></div><div class='arrayDiv3'><div class='tl'><img class='introPic' src='trustrating_stim/white_mw078.bmp'><br><font color='green'><strong>Share</strong></font></div><div class='tc'><img class='introPic' src='trustrating_stim/white_mw040.bmp'><br><font color='green'><strong>Share</strong></font></div><div class='tr'><img class='introPic' src='trustrating_stim/white_mw092.bmp'><br><font color='red'><strong>Keep</strong></font></div></div></div>","null","ARRAY","3","trustrating_stim/white_mw078.bmp,trustrating_stim/white_mw040.bmp,trustrating_stim/white_mw092.bmp","1,1,0","noMatchOutcome","i","4500","","","","",""
"html-keyboard-response","67","267336","0.0-7.0-3.6","63614cab87b22b72231c66e0","bdp_wmem","Tue Mar 14 2023 00:42:43 GMT-0400 (Eastern Daylight Time)","774555","Match,No Match","","null","","","","","","<div class='trialBorder'><div class='vertical-center'><img src='img/fixation2_sml.jpg'</img></div></div>","null","DELAY","","","","","","","","","","",""
"html-keyboard-response","68","268554","0.0-7.0-4.6","63614cab87b22b72231c66e0","bdp_wmem","Tue Mar 14 2023 00:42:43 GMT-0400 (Eastern Daylight Time)","774555","Match,No Match","","1215","","","","","","<div class='trialBorder'><div class='targDiv'><div class='tc'><img class='introPic' src='trustrating_stim/white_mw040.bmp'><br><font color='red'><strong>Keep</strong></font></div></div><div class='respDiv'><div class='respDivL'>Match<br>(e)</div><div class='respDivR'>No Match<br>(i)</div></div></div>","i","TARGET","3","trustrating_stim/white_mw078.bmp,trustrating_stim/white_mw040.bmp,trustrating_stim/white_mw092.bmp","1,1,0","noMatchOutcome","i","4500","trustrating_stim/white_mw040.bmp","red","Keep","REAL","1"
"html-keyboard-response","69","269056","0.0-7.0-5.6","63614cab87b22b72231c66e0","bdp_wmem","Tue Mar 14 2023 00:42:43 GMT-0400 (Eastern Daylight Time)","774555","Match,No Match","","null","","","","","","<div class='trialBorder'><div class='vertical-center'><img src='img/correct.jpg'></div><div class='respDiv'><div class='respDivL'>Match<br>(e)</div><div class='respDivR'><font style='color:orange'>No Match<br>(i)</font></div></div></div>","null","FEEDBACK","","","","","","","","","","",""
"html-keyboard-response","70","269561","0.0-7.0-1.7","63614cab87b22b72231c66e0","bdp_wmem","Tue Mar 14 2023 00:42:43 GMT-0400 (Eastern Daylight Time)","774555","Match,No Match","","null","","","","","","<div class='trialBorder'><div class='vertical-center'><img src='img/fixation2_sml.jpg'</img></div></div>","null","FIX","","","","","","","","","","",""
"html-keyboard-response","71","272569","0.0-7.0-2.7","63614cab87b22b72231c66e0","bdp_wmem","Tue Mar 14 2023 00:42:43 GMT-0400 (Eastern Daylight Time)","774555","Match,No Match","","null","","","","","","<div class='trialBorder'><div class='vertical-center'><img style='vertical-align:center; align:center' src='img/fixation2_sml.jpg'></div><div class='arrayDiv2'><div class='tl'><img class='introPic' src='trustrating_stim/white_mw092.bmp'><br><font color='green'><strong>Share</strong></font></div><div class='tr'><img class='introPic' src='trustrating_stim/white_mw038.bmp'><br><font color='red'><strong>Keep</strong></font></div></div></div>","null","ARRAY","2","trustrating_stim/white_mw092.bmp,trustrating_stim/white_mw038.bmp","1,0","noMatchOutcome","i","3000","","","","",""
"html-keyboard-response","72","276576","0.0-7.0-3.7","63614cab87b22b72231c66e0","bdp_wmem","Tue Mar 14 2023 00:42:43 GMT-0400 (Eastern Daylight Time)","774555","Match,No Match","","null","","","","","","<div class='trialBorder'><div class='vertical-center'><img src='img/fixation2_sml.jpg'</img></div></div>","null","DELAY","","","","","","","","","","",""
"html-keyboard-response","73","281546","0.0-7.0-4.7","63614cab87b22b72231c66e0","bdp_wmem","Tue Mar 14 2023 00:42:43 GMT-0400 (Eastern Daylight Time)","774555","Match,No Match","","4964","","","","","","<div class='trialBorder'><div class='targDiv'><div class='tc'><img class='introPic' src='trustrating_stim/white_mw092.bmp'><br><font color='red'><strong>Keep</strong></font></div></div><div class='respDiv'><div class='respDivL'>Match<br>(e)</div><div class='respDivR'>No Match<br>(i)</div></div></div>","i","TARGET","2","trustrating_stim/white_mw092.bmp,trustrating_stim/white_mw038.bmp","1,0","noMatchOutcome","i","3000","trustrating_stim/white_mw092.bmp","red","Keep","REAL","1"
"html-keyboard-response","74","282049","0.0-7.0-5.7","63614cab87b22b72231c66e0","bdp_wmem","Tue Mar 14 2023 00:42:43 GMT-0400 (Eastern Daylight Time)","774555","Match,No Match","","null","","","","","","<div class='trialBorder'><div class='vertical-center'><img src='img/correct.jpg'></div><div class='respDiv'><div class='respDivL'>Match<br>(e)</div><div class='respDivR'><font style='color:orange'>No Match<br>(i)</font></div></div></div>","null","FEEDBACK","","","","","","","","","","",""
"html-keyboard-response","75","282552","0.0-7.0-1.8","63614cab87b22b72231c66e0","bdp_wmem","Tue Mar 14 2023 00:42:43 GMT-0400 (Eastern Daylight Time)","774555","Match,No Match","","null","","","","","","<div class='trialBorder'><div class='vertical-center'><img src='img/fixation2_sml.jpg'</img></div></div>","null","FIX","","","","","","","","","","",""
"html-keyboard-response","76","284057","0.0-7.0-2.8","63614cab87b22b72231c66e0","bdp_wmem","Tue Mar 14 2023 00:42:43 GMT-0400 (Eastern Daylight Time)","774555","Match,No Match","","null","","","","","","<div class='trialBorder'><div class='vertical-center'><img style='vertical-align:center; align:center' src='img/fixation2_sml.jpg'></div><div class='arrayDiv1'><div class='tc'><img class='introPic' src='trustrating_stim/white_mw078.bmp'><br><font color='green'><strong>Share</strong></font></div></div></div>","null","ARRAY","1","trustrating_stim/white_mw078.bmp","1","Match","e","1500","","","","",""
"html-keyboard-response","77","288064","0.0-7.0-3.8","63614cab87b22b72231c66e0","bdp_wmem","Tue Mar 14 2023 00:42:43 GMT-0400 (Eastern Daylight Time)","774555","Match,No Match","","null","","","","","","<div class='trialBorder'><div class='vertical-center'><img src='img/fixation2_sml.jpg'</img></div></div>","null","DELAY","","","","","","","","","","",""
"html-keyboard-response","78","289303","0.0-7.0-4.8","63614cab87b22b72231c66e0","bdp_wmem","Tue Mar 14 2023 00:42:43 GMT-0400 (Eastern Daylight Time)","774555","Match,No Match","","1233","","","","","","<div class='trialBorder'><div class='targDiv'><div class='tc'><img class='introPic' src='trustrating_stim/white_mw078.bmp'><br><font color='green'><strong>Share</strong></font></div></div><div class='respDiv'><div class='respDivL'>Match<br>(e)</div><div class='respDivR'>No Match<br>(i)</div></div></div>","e","TARGET","1","trustrating_stim/white_mw078.bmp","1","Match","e","1500","trustrating_stim/white_mw078.bmp","green","Share","REAL","1"
"html-keyboard-response","79","289809","0.0-7.0-5.8","63614cab87b22b72231c66e0","bdp_wmem","Tue Mar 14 2023 00:42:43 GMT-0400 (Eastern Daylight Time)","774555","Match,No Match","","null","","","","","","<div class='trialBorder'><div class='vertical-center'><img src='img/correct.jpg'></div><div class='respDiv'><div class='respDivL'><font style='color:orange'>Match<br>(e)</font></div><div class='respDivR'>No Match<br>(i)</div></div></div>","null","FEEDBACK","","","","","","","","","","",""
"html-keyboard-response","80","290312","0.0-7.0-1.9","63614cab87b22b72231c66e0","bdp_wmem","Tue Mar 14 2023 00:42:43 GMT-0400 (Eastern Daylight Time)","774555","Match,No Match","","null","","","","","","<div class='trialBorder'><div class='vertical-center'><img src='img/fixation2_sml.jpg'</img></div></div>","null","FIX","","","","","","","","","","",""
"html-keyboard-response","81","291816","0.0-7.0-2.9","63614cab87b22b72231c66e0","bdp_wmem","Tue Mar 14 2023 00:42:43 GMT-0400 (Eastern Daylight Time)","774555","Match,No Match","","null","","","","","","<div class='trialBorder'><div class='vertical-center'><img style='vertical-align:center; align:center' src='img/fixation2_sml.jpg'></div><div class='arrayDiv1'><div class='tc'><img class='introPic' src='trustrating_stim/white_mw038.bmp'><br><font color='red'><strong>Keep</strong></font></div></div></div>","null","ARRAY","1","trustrating_stim/white_mw038.bmp","0","Match","e","1500","","","","",""
"html-keyboard-response","82","295825","0.0-7.0-3.9","63614cab87b22b72231c66e0","bdp_wmem","Tue Mar 14 2023 00:42:43 GMT-0400 (Eastern Daylight Time)","774555","Match,No Match","","null","","","","","","<div class='trialBorder'><div class='vertical-center'><img src='img/fixation2_sml.jpg'</img></div></div>","null","DELAY","","","","","","","","","","",""
"html-keyboard-response","83","298841","0.0-7.0-4.9","63614cab87b22b72231c66e0","bdp_wmem","Tue Mar 14 2023 00:42:43 GMT-0400 (Eastern Daylight Time)","774555","Match,No Match","","3013","","","","","","<div class='trialBorder'><div class='targDiv'><div class='tc'><img class='introPic' src='trustrating_stim/white_mw038.bmp'><br><font color='red'><strong>Keep</strong></font></div></div><div class='respDiv'><div class='respDivL'>Match<br>(e)</div><div class='respDivR'>No Match<br>(i)</div></div></div>","i","TARGET","1","trustrating_stim/white_mw038.bmp","0","Match","e","1500","trustrating_stim/white_mw038.bmp","red","Keep","REAL","0"
"html-keyboard-response","84","299344","0.0-7.0-5.9","63614cab87b22b72231c66e0","bdp_wmem","Tue Mar 14 2023 00:42:43 GMT-0400 (Eastern Daylight Time)","774555","Match,No Match","","null","","","","","","<div class='trialBorder'><div class='vertical-center'><img src='img/error.jpg'></div><div class='respDiv'><div class='respDivL'>Match<br>(e)</div><div class='respDivR'><font style='color:orange'>No Match<br>(i)</font></div></div></div>","null","FEEDBACK","","","","","","","","","","",""
"html-keyboard-response","85","299848","0.0-7.0-1.10","63614cab87b22b72231c66e0","bdp_wmem","Tue Mar 14 2023 00:42:43 GMT-0400 (Eastern Daylight Time)","774555","Match,No Match","","null","","","","","","<div class='trialBorder'><div class='vertical-center'><img src='img/fixation2_sml.jpg'</img></div></div>","null","FIX","","","","","","","","","","",""
"html-keyboard-response","86","302856","0.0-7.0-2.10","63614cab87b22b72231c66e0","bdp_wmem","Tue Mar 14 2023 00:42:43 GMT-0400 (Eastern Daylight Time)","774555","Match,No Match","","null","","","","","","<div class='trialBorder'><div class='vertical-center'><img style='vertical-align:center; align:center' src='img/fixation2_sml.jpg'></div><div class='arrayDiv2'><div class='tl'><img class='introPic' src='trustrating_stim/white_mw042.bmp'><br><font color='green'><strong>Share</strong></font></div><div class='tr'><img class='introPic' src='trustrating_stim/white_mw038.bmp'><br><font color='red'><strong>Keep</strong></font></div></div></div>","null","ARRAY","2","trustrating_stim/white_mw042.bmp,trustrating_stim/white_mw038.bmp","1,0","noMatchFace","i","3000","","","","",""
"html-keyboard-response","87","306864","0.0-7.0-3.10","63614cab87b22b72231c66e0","bdp_wmem","Tue Mar 14 2023 00:42:43 GMT-0400 (Eastern Daylight Time)","774555","Match,No Match","","null","","","","","","<div class='trialBorder'><div class='vertical-center'><img src='img/fixation2_sml.jpg'</img></div></div>","null","DELAY","","","","","","","","","","",""
"html-keyboard-response","88","307239","0.0-7.0-4.10","63614cab87b22b72231c66e0","bdp_wmem","Tue Mar 14 2023 00:42:43 GMT-0400 (Eastern Daylight Time)","774555","Match,No Match","","371","","","","","","<div class='trialBorder'><div class='targDiv'><div class='tc'><img class='introPic' src='trustrating_stim/white_mw092.bmp'><br><font color='green'><strong>Share</strong></font></div></div><div class='respDiv'><div class='respDivL'>Match<br>(e)</div><div class='respDivR'>No Match<br>(i)</div></div></div>","e","TARGET","2","trustrating_stim/white_mw042.bmp,trustrating_stim/white_mw038.bmp","1,0","noMatchFace","i","3000","trustrating_stim/white_mw092.bmp","green","Share","REAL","0"
"html-keyboard-response","89","307744","0.0-7.0-5.10","63614cab87b22b72231c66e0","bdp_wmem","Tue Mar 14 2023 00:42:43 GMT-0400 (Eastern Daylight Time)","774555","Match,No Match","","null","","","","","","<div class='trialBorder'><div class='vertical-center'><img src='img/error.jpg'></div><div class='respDiv'><div class='respDivL'><font style='color:orange'>Match<br>(e)</font></div><div class='respDivR'>No Match<br>(i)</div></div></div>","null","FEEDBACK","","","","","","","","","","",""
"html-keyboard-response","90","308248","0.0-7.0-1.11","63614cab87b22b72231c66e0","bdp_wmem","Tue Mar 14 2023 00:42:43 GMT-0400 (Eastern Daylight Time)","774555","Match,No Match","","null","","","","","","<div class='trialBorder'><div class='vertical-center'><img src='img/fixation2_sml.jpg'</img></div></div>","null","FIX","","","","","","","","","","",""
"html-keyboard-response","91","311256","0.0-7.0-2.11","63614cab87b22b72231c66e0","bdp_wmem","Tue Mar 14 2023 00:42:43 GMT-0400 (Eastern Daylight Time)","774555","Match,No Match","","null","","","","","","<div class='trialBorder'><div class='vertical-center'><img style='vertical-align:center; align:center' src='img/fixation2_sml.jpg'></div><div class='arrayDiv2'><div class='tl'><img class='introPic' src='trustrating_stim/white_mw070.bmp'><br><font color='green'><strong>Share</strong></font></div><div class='tr'><img class='introPic' src='trustrating_stim/white_mw042.bmp'><br><font color='red'><strong>Keep</strong></font></div></div></div>","null","ARRAY","2","trustrating_stim/white_mw070.bmp,trustrating_stim/white_mw042.bmp","1,0","Match","e","3000","","","","",""
"html-keyboard-response","92","315264","0.0-7.0-3.11","63614cab87b22b72231c66e0","bdp_wmem","Tue Mar 14 2023 00:42:43 GMT-0400 (Eastern Daylight Time)","774555","Match,No Match","","null","","","","","","<div class='trialBorder'><div class='vertical-center'><img src='img/fixation2_sml.jpg'</img></div></div>","null","DELAY","","","","","","","","","","",""
"html-keyboard-response","93","316749","0.0-7.0-4.11","63614cab87b22b72231c66e0","bdp_wmem","Tue Mar 14 2023 00:42:43 GMT-0400 (Eastern Daylight Time)","774555","Match,No Match","","1480","","","","","","<div class='trialBorder'><div class='targDiv'><div class='tc'><img class='introPic' src='trustrating_stim/white_mw070.bmp'><br><font color='green'><strong>Share</strong></font></div></div><div class='respDiv'><div class='respDivL'>Match<br>(e)</div><div class='respDivR'>No Match<br>(i)</div></div></div>","i","TARGET","2","trustrating_stim/white_mw070.bmp,trustrating_stim/white_mw042.bmp","1,0","Match","e","3000","trustrating_stim/white_mw070.bmp","green","Share","REAL","0"
"html-keyboard-response","94","317256","0.0-7.0-5.11","63614cab87b22b72231c66e0","bdp_wmem","Tue Mar 14 2023 00:42:43 GMT-0400 (Eastern Daylight Time)","774555","Match,No Match","","null","","","","","","<div class='trialBorder'><div class='vertical-center'><img src='img/error.jpg'></div><div class='respDiv'><div class='respDivL'>Match<br>(e)</div><div class='respDivR'><font style='color:orange'>No Match<br>(i)</font></div></div></div>","null","FEEDBACK","","","","","","","","","","",""
"html-keyboard-response","95","317761","0.0-7.0-1.12","63614cab87b22b72231c66e0","bdp_wmem","Tue Mar 14 2023 00:42:43 GMT-0400 (Eastern Daylight Time)","774555","Match,No Match","","null","","","","","","<div class='trialBorder'><div class='vertical-center'><img src='img/fixation2_sml.jpg'</img></div></div>","null","FIX","","","","","","","","","","",""
"html-keyboard-response","96","319272","0.0-7.0-2.12","63614cab87b22b72231c66e0","bdp_wmem","Tue Mar 14 2023 00:42:43 GMT-0400 (Eastern Daylight Time)","774555","Match,No Match","","null","","","","","","<div class='trialBorder'><div class='vertical-center'><img style='vertical-align:center; align:center' src='img/fixation2_sml.jpg'></div><div class='arrayDiv1'><div class='tc'><img class='introPic' src='trustrating_stim/white_mw038.bmp'><br><font color='green'><strong>Share</strong></font></div></div></div>","null","ARRAY","1","trustrating_stim/white_mw038.bmp","1","Match","e","1500","","","","",""
"html-keyboard-response","97","323280","0.0-7.0-3.12","63614cab87b22b72231c66e0","bdp_wmem","Tue Mar 14 2023 00:42:43 GMT-0400 (Eastern Daylight Time)","774555","Match,No Match","","null","","","","","","<div class='trialBorder'><div class='vertical-center'><img src='img/fixation2_sml.jpg'</img></div></div>","null","DELAY","","","","","","","","","","",""
"html-keyboard-response","98","326974","0.0-7.0-4.12","63614cab87b22b72231c66e0","bdp_wmem","Tue Mar 14 2023 00:42:43 GMT-0400 (Eastern Daylight Time)","774555","Match,No Match","","3692","","","","","","<div class='trialBorder'><div class='targDiv'><div class='tc'><img class='introPic' src='trustrating_stim/white_mw038.bmp'><br><font color='green'><strong>Share</strong></font></div></div><div class='respDiv'><div class='respDivL'>Match<br>(e)</div><div class='respDivR'>No Match<br>(i)</div></div></div>","e","TARGET","1","trustrating_stim/white_mw038.bmp","1","Match","e","1500","trustrating_stim/white_mw038.bmp","green","Share","REAL","1"
"html-keyboard-response","99","327480","0.0-7.0-5.12","63614cab87b22b72231c66e0","bdp_wmem","Tue Mar 14 2023 00:42:43 GMT-0400 (Eastern Daylight Time)","774555","Match,No Match","","null","","","","","","<div class='trialBorder'><div class='vertical-center'><img src='img/correct.jpg'></div><div class='respDiv'><div class='respDivL'><font style='color:orange'>Match<br>(e)</font></div><div class='respDivR'>No Match<br>(i)</div></div></div>","null","FEEDBACK","","","","","","","","","","",""
"html-keyboard-response","100","327984","0.0-7.0-1.13","63614cab87b22b72231c66e0","bdp_wmem","Tue Mar 14 2023 00:42:43 GMT-0400 (Eastern Daylight Time)","774555","Match,No Match","","null","","","","","","<div class='trialBorder'><div class='vertical-center'><img src='img/fixation2_sml.jpg'</img></div></div>","null","FIX","","","","","","","","","","",""
"html-keyboard-response","101","332488","0.0-7.0-2.13","63614cab87b22b72231c66e0","bdp_wmem","Tue Mar 14 2023 00:42:43 GMT-0400 (Eastern Daylight Time)","774555","Match,No Match","","null","","","","","","<div class='trialBorder'><div class='vertical-center'><img style='vertical-align:center; align:center' src='img/fixation2_sml.jpg'></div><div class='arrayDiv3'><div class='tl'><img class='introPic' src='trustrating_stim/white_mw091.bmp'><br><font color='red'><strong>Keep</strong></font></div><div class='tc'><img class='introPic' src='trustrating_stim/white_mw010.bmp'><br><font color='green'><strong>Share</strong></font></div><div class='tr'><img class='introPic' src='trustrating_stim/white_mw038.bmp'><br><font color='red'><strong>Keep</strong></font></div></div></div>","null","ARRAY","3","trustrating_stim/white_mw091.bmp,trustrating_stim/white_mw010.bmp,trustrating_stim/white_mw038.bmp","0,1,0","Match","e","4500","","","","",""
"html-keyboard-response","102","336497","0.0-7.0-3.13","63614cab87b22b72231c66e0","bdp_wmem","Tue Mar 14 2023 00:42:43 GMT-0400 (Eastern Daylight Time)","774555","Match,No Match","","null","","","","","","<div class='trialBorder'><div class='vertical-center'><img src='img/fixation2_sml.jpg'</img></div></div>","null","DELAY","","","","","","","","","","",""
"html-keyboard-response","103","337182","0.0-7.0-4.13","63614cab87b22b72231c66e0","bdp_wmem","Tue Mar 14 2023 00:42:43 GMT-0400 (Eastern Daylight Time)","774555","Match,No Match","","681","","","","","","<div class='trialBorder'><div class='targDiv'><div class='tc'><img class='introPic' src='trustrating_stim/white_mw010.bmp'><br><font color='green'><strong>Share</strong></font></div></div><div class='respDiv'><div class='respDivL'>Match<br>(e)</div><div class='respDivR'>No Match<br>(i)</div></div></div>","e","TARGET","3","trustrating_stim/white_mw091.bmp,trustrating_stim/white_mw010.bmp,trustrating_stim/white_mw038.bmp","0,1,0","Match","e","4500","trustrating_stim/white_mw010.bmp","green","Share","REAL","1"
"html-keyboard-response","104","337688","0.0-7.0-5.13","63614cab87b22b72231c66e0","bdp_wmem","Tue Mar 14 2023 00:42:43 GMT-0400 (Eastern Daylight Time)","774555","Match,No Match","","null","","","","","","<div class='trialBorder'><div class='vertical-center'><img src='img/correct.jpg'></div><div class='respDiv'><div class='respDivL'><font style='color:orange'>Match<br>(e)</font></div><div class='respDivR'>No Match<br>(i)</div></div></div>","null","FEEDBACK","","","","","","","","","","",""
"html-keyboard-response","105","338193","0.0-7.0-1.14","63614cab87b22b72231c66e0","bdp_wmem","Tue Mar 14 2023 00:42:43 GMT-0400 (Eastern Daylight Time)","774555","Match,No Match","","null","","","","","","<div class='trialBorder'><div class='vertical-center'><img src='img/fixation2_sml.jpg'</img></div></div>","null","FIX","","","","","","","","","","",""
"html-keyboard-response","106","342696","0.0-7.0-2.14","63614cab87b22b72231c66e0","bdp_wmem","Tue Mar 14 2023 00:42:43 GMT-0400 (Eastern Daylight Time)","774555","Match,No Match","","null","","","","","","<div class='trialBorder'><div class='vertical-center'><img style='vertical-align:center; align:center' src='img/fixation2_sml.jpg'></div><div class='arrayDiv3'><div class='tl'><img class='introPic' src='trustrating_stim/white_mw091.bmp'><br><font color='green'><strong>Share</strong></font></div><div class='tc'><img class='introPic' src='trustrating_stim/white_mw092.bmp'><br><font color='red'><strong>Keep</strong></font></div><div class='tr'><img class='introPic' src='trustrating_stim/white_mw013.bmp'><br><font color='green'><strong>Share</strong></font></div></div></div>","null","ARRAY","3","trustrating_stim/white_mw091.bmp,trustrating_stim/white_mw092.bmp,trustrating_stim/white_mw013.bmp","1,0,1","Match","e","4500","","","","",""
"html-keyboard-response","107","346705","0.0-7.0-3.14","63614cab87b22b72231c66e0","bdp_wmem","Tue Mar 14 2023 00:42:43 GMT-0400 (Eastern Daylight Time)","774555","Match,No Match","","null","","","","","","<div class='trialBorder'><div class='vertical-center'><img src='img/fixation2_sml.jpg'</img></div></div>","null","DELAY","","","","","","","","","","",""
"html-keyboard-response","108","346993","0.0-7.0-4.14","63614cab87b22b72231c66e0","bdp_wmem","Tue Mar 14 2023 00:42:43 GMT-0400 (Eastern Daylight Time)","774555","Match,No Match","","286","","","","","","<div class='trialBorder'><div class='targDiv'><div class='tc'><img class='introPic' src='trustrating_stim/white_mw091.bmp'><br><font color='green'><strong>Share</strong></font></div></div><div class='respDiv'><div class='respDivL'>Match<br>(e)</div><div class='respDivR'>No Match<br>(i)</div></div></div>","i","TARGET","3","trustrating_stim/white_mw091.bmp,trustrating_stim/white_mw092.bmp,trustrating_stim/white_mw013.bmp","1,0,1","Match","e","4500","trustrating_stim/white_mw091.bmp","green","Share","REAL","0"
"html-keyboard-response","109","347496","0.0-7.0-5.14","63614cab87b22b72231c66e0","bdp_wmem","Tue Mar 14 2023 00:42:43 GMT-0400 (Eastern Daylight Time)","774555","Match,No Match","","null","","","","","","<div class='trialBorder'><div class='vertical-center'><img src='img/error.jpg'></div><div class='respDiv'><div class='respDivL'>Match<br>(e)</div><div class='respDivR'><font style='color:orange'>No Match<br>(i)</font></div></div></div>","null","FEEDBACK","","","","","","","","","","",""
"html-keyboard-response","110","348000","0.0-7.0-1.15","63614cab87b22b72231c66e0","bdp_wmem","Tue Mar 14 2023 00:42:43 GMT-0400 (Eastern Daylight Time)","774555","Match,No Match","","null","","","","","","<div class='trialBorder'><div class='vertical-center'><img src='img/fixation2_sml.jpg'</img></div></div>","null","FIX","","","","","","","","","","",""
"html-keyboard-response","111","349513","0.0-7.0-2.15","63614cab87b22b72231c66e0","bdp_wmem","Tue Mar 14 2023 00:42:43 GMT-0400 (Eastern Daylight Time)","774555","Match,No Match","","null","","","","","","<div class='trialBorder'><div class='vertical-center'><img style='vertical-align:center; align:center' src='img/fixation2_sml.jpg'></div><div class='arrayDiv1'><div class='tc'><img class='introPic' src='trustrating_stim/white_mw085.bmp'><br><font color='green'><strong>Share</strong></font></div></div></div>","null","ARRAY","1","trustrating_stim/white_mw085.bmp","1","noMatchOutcome","i","1500","","","","",""
"html-keyboard-response","112","353521","0.0-7.0-3.15","63614cab87b22b72231c66e0","bdp_wmem","Tue Mar 14 2023 00:42:43 GMT-0400 (Eastern Daylight Time)","774555","Match,No Match","","null","","","","","","<div class='trialBorder'><div class='vertical-center'><img src='img/fixation2_sml.jpg'</img></div></div>","null","DELAY","","","","","","","","","","",""
"html-keyboard-response","113","353718","0.0-7.0-4.15","63614cab87b22b72231c66e0","bdp_wmem","Tue Mar 14 2023 00:42:43 GMT-0400 (Eastern Daylight Time)","774555","Match,No Match","","193","","","","","","<div class='trialBorder'><div class='targDiv'><div class='tc'><img class='introPic' src='trustrating_stim/white_mw085.bmp'><br><font color='red'><strong>Keep</strong></font></div></div><div class='respDiv'><div class='respDivL'>Match<br>(e)</div><div class='respDivR'>No Match<br>(i)</div></div></div>","e","TARGET","1","trustrating_stim/white_mw085.bmp","1","noMatchOutcome","i","1500","trustrating_stim/white_mw085.bmp","red","Keep","REAL","0"
"html-keyboard-response","114","354225","0.0-7.0-5.15","63614cab87b22b72231c66e0","bdp_wmem","Tue Mar 14 2023 00:42:43 GMT-0400 (Eastern Daylight Time)","774555","Match,No Match","","null","","","","","","<div class='trialBorder'><div class='vertical-center'><img src='img/error.jpg'></div><div class='respDiv'><div class='respDivL'><font style='color:orange'>Match<br>(e)</font></div><div class='respDivR'>No Match<br>(i)</div></div></div>","null","FEEDBACK","","","","","","","","","","",""
"html-keyboard-response","115","354728","0.0-7.0-1.16","63614cab87b22b72231c66e0","bdp_wmem","Tue Mar 14 2023 00:42:43 GMT-0400 (Eastern Daylight Time)","774555","Match,No Match","","null","","","","","","<div class='trialBorder'><div class='vertical-center'><img src='img/fixation2_sml.jpg'</img></div></div>","null","FIX","","","","","","","","","","",""
"html-keyboard-response","116","356232","0.0-7.0-2.16","63614cab87b22b72231c66e0","bdp_wmem","Tue Mar 14 2023 00:42:43 GMT-0400 (Eastern Daylight Time)","774555","Match,No Match","","null","","","","","","<div class='trialBorder'><div class='vertical-center'><img style='vertical-align:center; align:center' src='img/fixation2_sml.jpg'></div><div class='arrayDiv1'><div class='tc'><img class='introPic' src='trustrating_stim/white_mw042.bmp'><br><font color='red'><strong>Keep</strong></font></div></div></div>","null","ARRAY","1","trustrating_stim/white_mw042.bmp","0","noMatchFace","i","1500","","","","",""
"html-keyboard-response","117","360241","0.0-7.0-3.16","63614cab87b22b72231c66e0","bdp_wmem","Tue Mar 14 2023 00:42:43 GMT-0400 (Eastern Daylight Time)","774555","Match,No Match","","null","","","","","","<div class='trialBorder'><div class='vertical-center'><img src='img/fixation2_sml.jpg'</img></div></div>","null","DELAY","","","","","","","","","","",""
"html-keyboard-response","118","360384","0.0-7.0-4.16","63614cab87b22b72231c66e0","bdp_wmem","Tue Mar 14 2023 00:42:43 GMT-0400 (Eastern Daylight Time)","774555","Match,No Match","","139","","","","","","<div class='trialBorder'><div class='targDiv'><div class='tc'><img class='introPic' src='trustrating_stim/white_mw092.bmp'><br><font color='red'><strong>Keep</strong></font></div></div><div class='respDiv'><div class='respDivL'>Match<br>(e)</div><div class='respDivR'>No Match<br>(i)</div></div></div>","e","TARGET","1","trustrating_stim/white_mw042.bmp","0","noMatchFace","i","1500","trustrating_stim/white_mw092.bmp","red","Keep","REAL","0"
"html-keyboard-response","119","360889","0.0-7.0-5.16","63614cab87b22b72231c66e0","bdp_wmem","Tue Mar 14 2023 00:42:43 GMT-0400 (Eastern Daylight Time)","774555","Match,No Match","","null","","","","","","<div class='trialBorder'><div class='vertical-center'><img src='img/error.jpg'></div><div class='respDiv'><div class='respDivL'><font style='color:orange'>Match<br>(e)</font></div><div class='respDivR'>No Match<br>(i)</div></div></div>","null","FEEDBACK","","","","","","","","","","",""
"html-keyboard-response","120","361392","0.0-7.0-1.17","63614cab87b22b72231c66e0","bdp_wmem","Tue Mar 14 2023 00:42:43 GMT-0400 (Eastern Daylight Time)","774555","Match,No Match","","null","","","","","","<div class='trialBorder'><div class='vertical-center'><img src='img/fixation2_sml.jpg'</img></div></div>","null","FIX","","","","","","","","","","",""
"html-keyboard-response","121","362897","0.0-7.0-2.17","63614cab87b22b72231c66e0","bdp_wmem","Tue Mar 14 2023 00:42:43 GMT-0400 (Eastern Daylight Time)","774555","Match,No Match","","null","","","","","","<div class='trialBorder'><div class='vertical-center'><img style='vertical-align:center; align:center' src='img/fixation2_sml.jpg'></div><div class='arrayDiv1'><div class='tc'><img class='introPic' src='trustrating_stim/white_mw085.bmp'><br><font color='red'><strong>Keep</strong></font></div></div></div>","null","ARRAY","1","trustrating_stim/white_mw085.bmp","0","Match","e","1500","","","","",""
"html-keyboard-response","122","366905","0.0-7.0-3.17","63614cab87b22b72231c66e0","bdp_wmem","Tue Mar 14 2023 00:42:43 GMT-0400 (Eastern Daylight Time)","774555","Match,No Match","","null","","","","","","<div class='trialBorder'><div class='vertical-center'><img src='img/fixation2_sml.jpg'</img></div></div>","null","DELAY","","","","","","","","","","",""
"html-keyboard-response","123","374236","0.0-7.0-4.17","63614cab87b22b72231c66e0","bdp_wmem","Tue Mar 14 2023 00:42:43 GMT-0400 (Eastern Daylight Time)","774555","Match,No Match","","7327","","","","","","<div class='trialBorder'><div class='targDiv'><div class='tc'><img class='introPic' src='trustrating_stim/white_mw085.bmp'><br><font color='red'><strong>Keep</strong></font></div></div><div class='respDiv'><div class='respDivL'>Match<br>(e)</div><div class='respDivR'>No Match<br>(i)</div></div></div>","i","TARGET","1","trustrating_stim/white_mw085.bmp","0","Match","e","1500","trustrating_stim/white_mw085.bmp","red","Keep","REAL","0"
"html-keyboard-response","124","374745","0.0-7.0-5.17","63614cab87b22b72231c66e0","bdp_wmem","Tue Mar 14 2023 00:42:43 GMT-0400 (Eastern Daylight Time)","774555","Match,No Match","","null","","","","","","<div class='trialBorder'><div class='vertical-center'><img src='img/error.jpg'></div><div class='respDiv'><div class='respDivL'>Match<br>(e)</div><div class='respDivR'><font style='color:orange'>No Match<br>(i)</font></div></div></div>","null","FEEDBACK","","","","","","","","","","",""
"html-keyboard-response","125","375248","0.0-7.0-1.18","63614cab87b22b72231c66e0","bdp_wmem","Tue Mar 14 2023 00:42:43 GMT-0400 (Eastern Daylight Time)","774555","Match,No Match","","null","","","","","","<div class='trialBorder'><div class='vertical-center'><img src='img/fixation2_sml.jpg'</img></div></div>","null","FIX","","","","","","","","","","",""
"html-keyboard-response","126","378257","0.0-7.0-2.18","63614cab87b22b72231c66e0","bdp_wmem","Tue Mar 14 2023 00:42:43 GMT-0400 (Eastern Daylight Time)","774555","Match,No Match","","null","","","","","","<div class='trialBorder'><div class='vertical-center'><img style='vertical-align:center; align:center' src='img/fixation2_sml.jpg'></div><div class='arrayDiv2'><div class='tl'><img class='introPic' src='trustrating_stim/white_mw078.bmp'><br><font color='green'><strong>Share</strong></font></div><div class='tr'><img class='introPic' src='trustrating_stim/white_mw040.bmp'><br><font color='red'><strong>Keep</strong></font></div></div></div>","null","ARRAY","2","trustrating_stim/white_mw078.bmp,trustrating_stim/white_mw040.bmp","1,0","noMatchFace","i","3000","","","","",""
"html-keyboard-response","127","382264","0.0-7.0-3.18","63614cab87b22b72231c66e0","bdp_wmem","Tue Mar 14 2023 00:42:43 GMT-0400 (Eastern Daylight Time)","774555","Match,No Match","","null","","","","","","<div class='trialBorder'><div class='vertical-center'><img src='img/fixation2_sml.jpg'</img></div></div>","null","DELAY","","","","","","","","","","",""
"html-keyboard-response","128","383536","0.0-7.0-4.18","63614cab87b22b72231c66e0","bdp_wmem","Tue Mar 14 2023 00:42:43 GMT-0400 (Eastern Daylight Time)","774555","Match,No Match","","1267","","","","","","<div class='trialBorder'><div class='targDiv'><div class='tc'><img class='introPic' src='trustrating_stim/white_mw070.bmp'><br><font color='red'><strong>Keep</strong></font></div></div><div class='respDiv'><div class='respDivL'>Match<br>(e)</div><div class='respDivR'>No Match<br>(i)</div></div></div>","e","TARGET","2","trustrating_stim/white_mw078.bmp,trustrating_stim/white_mw040.bmp","1,0","noMatchFace","i","3000","trustrating_stim/white_mw070.bmp","red","Keep","REAL","0"
"html-keyboard-response","129","384040","0.0-7.0-5.18","63614cab87b22b72231c66e0","bdp_wmem","Tue Mar 14 2023 00:42:43 GMT-0400 (Eastern Daylight Time)","774555","Match,No Match","","null","","","","","","<div class='trialBorder'><div class='vertical-center'><img src='img/error.jpg'></div><div class='respDiv'><div class='respDivL'><font style='color:orange'>Match<br>(e)</font></div><div class='respDivR'>No Match<br>(i)</div></div></div>","null","FEEDBACK","","","","","","","","","","",""
"html-keyboard-response","130","384545","0.0-7.0-1.19","63614cab87b22b72231c66e0","bdp_wmem","Tue Mar 14 2023 00:42:43 GMT-0400 (Eastern Daylight Time)","774555","Match,No Match","","null","","","","","","<div class='trialBorder'><div class='vertical-center'><img src='img/fixation2_sml.jpg'</img></div></div>","null","FIX","","","","","","","","","","",""
"html-keyboard-response","131","389057","0.0-7.0-2.19","63614cab87b22b72231c66e0","bdp_wmem","Tue Mar 14 2023 00:42:43 GMT-0400 (Eastern Daylight Time)","774555","Match,No Match","","null","","","","","","<div class='trialBorder'><div class='vertical-center'><img style='vertical-align:center; align:center' src='img/fixation2_sml.jpg'></div><div class='arrayDiv3'><div class='tl'><img class='introPic' src='trustrating_stim/white_mw013.bmp'><br><font color='red'><strong>Keep</strong></font></div><div class='tc'><img class='introPic' src='trustrating_stim/white_mw085.bmp'><br><font color='green'><strong>Share</strong></font></div><div class='tr'><img class='introPic' src='trustrating_stim/white_mw003.bmp'><br><font color='red'><strong>Keep</strong></font></div></div></div>","null","ARRAY","3","trustrating_stim/white_mw013.bmp,trustrating_stim/white_mw085.bmp,trustrating_stim/white_mw003.bmp","0,1,0","Match","e","4500","","","","",""
"html-keyboard-response","132","393064","0.0-7.0-3.19","63614cab87b22b72231c66e0","bdp_wmem","Tue Mar 14 2023 00:42:43 GMT-0400 (Eastern Daylight Time)","774555","Match,No Match","","null","","","","","","<div class='trialBorder'><div class='vertical-center'><img src='img/fixation2_sml.jpg'</img></div></div>","null","DELAY","","","","","","","","","","",""
"html-keyboard-response","133","403977","0.0-7.0-4.19","63614cab87b22b72231c66e0","bdp_wmem","Tue Mar 14 2023 00:42:43 GMT-0400 (Eastern Daylight Time)","774555","Match,No Match","","10911","","","","","","<div class='trialBorder'><div class='targDiv'><div class='tc'><img class='introPic' src='trustrating_stim/white_mw013.bmp'><br><font color='red'><strong>Keep</strong></font></div></div><div class='respDiv'><div class='respDivL'>Match<br>(e)</div><div class='respDivR'>No Match<br>(i)</div></div></div>","i","TARGET","3","trustrating_stim/white_mw013.bmp,trustrating_stim/white_mw085.bmp,trustrating_stim/white_mw003.bmp","0,1,0","Match","e","4500","trustrating_stim/white_mw013.bmp","red","Keep","REAL","0"
"html-keyboard-response","134","404481","0.0-7.0-5.19","63614cab87b22b72231c66e0","bdp_wmem","Tue Mar 14 2023 00:42:43 GMT-0400 (Eastern Daylight Time)","774555","Match,No Match","","null","","","","","","<div class='trialBorder'><div class='vertical-center'><img src='img/error.jpg'></div><div class='respDiv'><div class='respDivL'>Match<br>(e)</div><div class='respDivR'><font style='color:orange'>No Match<br>(i)</font></div></div></div>","null","FEEDBACK","","","","","","","","","","",""
"html-keyboard-response","135","404985","0.0-7.0-1.20","63614cab87b22b72231c66e0","bdp_wmem","Tue Mar 14 2023 00:42:43 GMT-0400 (Eastern Daylight Time)","774555","Match,No Match","","null","","","","","","<div class='trialBorder'><div class='vertical-center'><img src='img/fixation2_sml.jpg'</img></div></div>","null","FIX","","","","","","","","","","",""
"html-keyboard-response","136","407998","0.0-7.0-2.20","63614cab87b22b72231c66e0","bdp_wmem","Tue Mar 14 2023 00:42:43 GMT-0400 (Eastern Daylight Time)","774555","Match,No Match","","null","","","","","","<div class='trialBorder'><div class='vertical-center'><img style='vertical-align:center; align:center' src='img/fixation2_sml.jpg'></div><div class='arrayDiv2'><div class='tl'><img class='introPic' src='trustrating_stim/white_mw038.bmp'><br><font color='green'><strong>Share</strong></font></div><div class='tr'><img class='introPic' src='trustrating_stim/white_mw003.bmp'><br><font color='red'><strong>Keep</strong></font></div></div></div>","null","ARRAY","2","trustrating_stim/white_mw038.bmp,trustrating_stim/white_mw003.bmp","1,0","Match","e","3000","","","","",""
"html-keyboard-response","137","412008","0.0-7.0-3.20","63614cab87b22b72231c66e0","bdp_wmem","Tue Mar 14 2023 00:42:43 GMT-0400 (Eastern Daylight Time)","774555","Match,No Match","","null","","","","","","<div class='trialBorder'><div class='vertical-center'><img src='img/fixation2_sml.jpg'</img></div></div>","null","DELAY","","","","","","","","","","",""
"html-keyboard-response","138","416482","0.0-7.0-4.20","63614cab87b22b72231c66e0","bdp_wmem","Tue Mar 14 2023 00:42:43 GMT-0400 (Eastern Daylight Time)","774555","Match,No Match","","4469","","","","","","<div class='trialBorder'><div class='targDiv'><div class='tc'><img class='introPic' src='trustrating_stim/white_mw003.bmp'><br><font color='red'><strong>Keep</strong></font></div></div><div class='respDiv'><div class='respDivL'>Match<br>(e)</div><div class='respDivR'>No Match<br>(i)</div></div></div>","e","TARGET","2","trustrating_stim/white_mw038.bmp,trustrating_stim/white_mw003.bmp","1,0","Match","e","3000","trustrating_stim/white_mw003.bmp","red","Keep","REAL","1"
"html-keyboard-response","139","416992","0.0-7.0-5.20","63614cab87b22b72231c66e0","bdp_wmem","Tue Mar 14 2023 00:42:43 GMT-0400 (Eastern Daylight Time)","774555","Match,No Match","","null","","","","","","<div class='trialBorder'><div class='vertical-center'><img src='img/correct.jpg'></div><div class='respDiv'><div class='respDivL'><font style='color:orange'>Match<br>(e)</font></div><div class='respDivR'>No Match<br>(i)</div></div></div>","null","FEEDBACK","","","","","","","","","","",""
"html-keyboard-response","140","417496","0.0-7.0-1.21","63614cab87b22b72231c66e0","bdp_wmem","Tue Mar 14 2023 00:42:43 GMT-0400 (Eastern Daylight Time)","774555","Match,No Match","","null","","","","","","<div class='trialBorder'><div class='vertical-center'><img src='img/fixation2_sml.jpg'</img></div></div>","null","FIX","","","","","","","","","","",""
"html-keyboard-response","141","422009","0.0-7.0-2.21","63614cab87b22b72231c66e0","bdp_wmem","Tue Mar 14 2023 00:42:43 GMT-0400 (Eastern Daylight Time)","774555","Match,No Match","","null","","","","","","<div class='trialBorder'><div class='vertical-center'><img style='vertical-align:center; align:center' src='img/fixation2_sml.jpg'></div><div class='arrayDiv3'><div class='tl'><img class='introPic' src='trustrating_stim/white_mw013.bmp'><br><font color='red'><strong>Keep</strong></font></div><div class='tc'><img class='introPic' src='trustrating_stim/white_mw078.bmp'><br><font color='green'><strong>Share</strong></font></div><div class='tr'><img class='introPic' src='trustrating_stim/white_mw003.bmp'><br><font color='red'><strong>Keep</strong></font></div></div></div>","null","ARRAY","3","trustrating_stim/white_mw013.bmp,trustrating_stim/white_mw078.bmp,trustrating_stim/white_mw003.bmp","0,1,0","noMatchFace","i","4500","","","","",""
"html-keyboard-response","142","426017","0.0-7.0-3.21","63614cab87b22b72231c66e0","bdp_wmem","Tue Mar 14 2023 00:42:43 GMT-0400 (Eastern Daylight Time)","774555","Match,No Match","","null","","","","","","<div class='trialBorder'><div class='vertical-center'><img src='img/fixation2_sml.jpg'</img></div></div>","null","DELAY","","","","","","","","","","",""
"html-keyboard-response","143","426055","0.0-7.0-4.21","63614cab87b22b72231c66e0","bdp_wmem","Tue Mar 14 2023 00:42:43 GMT-0400 (Eastern Daylight Time)","774555","Match,No Match","","34","","","","","","<div class='trialBorder'><div class='targDiv'><div class='tc'><img class='introPic' src='trustrating_stim/white_mw091.bmp'><br><font color='red'><strong>Keep</strong></font></div></div><div class='respDiv'><div class='respDivL'>Match<br>(e)</div><div class='respDivR'>No Match<br>(i)</div></div></div>","e","TARGET","3","trustrating_stim/white_mw013.bmp,trustrating_stim/white_mw078.bmp,trustrating_stim/white_mw003.bmp","0,1,0","noMatchFace","i","4500","trustrating_stim/white_mw091.bmp","red","Keep","REAL","0"
"html-keyboard-response","144","426560","0.0-7.0-5.21","63614cab87b22b72231c66e0","bdp_wmem","Tue Mar 14 2023 00:42:43 GMT-0400 (Eastern Daylight Time)","774555","Match,No Match","","null","","","","","","<div class='trialBorder'><div class='vertical-center'><img src='img/error.jpg'></div><div class='respDiv'><div class='respDivL'><font style='color:orange'>Match<br>(e)</font></div><div class='respDivR'>No Match<br>(i)</div></div></div>","null","FEEDBACK","","","","","","","","","","",""
"html-keyboard-response","145","427065","0.0-7.0-1.22","63614cab87b22b72231c66e0","bdp_wmem","Tue Mar 14 2023 00:42:43 GMT-0400 (Eastern Daylight Time)","774555","Match,No Match","","null","","","","","","<div class='trialBorder'><div class='vertical-center'><img src='img/fixation2_sml.jpg'</img></div></div>","null","FIX","","","","","","","","","","",""
"html-keyboard-response","146","431570","0.0-7.0-2.22","63614cab87b22b72231c66e0","bdp_wmem","Tue Mar 14 2023 00:42:43 GMT-0400 (Eastern Daylight Time)","774555","Match,No Match","","null","","","","","","<div class='trialBorder'><div class='vertical-center'><img style='vertical-align:center; align:center' src='img/fixation2_sml.jpg'></div><div class='arrayDiv3'><div class='tl'><img class='introPic' src='trustrating_stim/white_mw010.bmp'><br><font color='green'><strong>Share</strong></font></div><div class='tc'><img class='introPic' src='trustrating_stim/white_mw078.bmp'><br><font color='red'><strong>Keep</strong></font></div><div class='tr'><img class='introPic' src='trustrating_stim/white_mw092.bmp'><br><font color='green'><strong>Share</strong></font></div></div></div>","null","ARRAY","3","trustrating_stim/white_mw010.bmp,trustrating_stim/white_mw078.bmp,trustrating_stim/white_mw092.bmp","1,0,1","noMatchFace","i","4500","","","","",""
"html-keyboard-response","147","435577","0.0-7.0-3.22","63614cab87b22b72231c66e0","bdp_wmem","Tue Mar 14 2023 00:42:43 GMT-0400 (Eastern Daylight Time)","774555","Match,No Match","","null","","","","","","<div class='trialBorder'><div class='vertical-center'><img src='img/fixation2_sml.jpg'</img></div></div>","null","DELAY","","","","","","","","","","",""
"html-keyboard-response","148","438825","0.0-7.0-4.22","63614cab87b22b72231c66e0","bdp_wmem","Tue Mar 14 2023 00:42:43 GMT-0400 (Eastern Daylight Time)","774555","Match,No Match","","3243","","","","","","<div class='trialBorder'><div class='targDiv'><div class='tc'><img class='introPic' src='trustrating_stim/white_mw013.bmp'><br><font color='green'><strong>Share</strong></font></div></div><div class='respDiv'><div class='respDivL'>Match<br>(e)</div><div class='respDivR'>No Match<br>(i)</div></div></div>","i","TARGET","3","trustrating_stim/white_mw010.bmp,trustrating_stim/white_mw078.bmp,trustrating_stim/white_mw092.bmp","1,0,1","noMatchFace","i","4500","trustrating_stim/white_mw013.bmp","green","Share","REAL","1"
"html-keyboard-response","149","439329","0.0-7.0-5.22","63614cab87b22b72231c66e0","bdp_wmem","Tue Mar 14 2023 00:42:43 GMT-0400 (Eastern Daylight Time)","774555","Match,No Match","","null","","","","","","<div class='trialBorder'><div class='vertical-center'><img src='img/correct.jpg'></div><div class='respDiv'><div class='respDivL'>Match<br>(e)</div><div class='respDivR'><font style='color:orange'>No Match<br>(i)</font></div></div></div>","null","FEEDBACK","","","","","","","","","","",""
"html-keyboard-response","150","439833","0.0-7.0-1.23","63614cab87b22b72231c66e0","bdp_wmem","Tue Mar 14 2023 00:42:43 GMT-0400 (Eastern Daylight Time)","774555","Match,No Match","","null","","","","","","<div class='trialBorder'><div class='vertical-center'><img src='img/fixation2_sml.jpg'</img></div></div>","null","FIX","","","","","","","","","","",""
"html-keyboard-response","151","441345","0.0-7.0-2.23","63614cab87b22b72231c66e0","bdp_wmem","Tue Mar 14 2023 00:42:43 GMT-0400 (Eastern Daylight Time)","774555","Match,No Match","","null","","","","","","<div class='trialBorder'><div class='vertical-center'><img style='vertical-align:center; align:center' src='img/fixation2_sml.jpg'></div><div class='arrayDiv1'><div class='tc'><img class='introPic' src='trustrating_stim/white_mw070.bmp'><br><font color='green'><strong>Share</strong></font></div></div></div>","null","ARRAY","1","trustrating_stim/white_mw070.bmp","1","Match","e","1500","","","","",""
"html-keyboard-response","152","445352","0.0-7.0-3.23","63614cab87b22b72231c66e0","bdp_wmem","Tue Mar 14 2023 00:42:43 GMT-0400 (Eastern Daylight Time)","774555","Match,No Match","","null","","","","","","<div class='trialBorder'><div class='vertical-center'><img src='img/fixation2_sml.jpg'</img></div></div>","null","DELAY","","","","","","","","","","",""
"html-keyboard-response","153","447399","0.0-7.0-4.23","63614cab87b22b72231c66e0","bdp_wmem","Tue Mar 14 2023 00:42:43 GMT-0400 (Eastern Daylight Time)","774555","Match,No Match","","2045","","","","","","<div class='trialBorder'><div class='targDiv'><div class='tc'><img class='introPic' src='trustrating_stim/white_mw070.bmp'><br><font color='green'><strong>Share</strong></font></div></div><div class='respDiv'><div class='respDivL'>Match<br>(e)</div><div class='respDivR'>No Match<br>(i)</div></div></div>","e","TARGET","1","trustrating_stim/white_mw070.bmp","1","Match","e","1500","trustrating_stim/white_mw070.bmp","green","Share","REAL","1"
"html-keyboard-response","154","447904","0.0-7.0-5.23","63614cab87b22b72231c66e0","bdp_wmem","Tue Mar 14 2023 00:42:43 GMT-0400 (Eastern Daylight Time)","774555","Match,No Match","","null","","","","","","<div class='trialBorder'><div class='vertical-center'><img src='img/correct.jpg'></div><div class='respDiv'><div class='respDivL'><font style='color:orange'>Match<br>(e)</font></div><div class='respDivR'>No Match<br>(i)</div></div></div>","null","FEEDBACK","","","","","","","","","","",""
"html-keyboard-response","155","448409","0.0-7.0-1.24","63614cab87b22b72231c66e0","bdp_wmem","Tue Mar 14 2023 00:42:43 GMT-0400 (Eastern Daylight Time)","774555","Match,No Match","","null","","","","","","<div class='trialBorder'><div class='vertical-center'><img src='img/fixation2_sml.jpg'</img></div></div>","null","FIX","","","","","","","","","","",""
"html-keyboard-response","156","451416","0.0-7.0-2.24","63614cab87b22b72231c66e0","bdp_wmem","Tue Mar 14 2023 00:42:43 GMT-0400 (Eastern Daylight Time)","774555","Match,No Match","","null","","","","","","<div class='trialBorder'><div class='vertical-center'><img style='vertical-align:center; align:center' src='img/fixation2_sml.jpg'></div><div class='arrayDiv2'><div class='tl'><img class='introPic' src='trustrating_stim/white_mw091.bmp'><br><font color='red'><strong>Keep</strong></font></div><div class='tr'><img class='introPic' src='trustrating_stim/white_mw010.bmp'><br><font color='green'><strong>Share</strong></font></div></div></div>","null","ARRAY","2","trustrating_stim/white_mw091.bmp,trustrating_stim/white_mw010.bmp","0,1","noMatchFace","i","3000","","","","",""
"html-keyboard-response","157","455424","0.0-7.0-3.24","63614cab87b22b72231c66e0","bdp_wmem","Tue Mar 14 2023 00:42:43 GMT-0400 (Eastern Daylight Time)","774555","Match,No Match","","null","","","","","","<div class='trialBorder'><div class='vertical-center'><img src='img/fixation2_sml.jpg'</img></div></div>","null","DELAY","","","","","","","","","","",""
"html-keyboard-response","158","458541","0.0-7.0-4.24","63614cab87b22b72231c66e0","bdp_wmem","Tue Mar 14 2023 00:42:43 GMT-0400 (Eastern Daylight Time)","774555","Match,No Match","","3115","","","","","","<div class='trialBorder'><div class='targDiv'><div class='tc'><img class='introPic' src='trustrating_stim/white_mw013.bmp'><br><font color='green'><strong>Share</strong></font></div></div><div class='respDiv'><div class='respDivL'>Match<br>(e)</div><div class='respDivR'>No Match<br>(i)</div></div></div>","e","TARGET","2","trustrating_stim/white_mw091.bmp,trustrating_stim/white_mw010.bmp","0,1","noMatchFace","i","3000","trustrating_stim/white_mw013.bmp","green","Share","REAL","0"
"html-keyboard-response","159","459048","0.0-7.0-5.24","63614cab87b22b72231c66e0","bdp_wmem","Tue Mar 14 2023 00:42:43 GMT-0400 (Eastern Daylight Time)","774555","Match,No Match","","null","","","","","","<div class='trialBorder'><div class='vertical-center'><img src='img/error.jpg'></div><div class='respDiv'><div class='respDivL'><font style='color:orange'>Match<br>(e)</font></div><div class='respDivR'>No Match<br>(i)</div></div></div>","null","FEEDBACK","","","","","","","","","","",""
"html-keyboard-response","160","459553","0.0-7.0-1.25","63614cab87b22b72231c66e0","bdp_wmem","Tue Mar 14 2023 00:42:43 GMT-0400 (Eastern Daylight Time)","774555","Match,No Match","","null","","","","","","<div class='trialBorder'><div class='vertical-center'><img src='img/fixation2_sml.jpg'</img></div></div>","null","FIX","","","","","","","","","","",""
"html-keyboard-response","161","462561","0.0-7.0-2.25","63614cab87b22b72231c66e0","bdp_wmem","Tue Mar 14 2023 00:42:43 GMT-0400 (Eastern Daylight Time)","774555","Match,No Match","","null","","","","","","<div class='trialBorder'><div class='vertical-center'><img style='vertical-align:center; align:center' src='img/fixation2_sml.jpg'></div><div class='arrayDiv2'><div class='tl'><img class='introPic' src='trustrating_stim/white_mw012.bmp'><br><font color='red'><strong>Keep</strong></font></div><div class='tr'><img class='introPic' src='trustrating_stim/white_mw042.bmp'><br><font color='green'><strong>Share</strong></font></div></div></div>","null","ARRAY","2","trustrating_stim/white_mw012.bmp,trustrating_stim/white_mw042.bmp","0,1","Match","e","3000","","","","",""
"html-keyboard-response","162","466568","0.0-7.0-3.25","63614cab87b22b72231c66e0","bdp_wmem","Tue Mar 14 2023 00:42:43 GMT-0400 (Eastern Daylight Time)","774555","Match,No Match","","null","","","","","","<div class='trialBorder'><div class='vertical-center'><img src='img/fixation2_sml.jpg'</img></div></div>","null","DELAY","","","","","","","","","","",""
"html-keyboard-response","163","471640","0.0-7.0-4.25","63614cab87b22b72231c66e0","bdp_wmem","Tue Mar 14 2023 00:42:43 GMT-0400 (Eastern Daylight Time)","774555","Match,No Match","","5070","","","","","","<div class='trialBorder'><div class='targDiv'><div class='tc'><img class='introPic' src='trustrating_stim/white_mw042.bmp'><br><font color='green'><strong>Share</strong></font></div></div><div class='respDiv'><div class='respDivL'>Match<br>(e)</div><div class='respDivR'>No Match<br>(i)</div></div></div>","e","TARGET","2","trustrating_stim/white_mw012.bmp,trustrating_stim/white_mw042.bmp","0,1","Match","e","3000","trustrating_stim/white_mw042.bmp","green","Share","REAL","1"
"html-keyboard-response","164","472144","0.0-7.0-5.25","63614cab87b22b72231c66e0","bdp_wmem","Tue Mar 14 2023 00:42:43 GMT-0400 (Eastern Daylight Time)","774555","Match,No Match","","null","","","","","","<div class='trialBorder'><div class='vertical-center'><img src='img/correct.jpg'></div><div class='respDiv'><div class='respDivL'><font style='color:orange'>Match<br>(e)</font></div><div class='respDivR'>No Match<br>(i)</div></div></div>","null","FEEDBACK","","","","","","","","","","",""
"html-keyboard-response","165","472648","0.0-7.0-1.26","63614cab87b22b72231c66e0","bdp_wmem","Tue Mar 14 2023 00:42:43 GMT-0400 (Eastern Daylight Time)","774555","Match,No Match","","null","","","","","","<div class='trialBorder'><div class='vertical-center'><img src='img/fixation2_sml.jpg'</img></div></div>","null","FIX","","","","","","","","","","",""
"html-keyboard-response","166","475656","0.0-7.0-2.26","63614cab87b22b72231c66e0","bdp_wmem","Tue Mar 14 2023 00:42:43 GMT-0400 (Eastern Daylight Time)","774555","Match,No Match","","null","","","","","","<div class='trialBorder'><div class='vertical-center'><img style='vertical-align:center; align:center' src='img/fixation2_sml.jpg'></div><div class='arrayDiv2'><div class='tl'><img class='introPic' src='trustrating_stim/white_mw040.bmp'><br><font color='red'><strong>Keep</strong></font></div><div class='tr'><img class='introPic' src='trustrating_stim/white_mw003.bmp'><br><font color='green'><strong>Share</strong></font></div></div></div>","null","ARRAY","2","trustrating_stim/white_mw040.bmp,trustrating_stim/white_mw003.bmp","0,1","noMatchOutcome","i","3000","","","","",""
"html-keyboard-response","167","479664","0.0-7.0-3.26","63614cab87b22b72231c66e0","bdp_wmem","Tue Mar 14 2023 00:42:43 GMT-0400 (Eastern Daylight Time)","774555","Match,No Match","","null","","","","","","<div class='trialBorder'><div class='vertical-center'><img src='img/fixation2_sml.jpg'</img></div></div>","null","DELAY","","","","","","","","","","",""
"html-keyboard-response","168","482432","0.0-7.0-4.26","63614cab87b22b72231c66e0","bdp_wmem","Tue Mar 14 2023 00:42:43 GMT-0400 (Eastern Daylight Time)","774555","Match,No Match","","2764","","","","","","<div class='trialBorder'><div class='targDiv'><div class='tc'><img class='introPic' src='trustrating_stim/white_mw040.bmp'><br><font color='green'><strong>Share</strong></font></div></div><div class='respDiv'><div class='respDivL'>Match<br>(e)</div><div class='respDivR'>No Match<br>(i)</div></div></div>","i","TARGET","2","trustrating_stim/white_mw040.bmp,trustrating_stim/white_mw003.bmp","0,1","noMatchOutcome","i","3000","trustrating_stim/white_mw040.bmp","green","Share","REAL","1"
"html-keyboard-response","169","482936","0.0-7.0-5.26","63614cab87b22b72231c66e0","bdp_wmem","Tue Mar 14 2023 00:42:43 GMT-0400 (Eastern Daylight Time)","774555","Match,No Match","","null","","","","","","<div class='trialBorder'><div class='vertical-center'><img src='img/correct.jpg'></div><div class='respDiv'><div class='respDivL'>Match<br>(e)</div><div class='respDivR'><font style='color:orange'>No Match<br>(i)</font></div></div></div>","null","FEEDBACK","","","","","","","","","","",""
"html-keyboard-response","170","483440","0.0-7.0-1.27","63614cab87b22b72231c66e0","bdp_wmem","Tue Mar 14 2023 00:42:43 GMT-0400 (Eastern Daylight Time)","774555","Match,No Match","","null","","","","","","<div class='trialBorder'><div class='vertical-center'><img src='img/fixation2_sml.jpg'</img></div></div>","null","FIX","","","","","","","","","","",""
"html-keyboard-response","171","484945","0.0-7.0-2.27","63614cab87b22b72231c66e0","bdp_wmem","Tue Mar 14 2023 00:42:43 GMT-0400 (Eastern Daylight Time)","774555","Match,No Match","","null","","","","","","<div class='trialBorder'><div class='vertical-center'><img style='vertical-align:center; align:center' src='img/fixation2_sml.jpg'></div><div class='arrayDiv1'><div class='tc'><img class='introPic' src='trustrating_stim/white_mw003.bmp'><br><font color='green'><strong>Share</strong></font></div></div></div>","null","ARRAY","1","trustrating_stim/white_mw003.bmp","1","noMatchOutcome","i","1500","","","","",""
"html-keyboard-response","172","488953","0.0-7.0-3.27","63614cab87b22b72231c66e0","bdp_wmem","Tue Mar 14 2023 00:42:43 GMT-0400 (Eastern Daylight Time)","774555","Match,No Match","","null","","","","","","<div class='trialBorder'><div class='vertical-center'><img src='img/fixation2_sml.jpg'</img></div></div>","null","DELAY","","","","","","","","","","",""
"html-keyboard-response","173","496177","0.0-7.0-4.27","63614cab87b22b72231c66e0","bdp_wmem","Tue Mar 14 2023 00:42:43 GMT-0400 (Eastern Daylight Time)","774555","Match,No Match","","7221","","","","","","<div class='trialBorder'><div class='targDiv'><div class='tc'><img class='introPic' src='trustrating_stim/white_mw003.bmp'><br><font color='red'><strong>Keep</strong></font></div></div><div class='respDiv'><div class='respDivL'>Match<br>(e)</div><div class='respDivR'>No Match<br>(i)</div></div></div>","i","TARGET","1","trustrating_stim/white_mw003.bmp","1","noMatchOutcome","i","1500","trustrating_stim/white_mw003.bmp","red","Keep","REAL","1"
"html-keyboard-response","174","496681","0.0-7.0-5.27","63614cab87b22b72231c66e0","bdp_wmem","Tue Mar 14 2023 00:42:43 GMT-0400 (Eastern Daylight Time)","774555","Match,No Match","","null","","","","","","<div class='trialBorder'><div class='vertical-center'><img src='img/correct.jpg'></div><div class='respDiv'><div class='respDivL'>Match<br>(e)</div><div class='respDivR'><font style='color:orange'>No Match<br>(i)</font></div></div></div>","null","FEEDBACK","","","","","","","","","","",""
"html-keyboard-response","175","497184","0.0-7.0-1.28","63614cab87b22b72231c66e0","bdp_wmem","Tue Mar 14 2023 00:42:43 GMT-0400 (Eastern Daylight Time)","774555","Match,No Match","","null","","","","","","<div class='trialBorder'><div class='vertical-center'><img src='img/fixation2_sml.jpg'</img></div></div>","null","FIX","","","","","","","","","","",""
"html-keyboard-response","176","501697","0.0-7.0-2.28","63614cab87b22b72231c66e0","bdp_wmem","Tue Mar 14 2023 00:42:43 GMT-0400 (Eastern Daylight Time)","774555","Match,No Match","","null","","","","","","<div class='trialBorder'><div class='vertical-center'><img style='vertical-align:center; align:center' src='img/fixation2_sml.jpg'></div><div class='arrayDiv3'><div class='tl'><img class='introPic' src='trustrating_stim/white_mw091.bmp'><br><font color='red'><strong>Keep</strong></font></div><div class='tc'><img class='introPic' src='trustrating_stim/white_mw012.bmp'><br><font color='green'><strong>Share</strong></font></div><div class='tr'><img class='introPic' src='trustrating_stim/white_mw092.bmp'><br><font color='red'><strong>Keep</strong></font></div></div></div>","null","ARRAY","3","trustrating_stim/white_mw091.bmp,trustrating_stim/white_mw012.bmp,trustrating_stim/white_mw092.bmp","0,1,0","noMatchOutcome","i","4500","","","","",""
"html-keyboard-response","177","505704","0.0-7.0-3.28","63614cab87b22b72231c66e0","bdp_wmem","Tue Mar 14 2023 00:42:43 GMT-0400 (Eastern Daylight Time)","774555","Match,No Match","","null","","","","","","<div class='trialBorder'><div class='vertical-center'><img src='img/fixation2_sml.jpg'</img></div></div>","null","DELAY","","","","","","","","","","",""
"html-keyboard-response","178","506623","0.0-7.0-4.28","63614cab87b22b72231c66e0","bdp_wmem","Tue Mar 14 2023 00:42:43 GMT-0400 (Eastern Daylight Time)","774555","Match,No Match","","917","","","","","","<div class='trialBorder'><div class='targDiv'><div class='tc'><img class='introPic' src='trustrating_stim/white_mw012.bmp'><br><font color='red'><strong>Keep</strong></font></div></div><div class='respDiv'><div class='respDivL'>Match<br>(e)</div><div class='respDivR'>No Match<br>(i)</div></div></div>","e","TARGET","3","trustrating_stim/white_mw091.bmp,trustrating_stim/white_mw012.bmp,trustrating_stim/white_mw092.bmp","0,1,0","noMatchOutcome","i","4500","trustrating_stim/white_mw012.bmp","red","Keep","REAL","0"
"html-keyboard-response","179","507130","0.0-7.0-5.28","63614cab87b22b72231c66e0","bdp_wmem","Tue Mar 14 2023 00:42:43 GMT-0400 (Eastern Daylight Time)","774555","Match,No Match","","null","","","","","","<div class='trialBorder'><div class='vertical-center'><img src='img/error.jpg'></div><div class='respDiv'><div class='respDivL'><font style='color:orange'>Match<br>(e)</font></div><div class='respDivR'>No Match<br>(i)</div></div></div>","null","FEEDBACK","","","","","","","","","","",""
"html-keyboard-response","180","507640","0.0-7.0-1.29","63614cab87b22b72231c66e0","bdp_wmem","Tue Mar 14 2023 00:42:43 GMT-0400 (Eastern Daylight Time)","774555","Match,No Match","","null","","","","","","<div class='trialBorder'><div class='vertical-center'><img src='img/fixation2_sml.jpg'</img></div></div>","null","FIX","","","","","","","","","","",""
"html-keyboard-response","181","509152","0.0-7.0-2.29","63614cab87b22b72231c66e0","bdp_wmem","Tue Mar 14 2023 00:42:43 GMT-0400 (Eastern Daylight Time)","774555","Match,No Match","","null","","","","","","<div class='trialBorder'><div class='vertical-center'><img style='vertical-align:center; align:center' src='img/fixation2_sml.jpg'></div><div class='arrayDiv1'><div class='tc'><img class='introPic' src='trustrating_stim/white_mw091.bmp'><br><font color='red'><strong>Keep</strong></font></div></div></div>","null","ARRAY","1","trustrating_stim/white_mw091.bmp","0","Match","e","1500","","","","",""
"html-keyboard-response","182","513160","0.0-7.0-3.29","63614cab87b22b72231c66e0","bdp_wmem","Tue Mar 14 2023 00:42:43 GMT-0400 (Eastern Daylight Time)","774555","Match,No Match","","null","","","","","","<div class='trialBorder'><div class='vertical-center'><img src='img/fixation2_sml.jpg'</img></div></div>","null","DELAY","","","","","","","","","","",""
"html-keyboard-response","183","532355","0.0-7.0-4.29","63614cab87b22b72231c66e0","bdp_wmem","Tue Mar 14 2023 00:42:43 GMT-0400 (Eastern Daylight Time)","774555","Match,No Match","","19189","","","","","","<div class='trialBorder'><div class='targDiv'><div class='tc'><img class='introPic' src='trustrating_stim/white_mw091.bmp'><br><font color='red'><strong>Keep</strong></font></div></div><div class='respDiv'><div class='respDivL'>Match<br>(e)</div><div class='respDivR'>No Match<br>(i)</div></div></div>","i","TARGET","1","trustrating_stim/white_mw091.bmp","0","Match","e","1500","trustrating_stim/white_mw091.bmp","red","Keep","REAL","0"
"html-keyboard-response","184","532864","0.0-7.0-5.29","63614cab87b22b72231c66e0","bdp_wmem","Tue Mar 14 2023 00:42:43 GMT-0400 (Eastern Daylight Time)","774555","Match,No Match","","null","","","","","","<div class='trialBorder'><div class='vertical-center'><img src='img/error.jpg'></div><div class='respDiv'><div class='respDivL'>Match<br>(e)</div><div class='respDivR'><font style='color:orange'>No Match<br>(i)</font></div></div></div>","null","FEEDBACK","","","","","","","","","","",""
"html-keyboard-response","185","533368","0.0-7.0-1.30","63614cab87b22b72231c66e0","bdp_wmem","Tue Mar 14 2023 00:42:43 GMT-0400 (Eastern Daylight Time)","774555","Match,No Match","","null","","","","","","<div class='trialBorder'><div class='vertical-center'><img src='img/fixation2_sml.jpg'</img></div></div>","null","FIX","","","","","","","","","","",""
"html-keyboard-response","186","534880","0.0-7.0-2.30","63614cab87b22b72231c66e0","bdp_wmem","Tue Mar 14 2023 00:42:43 GMT-0400 (Eastern Daylight Time)","774555","Match,No Match","","null","","","","","","<div class='trialBorder'><div class='vertical-center'><img style='vertical-align:center; align:center' src='img/fixation2_sml.jpg'></div><div class='arrayDiv1'><div class='tc'><img class='introPic' src='trustrating_stim/white_mw038.bmp'><br><font color='red'><strong>Keep</strong></font></div></div></div>","null","ARRAY","1","trustrating_stim/white_mw038.bmp","0","Match","e","1500","","","","",""
"html-keyboard-response","187","538888","0.0-7.0-3.30","63614cab87b22b72231c66e0","bdp_wmem","Tue Mar 14 2023 00:42:43 GMT-0400 (Eastern Daylight Time)","774555","Match,No Match","","null","","","","","","<div class='trialBorder'><div class='vertical-center'><img src='img/fixation2_sml.jpg'</img></div></div>","null","DELAY","","","","","","","","","","",""
"html-keyboard-response","188","542513","0.0-7.0-4.30","63614cab87b22b72231c66e0","bdp_wmem","Tue Mar 14 2023 00:42:43 GMT-0400 (Eastern Daylight Time)","774555","Match,No Match","","3623","","","","","","<div class='trialBorder'><div class='targDiv'><div class='tc'><img class='introPic' src='trustrating_stim/white_mw038.bmp'><br><font color='red'><strong>Keep</strong></font></div></div><div class='respDiv'><div class='respDivL'>Match<br>(e)</div><div class='respDivR'>No Match<br>(i)</div></div></div>","e","TARGET","1","trustrating_stim/white_mw038.bmp","0","Match","e","1500","trustrating_stim/white_mw038.bmp","red","Keep","REAL","1"
