"event","trial","time","trialtype","subject_id","task","startTime","totalTime","labels","trial_type","trial_index","time_elapsed","internal_node_id","view_history","rt","success","stimulus","key_press","stimType","arraySize","arrayFaces","arrayOutcomes","matchType","corrResp","arrayDur","targFace","targCol","targOutcome","trialType","corr"
"focus","0","0","focusevent","5f721a81ee2a860fe028a8a4","bdp_wmem","Sat Apr 08 2023 08:53:03 GMT-0700 (Pacific Daylight Time)","693747","Match,No Match","","","","","","","","","","","","","","","","","","","","",""
"","","","","5f721a81ee2a860fe028a8a4","bdp_wmem","Sat Apr 08 2023 08:53:03 GMT-0700 (Pacific Daylight Time)","693747","Match,No Match","pavlovia","0","4","0.0-0.0","","","","","","","","","","","","","","","","",""
"","","","","5f721a81ee2a860fe028a8a4","bdp_wmem","Sat Apr 08 2023 08:53:03 GMT-0700 (Pacific Daylight Time)","693747","Match,No Match","instructions","1","4164","0.0-1.0","[{""page_index"":0,""viewing_time"":4160}]","4160","","","","","","","","","","","","","","",""
"fullscreenexit","2","7709","fullscreenexit","5f721a81ee2a860fe028a8a4","bdp_wmem","Sat Apr 08 2023 08:53:03 GMT-0700 (Pacific Daylight Time)","693747","Match,No Match","","","","","","","","","","","","","","","","","","","","",""
"","","","","5f721a81ee2a860fe028a8a4","bdp_wmem","Sat Apr 08 2023 08:53:03 GMT-0700 (Pacific Daylight Time)","693747","Match,No Match","fullscreen","2","8519","0.0-2.0","","","true","","","","","","","","","","","","","",""
"fullscreenexit","3","13668","fullscreenexit","5f721a81ee2a860fe028a8a4","bdp_wmem","Sat Apr 08 2023 08:53:03 GMT-0700 (Pacific Daylight Time)","693747","Match,No Match","","","","","","","","","","","","","","","","","","","","",""
"","","","fullscreenfail","5f721a81ee2a860fe028a8a4","bdp_wmem","Sat Apr 08 2023 08:53:03 GMT-0700 (Pacific Daylight Time)","693747","Match,No Match","image-keyboard-response","3","15332","0.0-3.0-0.0","","6810","","","32","","","","","","","","","","","",""
"","","","","5f721a81ee2a860fe028a8a4","bdp_wmem","Sat Apr 08 2023 08:53:03 GMT-0700 (Pacific Daylight Time)","693747","Match,No Match","instructions","4","186131","0.0-4.0","[{""page_index"":0,""viewing_time"":35147},{""page_index"":1,""viewing_time"":96816},{""page_index"":2,""viewing_time"":19216},{""page_index"":3,""viewing_time"":8720},{""page_index"":4,""viewing_time"":10639}]","170538","","","","","","","","","","","","","","",""
"","","","","5f721a81ee2a860fe028a8a4","bdp_wmem","Sat Apr 08 2023 08:53:03 GMT-0700 (Pacific Daylight Time)","693747","Match,No Match","html-keyboard-response","5","186648","0.0-5.0-1.0","","null","","<div class='trialBorder'><div class='vertical-center'><img src='img/fixation2_sml.jpg'</img></div></div>","null","FIX","","","","","","","","","","",""
"","","","","5f721a81ee2a860fe028a8a4","bdp_wmem","Sat Apr 08 2023 08:53:03 GMT-0700 (Pacific Daylight Time)","693747","Match,No Match","html-keyboard-response","6","189653","0.0-5.0-2.0","","null","","<div class='trialBorder'><div class='vertical-center'><img style='vertical-align:center; align:center' src='img/fixation2_sml.jpg'></div><div class='arrayDiv2'><div class='tl'><img class='introPic' src='trustrating_stim/white_mw003.bmp'><br><font color='green'><strong>Share</strong></font></div><div class='tr'><img class='introPic' src='trustrating_stim/white_mw042.bmp'><br><font color='red'><strong>Keep</strong></font></div></div></div>","null","ARRAY","2","trustrating_stim/white_mw003.bmp,trustrating_stim/white_mw042.bmp","1,0","Match","e","3000","","","","",""
"","","","","5f721a81ee2a860fe028a8a4","bdp_wmem","Sat Apr 08 2023 08:53:03 GMT-0700 (Pacific Daylight Time)","693747","Match,No Match","html-keyboard-response","7","193662","0.0-5.0-3.0","","null","","<div class='trialBorder'><div class='vertical-center'><img src='img/fixation2_sml.jpg'</img></div></div>","null","DELAY","","","","","","","","","","",""
"","","","","5f721a81ee2a860fe028a8a4","bdp_wmem","Sat Apr 08 2023 08:53:03 GMT-0700 (Pacific Daylight Time)","693747","Match,No Match","html-keyboard-response","8","195044","0.0-5.0-4.0","","1380","","<div class='trialBorder'><div class='targDiv'><div class='tc'><img class='introPic' src='trustrating_stim/white_mw003.bmp'><br><font color='green'><strong>Share</strong></font></div></div><div class='respDiv'><div class='respDivL'>Match<br>(e)</div><div class='respDivR'>No Match<br>(i)</div></div></div>","e","TARGET","2","trustrating_stim/white_mw003.bmp,trustrating_stim/white_mw042.bmp","1,0","Match","e","3000","trustrating_stim/white_mw003.bmp","green","Share","PRACTICE","1"
"","","","","5f721a81ee2a860fe028a8a4","bdp_wmem","Sat Apr 08 2023 08:53:03 GMT-0700 (Pacific Daylight Time)","693747","Match,No Match","html-keyboard-response","9","195558","0.0-5.0-5.0","","null","","<div class='trialBorder'><div class='vertical-center'><img src='img/correct.jpg'></div><div class='respDiv'><div class='respDivL'><font style='color:orange'>Match<br>(e)</font></div><div class='respDivR'>No Match<br>(i)</div></div></div>","null","FEEDBACK","","","","","","","","","","",""
"","","","","5f721a81ee2a860fe028a8a4","bdp_wmem","Sat Apr 08 2023 08:53:03 GMT-0700 (Pacific Daylight Time)","693747","Match,No Match","html-keyboard-response","10","196061","0.0-5.0-1.1","","null","","<div class='trialBorder'><div class='vertical-center'><img src='img/fixation2_sml.jpg'</img></div></div>","null","FIX","","","","","","","","","","",""
"","","","","5f721a81ee2a860fe028a8a4","bdp_wmem","Sat Apr 08 2023 08:53:03 GMT-0700 (Pacific Daylight Time)","693747","Match,No Match","html-keyboard-response","11","197562","0.0-5.0-2.1","","null","","<div class='trialBorder'><div class='vertical-center'><img style='vertical-align:center; align:center' src='img/fixation2_sml.jpg'></div><div class='arrayDiv1'><div class='tc'><img class='introPic' src='trustrating_stim/white_mw038.bmp'><br><font color='red'><strong>Keep</strong></font></div></div></div>","null","ARRAY","1","trustrating_stim/white_mw038.bmp","0","noMatchFace","i","1500","","","","",""
"","","","","5f721a81ee2a860fe028a8a4","bdp_wmem","Sat Apr 08 2023 08:53:03 GMT-0700 (Pacific Daylight Time)","693747","Match,No Match","html-keyboard-response","12","201570","0.0-5.0-3.1","","null","","<div class='trialBorder'><div class='vertical-center'><img src='img/fixation2_sml.jpg'</img></div></div>","null","DELAY","","","","","","","","","","",""
"","","","","5f721a81ee2a860fe028a8a4","bdp_wmem","Sat Apr 08 2023 08:53:03 GMT-0700 (Pacific Daylight Time)","693747","Match,No Match","html-keyboard-response","13","203283","0.0-5.0-4.1","","1713","","<div class='trialBorder'><div class='targDiv'><div class='tc'><img class='introPic' src='trustrating_stim/white_mw012.bmp'><br><font color='red'><strong>Keep</strong></font></div></div><div class='respDiv'><div class='respDivL'>Match<br>(e)</div><div class='respDivR'>No Match<br>(i)</div></div></div>","i","TARGET","1","trustrating_stim/white_mw038.bmp","0","noMatchFace","i","1500","trustrating_stim/white_mw012.bmp","red","Keep","PRACTICE","1"
"","","","","5f721a81ee2a860fe028a8a4","bdp_wmem","Sat Apr 08 2023 08:53:03 GMT-0700 (Pacific Daylight Time)","693747","Match,No Match","html-keyboard-response","14","203790","0.0-5.0-5.1","","null","","<div class='trialBorder'><div class='vertical-center'><img src='img/correct.jpg'></div><div class='respDiv'><div class='respDivL'>Match<br>(e)</div><div class='respDivR'><font style='color:orange'>No Match<br>(i)</font></div></div></div>","null","FEEDBACK","","","","","","","","","","",""
"","","","","5f721a81ee2a860fe028a8a4","bdp_wmem","Sat Apr 08 2023 08:53:03 GMT-0700 (Pacific Daylight Time)","693747","Match,No Match","html-keyboard-response","15","204295","0.0-5.0-1.2","","null","","<div class='trialBorder'><div class='vertical-center'><img src='img/fixation2_sml.jpg'</img></div></div>","null","FIX","","","","","","","","","","",""
"","","","","5f721a81ee2a860fe028a8a4","bdp_wmem","Sat Apr 08 2023 08:53:03 GMT-0700 (Pacific Daylight Time)","693747","Match,No Match","html-keyboard-response","16","208798","0.0-5.0-2.2","","null","","<div class='trialBorder'><div class='vertical-center'><img style='vertical-align:center; align:center' src='img/fixation2_sml.jpg'></div><div class='arrayDiv3'><div class='tl'><img class='introPic' src='trustrating_stim/white_mw091.bmp'><br><font color='red'><strong>Keep</strong></font></div><div class='tc'><img class='introPic' src='trustrating_stim/white_mw012.bmp'><br><font color='green'><strong>Share</strong></font></div><div class='tr'><img class='introPic' src='trustrating_stim/white_mw038.bmp'><br><font color='red'><strong>Keep</strong></font></div></div></div>","null","ARRAY","3","trustrating_stim/white_mw091.bmp,trustrating_stim/white_mw012.bmp,trustrating_stim/white_mw038.bmp","0,1,0","Match","e","4500","","","","",""
"","","","","5f721a81ee2a860fe028a8a4","bdp_wmem","Sat Apr 08 2023 08:53:03 GMT-0700 (Pacific Daylight Time)","693747","Match,No Match","html-keyboard-response","17","212801","0.0-5.0-3.2","","null","","<div class='trialBorder'><div class='vertical-center'><img src='img/fixation2_sml.jpg'</img></div></div>","null","DELAY","","","","","","","","","","",""
"","","","","5f721a81ee2a860fe028a8a4","bdp_wmem","Sat Apr 08 2023 08:53:03 GMT-0700 (Pacific Daylight Time)","693747","Match,No Match","html-keyboard-response","18","214596","0.0-5.0-4.2","","1795","","<div class='trialBorder'><div class='targDiv'><div class='tc'><img class='introPic' src='trustrating_stim/white_mw091.bmp'><br><font color='red'><strong>Keep</strong></font></div></div><div class='respDiv'><div class='respDivL'>Match<br>(e)</div><div class='respDivR'>No Match<br>(i)</div></div></div>","e","TARGET","3","trustrating_stim/white_mw091.bmp,trustrating_stim/white_mw012.bmp,trustrating_stim/white_mw038.bmp","0,1,0","Match","e","4500","trustrating_stim/white_mw091.bmp","red","Keep","PRACTICE","1"
"","","","","5f721a81ee2a860fe028a8a4","bdp_wmem","Sat Apr 08 2023 08:53:03 GMT-0700 (Pacific Daylight Time)","693747","Match,No Match","html-keyboard-response","19","215098","0.0-5.0-5.2","","null","","<div class='trialBorder'><div class='vertical-center'><img src='img/correct.jpg'></div><div class='respDiv'><div class='respDivL'><font style='color:orange'>Match<br>(e)</font></div><div class='respDivR'>No Match<br>(i)</div></div></div>","null","FEEDBACK","","","","","","","","","","",""
"","","","","5f721a81ee2a860fe028a8a4","bdp_wmem","Sat Apr 08 2023 08:53:03 GMT-0700 (Pacific Daylight Time)","693747","Match,No Match","html-keyboard-response","20","215605","0.0-5.0-1.3","","null","","<div class='trialBorder'><div class='vertical-center'><img src='img/fixation2_sml.jpg'</img></div></div>","null","FIX","","","","","","","","","","",""
"","","","","5f721a81ee2a860fe028a8a4","bdp_wmem","Sat Apr 08 2023 08:53:03 GMT-0700 (Pacific Daylight Time)","693747","Match,No Match","html-keyboard-response","21","220109","0.0-5.0-2.3","","null","","<div class='trialBorder'><div class='vertical-center'><img style='vertical-align:center; align:center' src='img/fixation2_sml.jpg'></div><div class='arrayDiv3'><div class='tl'><img class='introPic' src='trustrating_stim/white_mw010.bmp'><br><font color='red'><strong>Keep</strong></font></div><div class='tc'><img class='introPic' src='trustrating_stim/white_mw078.bmp'><br><font color='green'><strong>Share</strong></font></div><div class='tr'><img class='introPic' src='trustrating_stim/white_mw070.bmp'><br><font color='red'><strong>Keep</strong></font></div></div></div>","null","ARRAY","3","trustrating_stim/white_mw010.bmp,trustrating_stim/white_mw078.bmp,trustrating_stim/white_mw070.bmp","0,1,0","noMatchOutcome","i","4500","","","","",""
"","","","","5f721a81ee2a860fe028a8a4","bdp_wmem","Sat Apr 08 2023 08:53:03 GMT-0700 (Pacific Daylight Time)","693747","Match,No Match","html-keyboard-response","22","224122","0.0-5.0-3.3","","null","","<div class='trialBorder'><div class='vertical-center'><img src='img/fixation2_sml.jpg'</img></div></div>","null","DELAY","","","","","","","","","","",""
"","","","","5f721a81ee2a860fe028a8a4","bdp_wmem","Sat Apr 08 2023 08:53:03 GMT-0700 (Pacific Daylight Time)","693747","Match,No Match","html-keyboard-response","23","225443","0.0-5.0-4.3","","1320","","<div class='trialBorder'><div class='targDiv'><div class='tc'><img class='introPic' src='trustrating_stim/white_mw070.bmp'><br><font color='green'><strong>Share</strong></font></div></div><div class='respDiv'><div class='respDivL'>Match<br>(e)</div><div class='respDivR'>No Match<br>(i)</div></div></div>","i","TARGET","3","trustrating_stim/white_mw010.bmp,trustrating_stim/white_mw078.bmp,trustrating_stim/white_mw070.bmp","0,1,0","noMatchOutcome","i","4500","trustrating_stim/white_mw070.bmp","green","Share","PRACTICE","1"
"","","","","5f721a81ee2a860fe028a8a4","bdp_wmem","Sat Apr 08 2023 08:53:03 GMT-0700 (Pacific Daylight Time)","693747","Match,No Match","html-keyboard-response","24","225950","0.0-5.0-5.3","","null","","<div class='trialBorder'><div class='vertical-center'><img src='img/correct.jpg'></div><div class='respDiv'><div class='respDivL'>Match<br>(e)</div><div class='respDivR'><font style='color:orange'>No Match<br>(i)</font></div></div></div>","null","FEEDBACK","","","","","","","","","","",""
"","","","","5f721a81ee2a860fe028a8a4","bdp_wmem","Sat Apr 08 2023 08:53:03 GMT-0700 (Pacific Daylight Time)","693747","Match,No Match","html-keyboard-response","25","226453","0.0-5.0-1.4","","null","","<div class='trialBorder'><div class='vertical-center'><img src='img/fixation2_sml.jpg'</img></div></div>","null","FIX","","","","","","","","","","",""
"","","","","5f721a81ee2a860fe028a8a4","bdp_wmem","Sat Apr 08 2023 08:53:03 GMT-0700 (Pacific Daylight Time)","693747","Match,No Match","html-keyboard-response","26","227966","0.0-5.0-2.4","","null","","<div class='trialBorder'><div class='vertical-center'><img style='vertical-align:center; align:center' src='img/fixation2_sml.jpg'></div><div class='arrayDiv1'><div class='tc'><img class='introPic' src='trustrating_stim/white_mw092.bmp'><br><font color='red'><strong>Keep</strong></font></div></div></div>","null","ARRAY","1","trustrating_stim/white_mw092.bmp","0","Match","e","1500","","","","",""
"","","","","5f721a81ee2a860fe028a8a4","bdp_wmem","Sat Apr 08 2023 08:53:03 GMT-0700 (Pacific Daylight Time)","693747","Match,No Match","html-keyboard-response","27","231967","0.0-5.0-3.4","","null","","<div class='trialBorder'><div class='vertical-center'><img src='img/fixation2_sml.jpg'</img></div></div>","null","DELAY","","","","","","","","","","",""
"","","","","5f721a81ee2a860fe028a8a4","bdp_wmem","Sat Apr 08 2023 08:53:03 GMT-0700 (Pacific Daylight Time)","693747","Match,No Match","html-keyboard-response","28","233124","0.0-5.0-4.4","","1155","","<div class='trialBorder'><div class='targDiv'><div class='tc'><img class='introPic' src='trustrating_stim/white_mw092.bmp'><br><font color='red'><strong>Keep</strong></font></div></div><div class='respDiv'><div class='respDivL'>Match<br>(e)</div><div class='respDivR'>No Match<br>(i)</div></div></div>","e","TARGET","1","trustrating_stim/white_mw092.bmp","0","Match","e","1500","trustrating_stim/white_mw092.bmp","red","Keep","PRACTICE","1"
"","","","","5f721a81ee2a860fe028a8a4","bdp_wmem","Sat Apr 08 2023 08:53:03 GMT-0700 (Pacific Daylight Time)","693747","Match,No Match","html-keyboard-response","29","233626","0.0-5.0-5.4","","null","","<div class='trialBorder'><div class='vertical-center'><img src='img/correct.jpg'></div><div class='respDiv'><div class='respDivL'><font style='color:orange'>Match<br>(e)</font></div><div class='respDivR'>No Match<br>(i)</div></div></div>","null","FEEDBACK","","","","","","","","","","",""
"","","","","5f721a81ee2a860fe028a8a4","bdp_wmem","Sat Apr 08 2023 08:53:03 GMT-0700 (Pacific Daylight Time)","693747","Match,No Match","html-keyboard-response","30","234129","0.0-5.0-1.5","","null","","<div class='trialBorder'><div class='vertical-center'><img src='img/fixation2_sml.jpg'</img></div></div>","null","FIX","","","","","","","","","","",""
"","","","","5f721a81ee2a860fe028a8a4","bdp_wmem","Sat Apr 08 2023 08:53:03 GMT-0700 (Pacific Daylight Time)","693747","Match,No Match","html-keyboard-response","31","237135","0.0-5.0-2.5","","null","","<div class='trialBorder'><div class='vertical-center'><img style='vertical-align:center; align:center' src='img/fixation2_sml.jpg'></div><div class='arrayDiv2'><div class='tl'><img class='introPic' src='trustrating_stim/white_mw013.bmp'><br><font color='red'><strong>Keep</strong></font></div><div class='tr'><img class='introPic' src='trustrating_stim/white_mw070.bmp'><br><font color='green'><strong>Share</strong></font></div></div></div>","null","ARRAY","2","trustrating_stim/white_mw013.bmp,trustrating_stim/white_mw070.bmp","0,1","noMatchOutcome","i","3000","","","","",""
"","","","","5f721a81ee2a860fe028a8a4","bdp_wmem","Sat Apr 08 2023 08:53:03 GMT-0700 (Pacific Daylight Time)","693747","Match,No Match","html-keyboard-response","32","241139","0.0-5.0-3.5","","null","","<div class='trialBorder'><div class='vertical-center'><img src='img/fixation2_sml.jpg'</img></div></div>","null","DELAY","","","","","","","","","","",""
"","","","","5f721a81ee2a860fe028a8a4","bdp_wmem","Sat Apr 08 2023 08:53:03 GMT-0700 (Pacific Daylight Time)","693747","Match,No Match","html-keyboard-response","33","242595","0.0-5.0-4.5","","1455","","<div class='trialBorder'><div class='targDiv'><div class='tc'><img class='introPic' src='trustrating_stim/white_mw013.bmp'><br><font color='green'><strong>Share</strong></font></div></div><div class='respDiv'><div class='respDivL'>Match<br>(e)</div><div class='respDivR'>No Match<br>(i)</div></div></div>","e","TARGET","2","trustrating_stim/white_mw013.bmp,trustrating_stim/white_mw070.bmp","0,1","noMatchOutcome","i","3000","trustrating_stim/white_mw013.bmp","green","Share","PRACTICE","0"
"","","","","5f721a81ee2a860fe028a8a4","bdp_wmem","Sat Apr 08 2023 08:53:03 GMT-0700 (Pacific Daylight Time)","693747","Match,No Match","html-keyboard-response","34","243098","0.0-5.0-5.5","","null","","<div class='trialBorder'><div class='vertical-center'><img src='img/error.jpg'></div><div class='respDiv'><div class='respDivL'><font style='color:orange'>Match<br>(e)</font></div><div class='respDivR'>No Match<br>(i)</div></div></div>","null","FEEDBACK","","","","","","","","","","",""
"","","","","5f721a81ee2a860fe028a8a4","bdp_wmem","Sat Apr 08 2023 08:53:03 GMT-0700 (Pacific Daylight Time)","693747","Match,No Match","instructions","35","245907","0.0-6.0","[{""page_index"":0,""viewing_time"":2809}]","2809","","","","","","","","","","","","","","",""
"","","","","5f721a81ee2a860fe028a8a4","bdp_wmem","Sat Apr 08 2023 08:53:03 GMT-0700 (Pacific Daylight Time)","693747","Match,No Match","html-keyboard-response","36","246423","0.0-7.0-1.0","","null","","<div class='trialBorder'><div class='vertical-center'><img src='img/fixation2_sml.jpg'</img></div></div>","null","FIX","","","","","","","","","","",""
"","","","","5f721a81ee2a860fe028a8a4","bdp_wmem","Sat Apr 08 2023 08:53:03 GMT-0700 (Pacific Daylight Time)","693747","Match,No Match","html-keyboard-response","37","250932","0.0-7.0-2.0","","null","","<div class='trialBorder'><div class='vertical-center'><img style='vertical-align:center; align:center' src='img/fixation2_sml.jpg'></div><div class='arrayDiv3'><div class='tl'><img class='introPic' src='trustrating_stim/white_mw038.bmp'><br><font color='green'><strong>Share</strong></font></div><div class='tc'><img class='introPic' src='trustrating_stim/white_mw078.bmp'><br><font color='green'><strong>Share</strong></font></div><div class='tr'><img class='introPic' src='trustrating_stim/white_mw003.bmp'><br><font color='red'><strong>Keep</strong></font></div></div></div>","null","ARRAY","3","trustrating_stim/white_mw038.bmp,trustrating_stim/white_mw078.bmp,trustrating_stim/white_mw003.bmp","1,1,0","noMatchFace","i","4500","","","","",""
"","","","","5f721a81ee2a860fe028a8a4","bdp_wmem","Sat Apr 08 2023 08:53:03 GMT-0700 (Pacific Daylight Time)","693747","Match,No Match","html-keyboard-response","38","254944","0.0-7.0-3.0","","null","","<div class='trialBorder'><div class='vertical-center'><img src='img/fixation2_sml.jpg'</img></div></div>","null","DELAY","","","","","","","","","","",""
"","","","","5f721a81ee2a860fe028a8a4","bdp_wmem","Sat Apr 08 2023 08:53:03 GMT-0700 (Pacific Daylight Time)","693747","Match,No Match","html-keyboard-response","39","256259","0.0-7.0-4.0","","1315","","<div class='trialBorder'><div class='targDiv'><div class='tc'><img class='introPic' src='trustrating_stim/white_mw040.bmp'><br><font color='green'><strong>Share</strong></font></div></div><div class='respDiv'><div class='respDivL'>Match<br>(e)</div><div class='respDivR'>No Match<br>(i)</div></div></div>","i","TARGET","3","trustrating_stim/white_mw038.bmp,trustrating_stim/white_mw078.bmp,trustrating_stim/white_mw003.bmp","1,1,0","noMatchFace","i","4500","trustrating_stim/white_mw040.bmp","green","Share","REAL","1"
"","","","","5f721a81ee2a860fe028a8a4","bdp_wmem","Sat Apr 08 2023 08:53:03 GMT-0700 (Pacific Daylight Time)","693747","Match,No Match","html-keyboard-response","40","256775","0.0-7.0-5.0","","null","","<div class='trialBorder'><div class='vertical-center'><img src='img/correct.jpg'></div><div class='respDiv'><div class='respDivL'>Match<br>(e)</div><div class='respDivR'><font style='color:orange'>No Match<br>(i)</font></div></div></div>","null","FEEDBACK","","","","","","","","","","",""
"","","","","5f721a81ee2a860fe028a8a4","bdp_wmem","Sat Apr 08 2023 08:53:03 GMT-0700 (Pacific Daylight Time)","693747","Match,No Match","html-keyboard-response","41","257279","0.0-7.0-1.1","","null","","<div class='trialBorder'><div class='vertical-center'><img src='img/fixation2_sml.jpg'</img></div></div>","null","FIX","","","","","","","","","","",""
"","","","","5f721a81ee2a860fe028a8a4","bdp_wmem","Sat Apr 08 2023 08:53:03 GMT-0700 (Pacific Daylight Time)","693747","Match,No Match","html-keyboard-response","42","260282","0.0-7.0-2.1","","null","","<div class='trialBorder'><div class='vertical-center'><img style='vertical-align:center; align:center' src='img/fixation2_sml.jpg'></div><div class='arrayDiv2'><div class='tl'><img class='introPic' src='trustrating_stim/white_mw013.bmp'><br><font color='green'><strong>Share</strong></font></div><div class='tr'><img class='introPic' src='trustrating_stim/white_mw010.bmp'><br><font color='red'><strong>Keep</strong></font></div></div></div>","null","ARRAY","2","trustrating_stim/white_mw013.bmp,trustrating_stim/white_mw010.bmp","1,0","noMatchFace","i","3000","","","","",""
"","","","","5f721a81ee2a860fe028a8a4","bdp_wmem","Sat Apr 08 2023 08:53:03 GMT-0700 (Pacific Daylight Time)","693747","Match,No Match","html-keyboard-response","43","264286","0.0-7.0-3.1","","null","","<div class='trialBorder'><div class='vertical-center'><img src='img/fixation2_sml.jpg'</img></div></div>","null","DELAY","","","","","","","","","","",""
"","","","","5f721a81ee2a860fe028a8a4","bdp_wmem","Sat Apr 08 2023 08:53:03 GMT-0700 (Pacific Daylight Time)","693747","Match,No Match","html-keyboard-response","44","265731","0.0-7.0-4.1","","1445","","<div class='trialBorder'><div class='targDiv'><div class='tc'><img class='introPic' src='trustrating_stim/white_mw078.bmp'><br><font color='red'><strong>Keep</strong></font></div></div><div class='respDiv'><div class='respDivL'>Match<br>(e)</div><div class='respDivR'>No Match<br>(i)</div></div></div>","i","TARGET","2","trustrating_stim/white_mw013.bmp,trustrating_stim/white_mw010.bmp","1,0","noMatchFace","i","3000","trustrating_stim/white_mw078.bmp","red","Keep","REAL","1"
"","","","","5f721a81ee2a860fe028a8a4","bdp_wmem","Sat Apr 08 2023 08:53:03 GMT-0700 (Pacific Daylight Time)","693747","Match,No Match","html-keyboard-response","45","266233","0.0-7.0-5.1","","null","","<div class='trialBorder'><div class='vertical-center'><img src='img/correct.jpg'></div><div class='respDiv'><div class='respDivL'>Match<br>(e)</div><div class='respDivR'><font style='color:orange'>No Match<br>(i)</font></div></div></div>","null","FEEDBACK","","","","","","","","","","",""
"","","","","5f721a81ee2a860fe028a8a4","bdp_wmem","Sat Apr 08 2023 08:53:03 GMT-0700 (Pacific Daylight Time)","693747","Match,No Match","html-keyboard-response","46","266734","0.0-7.0-1.2","","null","","<div class='trialBorder'><div class='vertical-center'><img src='img/fixation2_sml.jpg'</img></div></div>","null","FIX","","","","","","","","","","",""
"","","","","5f721a81ee2a860fe028a8a4","bdp_wmem","Sat Apr 08 2023 08:53:03 GMT-0700 (Pacific Daylight Time)","693747","Match,No Match","html-keyboard-response","47","268249","0.0-7.0-2.2","","null","","<div class='trialBorder'><div class='vertical-center'><img style='vertical-align:center; align:center' src='img/fixation2_sml.jpg'></div><div class='arrayDiv1'><div class='tc'><img class='introPic' src='trustrating_stim/white_mw078.bmp'><br><font color='green'><strong>Share</strong></font></div></div></div>","null","ARRAY","1","trustrating_stim/white_mw078.bmp","1","noMatchFace","i","1500","","","","",""
"","","","","5f721a81ee2a860fe028a8a4","bdp_wmem","Sat Apr 08 2023 08:53:03 GMT-0700 (Pacific Daylight Time)","693747","Match,No Match","html-keyboard-response","48","272263","0.0-7.0-3.2","","null","","<div class='trialBorder'><div class='vertical-center'><img src='img/fixation2_sml.jpg'</img></div></div>","null","DELAY","","","","","","","","","","",""
"","","","","5f721a81ee2a860fe028a8a4","bdp_wmem","Sat Apr 08 2023 08:53:03 GMT-0700 (Pacific Daylight Time)","693747","Match,No Match","html-keyboard-response","49","272948","0.0-7.0-4.2","","685","","<div class='trialBorder'><div class='targDiv'><div class='tc'><img class='introPic' src='trustrating_stim/white_mw091.bmp'><br><font color='green'><strong>Share</strong></font></div></div><div class='respDiv'><div class='respDivL'>Match<br>(e)</div><div class='respDivR'>No Match<br>(i)</div></div></div>","i","TARGET","1","trustrating_stim/white_mw078.bmp","1","noMatchFace","i","1500","trustrating_stim/white_mw091.bmp","green","Share","REAL","1"
"","","","","5f721a81ee2a860fe028a8a4","bdp_wmem","Sat Apr 08 2023 08:53:03 GMT-0700 (Pacific Daylight Time)","693747","Match,No Match","html-keyboard-response","50","273463","0.0-7.0-5.2","","null","","<div class='trialBorder'><div class='vertical-center'><img src='img/correct.jpg'></div><div class='respDiv'><div class='respDivL'>Match<br>(e)</div><div class='respDivR'><font style='color:orange'>No Match<br>(i)</font></div></div></div>","null","FEEDBACK","","","","","","","","","","",""
"","","","","5f721a81ee2a860fe028a8a4","bdp_wmem","Sat Apr 08 2023 08:53:03 GMT-0700 (Pacific Daylight Time)","693747","Match,No Match","html-keyboard-response","51","273979","0.0-7.0-1.3","","null","","<div class='trialBorder'><div class='vertical-center'><img src='img/fixation2_sml.jpg'</img></div></div>","null","FIX","","","","","","","","","","",""
"","","","","5f721a81ee2a860fe028a8a4","bdp_wmem","Sat Apr 08 2023 08:53:03 GMT-0700 (Pacific Daylight Time)","693747","Match,No Match","html-keyboard-response","52","276982","0.0-7.0-2.3","","null","","<div class='trialBorder'><div class='vertical-center'><img style='vertical-align:center; align:center' src='img/fixation2_sml.jpg'></div><div class='arrayDiv2'><div class='tl'><img class='introPic' src='trustrating_stim/white_mw085.bmp'><br><font color='red'><strong>Keep</strong></font></div><div class='tr'><img class='introPic' src='trustrating_stim/white_mw040.bmp'><br><font color='green'><strong>Share</strong></font></div></div></div>","null","ARRAY","2","trustrating_stim/white_mw085.bmp,trustrating_stim/white_mw040.bmp","0,1","Match","e","3000","","","","",""
"","","","","5f721a81ee2a860fe028a8a4","bdp_wmem","Sat Apr 08 2023 08:53:03 GMT-0700 (Pacific Daylight Time)","693747","Match,No Match","html-keyboard-response","53","280984","0.0-7.0-3.3","","null","","<div class='trialBorder'><div class='vertical-center'><img src='img/fixation2_sml.jpg'</img></div></div>","null","DELAY","","","","","","","","","","",""
"","","","","5f721a81ee2a860fe028a8a4","bdp_wmem","Sat Apr 08 2023 08:53:03 GMT-0700 (Pacific Daylight Time)","693747","Match,No Match","html-keyboard-response","54","285780","0.0-7.0-4.3","","4796","","<div class='trialBorder'><div class='targDiv'><div class='tc'><img class='introPic' src='trustrating_stim/white_mw040.bmp'><br><font color='green'><strong>Share</strong></font></div></div><div class='respDiv'><div class='respDivL'>Match<br>(e)</div><div class='respDivR'>No Match<br>(i)</div></div></div>","e","TARGET","2","trustrating_stim/white_mw085.bmp,trustrating_stim/white_mw040.bmp","0,1","Match","e","3000","trustrating_stim/white_mw040.bmp","green","Share","REAL","1"
"","","","","5f721a81ee2a860fe028a8a4","bdp_wmem","Sat Apr 08 2023 08:53:03 GMT-0700 (Pacific Daylight Time)","693747","Match,No Match","html-keyboard-response","55","286282","0.0-7.0-5.3","","null","","<div class='trialBorder'><div class='vertical-center'><img src='img/correct.jpg'></div><div class='respDiv'><div class='respDivL'><font style='color:orange'>Match<br>(e)</font></div><div class='respDivR'>No Match<br>(i)</div></div></div>","null","FEEDBACK","","","","","","","","","","",""
"","","","","5f721a81ee2a860fe028a8a4","bdp_wmem","Sat Apr 08 2023 08:53:03 GMT-0700 (Pacific Daylight Time)","693747","Match,No Match","html-keyboard-response","56","286794","0.0-7.0-1.4","","null","","<div class='trialBorder'><div class='vertical-center'><img src='img/fixation2_sml.jpg'</img></div></div>","null","FIX","","","","","","","","","","",""
"","","","","5f721a81ee2a860fe028a8a4","bdp_wmem","Sat Apr 08 2023 08:53:03 GMT-0700 (Pacific Daylight Time)","693747","Match,No Match","html-keyboard-response","57","291305","0.0-7.0-2.4","","null","","<div class='trialBorder'><div class='vertical-center'><img style='vertical-align:center; align:center' src='img/fixation2_sml.jpg'></div><div class='arrayDiv3'><div class='tl'><img class='introPic' src='trustrating_stim/white_mw038.bmp'><br><font color='green'><strong>Share</strong></font></div><div class='tc'><img class='introPic' src='trustrating_stim/white_mw091.bmp'><br><font color='green'><strong>Share</strong></font></div><div class='tr'><img class='introPic' src='trustrating_stim/white_mw070.bmp'><br><font color='red'><strong>Keep</strong></font></div></div></div>","null","ARRAY","3","trustrating_stim/white_mw038.bmp,trustrating_stim/white_mw091.bmp,trustrating_stim/white_mw070.bmp","1,1,0","Match","e","4500","","","","",""
"","","","","5f721a81ee2a860fe028a8a4","bdp_wmem","Sat Apr 08 2023 08:53:03 GMT-0700 (Pacific Daylight Time)","693747","Match,No Match","html-keyboard-response","58","295313","0.0-7.0-3.4","","null","","<div class='trialBorder'><div class='vertical-center'><img src='img/fixation2_sml.jpg'</img></div></div>","null","DELAY","","","","","","","","","","",""
"","","","","5f721a81ee2a860fe028a8a4","bdp_wmem","Sat Apr 08 2023 08:53:03 GMT-0700 (Pacific Daylight Time)","693747","Match,No Match","html-keyboard-response","59","297188","0.0-7.0-4.4","","1874","","<div class='trialBorder'><div class='targDiv'><div class='tc'><img class='introPic' src='trustrating_stim/white_mw070.bmp'><br><font color='red'><strong>Keep</strong></font></div></div><div class='respDiv'><div class='respDivL'>Match<br>(e)</div><div class='respDivR'>No Match<br>(i)</div></div></div>","i","TARGET","3","trustrating_stim/white_mw038.bmp,trustrating_stim/white_mw091.bmp,trustrating_stim/white_mw070.bmp","1,1,0","Match","e","4500","trustrating_stim/white_mw070.bmp","red","Keep","REAL","0"
"","","","","5f721a81ee2a860fe028a8a4","bdp_wmem","Sat Apr 08 2023 08:53:03 GMT-0700 (Pacific Daylight Time)","693747","Match,No Match","html-keyboard-response","60","297690","0.0-7.0-5.4","","null","","<div class='trialBorder'><div class='vertical-center'><img src='img/error.jpg'></div><div class='respDiv'><div class='respDivL'>Match<br>(e)</div><div class='respDivR'><font style='color:orange'>No Match<br>(i)</font></div></div></div>","null","FEEDBACK","","","","","","","","","","",""
"","","","","5f721a81ee2a860fe028a8a4","bdp_wmem","Sat Apr 08 2023 08:53:03 GMT-0700 (Pacific Daylight Time)","693747","Match,No Match","html-keyboard-response","61","298198","0.0-7.0-1.5","","null","","<div class='trialBorder'><div class='vertical-center'><img src='img/fixation2_sml.jpg'</img></div></div>","null","FIX","","","","","","","","","","",""
"","","","","5f721a81ee2a860fe028a8a4","bdp_wmem","Sat Apr 08 2023 08:53:03 GMT-0700 (Pacific Daylight Time)","693747","Match,No Match","html-keyboard-response","62","301209","0.0-7.0-2.5","","null","","<div class='trialBorder'><div class='vertical-center'><img style='vertical-align:center; align:center' src='img/fixation2_sml.jpg'></div><div class='arrayDiv2'><div class='tl'><img class='introPic' src='trustrating_stim/white_mw038.bmp'><br><font color='red'><strong>Keep</strong></font></div><div class='tr'><img class='introPic' src='trustrating_stim/white_mw042.bmp'><br><font color='green'><strong>Share</strong></font></div></div></div>","null","ARRAY","2","trustrating_stim/white_mw038.bmp,trustrating_stim/white_mw042.bmp","0,1","noMatchFace","i","3000","","","","",""
"","","","","5f721a81ee2a860fe028a8a4","bdp_wmem","Sat Apr 08 2023 08:53:03 GMT-0700 (Pacific Daylight Time)","693747","Match,No Match","html-keyboard-response","63","305217","0.0-7.0-3.5","","null","","<div class='trialBorder'><div class='vertical-center'><img src='img/fixation2_sml.jpg'</img></div></div>","null","DELAY","","","","","","","","","","",""
"","","","","5f721a81ee2a860fe028a8a4","bdp_wmem","Sat Apr 08 2023 08:53:03 GMT-0700 (Pacific Daylight Time)","693747","Match,No Match","html-keyboard-response","64","306083","0.0-7.0-4.5","","866","","<div class='trialBorder'><div class='targDiv'><div class='tc'><img class='introPic' src='trustrating_stim/white_mw085.bmp'><br><font color='red'><strong>Keep</strong></font></div></div><div class='respDiv'><div class='respDivL'>Match<br>(e)</div><div class='respDivR'>No Match<br>(i)</div></div></div>","i","TARGET","2","trustrating_stim/white_mw038.bmp,trustrating_stim/white_mw042.bmp","0,1","noMatchFace","i","3000","trustrating_stim/white_mw085.bmp","red","Keep","REAL","1"
"","","","","5f721a81ee2a860fe028a8a4","bdp_wmem","Sat Apr 08 2023 08:53:03 GMT-0700 (Pacific Daylight Time)","693747","Match,No Match","html-keyboard-response","65","306594","0.0-7.0-5.5","","null","","<div class='trialBorder'><div class='vertical-center'><img src='img/correct.jpg'></div><div class='respDiv'><div class='respDivL'>Match<br>(e)</div><div class='respDivR'><font style='color:orange'>No Match<br>(i)</font></div></div></div>","null","FEEDBACK","","","","","","","","","","",""
"","","","","5f721a81ee2a860fe028a8a4","bdp_wmem","Sat Apr 08 2023 08:53:03 GMT-0700 (Pacific Daylight Time)","693747","Match,No Match","html-keyboard-response","66","307095","0.0-7.0-1.6","","null","","<div class='trialBorder'><div class='vertical-center'><img src='img/fixation2_sml.jpg'</img></div></div>","null","FIX","","","","","","","","","","",""
"","","","","5f721a81ee2a860fe028a8a4","bdp_wmem","Sat Apr 08 2023 08:53:03 GMT-0700 (Pacific Daylight Time)","693747","Match,No Match","html-keyboard-response","67","308600","0.0-7.0-2.6","","null","","<div class='trialBorder'><div class='vertical-center'><img style='vertical-align:center; align:center' src='img/fixation2_sml.jpg'></div><div class='arrayDiv1'><div class='tc'><img class='introPic' src='trustrating_stim/white_mw078.bmp'><br><font color='red'><strong>Keep</strong></font></div></div></div>","null","ARRAY","1","trustrating_stim/white_mw078.bmp","0","noMatchFace","i","1500","","","","",""
"","","","","5f721a81ee2a860fe028a8a4","bdp_wmem","Sat Apr 08 2023 08:53:03 GMT-0700 (Pacific Daylight Time)","693747","Match,No Match","html-keyboard-response","68","312603","0.0-7.0-3.6","","null","","<div class='trialBorder'><div class='vertical-center'><img src='img/fixation2_sml.jpg'</img></div></div>","null","DELAY","","","","","","","","","","",""
"","","","","5f721a81ee2a860fe028a8a4","bdp_wmem","Sat Apr 08 2023 08:53:03 GMT-0700 (Pacific Daylight Time)","693747","Match,No Match","html-keyboard-response","69","313524","0.0-7.0-4.6","","920","","<div class='trialBorder'><div class='targDiv'><div class='tc'><img class='introPic' src='trustrating_stim/white_mw012.bmp'><br><font color='red'><strong>Keep</strong></font></div></div><div class='respDiv'><div class='respDivL'>Match<br>(e)</div><div class='respDivR'>No Match<br>(i)</div></div></div>","i","TARGET","1","trustrating_stim/white_mw078.bmp","0","noMatchFace","i","1500","trustrating_stim/white_mw012.bmp","red","Keep","REAL","1"
"","","","","5f721a81ee2a860fe028a8a4","bdp_wmem","Sat Apr 08 2023 08:53:03 GMT-0700 (Pacific Daylight Time)","693747","Match,No Match","html-keyboard-response","70","314027","0.0-7.0-5.6","","null","","<div class='trialBorder'><div class='vertical-center'><img src='img/correct.jpg'></div><div class='respDiv'><div class='respDivL'>Match<br>(e)</div><div class='respDivR'><font style='color:orange'>No Match<br>(i)</font></div></div></div>","null","FEEDBACK","","","","","","","","","","",""
"","","","","5f721a81ee2a860fe028a8a4","bdp_wmem","Sat Apr 08 2023 08:53:03 GMT-0700 (Pacific Daylight Time)","693747","Match,No Match","html-keyboard-response","71","314534","0.0-7.0-1.7","","null","","<div class='trialBorder'><div class='vertical-center'><img src='img/fixation2_sml.jpg'</img></div></div>","null","FIX","","","","","","","","","","",""
"","","","","5f721a81ee2a860fe028a8a4","bdp_wmem","Sat Apr 08 2023 08:53:03 GMT-0700 (Pacific Daylight Time)","693747","Match,No Match","html-keyboard-response","72","319034","0.0-7.0-2.7","","null","","<div class='trialBorder'><div class='vertical-center'><img style='vertical-align:center; align:center' src='img/fixation2_sml.jpg'></div><div class='arrayDiv3'><div class='tl'><img class='introPic' src='trustrating_stim/white_mw042.bmp'><br><font color='green'><strong>Share</strong></font></div><div class='tc'><img class='introPic' src='trustrating_stim/white_mw012.bmp'><br><font color='green'><strong>Share</strong></font></div><div class='tr'><img class='introPic' src='trustrating_stim/white_mw091.bmp'><br><font color='red'><strong>Keep</strong></font></div></div></div>","null","ARRAY","3","trustrating_stim/white_mw042.bmp,trustrating_stim/white_mw012.bmp,trustrating_stim/white_mw091.bmp","1,1,0","Match","e","4500","","","","",""
"","","","","5f721a81ee2a860fe028a8a4","bdp_wmem","Sat Apr 08 2023 08:53:03 GMT-0700 (Pacific Daylight Time)","693747","Match,No Match","html-keyboard-response","73","323045","0.0-7.0-3.7","","null","","<div class='trialBorder'><div class='vertical-center'><img src='img/fixation2_sml.jpg'</img></div></div>","null","DELAY","","","","","","","","","","",""
"","","","","5f721a81ee2a860fe028a8a4","bdp_wmem","Sat Apr 08 2023 08:53:03 GMT-0700 (Pacific Daylight Time)","693747","Match,No Match","html-keyboard-response","74","324820","0.0-7.0-4.7","","1775","","<div class='trialBorder'><div class='targDiv'><div class='tc'><img class='introPic' src='trustrating_stim/white_mw091.bmp'><br><font color='red'><strong>Keep</strong></font></div></div><div class='respDiv'><div class='respDivL'>Match<br>(e)</div><div class='respDivR'>No Match<br>(i)</div></div></div>","e","TARGET","3","trustrating_stim/white_mw042.bmp,trustrating_stim/white_mw012.bmp,trustrating_stim/white_mw091.bmp","1,1,0","Match","e","4500","trustrating_stim/white_mw091.bmp","red","Keep","REAL","1"
"","","","","5f721a81ee2a860fe028a8a4","bdp_wmem","Sat Apr 08 2023 08:53:03 GMT-0700 (Pacific Daylight Time)","693747","Match,No Match","html-keyboard-response","75","325334","0.0-7.0-5.7","","null","","<div class='trialBorder'><div class='vertical-center'><img src='img/correct.jpg'></div><div class='respDiv'><div class='respDivL'><font style='color:orange'>Match<br>(e)</font></div><div class='respDivR'>No Match<br>(i)</div></div></div>","null","FEEDBACK","","","","","","","","","","",""
"","","","","5f721a81ee2a860fe028a8a4","bdp_wmem","Sat Apr 08 2023 08:53:03 GMT-0700 (Pacific Daylight Time)","693747","Match,No Match","html-keyboard-response","76","325836","0.0-7.0-1.8","","null","","<div class='trialBorder'><div class='vertical-center'><img src='img/fixation2_sml.jpg'</img></div></div>","null","FIX","","","","","","","","","","",""
"","","","","5f721a81ee2a860fe028a8a4","bdp_wmem","Sat Apr 08 2023 08:53:03 GMT-0700 (Pacific Daylight Time)","693747","Match,No Match","html-keyboard-response","77","327344","0.0-7.0-2.8","","null","","<div class='trialBorder'><div class='vertical-center'><img style='vertical-align:center; align:center' src='img/fixation2_sml.jpg'></div><div class='arrayDiv1'><div class='tc'><img class='introPic' src='trustrating_stim/white_mw003.bmp'><br><font color='green'><strong>Share</strong></font></div></div></div>","null","ARRAY","1","trustrating_stim/white_mw003.bmp","1","Match","e","1500","","","","",""
"","","","","5f721a81ee2a860fe028a8a4","bdp_wmem","Sat Apr 08 2023 08:53:03 GMT-0700 (Pacific Daylight Time)","693747","Match,No Match","html-keyboard-response","78","331349","0.0-7.0-3.8","","null","","<div class='trialBorder'><div class='vertical-center'><img src='img/fixation2_sml.jpg'</img></div></div>","null","DELAY","","","","","","","","","","",""
"","","","","5f721a81ee2a860fe028a8a4","bdp_wmem","Sat Apr 08 2023 08:53:03 GMT-0700 (Pacific Daylight Time)","693747","Match,No Match","html-keyboard-response","79","333635","0.0-7.0-4.8","","2285","","<div class='trialBorder'><div class='targDiv'><div class='tc'><img class='introPic' src='trustrating_stim/white_mw003.bmp'><br><font color='green'><strong>Share</strong></font></div></div><div class='respDiv'><div class='respDivL'>Match<br>(e)</div><div class='respDivR'>No Match<br>(i)</div></div></div>","e","TARGET","1","trustrating_stim/white_mw003.bmp","1","Match","e","1500","trustrating_stim/white_mw003.bmp","green","Share","REAL","1"
"","","","","5f721a81ee2a860fe028a8a4","bdp_wmem","Sat Apr 08 2023 08:53:03 GMT-0700 (Pacific Daylight Time)","693747","Match,No Match","html-keyboard-response","80","334136","0.0-7.0-5.8","","null","","<div class='trialBorder'><div class='vertical-center'><img src='img/correct.jpg'></div><div class='respDiv'><div class='respDivL'><font style='color:orange'>Match<br>(e)</font></div><div class='respDivR'>No Match<br>(i)</div></div></div>","null","FEEDBACK","","","","","","","","","","",""
"","","","","5f721a81ee2a860fe028a8a4","bdp_wmem","Sat Apr 08 2023 08:53:03 GMT-0700 (Pacific Daylight Time)","693747","Match,No Match","html-keyboard-response","81","334645","0.0-7.0-1.9","","null","","<div class='trialBorder'><div class='vertical-center'><img src='img/fixation2_sml.jpg'</img></div></div>","null","FIX","","","","","","","","","","",""
"","","","","5f721a81ee2a860fe028a8a4","bdp_wmem","Sat Apr 08 2023 08:53:03 GMT-0700 (Pacific Daylight Time)","693747","Match,No Match","html-keyboard-response","82","336159","0.0-7.0-2.9","","null","","<div class='trialBorder'><div class='vertical-center'><img style='vertical-align:center; align:center' src='img/fixation2_sml.jpg'></div><div class='arrayDiv1'><div class='tc'><img class='introPic' src='trustrating_stim/white_mw013.bmp'><br><font color='green'><strong>Share</strong></font></div></div></div>","null","ARRAY","1","trustrating_stim/white_mw013.bmp","1","noMatchOutcome","i","1500","","","","",""
"","","","","5f721a81ee2a860fe028a8a4","bdp_wmem","Sat Apr 08 2023 08:53:03 GMT-0700 (Pacific Daylight Time)","693747","Match,No Match","html-keyboard-response","83","340167","0.0-7.0-3.9","","null","","<div class='trialBorder'><div class='vertical-center'><img src='img/fixation2_sml.jpg'</img></div></div>","null","DELAY","","","","","","","","","","",""
"","","","","5f721a81ee2a860fe028a8a4","bdp_wmem","Sat Apr 08 2023 08:53:03 GMT-0700 (Pacific Daylight Time)","693747","Match,No Match","html-keyboard-response","84","341044","0.0-7.0-4.9","","876","","<div class='trialBorder'><div class='targDiv'><div class='tc'><img class='introPic' src='trustrating_stim/white_mw013.bmp'><br><font color='red'><strong>Keep</strong></font></div></div><div class='respDiv'><div class='respDivL'>Match<br>(e)</div><div class='respDivR'>No Match<br>(i)</div></div></div>","i","TARGET","1","trustrating_stim/white_mw013.bmp","1","noMatchOutcome","i","1500","trustrating_stim/white_mw013.bmp","red","Keep","REAL","1"
"","","","","5f721a81ee2a860fe028a8a4","bdp_wmem","Sat Apr 08 2023 08:53:03 GMT-0700 (Pacific Daylight Time)","693747","Match,No Match","html-keyboard-response","85","341548","0.0-7.0-5.9","","null","","<div class='trialBorder'><div class='vertical-center'><img src='img/correct.jpg'></div><div class='respDiv'><div class='respDivL'>Match<br>(e)</div><div class='respDivR'><font style='color:orange'>No Match<br>(i)</font></div></div></div>","null","FEEDBACK","","","","","","","","","","",""
"","","","","5f721a81ee2a860fe028a8a4","bdp_wmem","Sat Apr 08 2023 08:53:03 GMT-0700 (Pacific Daylight Time)","693747","Match,No Match","html-keyboard-response","86","342056","0.0-7.0-1.10","","null","","<div class='trialBorder'><div class='vertical-center'><img src='img/fixation2_sml.jpg'</img></div></div>","null","FIX","","","","","","","","","","",""
"","","","","5f721a81ee2a860fe028a8a4","bdp_wmem","Sat Apr 08 2023 08:53:03 GMT-0700 (Pacific Daylight Time)","693747","Match,No Match","html-keyboard-response","87","343568","0.0-7.0-2.10","","null","","<div class='trialBorder'><div class='vertical-center'><img style='vertical-align:center; align:center' src='img/fixation2_sml.jpg'></div><div class='arrayDiv1'><div class='tc'><img class='introPic' src='trustrating_stim/white_mw010.bmp'><br><font color='red'><strong>Keep</strong></font></div></div></div>","null","ARRAY","1","trustrating_stim/white_mw010.bmp","0","Match","e","1500","","","","",""
"","","","","5f721a81ee2a860fe028a8a4","bdp_wmem","Sat Apr 08 2023 08:53:03 GMT-0700 (Pacific Daylight Time)","693747","Match,No Match","html-keyboard-response","88","347579","0.0-7.0-3.10","","null","","<div class='trialBorder'><div class='vertical-center'><img src='img/fixation2_sml.jpg'</img></div></div>","null","DELAY","","","","","","","","","","",""
"","","","","5f721a81ee2a860fe028a8a4","bdp_wmem","Sat Apr 08 2023 08:53:03 GMT-0700 (Pacific Daylight Time)","693747","Match,No Match","html-keyboard-response","89","348436","0.0-7.0-4.10","","855","","<div class='trialBorder'><div class='targDiv'><div class='tc'><img class='introPic' src='trustrating_stim/white_mw010.bmp'><br><font color='red'><strong>Keep</strong></font></div></div><div class='respDiv'><div class='respDivL'>Match<br>(e)</div><div class='respDivR'>No Match<br>(i)</div></div></div>","e","TARGET","1","trustrating_stim/white_mw010.bmp","0","Match","e","1500","trustrating_stim/white_mw010.bmp","red","Keep","REAL","1"
"","","","","5f721a81ee2a860fe028a8a4","bdp_wmem","Sat Apr 08 2023 08:53:03 GMT-0700 (Pacific Daylight Time)","693747","Match,No Match","html-keyboard-response","90","348937","0.0-7.0-5.10","","null","","<div class='trialBorder'><div class='vertical-center'><img src='img/correct.jpg'></div><div class='respDiv'><div class='respDivL'><font style='color:orange'>Match<br>(e)</font></div><div class='respDivR'>No Match<br>(i)</div></div></div>","null","FEEDBACK","","","","","","","","","","",""
"","","","","5f721a81ee2a860fe028a8a4","bdp_wmem","Sat Apr 08 2023 08:53:03 GMT-0700 (Pacific Daylight Time)","693747","Match,No Match","html-keyboard-response","91","349444","0.0-7.0-1.11","","null","","<div class='trialBorder'><div class='vertical-center'><img src='img/fixation2_sml.jpg'</img></div></div>","null","FIX","","","","","","","","","","",""
"","","","","5f721a81ee2a860fe028a8a4","bdp_wmem","Sat Apr 08 2023 08:53:03 GMT-0700 (Pacific Daylight Time)","693747","Match,No Match","html-keyboard-response","92","352445","0.0-7.0-2.11","","null","","<div class='trialBorder'><div class='vertical-center'><img style='vertical-align:center; align:center' src='img/fixation2_sml.jpg'></div><div class='arrayDiv2'><div class='tl'><img class='introPic' src='trustrating_stim/white_mw038.bmp'><br><font color='red'><strong>Keep</strong></font></div><div class='tr'><img class='introPic' src='trustrating_stim/white_mw013.bmp'><br><font color='green'><strong>Share</strong></font></div></div></div>","null","ARRAY","2","trustrating_stim/white_mw038.bmp,trustrating_stim/white_mw013.bmp","0,1","noMatchOutcome","i","3000","","","","",""
"","","","","5f721a81ee2a860fe028a8a4","bdp_wmem","Sat Apr 08 2023 08:53:03 GMT-0700 (Pacific Daylight Time)","693747","Match,No Match","html-keyboard-response","93","356453","0.0-7.0-3.11","","null","","<div class='trialBorder'><div class='vertical-center'><img src='img/fixation2_sml.jpg'</img></div></div>","null","DELAY","","","","","","","","","","",""
"","","","","5f721a81ee2a860fe028a8a4","bdp_wmem","Sat Apr 08 2023 08:53:03 GMT-0700 (Pacific Daylight Time)","693747","Match,No Match","html-keyboard-response","94","358099","0.0-7.0-4.11","","1646","","<div class='trialBorder'><div class='targDiv'><div class='tc'><img class='introPic' src='trustrating_stim/white_mw038.bmp'><br><font color='green'><strong>Share</strong></font></div></div><div class='respDiv'><div class='respDivL'>Match<br>(e)</div><div class='respDivR'>No Match<br>(i)</div></div></div>","e","TARGET","2","trustrating_stim/white_mw038.bmp,trustrating_stim/white_mw013.bmp","0,1","noMatchOutcome","i","3000","trustrating_stim/white_mw038.bmp","green","Share","REAL","0"
"","","","","5f721a81ee2a860fe028a8a4","bdp_wmem","Sat Apr 08 2023 08:53:03 GMT-0700 (Pacific Daylight Time)","693747","Match,No Match","html-keyboard-response","95","358605","0.0-7.0-5.11","","null","","<div class='trialBorder'><div class='vertical-center'><img src='img/error.jpg'></div><div class='respDiv'><div class='respDivL'><font style='color:orange'>Match<br>(e)</font></div><div class='respDivR'>No Match<br>(i)</div></div></div>","null","FEEDBACK","","","","","","","","","","",""
"","","","","5f721a81ee2a860fe028a8a4","bdp_wmem","Sat Apr 08 2023 08:53:03 GMT-0700 (Pacific Daylight Time)","693747","Match,No Match","html-keyboard-response","96","359108","0.0-7.0-1.12","","null","","<div class='trialBorder'><div class='vertical-center'><img src='img/fixation2_sml.jpg'</img></div></div>","null","FIX","","","","","","","","","","",""
"","","","","5f721a81ee2a860fe028a8a4","bdp_wmem","Sat Apr 08 2023 08:53:03 GMT-0700 (Pacific Daylight Time)","693747","Match,No Match","html-keyboard-response","97","363618","0.0-7.0-2.12","","null","","<div class='trialBorder'><div class='vertical-center'><img style='vertical-align:center; align:center' src='img/fixation2_sml.jpg'></div><div class='arrayDiv3'><div class='tl'><img class='introPic' src='trustrating_stim/white_mw085.bmp'><br><font color='green'><strong>Share</strong></font></div><div class='tc'><img class='introPic' src='trustrating_stim/white_mw070.bmp'><br><font color='red'><strong>Keep</strong></font></div><div class='tr'><img class='introPic' src='trustrating_stim/white_mw091.bmp'><br><font color='green'><strong>Share</strong></font></div></div></div>","null","ARRAY","3","trustrating_stim/white_mw085.bmp,trustrating_stim/white_mw070.bmp,trustrating_stim/white_mw091.bmp","1,0,1","noMatchOutcome","i","4500","","","","",""
"","","","","5f721a81ee2a860fe028a8a4","bdp_wmem","Sat Apr 08 2023 08:53:03 GMT-0700 (Pacific Daylight Time)","693747","Match,No Match","html-keyboard-response","98","367628","0.0-7.0-3.12","","null","","<div class='trialBorder'><div class='vertical-center'><img src='img/fixation2_sml.jpg'</img></div></div>","null","DELAY","","","","","","","","","","",""
"","","","","5f721a81ee2a860fe028a8a4","bdp_wmem","Sat Apr 08 2023 08:53:03 GMT-0700 (Pacific Daylight Time)","693747","Match,No Match","html-keyboard-response","99","369348","0.0-7.0-4.12","","1719","","<div class='trialBorder'><div class='targDiv'><div class='tc'><img class='introPic' src='trustrating_stim/white_mw085.bmp'><br><font color='red'><strong>Keep</strong></font></div></div><div class='respDiv'><div class='respDivL'>Match<br>(e)</div><div class='respDivR'>No Match<br>(i)</div></div></div>","i","TARGET","3","trustrating_stim/white_mw085.bmp,trustrating_stim/white_mw070.bmp,trustrating_stim/white_mw091.bmp","1,0,1","noMatchOutcome","i","4500","trustrating_stim/white_mw085.bmp","red","Keep","REAL","1"
"","","","","5f721a81ee2a860fe028a8a4","bdp_wmem","Sat Apr 08 2023 08:53:03 GMT-0700 (Pacific Daylight Time)","693747","Match,No Match","html-keyboard-response","100","369853","0.0-7.0-5.12","","null","","<div class='trialBorder'><div class='vertical-center'><img src='img/correct.jpg'></div><div class='respDiv'><div class='respDivL'>Match<br>(e)</div><div class='respDivR'><font style='color:orange'>No Match<br>(i)</font></div></div></div>","null","FEEDBACK","","","","","","","","","","",""
"","","","","5f721a81ee2a860fe028a8a4","bdp_wmem","Sat Apr 08 2023 08:53:03 GMT-0700 (Pacific Daylight Time)","693747","Match,No Match","html-keyboard-response","101","370359","0.0-7.0-1.13","","null","","<div class='trialBorder'><div class='vertical-center'><img src='img/fixation2_sml.jpg'</img></div></div>","null","FIX","","","","","","","","","","",""
"","","","","5f721a81ee2a860fe028a8a4","bdp_wmem","Sat Apr 08 2023 08:53:03 GMT-0700 (Pacific Daylight Time)","693747","Match,No Match","html-keyboard-response","102","373372","0.0-7.0-2.13","","null","","<div class='trialBorder'><div class='vertical-center'><img style='vertical-align:center; align:center' src='img/fixation2_sml.jpg'></div><div class='arrayDiv2'><div class='tl'><img class='introPic' src='trustrating_stim/white_mw042.bmp'><br><font color='green'><strong>Share</strong></font></div><div class='tr'><img class='introPic' src='trustrating_stim/white_mw085.bmp'><br><font color='red'><strong>Keep</strong></font></div></div></div>","null","ARRAY","2","trustrating_stim/white_mw042.bmp,trustrating_stim/white_mw085.bmp","1,0","Match","e","3000","","","","",""
"","","","","5f721a81ee2a860fe028a8a4","bdp_wmem","Sat Apr 08 2023 08:53:03 GMT-0700 (Pacific Daylight Time)","693747","Match,No Match","html-keyboard-response","103","377373","0.0-7.0-3.13","","null","","<div class='trialBorder'><div class='vertical-center'><img src='img/fixation2_sml.jpg'</img></div></div>","null","DELAY","","","","","","","","","","",""
"","","","","5f721a81ee2a860fe028a8a4","bdp_wmem","Sat Apr 08 2023 08:53:03 GMT-0700 (Pacific Daylight Time)","693747","Match,No Match","html-keyboard-response","104","379636","0.0-7.0-4.13","","2262","","<div class='trialBorder'><div class='targDiv'><div class='tc'><img class='introPic' src='trustrating_stim/white_mw085.bmp'><br><font color='red'><strong>Keep</strong></font></div></div><div class='respDiv'><div class='respDivL'>Match<br>(e)</div><div class='respDivR'>No Match<br>(i)</div></div></div>","e","TARGET","2","trustrating_stim/white_mw042.bmp,trustrating_stim/white_mw085.bmp","1,0","Match","e","3000","trustrating_stim/white_mw085.bmp","red","Keep","REAL","1"
"","","","","5f721a81ee2a860fe028a8a4","bdp_wmem","Sat Apr 08 2023 08:53:03 GMT-0700 (Pacific Daylight Time)","693747","Match,No Match","html-keyboard-response","105","380143","0.0-7.0-5.13","","null","","<div class='trialBorder'><div class='vertical-center'><img src='img/correct.jpg'></div><div class='respDiv'><div class='respDivL'><font style='color:orange'>Match<br>(e)</font></div><div class='respDivR'>No Match<br>(i)</div></div></div>","null","FEEDBACK","","","","","","","","","","",""
"","","","","5f721a81ee2a860fe028a8a4","bdp_wmem","Sat Apr 08 2023 08:53:03 GMT-0700 (Pacific Daylight Time)","693747","Match,No Match","html-keyboard-response","106","380657","0.0-7.0-1.14","","null","","<div class='trialBorder'><div class='vertical-center'><img src='img/fixation2_sml.jpg'</img></div></div>","null","FIX","","","","","","","","","","",""
"","","","","5f721a81ee2a860fe028a8a4","bdp_wmem","Sat Apr 08 2023 08:53:03 GMT-0700 (Pacific Daylight Time)","693747","Match,No Match","html-keyboard-response","107","383670","0.0-7.0-2.14","","null","","<div class='trialBorder'><div class='vertical-center'><img style='vertical-align:center; align:center' src='img/fixation2_sml.jpg'></div><div class='arrayDiv2'><div class='tl'><img class='introPic' src='trustrating_stim/white_mw070.bmp'><br><font color='red'><strong>Keep</strong></font></div><div class='tr'><img class='introPic' src='trustrating_stim/white_mw003.bmp'><br><font color='green'><strong>Share</strong></font></div></div></div>","null","ARRAY","2","trustrating_stim/white_mw070.bmp,trustrating_stim/white_mw003.bmp","0,1","noMatchOutcome","i","3000","","","","",""
"","","","","5f721a81ee2a860fe028a8a4","bdp_wmem","Sat Apr 08 2023 08:53:03 GMT-0700 (Pacific Daylight Time)","693747","Match,No Match","html-keyboard-response","108","387677","0.0-7.0-3.14","","null","","<div class='trialBorder'><div class='vertical-center'><img src='img/fixation2_sml.jpg'</img></div></div>","null","DELAY","","","","","","","","","","",""
"","","","","5f721a81ee2a860fe028a8a4","bdp_wmem","Sat Apr 08 2023 08:53:03 GMT-0700 (Pacific Daylight Time)","693747","Match,No Match","html-keyboard-response","109","388707","0.0-7.0-4.14","","1030","","<div class='trialBorder'><div class='targDiv'><div class='tc'><img class='introPic' src='trustrating_stim/white_mw070.bmp'><br><font color='green'><strong>Share</strong></font></div></div><div class='respDiv'><div class='respDivL'>Match<br>(e)</div><div class='respDivR'>No Match<br>(i)</div></div></div>","i","TARGET","2","trustrating_stim/white_mw070.bmp,trustrating_stim/white_mw003.bmp","0,1","noMatchOutcome","i","3000","trustrating_stim/white_mw070.bmp","green","Share","REAL","1"
"","","","","5f721a81ee2a860fe028a8a4","bdp_wmem","Sat Apr 08 2023 08:53:03 GMT-0700 (Pacific Daylight Time)","693747","Match,No Match","html-keyboard-response","110","389223","0.0-7.0-5.14","","null","","<div class='trialBorder'><div class='vertical-center'><img src='img/correct.jpg'></div><div class='respDiv'><div class='respDivL'>Match<br>(e)</div><div class='respDivR'><font style='color:orange'>No Match<br>(i)</font></div></div></div>","null","FEEDBACK","","","","","","","","","","",""
"","","","","5f721a81ee2a860fe028a8a4","bdp_wmem","Sat Apr 08 2023 08:53:03 GMT-0700 (Pacific Daylight Time)","693747","Match,No Match","html-keyboard-response","111","389731","0.0-7.0-1.15","","null","","<div class='trialBorder'><div class='vertical-center'><img src='img/fixation2_sml.jpg'</img></div></div>","null","FIX","","","","","","","","","","",""
"","","","","5f721a81ee2a860fe028a8a4","bdp_wmem","Sat Apr 08 2023 08:53:03 GMT-0700 (Pacific Daylight Time)","693747","Match,No Match","html-keyboard-response","112","391247","0.0-7.0-2.15","","null","","<div class='trialBorder'><div class='vertical-center'><img style='vertical-align:center; align:center' src='img/fixation2_sml.jpg'></div><div class='arrayDiv1'><div class='tc'><img class='introPic' src='trustrating_stim/white_mw040.bmp'><br><font color='red'><strong>Keep</strong></font></div></div></div>","null","ARRAY","1","trustrating_stim/white_mw040.bmp","0","Match","e","1500","","","","",""
"","","","","5f721a81ee2a860fe028a8a4","bdp_wmem","Sat Apr 08 2023 08:53:03 GMT-0700 (Pacific Daylight Time)","693747","Match,No Match","html-keyboard-response","113","395254","0.0-7.0-3.15","","null","","<div class='trialBorder'><div class='vertical-center'><img src='img/fixation2_sml.jpg'</img></div></div>","null","DELAY","","","","","","","","","","",""
"","","","","5f721a81ee2a860fe028a8a4","bdp_wmem","Sat Apr 08 2023 08:53:03 GMT-0700 (Pacific Daylight Time)","693747","Match,No Match","html-keyboard-response","114","396291","0.0-7.0-4.15","","1037","","<div class='trialBorder'><div class='targDiv'><div class='tc'><img class='introPic' src='trustrating_stim/white_mw040.bmp'><br><font color='red'><strong>Keep</strong></font></div></div><div class='respDiv'><div class='respDivL'>Match<br>(e)</div><div class='respDivR'>No Match<br>(i)</div></div></div>","e","TARGET","1","trustrating_stim/white_mw040.bmp","0","Match","e","1500","trustrating_stim/white_mw040.bmp","red","Keep","REAL","1"
"","","","","5f721a81ee2a860fe028a8a4","bdp_wmem","Sat Apr 08 2023 08:53:03 GMT-0700 (Pacific Daylight Time)","693747","Match,No Match","html-keyboard-response","115","396799","0.0-7.0-5.15","","null","","<div class='trialBorder'><div class='vertical-center'><img src='img/correct.jpg'></div><div class='respDiv'><div class='respDivL'><font style='color:orange'>Match<br>(e)</font></div><div class='respDivR'>No Match<br>(i)</div></div></div>","null","FEEDBACK","","","","","","","","","","",""
"","","","","5f721a81ee2a860fe028a8a4","bdp_wmem","Sat Apr 08 2023 08:53:03 GMT-0700 (Pacific Daylight Time)","693747","Match,No Match","html-keyboard-response","116","397305","0.0-7.0-1.16","","null","","<div class='trialBorder'><div class='vertical-center'><img src='img/fixation2_sml.jpg'</img></div></div>","null","FIX","","","","","","","","","","",""
"","","","","5f721a81ee2a860fe028a8a4","bdp_wmem","Sat Apr 08 2023 08:53:03 GMT-0700 (Pacific Daylight Time)","693747","Match,No Match","html-keyboard-response","117","401810","0.0-7.0-2.16","","null","","<div class='trialBorder'><div class='vertical-center'><img style='vertical-align:center; align:center' src='img/fixation2_sml.jpg'></div><div class='arrayDiv3'><div class='tl'><img class='introPic' src='trustrating_stim/white_mw078.bmp'><br><font color='red'><strong>Keep</strong></font></div><div class='tc'><img class='introPic' src='trustrating_stim/white_mw070.bmp'><br><font color='red'><strong>Keep</strong></font></div><div class='tr'><img class='introPic' src='trustrating_stim/white_mw092.bmp'><br><font color='green'><strong>Share</strong></font></div></div></div>","null","ARRAY","3","trustrating_stim/white_mw078.bmp,trustrating_stim/white_mw070.bmp,trustrating_stim/white_mw092.bmp","0,0,1","Match","e","4500","","","","",""
"","","","","5f721a81ee2a860fe028a8a4","bdp_wmem","Sat Apr 08 2023 08:53:03 GMT-0700 (Pacific Daylight Time)","693747","Match,No Match","html-keyboard-response","118","405822","0.0-7.0-3.16","","null","","<div class='trialBorder'><div class='vertical-center'><img src='img/fixation2_sml.jpg'</img></div></div>","null","DELAY","","","","","","","","","","",""
"","","","","5f721a81ee2a860fe028a8a4","bdp_wmem","Sat Apr 08 2023 08:53:03 GMT-0700 (Pacific Daylight Time)","693747","Match,No Match","html-keyboard-response","119","407700","0.0-7.0-4.16","","1878","","<div class='trialBorder'><div class='targDiv'><div class='tc'><img class='introPic' src='trustrating_stim/white_mw078.bmp'><br><font color='red'><strong>Keep</strong></font></div></div><div class='respDiv'><div class='respDivL'>Match<br>(e)</div><div class='respDivR'>No Match<br>(i)</div></div></div>","e","TARGET","3","trustrating_stim/white_mw078.bmp,trustrating_stim/white_mw070.bmp,trustrating_stim/white_mw092.bmp","0,0,1","Match","e","4500","trustrating_stim/white_mw078.bmp","red","Keep","REAL","1"
"","","","","5f721a81ee2a860fe028a8a4","bdp_wmem","Sat Apr 08 2023 08:53:03 GMT-0700 (Pacific Daylight Time)","693747","Match,No Match","html-keyboard-response","120","408207","0.0-7.0-5.16","","null","","<div class='trialBorder'><div class='vertical-center'><img src='img/correct.jpg'></div><div class='respDiv'><div class='respDivL'><font style='color:orange'>Match<br>(e)</font></div><div class='respDivR'>No Match<br>(i)</div></div></div>","null","FEEDBACK","","","","","","","","","","",""
"","","","","5f721a81ee2a860fe028a8a4","bdp_wmem","Sat Apr 08 2023 08:53:03 GMT-0700 (Pacific Daylight Time)","693747","Match,No Match","html-keyboard-response","121","408715","0.0-7.0-1.17","","null","","<div class='trialBorder'><div class='vertical-center'><img src='img/fixation2_sml.jpg'</img></div></div>","null","FIX","","","","","","","","","","",""
"","","","","5f721a81ee2a860fe028a8a4","bdp_wmem","Sat Apr 08 2023 08:53:03 GMT-0700 (Pacific Daylight Time)","693747","Match,No Match","html-keyboard-response","122","413224","0.0-7.0-2.17","","null","","<div class='trialBorder'><div class='vertical-center'><img style='vertical-align:center; align:center' src='img/fixation2_sml.jpg'></div><div class='arrayDiv3'><div class='tl'><img class='introPic' src='trustrating_stim/white_mw010.bmp'><br><font color='red'><strong>Keep</strong></font></div><div class='tc'><img class='introPic' src='trustrating_stim/white_mw038.bmp'><br><font color='green'><strong>Share</strong></font></div><div class='tr'><img class='introPic' src='trustrating_stim/white_mw078.bmp'><br><font color='red'><strong>Keep</strong></font></div></div></div>","null","ARRAY","3","trustrating_stim/white_mw010.bmp,trustrating_stim/white_mw038.bmp,trustrating_stim/white_mw078.bmp","0,1,0","Match","e","4500","","","","",""
"","","","","5f721a81ee2a860fe028a8a4","bdp_wmem","Sat Apr 08 2023 08:53:03 GMT-0700 (Pacific Daylight Time)","693747","Match,No Match","html-keyboard-response","123","417227","0.0-7.0-3.17","","null","","<div class='trialBorder'><div class='vertical-center'><img src='img/fixation2_sml.jpg'</img></div></div>","null","DELAY","","","","","","","","","","",""
"","","","","5f721a81ee2a860fe028a8a4","bdp_wmem","Sat Apr 08 2023 08:53:03 GMT-0700 (Pacific Daylight Time)","693747","Match,No Match","html-keyboard-response","124","419172","0.0-7.0-4.17","","1945","","<div class='trialBorder'><div class='targDiv'><div class='tc'><img class='introPic' src='trustrating_stim/white_mw078.bmp'><br><font color='red'><strong>Keep</strong></font></div></div><div class='respDiv'><div class='respDivL'>Match<br>(e)</div><div class='respDivR'>No Match<br>(i)</div></div></div>","e","TARGET","3","trustrating_stim/white_mw010.bmp,trustrating_stim/white_mw038.bmp,trustrating_stim/white_mw078.bmp","0,1,0","Match","e","4500","trustrating_stim/white_mw078.bmp","red","Keep","REAL","1"
"","","","","5f721a81ee2a860fe028a8a4","bdp_wmem","Sat Apr 08 2023 08:53:03 GMT-0700 (Pacific Daylight Time)","693747","Match,No Match","html-keyboard-response","125","419674","0.0-7.0-5.17","","null","","<div class='trialBorder'><div class='vertical-center'><img src='img/correct.jpg'></div><div class='respDiv'><div class='respDivL'><font style='color:orange'>Match<br>(e)</font></div><div class='respDivR'>No Match<br>(i)</div></div></div>","null","FEEDBACK","","","","","","","","","","",""
"","","","","5f721a81ee2a860fe028a8a4","bdp_wmem","Sat Apr 08 2023 08:53:03 GMT-0700 (Pacific Daylight Time)","693747","Match,No Match","html-keyboard-response","126","420179","0.0-7.0-1.18","","null","","<div class='trialBorder'><div class='vertical-center'><img src='img/fixation2_sml.jpg'</img></div></div>","null","FIX","","","","","","","","","","",""
"","","","","5f721a81ee2a860fe028a8a4","bdp_wmem","Sat Apr 08 2023 08:53:03 GMT-0700 (Pacific Daylight Time)","693747","Match,No Match","html-keyboard-response","127","421689","0.0-7.0-2.18","","null","","<div class='trialBorder'><div class='vertical-center'><img style='vertical-align:center; align:center' src='img/fixation2_sml.jpg'></div><div class='arrayDiv1'><div class='tc'><img class='introPic' src='trustrating_stim/white_mw091.bmp'><br><font color='red'><strong>Keep</strong></font></div></div></div>","null","ARRAY","1","trustrating_stim/white_mw091.bmp","0","noMatchOutcome","i","1500","","","","",""
"","","","","5f721a81ee2a860fe028a8a4","bdp_wmem","Sat Apr 08 2023 08:53:03 GMT-0700 (Pacific Daylight Time)","693747","Match,No Match","html-keyboard-response","128","425702","0.0-7.0-3.18","","null","","<div class='trialBorder'><div class='vertical-center'><img src='img/fixation2_sml.jpg'</img></div></div>","null","DELAY","","","","","","","","","","",""
"","","","","5f721a81ee2a860fe028a8a4","bdp_wmem","Sat Apr 08 2023 08:53:03 GMT-0700 (Pacific Daylight Time)","693747","Match,No Match","html-keyboard-response","129","426371","0.0-7.0-4.18","","668","","<div class='trialBorder'><div class='targDiv'><div class='tc'><img class='introPic' src='trustrating_stim/white_mw091.bmp'><br><font color='green'><strong>Share</strong></font></div></div><div class='respDiv'><div class='respDivL'>Match<br>(e)</div><div class='respDivR'>No Match<br>(i)</div></div></div>","i","TARGET","1","trustrating_stim/white_mw091.bmp","0","noMatchOutcome","i","1500","trustrating_stim/white_mw091.bmp","green","Share","REAL","1"
"","","","","5f721a81ee2a860fe028a8a4","bdp_wmem","Sat Apr 08 2023 08:53:03 GMT-0700 (Pacific Daylight Time)","693747","Match,No Match","html-keyboard-response","130","426875","0.0-7.0-5.18","","null","","<div class='trialBorder'><div class='vertical-center'><img src='img/correct.jpg'></div><div class='respDiv'><div class='respDivL'>Match<br>(e)</div><div class='respDivR'><font style='color:orange'>No Match<br>(i)</font></div></div></div>","null","FEEDBACK","","","","","","","","","","",""
"","","","","5f721a81ee2a860fe028a8a4","bdp_wmem","Sat Apr 08 2023 08:53:03 GMT-0700 (Pacific Daylight Time)","693747","Match,No Match","html-keyboard-response","131","427380","0.0-7.0-1.19","","null","","<div class='trialBorder'><div class='vertical-center'><img src='img/fixation2_sml.jpg'</img></div></div>","null","FIX","","","","","","","","","","",""
"","","","","5f721a81ee2a860fe028a8a4","bdp_wmem","Sat Apr 08 2023 08:53:03 GMT-0700 (Pacific Daylight Time)","693747","Match,No Match","html-keyboard-response","132","430389","0.0-7.0-2.19","","null","","<div class='trialBorder'><div class='vertical-center'><img style='vertical-align:center; align:center' src='img/fixation2_sml.jpg'></div><div class='arrayDiv2'><div class='tl'><img class='introPic' src='trustrating_stim/white_mw085.bmp'><br><font color='red'><strong>Keep</strong></font></div><div class='tr'><img class='introPic' src='trustrating_stim/white_mw013.bmp'><br><font color='green'><strong>Share</strong></font></div></div></div>","null","ARRAY","2","trustrating_stim/white_mw085.bmp,trustrating_stim/white_mw013.bmp","0,1","noMatchOutcome","i","3000","","","","",""
"","","","","5f721a81ee2a860fe028a8a4","bdp_wmem","Sat Apr 08 2023 08:53:03 GMT-0700 (Pacific Daylight Time)","693747","Match,No Match","html-keyboard-response","133","434397","0.0-7.0-3.19","","null","","<div class='trialBorder'><div class='vertical-center'><img src='img/fixation2_sml.jpg'</img></div></div>","null","DELAY","","","","","","","","","","",""
"","","","","5f721a81ee2a860fe028a8a4","bdp_wmem","Sat Apr 08 2023 08:53:03 GMT-0700 (Pacific Daylight Time)","693747","Match,No Match","html-keyboard-response","134","435059","0.0-7.0-4.19","","662","","<div class='trialBorder'><div class='targDiv'><div class='tc'><img class='introPic' src='trustrating_stim/white_mw013.bmp'><br><font color='red'><strong>Keep</strong></font></div></div><div class='respDiv'><div class='respDivL'>Match<br>(e)</div><div class='respDivR'>No Match<br>(i)</div></div></div>","i","TARGET","2","trustrating_stim/white_mw085.bmp,trustrating_stim/white_mw013.bmp","0,1","noMatchOutcome","i","3000","trustrating_stim/white_mw013.bmp","red","Keep","REAL","1"
"","","","","5f721a81ee2a860fe028a8a4","bdp_wmem","Sat Apr 08 2023 08:53:03 GMT-0700 (Pacific Daylight Time)","693747","Match,No Match","html-keyboard-response","135","435562","0.0-7.0-5.19","","null","","<div class='trialBorder'><div class='vertical-center'><img src='img/correct.jpg'></div><div class='respDiv'><div class='respDivL'>Match<br>(e)</div><div class='respDivR'><font style='color:orange'>No Match<br>(i)</font></div></div></div>","null","FEEDBACK","","","","","","","","","","",""
"","","","","5f721a81ee2a860fe028a8a4","bdp_wmem","Sat Apr 08 2023 08:53:03 GMT-0700 (Pacific Daylight Time)","693747","Match,No Match","html-keyboard-response","136","436070","0.0-7.0-1.20","","null","","<div class='trialBorder'><div class='vertical-center'><img src='img/fixation2_sml.jpg'</img></div></div>","null","FIX","","","","","","","","","","",""
"","","","","5f721a81ee2a860fe028a8a4","bdp_wmem","Sat Apr 08 2023 08:53:03 GMT-0700 (Pacific Daylight Time)","693747","Match,No Match","html-keyboard-response","137","437574","0.0-7.0-2.20","","null","","<div class='trialBorder'><div class='vertical-center'><img style='vertical-align:center; align:center' src='img/fixation2_sml.jpg'></div><div class='arrayDiv1'><div class='tc'><img class='introPic' src='trustrating_stim/white_mw085.bmp'><br><font color='red'><strong>Keep</strong></font></div></div></div>","null","ARRAY","1","trustrating_stim/white_mw085.bmp","0","noMatchOutcome","i","1500","","","","",""
"","","","","5f721a81ee2a860fe028a8a4","bdp_wmem","Sat Apr 08 2023 08:53:03 GMT-0700 (Pacific Daylight Time)","693747","Match,No Match","html-keyboard-response","138","441585","0.0-7.0-3.20","","null","","<div class='trialBorder'><div class='vertical-center'><img src='img/fixation2_sml.jpg'</img></div></div>","null","DELAY","","","","","","","","","","",""
"","","","","5f721a81ee2a860fe028a8a4","bdp_wmem","Sat Apr 08 2023 08:53:03 GMT-0700 (Pacific Daylight Time)","693747","Match,No Match","html-keyboard-response","139","442323","0.0-7.0-4.20","","738","","<div class='trialBorder'><div class='targDiv'><div class='tc'><img class='introPic' src='trustrating_stim/white_mw085.bmp'><br><font color='green'><strong>Share</strong></font></div></div><div class='respDiv'><div class='respDivL'>Match<br>(e)</div><div class='respDivR'>No Match<br>(i)</div></div></div>","i","TARGET","1","trustrating_stim/white_mw085.bmp","0","noMatchOutcome","i","1500","trustrating_stim/white_mw085.bmp","green","Share","REAL","1"
"","","","","5f721a81ee2a860fe028a8a4","bdp_wmem","Sat Apr 08 2023 08:53:03 GMT-0700 (Pacific Daylight Time)","693747","Match,No Match","html-keyboard-response","140","442832","0.0-7.0-5.20","","null","","<div class='trialBorder'><div class='vertical-center'><img src='img/correct.jpg'></div><div class='respDiv'><div class='respDivL'>Match<br>(e)</div><div class='respDivR'><font style='color:orange'>No Match<br>(i)</font></div></div></div>","null","FEEDBACK","","","","","","","","","","",""
"","","","","5f721a81ee2a860fe028a8a4","bdp_wmem","Sat Apr 08 2023 08:53:03 GMT-0700 (Pacific Daylight Time)","693747","Match,No Match","html-keyboard-response","141","443340","0.0-7.0-1.21","","null","","<div class='trialBorder'><div class='vertical-center'><img src='img/fixation2_sml.jpg'</img></div></div>","null","FIX","","","","","","","","","","",""
"","","","","5f721a81ee2a860fe028a8a4","bdp_wmem","Sat Apr 08 2023 08:53:03 GMT-0700 (Pacific Daylight Time)","693747","Match,No Match","html-keyboard-response","142","446348","0.0-7.0-2.21","","null","","<div class='trialBorder'><div class='vertical-center'><img style='vertical-align:center; align:center' src='img/fixation2_sml.jpg'></div><div class='arrayDiv2'><div class='tl'><img class='introPic' src='trustrating_stim/white_mw042.bmp'><br><font color='red'><strong>Keep</strong></font></div><div class='tr'><img class='introPic' src='trustrating_stim/white_mw012.bmp'><br><font color='green'><strong>Share</strong></font></div></div></div>","null","ARRAY","2","trustrating_stim/white_mw042.bmp,trustrating_stim/white_mw012.bmp","0,1","Match","e","3000","","","","",""
"","","","","5f721a81ee2a860fe028a8a4","bdp_wmem","Sat Apr 08 2023 08:53:03 GMT-0700 (Pacific Daylight Time)","693747","Match,No Match","html-keyboard-response","143","450353","0.0-7.0-3.21","","null","","<div class='trialBorder'><div class='vertical-center'><img src='img/fixation2_sml.jpg'</img></div></div>","null","DELAY","","","","","","","","","","",""
"","","","","5f721a81ee2a860fe028a8a4","bdp_wmem","Sat Apr 08 2023 08:53:03 GMT-0700 (Pacific Daylight Time)","693747","Match,No Match","html-keyboard-response","144","451780","0.0-7.0-4.21","","1425","","<div class='trialBorder'><div class='targDiv'><div class='tc'><img class='introPic' src='trustrating_stim/white_mw042.bmp'><br><font color='red'><strong>Keep</strong></font></div></div><div class='respDiv'><div class='respDivL'>Match<br>(e)</div><div class='respDivR'>No Match<br>(i)</div></div></div>","e","TARGET","2","trustrating_stim/white_mw042.bmp,trustrating_stim/white_mw012.bmp","0,1","Match","e","3000","trustrating_stim/white_mw042.bmp","red","Keep","REAL","1"
"","","","","5f721a81ee2a860fe028a8a4","bdp_wmem","Sat Apr 08 2023 08:53:03 GMT-0700 (Pacific Daylight Time)","693747","Match,No Match","html-keyboard-response","145","452280","0.0-7.0-5.21","","null","","<div class='trialBorder'><div class='vertical-center'><img src='img/correct.jpg'></div><div class='respDiv'><div class='respDivL'><font style='color:orange'>Match<br>(e)</font></div><div class='respDivR'>No Match<br>(i)</div></div></div>","null","FEEDBACK","","","","","","","","","","",""
"","","","","5f721a81ee2a860fe028a8a4","bdp_wmem","Sat Apr 08 2023 08:53:03 GMT-0700 (Pacific Daylight Time)","693747","Match,No Match","html-keyboard-response","146","452785","0.0-7.0-1.22","","null","","<div class='trialBorder'><div class='vertical-center'><img src='img/fixation2_sml.jpg'</img></div></div>","null","FIX","","","","","","","","","","",""
"","","","","5f721a81ee2a860fe028a8a4","bdp_wmem","Sat Apr 08 2023 08:53:03 GMT-0700 (Pacific Daylight Time)","693747","Match,No Match","html-keyboard-response","147","455786","0.0-7.0-2.22","","null","","<div class='trialBorder'><div class='vertical-center'><img style='vertical-align:center; align:center' src='img/fixation2_sml.jpg'></div><div class='arrayDiv2'><div class='tl'><img class='introPic' src='trustrating_stim/white_mw091.bmp'><br><font color='red'><strong>Keep</strong></font></div><div class='tr'><img class='introPic' src='trustrating_stim/white_mw092.bmp'><br><font color='green'><strong>Share</strong></font></div></div></div>","null","ARRAY","2","trustrating_stim/white_mw091.bmp,trustrating_stim/white_mw092.bmp","0,1","Match","e","3000","","","","",""
"","","","","5f721a81ee2a860fe028a8a4","bdp_wmem","Sat Apr 08 2023 08:53:03 GMT-0700 (Pacific Daylight Time)","693747","Match,No Match","html-keyboard-response","148","459794","0.0-7.0-3.22","","null","","<div class='trialBorder'><div class='vertical-center'><img src='img/fixation2_sml.jpg'</img></div></div>","null","DELAY","","","","","","","","","","",""
"","","","","5f721a81ee2a860fe028a8a4","bdp_wmem","Sat Apr 08 2023 08:53:03 GMT-0700 (Pacific Daylight Time)","693747","Match,No Match","html-keyboard-response","149","460867","0.0-7.0-4.22","","1073","","<div class='trialBorder'><div class='targDiv'><div class='tc'><img class='introPic' src='trustrating_stim/white_mw091.bmp'><br><font color='red'><strong>Keep</strong></font></div></div><div class='respDiv'><div class='respDivL'>Match<br>(e)</div><div class='respDivR'>No Match<br>(i)</div></div></div>","e","TARGET","2","trustrating_stim/white_mw091.bmp,trustrating_stim/white_mw092.bmp","0,1","Match","e","3000","trustrating_stim/white_mw091.bmp","red","Keep","REAL","1"
"","","","","5f721a81ee2a860fe028a8a4","bdp_wmem","Sat Apr 08 2023 08:53:03 GMT-0700 (Pacific Daylight Time)","693747","Match,No Match","html-keyboard-response","150","461376","0.0-7.0-5.22","","null","","<div class='trialBorder'><div class='vertical-center'><img src='img/correct.jpg'></div><div class='respDiv'><div class='respDivL'><font style='color:orange'>Match<br>(e)</font></div><div class='respDivR'>No Match<br>(i)</div></div></div>","null","FEEDBACK","","","","","","","","","","",""
"","","","","5f721a81ee2a860fe028a8a4","bdp_wmem","Sat Apr 08 2023 08:53:03 GMT-0700 (Pacific Daylight Time)","693747","Match,No Match","html-keyboard-response","151","461884","0.0-7.0-1.23","","null","","<div class='trialBorder'><div class='vertical-center'><img src='img/fixation2_sml.jpg'</img></div></div>","null","FIX","","","","","","","","","","",""
"","","","","5f721a81ee2a860fe028a8a4","bdp_wmem","Sat Apr 08 2023 08:53:03 GMT-0700 (Pacific Daylight Time)","693747","Match,No Match","html-keyboard-response","152","464887","0.0-7.0-2.23","","null","","<div class='trialBorder'><div class='vertical-center'><img style='vertical-align:center; align:center' src='img/fixation2_sml.jpg'></div><div class='arrayDiv2'><div class='tl'><img class='introPic' src='trustrating_stim/white_mw038.bmp'><br><font color='green'><strong>Share</strong></font></div><div class='tr'><img class='introPic' src='trustrating_stim/white_mw013.bmp'><br><font color='red'><strong>Keep</strong></font></div></div></div>","null","ARRAY","2","trustrating_stim/white_mw038.bmp,trustrating_stim/white_mw013.bmp","1,0","noMatchFace","i","3000","","","","",""
"","","","","5f721a81ee2a860fe028a8a4","bdp_wmem","Sat Apr 08 2023 08:53:03 GMT-0700 (Pacific Daylight Time)","693747","Match,No Match","html-keyboard-response","153","468892","0.0-7.0-3.23","","null","","<div class='trialBorder'><div class='vertical-center'><img src='img/fixation2_sml.jpg'</img></div></div>","null","DELAY","","","","","","","","","","",""
"","","","","5f721a81ee2a860fe028a8a4","bdp_wmem","Sat Apr 08 2023 08:53:03 GMT-0700 (Pacific Daylight Time)","693747","Match,No Match","html-keyboard-response","154","469940","0.0-7.0-4.23","","1048","","<div class='trialBorder'><div class='targDiv'><div class='tc'><img class='introPic' src='trustrating_stim/white_mw042.bmp'><br><font color='red'><strong>Keep</strong></font></div></div><div class='respDiv'><div class='respDivL'>Match<br>(e)</div><div class='respDivR'>No Match<br>(i)</div></div></div>","i","TARGET","2","trustrating_stim/white_mw038.bmp,trustrating_stim/white_mw013.bmp","1,0","noMatchFace","i","3000","trustrating_stim/white_mw042.bmp","red","Keep","REAL","1"
"","","","","5f721a81ee2a860fe028a8a4","bdp_wmem","Sat Apr 08 2023 08:53:03 GMT-0700 (Pacific Daylight Time)","693747","Match,No Match","html-keyboard-response","155","470446","0.0-7.0-5.23","","null","","<div class='trialBorder'><div class='vertical-center'><img src='img/correct.jpg'></div><div class='respDiv'><div class='respDivL'>Match<br>(e)</div><div class='respDivR'><font style='color:orange'>No Match<br>(i)</font></div></div></div>","null","FEEDBACK","","","","","","","","","","",""
"","","","","5f721a81ee2a860fe028a8a4","bdp_wmem","Sat Apr 08 2023 08:53:03 GMT-0700 (Pacific Daylight Time)","693747","Match,No Match","html-keyboard-response","156","470947","0.0-7.0-1.24","","null","","<div class='trialBorder'><div class='vertical-center'><img src='img/fixation2_sml.jpg'</img></div></div>","null","FIX","","","","","","","","","","",""
"","","","","5f721a81ee2a860fe028a8a4","bdp_wmem","Sat Apr 08 2023 08:53:03 GMT-0700 (Pacific Daylight Time)","693747","Match,No Match","html-keyboard-response","157","475463","0.0-7.0-2.24","","null","","<div class='trialBorder'><div class='vertical-center'><img style='vertical-align:center; align:center' src='img/fixation2_sml.jpg'></div><div class='arrayDiv3'><div class='tl'><img class='introPic' src='trustrating_stim/white_mw070.bmp'><br><font color='red'><strong>Keep</strong></font></div><div class='tc'><img class='introPic' src='trustrating_stim/white_mw092.bmp'><br><font color='green'><strong>Share</strong></font></div><div class='tr'><img class='introPic' src='trustrating_stim/white_mw003.bmp'><br><font color='green'><strong>Share</strong></font></div></div></div>","null","ARRAY","3","trustrating_stim/white_mw070.bmp,trustrating_stim/white_mw092.bmp,trustrating_stim/white_mw003.bmp","0,1,1","noMatchOutcome","i","4500","","","","",""
"","","","","5f721a81ee2a860fe028a8a4","bdp_wmem","Sat Apr 08 2023 08:53:03 GMT-0700 (Pacific Daylight Time)","693747","Match,No Match","html-keyboard-response","158","479468","0.0-7.0-3.24","","null","","<div class='trialBorder'><div class='vertical-center'><img src='img/fixation2_sml.jpg'</img></div></div>","null","DELAY","","","","","","","","","","",""
"","","","","5f721a81ee2a860fe028a8a4","bdp_wmem","Sat Apr 08 2023 08:53:03 GMT-0700 (Pacific Daylight Time)","693747","Match,No Match","html-keyboard-response","159","480451","0.0-7.0-4.24","","982","","<div class='trialBorder'><div class='targDiv'><div class='tc'><img class='introPic' src='trustrating_stim/white_mw070.bmp'><br><font color='green'><strong>Share</strong></font></div></div><div class='respDiv'><div class='respDivL'>Match<br>(e)</div><div class='respDivR'>No Match<br>(i)</div></div></div>","i","TARGET","3","trustrating_stim/white_mw070.bmp,trustrating_stim/white_mw092.bmp,trustrating_stim/white_mw003.bmp","0,1,1","noMatchOutcome","i","4500","trustrating_stim/white_mw070.bmp","green","Share","REAL","1"
"","","","","5f721a81ee2a860fe028a8a4","bdp_wmem","Sat Apr 08 2023 08:53:03 GMT-0700 (Pacific Daylight Time)","693747","Match,No Match","html-keyboard-response","160","480952","0.0-7.0-5.24","","null","","<div class='trialBorder'><div class='vertical-center'><img src='img/correct.jpg'></div><div class='respDiv'><div class='respDivL'>Match<br>(e)</div><div class='respDivR'><font style='color:orange'>No Match<br>(i)</font></div></div></div>","null","FEEDBACK","","","","","","","","","","",""
"","","","","5f721a81ee2a860fe028a8a4","bdp_wmem","Sat Apr 08 2023 08:53:03 GMT-0700 (Pacific Daylight Time)","693747","Match,No Match","html-keyboard-response","161","481455","0.0-7.0-1.25","","null","","<div class='trialBorder'><div class='vertical-center'><img src='img/fixation2_sml.jpg'</img></div></div>","null","FIX","","","","","","","","","","",""
"","","","","5f721a81ee2a860fe028a8a4","bdp_wmem","Sat Apr 08 2023 08:53:03 GMT-0700 (Pacific Daylight Time)","693747","Match,No Match","html-keyboard-response","162","484465","0.0-7.0-2.25","","null","","<div class='trialBorder'><div class='vertical-center'><img style='vertical-align:center; align:center' src='img/fixation2_sml.jpg'></div><div class='arrayDiv2'><div class='tl'><img class='introPic' src='trustrating_stim/white_mw078.bmp'><br><font color='red'><strong>Keep</strong></font></div><div class='tr'><img class='introPic' src='trustrating_stim/white_mw038.bmp'><br><font color='green'><strong>Share</strong></font></div></div></div>","null","ARRAY","2","trustrating_stim/white_mw078.bmp,trustrating_stim/white_mw038.bmp","0,1","Match","e","3000","","","","",""
"","","","","5f721a81ee2a860fe028a8a4","bdp_wmem","Sat Apr 08 2023 08:53:03 GMT-0700 (Pacific Daylight Time)","693747","Match,No Match","html-keyboard-response","163","488474","0.0-7.0-3.25","","null","","<div class='trialBorder'><div class='vertical-center'><img src='img/fixation2_sml.jpg'</img></div></div>","null","DELAY","","","","","","","","","","",""
"","","","","5f721a81ee2a860fe028a8a4","bdp_wmem","Sat Apr 08 2023 08:53:03 GMT-0700 (Pacific Daylight Time)","693747","Match,No Match","html-keyboard-response","164","489956","0.0-7.0-4.25","","1480","","<div class='trialBorder'><div class='targDiv'><div class='tc'><img class='introPic' src='trustrating_stim/white_mw078.bmp'><br><font color='red'><strong>Keep</strong></font></div></div><div class='respDiv'><div class='respDivL'>Match<br>(e)</div><div class='respDivR'>No Match<br>(i)</div></div></div>","e","TARGET","2","trustrating_stim/white_mw078.bmp,trustrating_stim/white_mw038.bmp","0,1","Match","e","3000","trustrating_stim/white_mw078.bmp","red","Keep","REAL","1"
"","","","","5f721a81ee2a860fe028a8a4","bdp_wmem","Sat Apr 08 2023 08:53:03 GMT-0700 (Pacific Daylight Time)","693747","Match,No Match","html-keyboard-response","165","490458","0.0-7.0-5.25","","null","","<div class='trialBorder'><div class='vertical-center'><img src='img/correct.jpg'></div><div class='respDiv'><div class='respDivL'><font style='color:orange'>Match<br>(e)</font></div><div class='respDivR'>No Match<br>(i)</div></div></div>","null","FEEDBACK","","","","","","","","","","",""
"","","","","5f721a81ee2a860fe028a8a4","bdp_wmem","Sat Apr 08 2023 08:53:03 GMT-0700 (Pacific Daylight Time)","693747","Match,No Match","html-keyboard-response","166","490974","0.0-7.0-1.26","","null","","<div class='trialBorder'><div class='vertical-center'><img src='img/fixation2_sml.jpg'</img></div></div>","null","FIX","","","","","","","","","","",""
"","","","","5f721a81ee2a860fe028a8a4","bdp_wmem","Sat Apr 08 2023 08:53:03 GMT-0700 (Pacific Daylight Time)","693747","Match,No Match","html-keyboard-response","167","495484","0.0-7.0-2.26","","null","","<div class='trialBorder'><div class='vertical-center'><img style='vertical-align:center; align:center' src='img/fixation2_sml.jpg'></div><div class='arrayDiv3'><div class='tl'><img class='introPic' src='trustrating_stim/white_mw010.bmp'><br><font color='green'><strong>Share</strong></font></div><div class='tc'><img class='introPic' src='trustrating_stim/white_mw091.bmp'><br><font color='green'><strong>Share</strong></font></div><div class='tr'><img class='introPic' src='trustrating_stim/white_mw003.bmp'><br><font color='red'><strong>Keep</strong></font></div></div></div>","null","ARRAY","3","trustrating_stim/white_mw010.bmp,trustrating_stim/white_mw091.bmp,trustrating_stim/white_mw003.bmp","1,1,0","Match","e","4500","","","","",""
"","","","","5f721a81ee2a860fe028a8a4","bdp_wmem","Sat Apr 08 2023 08:53:03 GMT-0700 (Pacific Daylight Time)","693747","Match,No Match","html-keyboard-response","168","499490","0.0-7.0-3.26","","null","","<div class='trialBorder'><div class='vertical-center'><img src='img/fixation2_sml.jpg'</img></div></div>","null","DELAY","","","","","","","","","","",""
"","","","","5f721a81ee2a860fe028a8a4","bdp_wmem","Sat Apr 08 2023 08:53:03 GMT-0700 (Pacific Daylight Time)","693747","Match,No Match","html-keyboard-response","169","500611","0.0-7.0-4.26","","1121","","<div class='trialBorder'><div class='targDiv'><div class='tc'><img class='introPic' src='trustrating_stim/white_mw091.bmp'><br><font color='green'><strong>Share</strong></font></div></div><div class='respDiv'><div class='respDivL'>Match<br>(e)</div><div class='respDivR'>No Match<br>(i)</div></div></div>","e","TARGET","3","trustrating_stim/white_mw010.bmp,trustrating_stim/white_mw091.bmp,trustrating_stim/white_mw003.bmp","1,1,0","Match","e","4500","trustrating_stim/white_mw091.bmp","green","Share","REAL","1"
"","","","","5f721a81ee2a860fe028a8a4","bdp_wmem","Sat Apr 08 2023 08:53:03 GMT-0700 (Pacific Daylight Time)","693747","Match,No Match","html-keyboard-response","170","501121","0.0-7.0-5.26","","null","","<div class='trialBorder'><div class='vertical-center'><img src='img/correct.jpg'></div><div class='respDiv'><div class='respDivL'><font style='color:orange'>Match<br>(e)</font></div><div class='respDivR'>No Match<br>(i)</div></div></div>","null","FEEDBACK","","","","","","","","","","",""
"","","","","5f721a81ee2a860fe028a8a4","bdp_wmem","Sat Apr 08 2023 08:53:03 GMT-0700 (Pacific Daylight Time)","693747","Match,No Match","html-keyboard-response","171","501625","0.0-7.0-1.27","","null","","<div class='trialBorder'><div class='vertical-center'><img src='img/fixation2_sml.jpg'</img></div></div>","null","FIX","","","","","","","","","","",""
"","","","","5f721a81ee2a860fe028a8a4","bdp_wmem","Sat Apr 08 2023 08:53:03 GMT-0700 (Pacific Daylight Time)","693747","Match,No Match","html-keyboard-response","172","503138","0.0-7.0-2.27","","null","","<div class='trialBorder'><div class='vertical-center'><img style='vertical-align:center; align:center' src='img/fixation2_sml.jpg'></div><div class='arrayDiv1'><div class='tc'><img class='introPic' src='trustrating_stim/white_mw085.bmp'><br><font color='red'><strong>Keep</strong></font></div></div></div>","null","ARRAY","1","trustrating_stim/white_mw085.bmp","0","Match","e","1500","","","","",""
"","","","","5f721a81ee2a860fe028a8a4","bdp_wmem","Sat Apr 08 2023 08:53:03 GMT-0700 (Pacific Daylight Time)","693747","Match,No Match","html-keyboard-response","173","507141","0.0-7.0-3.27","","null","","<div class='trialBorder'><div class='vertical-center'><img src='img/fixation2_sml.jpg'</img></div></div>","null","DELAY","","","","","","","","","","",""
"","","","","5f721a81ee2a860fe028a8a4","bdp_wmem","Sat Apr 08 2023 08:53:03 GMT-0700 (Pacific Daylight Time)","693747","Match,No Match","html-keyboard-response","174","507811","0.0-7.0-4.27","","670","","<div class='trialBorder'><div class='targDiv'><div class='tc'><img class='introPic' src='trustrating_stim/white_mw085.bmp'><br><font color='red'><strong>Keep</strong></font></div></div><div class='respDiv'><div class='respDivL'>Match<br>(e)</div><div class='respDivR'>No Match<br>(i)</div></div></div>","e","TARGET","1","trustrating_stim/white_mw085.bmp","0","Match","e","1500","trustrating_stim/white_mw085.bmp","red","Keep","REAL","1"
"","","","","5f721a81ee2a860fe028a8a4","bdp_wmem","Sat Apr 08 2023 08:53:03 GMT-0700 (Pacific Daylight Time)","693747","Match,No Match","html-keyboard-response","175","508314","0.0-7.0-5.27","","null","","<div class='trialBorder'><div class='vertical-center'><img src='img/correct.jpg'></div><div class='respDiv'><div class='respDivL'><font style='color:orange'>Match<br>(e)</font></div><div class='respDivR'>No Match<br>(i)</div></div></div>","null","FEEDBACK","","","","","","","","","","",""
"","","","","5f721a81ee2a860fe028a8a4","bdp_wmem","Sat Apr 08 2023 08:53:03 GMT-0700 (Pacific Daylight Time)","693747","Match,No Match","html-keyboard-response","176","508820","0.0-7.0-1.28","","null","","<div class='trialBorder'><div class='vertical-center'><img src='img/fixation2_sml.jpg'</img></div></div>","null","FIX","","","","","","","","","","",""
"","","","","5f721a81ee2a860fe028a8a4","bdp_wmem","Sat Apr 08 2023 08:53:03 GMT-0700 (Pacific Daylight Time)","693747","Match,No Match","html-keyboard-response","177","513335","0.0-7.0-2.28","","null","","<div class='trialBorder'><div class='vertical-center'><img style='vertical-align:center; align:center' src='img/fixation2_sml.jpg'></div><div class='arrayDiv3'><div class='tl'><img class='introPic' src='trustrating_stim/white_mw078.bmp'><br><font color='red'><strong>Keep</strong></font></div><div class='tc'><img class='introPic' src='trustrating_stim/white_mw070.bmp'><br><font color='green'><strong>Share</strong></font></div><div class='tr'><img class='introPic' src='trustrating_stim/white_mw085.bmp'><br><font color='red'><strong>Keep</strong></font></div></div></div>","null","ARRAY","3","trustrating_stim/white_mw078.bmp,trustrating_stim/white_mw070.bmp,trustrating_stim/white_mw085.bmp","0,1,0","Match","e","4500","","","","",""
"","","","","5f721a81ee2a860fe028a8a4","bdp_wmem","Sat Apr 08 2023 08:53:03 GMT-0700 (Pacific Daylight Time)","693747","Match,No Match","html-keyboard-response","178","517349","0.0-7.0-3.28","","null","","<div class='trialBorder'><div class='vertical-center'><img src='img/fixation2_sml.jpg'</img></div></div>","null","DELAY","","","","","","","","","","",""
"","","","","5f721a81ee2a860fe028a8a4","bdp_wmem","Sat Apr 08 2023 08:53:03 GMT-0700 (Pacific Daylight Time)","693747","Match,No Match","html-keyboard-response","179","519027","0.0-7.0-4.28","","1678","","<div class='trialBorder'><div class='targDiv'><div class='tc'><img class='introPic' src='trustrating_stim/white_mw085.bmp'><br><font color='red'><strong>Keep</strong></font></div></div><div class='respDiv'><div class='respDivL'>Match<br>(e)</div><div class='respDivR'>No Match<br>(i)</div></div></div>","e","TARGET","3","trustrating_stim/white_mw078.bmp,trustrating_stim/white_mw070.bmp,trustrating_stim/white_mw085.bmp","0,1,0","Match","e","4500","trustrating_stim/white_mw085.bmp","red","Keep","REAL","1"
"","","","","5f721a81ee2a860fe028a8a4","bdp_wmem","Sat Apr 08 2023 08:53:03 GMT-0700 (Pacific Daylight Time)","693747","Match,No Match","html-keyboard-response","180","519539","0.0-7.0-5.28","","null","","<div class='trialBorder'><div class='vertical-center'><img src='img/correct.jpg'></div><div class='respDiv'><div class='respDivL'><font style='color:orange'>Match<br>(e)</font></div><div class='respDivR'>No Match<br>(i)</div></div></div>","null","FEEDBACK","","","","","","","","","","",""
"","","","","5f721a81ee2a860fe028a8a4","bdp_wmem","Sat Apr 08 2023 08:53:03 GMT-0700 (Pacific Daylight Time)","693747","Match,No Match","html-keyboard-response","181","520046","0.0-7.0-1.29","","null","","<div class='trialBorder'><div class='vertical-center'><img src='img/fixation2_sml.jpg'</img></div></div>","null","FIX","","","","","","","","","","",""
"","","","","5f721a81ee2a860fe028a8a4","bdp_wmem","Sat Apr 08 2023 08:53:03 GMT-0700 (Pacific Daylight Time)","693747","Match,No Match","html-keyboard-response","182","523055","0.0-7.0-2.29","","null","","<div class='trialBorder'><div class='vertical-center'><img style='vertical-align:center; align:center' src='img/fixation2_sml.jpg'></div><div class='arrayDiv2'><div class='tl'><img class='introPic' src='trustrating_stim/white_mw085.bmp'><br><font color='green'><strong>Share</strong></font></div><div class='tr'><img class='introPic' src='trustrating_stim/white_mw012.bmp'><br><font color='red'><strong>Keep</strong></font></div></div></div>","null","ARRAY","2","trustrating_stim/white_mw085.bmp,trustrating_stim/white_mw012.bmp","1,0","noMatchOutcome","i","3000","","","","",""
"","","","","5f721a81ee2a860fe028a8a4","bdp_wmem","Sat Apr 08 2023 08:53:03 GMT-0700 (Pacific Daylight Time)","693747","Match,No Match","html-keyboard-response","183","527058","0.0-7.0-3.29","","null","","<div class='trialBorder'><div class='vertical-center'><img src='img/fixation2_sml.jpg'</img></div></div>","null","DELAY","","","","","","","","","","",""
"","","","","5f721a81ee2a860fe028a8a4","bdp_wmem","Sat Apr 08 2023 08:53:03 GMT-0700 (Pacific Daylight Time)","693747","Match,No Match","html-keyboard-response","184","528147","0.0-7.0-4.29","","1088","","<div class='trialBorder'><div class='targDiv'><div class='tc'><img class='introPic' src='trustrating_stim/white_mw085.bmp'><br><font color='red'><strong>Keep</strong></font></div></div><div class='respDiv'><div class='respDivL'>Match<br>(e)</div><div class='respDivR'>No Match<br>(i)</div></div></div>","i","TARGET","2","trustrating_stim/white_mw085.bmp,trustrating_stim/white_mw012.bmp","1,0","noMatchOutcome","i","3000","trustrating_stim/white_mw085.bmp","red","Keep","REAL","1"
"","","","","5f721a81ee2a860fe028a8a4","bdp_wmem","Sat Apr 08 2023 08:53:03 GMT-0700 (Pacific Daylight Time)","693747","Match,No Match","html-keyboard-response","185","528663","0.0-7.0-5.29","","null","","<div class='trialBorder'><div class='vertical-center'><img src='img/correct.jpg'></div><div class='respDiv'><div class='respDivL'>Match<br>(e)</div><div class='respDivR'><font style='color:orange'>No Match<br>(i)</font></div></div></div>","null","FEEDBACK","","","","","","","","","","",""
"","","","","5f721a81ee2a860fe028a8a4","bdp_wmem","Sat Apr 08 2023 08:53:03 GMT-0700 (Pacific Daylight Time)","693747","Match,No Match","html-keyboard-response","186","529169","0.0-7.0-1.30","","null","","<div class='trialBorder'><div class='vertical-center'><img src='img/fixation2_sml.jpg'</img></div></div>","null","FIX","","","","","","","","","","",""
"","","","","5f721a81ee2a860fe028a8a4","bdp_wmem","Sat Apr 08 2023 08:53:03 GMT-0700 (Pacific Daylight Time)","693747","Match,No Match","html-keyboard-response","187","532174","0.0-7.0-2.30","","null","","<div class='trialBorder'><div class='vertical-center'><img style='vertical-align:center; align:center' src='img/fixation2_sml.jpg'></div><div class='arrayDiv2'><div class='tl'><img class='introPic' src='trustrating_stim/white_mw040.bmp'><br><font color='red'><strong>Keep</strong></font></div><div class='tr'><img class='introPic' src='trustrating_stim/white_mw038.bmp'><br><font color='green'><strong>Share</strong></font></div></div></div>","null","ARRAY","2","trustrating_stim/white_mw040.bmp,trustrating_stim/white_mw038.bmp","0,1","Match","e","3000","","","","",""
