"trial_type","trial_index","time_elapsed","internal_node_id","subject_id","task","startTime","totalTime","labels","view_history","rt","event","trial","time","trialtype","numBlurs","success","stimulus","key_press","stimType","arraySize","arrayFaces","arrayOutcomes","matchType","corrResp","arrayDur","targFace","targCol","targOutcome","trialType","corr"
"pavlovia","0","5","0.0-0.0","5d63f9cd26a2ac001758c70d","bdp_wmem","Thu Jul 28 2022 00:16:53 GMT-0400 (Eastern Daylight Time)","991808","Match,No Match","","","","","","","","","","","","","","","","","","","","","",""
"instructions","1","3754","0.0-1.0","5d63f9cd26a2ac001758c70d","bdp_wmem","Thu Jul 28 2022 00:16:53 GMT-0400 (Eastern Daylight Time)","991808","Match,No Match","[{""page_index"":0,""viewing_time"":3748}]","3748","","","","","","","","","","","","","","","","","","","",""
"","","","","5d63f9cd26a2ac001758c70d","bdp_wmem","Thu Jul 28 2022 00:16:53 GMT-0400 (Eastern Daylight Time)","991808","Match,No Match","","","blur","2","17878","blurevent","1","","","","","","","","","","","","","","",""
"","","","","5d63f9cd26a2ac001758c70d","bdp_wmem","Thu Jul 28 2022 00:16:53 GMT-0400 (Eastern Daylight Time)","991808","Match,No Match","","","focus","2","60762","focusevent","","","","","","","","","","","","","","","",""
"","","","","5d63f9cd26a2ac001758c70d","bdp_wmem","Thu Jul 28 2022 00:16:53 GMT-0400 (Eastern Daylight Time)","991808","Match,No Match","","","blur","2","64474","blurevent","","","","","","","","","","","","","","","",""
"","","","","5d63f9cd26a2ac001758c70d","bdp_wmem","Thu Jul 28 2022 00:16:53 GMT-0400 (Eastern Daylight Time)","991808","Match,No Match","","","focus","2","112026","focusevent","","","","","","","","","","","","","","","",""
"","","","","5d63f9cd26a2ac001758c70d","bdp_wmem","Thu Jul 28 2022 00:16:53 GMT-0400 (Eastern Daylight Time)","991808","Match,No Match","","","fullscreenenter","2","113927","fullscreenenter","","","","","","","","","","","","","","","",""
"fullscreen","2","114910","0.0-2.0","5d63f9cd26a2ac001758c70d","bdp_wmem","Thu Jul 28 2022 00:16:53 GMT-0400 (Eastern Daylight Time)","991808","Match,No Match","","","","","","","","true","","","","","","","","","","","","","",""
"instructions","3","142880","0.0-4.0","5d63f9cd26a2ac001758c70d","bdp_wmem","Thu Jul 28 2022 00:16:53 GMT-0400 (Eastern Daylight Time)","991808","Match,No Match","[{""page_index"":0,""viewing_time"":8133},{""page_index"":1,""viewing_time"":13008},{""page_index"":2,""viewing_time"":5232},{""page_index"":3,""viewing_time"":992},{""page_index"":4,""viewing_time"":600}]","27965","","","","","","","","","","","","","","","","","","","",""
"html-keyboard-response","4","143384","0.0-5.0-1.0","5d63f9cd26a2ac001758c70d","bdp_wmem","Thu Jul 28 2022 00:16:53 GMT-0400 (Eastern Daylight Time)","991808","Match,No Match","","null","","","","","","","<div class='trialBorder'><div class='vertical-center'><img src='img/fixation2_sml.jpg'</img></div></div>","null","FIX","","","","","","","","","","",""
"html-keyboard-response","5","144887","0.0-5.0-2.0","5d63f9cd26a2ac001758c70d","bdp_wmem","Thu Jul 28 2022 00:16:53 GMT-0400 (Eastern Daylight Time)","991808","Match,No Match","","null","","","","","","","<div class='trialBorder'><div class='vertical-center'><img style='vertical-align:center; align:center' src='img/fixation2_sml.jpg'></div><div class='arrayDiv1'><div class='tc'><img class='introPic' src='trustrating_stim/white_mw010.bmp'><br><font color='red'><strong>Keep</strong></font></div></div></div>","null","ARRAY","1","trustrating_stim/white_mw010.bmp","0","noMatchFace","i","1500","","","","",""
"html-keyboard-response","6","148888","0.0-5.0-3.0","5d63f9cd26a2ac001758c70d","bdp_wmem","Thu Jul 28 2022 00:16:53 GMT-0400 (Eastern Daylight Time)","991808","Match,No Match","","null","","","","","","","<div class='trialBorder'><div class='vertical-center'><img src='img/fixation2_sml.jpg'</img></div></div>","null","DELAY","","","","","","","","","","",""
"html-keyboard-response","7","148936","0.0-5.0-4.0","5d63f9cd26a2ac001758c70d","bdp_wmem","Thu Jul 28 2022 00:16:53 GMT-0400 (Eastern Daylight Time)","991808","Match,No Match","","46","","","","","","","<div class='trialBorder'><div class='targDiv'><div class='tc'><img class='introPic' src='trustrating_stim/white_mw085.bmp'><br><font color='red'><strong>Keep</strong></font></div></div><div class='respDiv'><div class='respDivL'>Match<br>(e)</div><div class='respDivR'>No Match<br>(i)</div></div></div>","i","TARGET","1","trustrating_stim/white_mw010.bmp","0","noMatchFace","i","1500","trustrating_stim/white_mw085.bmp","red","Keep","PRACTICE","1"
"html-keyboard-response","8","149439","0.0-5.0-5.0","5d63f9cd26a2ac001758c70d","bdp_wmem","Thu Jul 28 2022 00:16:53 GMT-0400 (Eastern Daylight Time)","991808","Match,No Match","","null","","","","","","","<div class='trialBorder'><div class='vertical-center'><img src='img/correct.jpg'></div><div class='respDiv'><div class='respDivL'>Match<br>(e)</div><div class='respDivR'><font style='color:orange'>No Match<br>(i)</font></div></div></div>","null","FEEDBACK","","","","","","","","","","",""
"html-keyboard-response","9","149941","0.0-5.0-1.1","5d63f9cd26a2ac001758c70d","bdp_wmem","Thu Jul 28 2022 00:16:53 GMT-0400 (Eastern Daylight Time)","991808","Match,No Match","","null","","","","","","","<div class='trialBorder'><div class='vertical-center'><img src='img/fixation2_sml.jpg'</img></div></div>","null","FIX","","","","","","","","","","",""
"html-keyboard-response","10","152943","0.0-5.0-2.1","5d63f9cd26a2ac001758c70d","bdp_wmem","Thu Jul 28 2022 00:16:53 GMT-0400 (Eastern Daylight Time)","991808","Match,No Match","","null","","","","","","","<div class='trialBorder'><div class='vertical-center'><img style='vertical-align:center; align:center' src='img/fixation2_sml.jpg'></div><div class='arrayDiv2'><div class='tl'><img class='introPic' src='trustrating_stim/white_mw010.bmp'><br><font color='red'><strong>Keep</strong></font></div><div class='tr'><img class='introPic' src='trustrating_stim/white_mw091.bmp'><br><font color='green'><strong>Share</strong></font></div></div></div>","null","ARRAY","2","trustrating_stim/white_mw010.bmp,trustrating_stim/white_mw091.bmp","0,1","Match","e","3000","","","","",""
"html-keyboard-response","11","156945","0.0-5.0-3.1","5d63f9cd26a2ac001758c70d","bdp_wmem","Thu Jul 28 2022 00:16:53 GMT-0400 (Eastern Daylight Time)","991808","Match,No Match","","null","","","","","","","<div class='trialBorder'><div class='vertical-center'><img src='img/fixation2_sml.jpg'</img></div></div>","null","DELAY","","","","","","","","","","",""
"html-keyboard-response","12","157248","0.0-5.0-4.1","5d63f9cd26a2ac001758c70d","bdp_wmem","Thu Jul 28 2022 00:16:53 GMT-0400 (Eastern Daylight Time)","991808","Match,No Match","","301","","","","","","","<div class='trialBorder'><div class='targDiv'><div class='tc'><img class='introPic' src='trustrating_stim/white_mw091.bmp'><br><font color='green'><strong>Share</strong></font></div></div><div class='respDiv'><div class='respDivL'>Match<br>(e)</div><div class='respDivR'>No Match<br>(i)</div></div></div>","e","TARGET","2","trustrating_stim/white_mw010.bmp,trustrating_stim/white_mw091.bmp","0,1","Match","e","3000","trustrating_stim/white_mw091.bmp","green","Share","PRACTICE","1"
"html-keyboard-response","13","157750","0.0-5.0-5.1","5d63f9cd26a2ac001758c70d","bdp_wmem","Thu Jul 28 2022 00:16:53 GMT-0400 (Eastern Daylight Time)","991808","Match,No Match","","null","","","","","","","<div class='trialBorder'><div class='vertical-center'><img src='img/correct.jpg'></div><div class='respDiv'><div class='respDivL'><font style='color:orange'>Match<br>(e)</font></div><div class='respDivR'>No Match<br>(i)</div></div></div>","null","FEEDBACK","","","","","","","","","","",""
"html-keyboard-response","14","158252","0.0-5.0-1.2","5d63f9cd26a2ac001758c70d","bdp_wmem","Thu Jul 28 2022 00:16:53 GMT-0400 (Eastern Daylight Time)","991808","Match,No Match","","null","","","","","","","<div class='trialBorder'><div class='vertical-center'><img src='img/fixation2_sml.jpg'</img></div></div>","null","FIX","","","","","","","","","","",""
"html-keyboard-response","15","162753","0.0-5.0-2.2","5d63f9cd26a2ac001758c70d","bdp_wmem","Thu Jul 28 2022 00:16:53 GMT-0400 (Eastern Daylight Time)","991808","Match,No Match","","null","","","","","","","<div class='trialBorder'><div class='vertical-center'><img style='vertical-align:center; align:center' src='img/fixation2_sml.jpg'></div><div class='arrayDiv3'><div class='tl'><img class='introPic' src='trustrating_stim/white_mw012.bmp'><br><font color='green'><strong>Share</strong></font></div><div class='tc'><img class='introPic' src='trustrating_stim/white_mw091.bmp'><br><font color='red'><strong>Keep</strong></font></div><div class='tr'><img class='introPic' src='trustrating_stim/white_mw013.bmp'><br><font color='green'><strong>Share</strong></font></div></div></div>","null","ARRAY","3","trustrating_stim/white_mw012.bmp,trustrating_stim/white_mw091.bmp,trustrating_stim/white_mw013.bmp","1,0,1","Match","e","4500","","","","",""
"html-keyboard-response","16","166756","0.0-5.0-3.2","5d63f9cd26a2ac001758c70d","bdp_wmem","Thu Jul 28 2022 00:16:53 GMT-0400 (Eastern Daylight Time)","991808","Match,No Match","","null","","","","","","","<div class='trialBorder'><div class='vertical-center'><img src='img/fixation2_sml.jpg'</img></div></div>","null","DELAY","","","","","","","","","","",""
"html-keyboard-response","17","166776","0.0-5.0-4.2","5d63f9cd26a2ac001758c70d","bdp_wmem","Thu Jul 28 2022 00:16:53 GMT-0400 (Eastern Daylight Time)","991808","Match,No Match","","19","","","","","","","<div class='trialBorder'><div class='targDiv'><div class='tc'><img class='introPic' src='trustrating_stim/white_mw012.bmp'><br><font color='green'><strong>Share</strong></font></div></div><div class='respDiv'><div class='respDivL'>Match<br>(e)</div><div class='respDivR'>No Match<br>(i)</div></div></div>","e","TARGET","3","trustrating_stim/white_mw012.bmp,trustrating_stim/white_mw091.bmp,trustrating_stim/white_mw013.bmp","1,0,1","Match","e","4500","trustrating_stim/white_mw012.bmp","green","Share","PRACTICE","1"
"html-keyboard-response","18","167277","0.0-5.0-5.2","5d63f9cd26a2ac001758c70d","bdp_wmem","Thu Jul 28 2022 00:16:53 GMT-0400 (Eastern Daylight Time)","991808","Match,No Match","","null","","","","","","","<div class='trialBorder'><div class='vertical-center'><img src='img/correct.jpg'></div><div class='respDiv'><div class='respDivL'><font style='color:orange'>Match<br>(e)</font></div><div class='respDivR'>No Match<br>(i)</div></div></div>","null","FEEDBACK","","","","","","","","","","",""
"html-keyboard-response","19","167778","0.0-5.0-1.3","5d63f9cd26a2ac001758c70d","bdp_wmem","Thu Jul 28 2022 00:16:53 GMT-0400 (Eastern Daylight Time)","991808","Match,No Match","","null","","","","","","","<div class='trialBorder'><div class='vertical-center'><img src='img/fixation2_sml.jpg'</img></div></div>","null","FIX","","","","","","","","","","",""
"html-keyboard-response","20","169281","0.0-5.0-2.3","5d63f9cd26a2ac001758c70d","bdp_wmem","Thu Jul 28 2022 00:16:53 GMT-0400 (Eastern Daylight Time)","991808","Match,No Match","","null","","","","","","","<div class='trialBorder'><div class='vertical-center'><img style='vertical-align:center; align:center' src='img/fixation2_sml.jpg'></div><div class='arrayDiv1'><div class='tc'><img class='introPic' src='trustrating_stim/white_mw013.bmp'><br><font color='red'><strong>Keep</strong></font></div></div></div>","null","ARRAY","1","trustrating_stim/white_mw013.bmp","0","Match","e","1500","","","","",""
"html-keyboard-response","21","173283","0.0-5.0-3.3","5d63f9cd26a2ac001758c70d","bdp_wmem","Thu Jul 28 2022 00:16:53 GMT-0400 (Eastern Daylight Time)","991808","Match,No Match","","null","","","","","","","<div class='trialBorder'><div class='vertical-center'><img src='img/fixation2_sml.jpg'</img></div></div>","null","DELAY","","","","","","","","","","",""
"html-keyboard-response","22","173376","0.0-5.0-4.3","5d63f9cd26a2ac001758c70d","bdp_wmem","Thu Jul 28 2022 00:16:53 GMT-0400 (Eastern Daylight Time)","991808","Match,No Match","","92","","","","","","","<div class='trialBorder'><div class='targDiv'><div class='tc'><img class='introPic' src='trustrating_stim/white_mw013.bmp'><br><font color='red'><strong>Keep</strong></font></div></div><div class='respDiv'><div class='respDivL'>Match<br>(e)</div><div class='respDivR'>No Match<br>(i)</div></div></div>","e","TARGET","1","trustrating_stim/white_mw013.bmp","0","Match","e","1500","trustrating_stim/white_mw013.bmp","red","Keep","PRACTICE","1"
"html-keyboard-response","23","173878","0.0-5.0-5.3","5d63f9cd26a2ac001758c70d","bdp_wmem","Thu Jul 28 2022 00:16:53 GMT-0400 (Eastern Daylight Time)","991808","Match,No Match","","null","","","","","","","<div class='trialBorder'><div class='vertical-center'><img src='img/correct.jpg'></div><div class='respDiv'><div class='respDivL'><font style='color:orange'>Match<br>(e)</font></div><div class='respDivR'>No Match<br>(i)</div></div></div>","null","FEEDBACK","","","","","","","","","","",""
"html-keyboard-response","24","174380","0.0-5.0-1.4","5d63f9cd26a2ac001758c70d","bdp_wmem","Thu Jul 28 2022 00:16:53 GMT-0400 (Eastern Daylight Time)","991808","Match,No Match","","null","","","","","","","<div class='trialBorder'><div class='vertical-center'><img src='img/fixation2_sml.jpg'</img></div></div>","null","FIX","","","","","","","","","","",""
"html-keyboard-response","25","177382","0.0-5.0-2.4","5d63f9cd26a2ac001758c70d","bdp_wmem","Thu Jul 28 2022 00:16:53 GMT-0400 (Eastern Daylight Time)","991808","Match,No Match","","null","","","","","","","<div class='trialBorder'><div class='vertical-center'><img style='vertical-align:center; align:center' src='img/fixation2_sml.jpg'></div><div class='arrayDiv2'><div class='tl'><img class='introPic' src='trustrating_stim/white_mw042.bmp'><br><font color='red'><strong>Keep</strong></font></div><div class='tr'><img class='introPic' src='trustrating_stim/white_mw003.bmp'><br><font color='green'><strong>Share</strong></font></div></div></div>","null","ARRAY","2","trustrating_stim/white_mw042.bmp,trustrating_stim/white_mw003.bmp","0,1","noMatchFace","i","3000","","","","",""
"html-keyboard-response","26","181384","0.0-5.0-3.4","5d63f9cd26a2ac001758c70d","bdp_wmem","Thu Jul 28 2022 00:16:53 GMT-0400 (Eastern Daylight Time)","991808","Match,No Match","","null","","","","","","","<div class='trialBorder'><div class='vertical-center'><img src='img/fixation2_sml.jpg'</img></div></div>","null","DELAY","","","","","","","","","","",""
"html-keyboard-response","27","181497","0.0-5.0-4.4","5d63f9cd26a2ac001758c70d","bdp_wmem","Thu Jul 28 2022 00:16:53 GMT-0400 (Eastern Daylight Time)","991808","Match,No Match","","111","","","","","","","<div class='trialBorder'><div class='targDiv'><div class='tc'><img class='introPic' src='trustrating_stim/white_mw013.bmp'><br><font color='red'><strong>Keep</strong></font></div></div><div class='respDiv'><div class='respDivL'>Match<br>(e)</div><div class='respDivR'>No Match<br>(i)</div></div></div>","e","TARGET","2","trustrating_stim/white_mw042.bmp,trustrating_stim/white_mw003.bmp","0,1","noMatchFace","i","3000","trustrating_stim/white_mw013.bmp","red","Keep","PRACTICE","0"
"html-keyboard-response","28","181998","0.0-5.0-5.4","5d63f9cd26a2ac001758c70d","bdp_wmem","Thu Jul 28 2022 00:16:53 GMT-0400 (Eastern Daylight Time)","991808","Match,No Match","","null","","","","","","","<div class='trialBorder'><div class='vertical-center'><img src='img/error.jpg'></div><div class='respDiv'><div class='respDivL'><font style='color:orange'>Match<br>(e)</font></div><div class='respDivR'>No Match<br>(i)</div></div></div>","null","FEEDBACK","","","","","","","","","","",""
"html-keyboard-response","29","182499","0.0-5.0-1.5","5d63f9cd26a2ac001758c70d","bdp_wmem","Thu Jul 28 2022 00:16:53 GMT-0400 (Eastern Daylight Time)","991808","Match,No Match","","null","","","","","","","<div class='trialBorder'><div class='vertical-center'><img src='img/fixation2_sml.jpg'</img></div></div>","null","FIX","","","","","","","","","","",""
"html-keyboard-response","30","187001","0.0-5.0-2.5","5d63f9cd26a2ac001758c70d","bdp_wmem","Thu Jul 28 2022 00:16:53 GMT-0400 (Eastern Daylight Time)","991808","Match,No Match","","null","","","","","","","<div class='trialBorder'><div class='vertical-center'><img style='vertical-align:center; align:center' src='img/fixation2_sml.jpg'></div><div class='arrayDiv3'><div class='tl'><img class='introPic' src='trustrating_stim/white_mw042.bmp'><br><font color='red'><strong>Keep</strong></font></div><div class='tc'><img class='introPic' src='trustrating_stim/white_mw013.bmp'><br><font color='green'><strong>Share</strong></font></div><div class='tr'><img class='introPic' src='trustrating_stim/white_mw091.bmp'><br><font color='red'><strong>Keep</strong></font></div></div></div>","null","ARRAY","3","trustrating_stim/white_mw042.bmp,trustrating_stim/white_mw013.bmp,trustrating_stim/white_mw091.bmp","0,1,0","noMatchOutcome","i","4500","","","","",""
"html-keyboard-response","31","191003","0.0-5.0-3.5","5d63f9cd26a2ac001758c70d","bdp_wmem","Thu Jul 28 2022 00:16:53 GMT-0400 (Eastern Daylight Time)","991808","Match,No Match","","null","","","","","","","<div class='trialBorder'><div class='vertical-center'><img src='img/fixation2_sml.jpg'</img></div></div>","null","DELAY","","","","","","","","","","",""
"html-keyboard-response","32","191825","0.0-5.0-4.5","5d63f9cd26a2ac001758c70d","bdp_wmem","Thu Jul 28 2022 00:16:53 GMT-0400 (Eastern Daylight Time)","991808","Match,No Match","","819","","","","","","","<div class='trialBorder'><div class='targDiv'><div class='tc'><img class='introPic' src='trustrating_stim/white_mw042.bmp'><br><font color='green'><strong>Share</strong></font></div></div><div class='respDiv'><div class='respDivL'>Match<br>(e)</div><div class='respDivR'>No Match<br>(i)</div></div></div>","i","TARGET","3","trustrating_stim/white_mw042.bmp,trustrating_stim/white_mw013.bmp,trustrating_stim/white_mw091.bmp","0,1,0","noMatchOutcome","i","4500","trustrating_stim/white_mw042.bmp","green","Share","PRACTICE","1"
"html-keyboard-response","33","192326","0.0-5.0-5.5","5d63f9cd26a2ac001758c70d","bdp_wmem","Thu Jul 28 2022 00:16:53 GMT-0400 (Eastern Daylight Time)","991808","Match,No Match","","null","","","","","","","<div class='trialBorder'><div class='vertical-center'><img src='img/correct.jpg'></div><div class='respDiv'><div class='respDivL'>Match<br>(e)</div><div class='respDivR'><font style='color:orange'>No Match<br>(i)</font></div></div></div>","null","FEEDBACK","","","","","","","","","","",""
"instructions","34","596065","0.0-6.0","5d63f9cd26a2ac001758c70d","bdp_wmem","Thu Jul 28 2022 00:16:53 GMT-0400 (Eastern Daylight Time)","991808","Match,No Match","[{""page_index"":0,""viewing_time"":403738}]","403738","","","","","","","","","","","","","","","","","","","",""
"html-keyboard-response","35","596567","0.0-7.0-1.0","5d63f9cd26a2ac001758c70d","bdp_wmem","Thu Jul 28 2022 00:16:53 GMT-0400 (Eastern Daylight Time)","991808","Match,No Match","","null","","","","","","","<div class='trialBorder'><div class='vertical-center'><img src='img/fixation2_sml.jpg'</img></div></div>","null","FIX","","","","","","","","","","",""
"html-keyboard-response","36","598069","0.0-7.0-2.0","5d63f9cd26a2ac001758c70d","bdp_wmem","Thu Jul 28 2022 00:16:53 GMT-0400 (Eastern Daylight Time)","991808","Match,No Match","","null","","","","","","","<div class='trialBorder'><div class='vertical-center'><img style='vertical-align:center; align:center' src='img/fixation2_sml.jpg'></div><div class='arrayDiv1'><div class='tc'><img class='introPic' src='trustrating_stim/white_mw091.bmp'><br><font color='red'><strong>Keep</strong></font></div></div></div>","null","ARRAY","1","trustrating_stim/white_mw091.bmp","0","noMatchFace","i","1500","","","","",""
"html-keyboard-response","37","602071","0.0-7.0-3.0","5d63f9cd26a2ac001758c70d","bdp_wmem","Thu Jul 28 2022 00:16:53 GMT-0400 (Eastern Daylight Time)","991808","Match,No Match","","null","","","","","","","<div class='trialBorder'><div class='vertical-center'><img src='img/fixation2_sml.jpg'</img></div></div>","null","DELAY","","","","","","","","","","",""
"html-keyboard-response","38","602176","0.0-7.0-4.0","5d63f9cd26a2ac001758c70d","bdp_wmem","Thu Jul 28 2022 00:16:53 GMT-0400 (Eastern Daylight Time)","991808","Match,No Match","","104","","","","","","","<div class='trialBorder'><div class='targDiv'><div class='tc'><img class='introPic' src='trustrating_stim/white_mw040.bmp'><br><font color='red'><strong>Keep</strong></font></div></div><div class='respDiv'><div class='respDivL'>Match<br>(e)</div><div class='respDivR'>No Match<br>(i)</div></div></div>","i","TARGET","1","trustrating_stim/white_mw091.bmp","0","noMatchFace","i","1500","trustrating_stim/white_mw040.bmp","red","Keep","REAL","1"
"html-keyboard-response","39","602678","0.0-7.0-5.0","5d63f9cd26a2ac001758c70d","bdp_wmem","Thu Jul 28 2022 00:16:53 GMT-0400 (Eastern Daylight Time)","991808","Match,No Match","","null","","","","","","","<div class='trialBorder'><div class='vertical-center'><img src='img/correct.jpg'></div><div class='respDiv'><div class='respDivL'>Match<br>(e)</div><div class='respDivR'><font style='color:orange'>No Match<br>(i)</font></div></div></div>","null","FEEDBACK","","","","","","","","","","",""
"html-keyboard-response","40","603180","0.0-7.0-1.1","5d63f9cd26a2ac001758c70d","bdp_wmem","Thu Jul 28 2022 00:16:53 GMT-0400 (Eastern Daylight Time)","991808","Match,No Match","","null","","","","","","","<div class='trialBorder'><div class='vertical-center'><img src='img/fixation2_sml.jpg'</img></div></div>","null","FIX","","","","","","","","","","",""
"html-keyboard-response","41","607682","0.0-7.0-2.1","5d63f9cd26a2ac001758c70d","bdp_wmem","Thu Jul 28 2022 00:16:53 GMT-0400 (Eastern Daylight Time)","991808","Match,No Match","","null","","","","","","","<div class='trialBorder'><div class='vertical-center'><img style='vertical-align:center; align:center' src='img/fixation2_sml.jpg'></div><div class='arrayDiv3'><div class='tl'><img class='introPic' src='trustrating_stim/white_mw040.bmp'><br><font color='green'><strong>Share</strong></font></div><div class='tc'><img class='introPic' src='trustrating_stim/white_mw042.bmp'><br><font color='green'><strong>Share</strong></font></div><div class='tr'><img class='introPic' src='trustrating_stim/white_mw085.bmp'><br><font color='red'><strong>Keep</strong></font></div></div></div>","null","ARRAY","3","trustrating_stim/white_mw040.bmp,trustrating_stim/white_mw042.bmp,trustrating_stim/white_mw085.bmp","1,1,0","Match","e","4500","","","","",""
"html-keyboard-response","42","611683","0.0-7.0-3.1","5d63f9cd26a2ac001758c70d","bdp_wmem","Thu Jul 28 2022 00:16:53 GMT-0400 (Eastern Daylight Time)","991808","Match,No Match","","null","","","","","","","<div class='trialBorder'><div class='vertical-center'><img src='img/fixation2_sml.jpg'</img></div></div>","null","DELAY","","","","","","","","","","",""
"html-keyboard-response","43","611776","0.0-7.0-4.1","5d63f9cd26a2ac001758c70d","bdp_wmem","Thu Jul 28 2022 00:16:53 GMT-0400 (Eastern Daylight Time)","991808","Match,No Match","","91","","","","","","","<div class='trialBorder'><div class='targDiv'><div class='tc'><img class='introPic' src='trustrating_stim/white_mw040.bmp'><br><font color='green'><strong>Share</strong></font></div></div><div class='respDiv'><div class='respDivL'>Match<br>(e)</div><div class='respDivR'>No Match<br>(i)</div></div></div>","e","TARGET","3","trustrating_stim/white_mw040.bmp,trustrating_stim/white_mw042.bmp,trustrating_stim/white_mw085.bmp","1,1,0","Match","e","4500","trustrating_stim/white_mw040.bmp","green","Share","REAL","1"
"html-keyboard-response","44","612279","0.0-7.0-5.1","5d63f9cd26a2ac001758c70d","bdp_wmem","Thu Jul 28 2022 00:16:53 GMT-0400 (Eastern Daylight Time)","991808","Match,No Match","","null","","","","","","","<div class='trialBorder'><div class='vertical-center'><img src='img/correct.jpg'></div><div class='respDiv'><div class='respDivL'><font style='color:orange'>Match<br>(e)</font></div><div class='respDivR'>No Match<br>(i)</div></div></div>","null","FEEDBACK","","","","","","","","","","",""
"html-keyboard-response","45","612780","0.0-7.0-1.2","5d63f9cd26a2ac001758c70d","bdp_wmem","Thu Jul 28 2022 00:16:53 GMT-0400 (Eastern Daylight Time)","991808","Match,No Match","","null","","","","","","","<div class='trialBorder'><div class='vertical-center'><img src='img/fixation2_sml.jpg'</img></div></div>","null","FIX","","","","","","","","","","",""
"html-keyboard-response","46","614283","0.0-7.0-2.2","5d63f9cd26a2ac001758c70d","bdp_wmem","Thu Jul 28 2022 00:16:53 GMT-0400 (Eastern Daylight Time)","991808","Match,No Match","","null","","","","","","","<div class='trialBorder'><div class='vertical-center'><img style='vertical-align:center; align:center' src='img/fixation2_sml.jpg'></div><div class='arrayDiv1'><div class='tc'><img class='introPic' src='trustrating_stim/white_mw040.bmp'><br><font color='red'><strong>Keep</strong></font></div></div></div>","null","ARRAY","1","trustrating_stim/white_mw040.bmp","0","noMatchFace","i","1500","","","","",""
"html-keyboard-response","47","618285","0.0-7.0-3.2","5d63f9cd26a2ac001758c70d","bdp_wmem","Thu Jul 28 2022 00:16:53 GMT-0400 (Eastern Daylight Time)","991808","Match,No Match","","null","","","","","","","<div class='trialBorder'><div class='vertical-center'><img src='img/fixation2_sml.jpg'</img></div></div>","null","DELAY","","","","","","","","","","",""
"html-keyboard-response","48","618288","0.0-7.0-4.2","5d63f9cd26a2ac001758c70d","bdp_wmem","Thu Jul 28 2022 00:16:53 GMT-0400 (Eastern Daylight Time)","991808","Match,No Match","","1","","","","","","","<div class='trialBorder'><div class='targDiv'><div class='tc'><img class='introPic' src='trustrating_stim/white_mw012.bmp'><br><font color='red'><strong>Keep</strong></font></div></div><div class='respDiv'><div class='respDivL'>Match<br>(e)</div><div class='respDivR'>No Match<br>(i)</div></div></div>","i","TARGET","1","trustrating_stim/white_mw040.bmp","0","noMatchFace","i","1500","trustrating_stim/white_mw012.bmp","red","Keep","REAL","1"
"html-keyboard-response","49","618791","0.0-7.0-5.2","5d63f9cd26a2ac001758c70d","bdp_wmem","Thu Jul 28 2022 00:16:53 GMT-0400 (Eastern Daylight Time)","991808","Match,No Match","","null","","","","","","","<div class='trialBorder'><div class='vertical-center'><img src='img/correct.jpg'></div><div class='respDiv'><div class='respDivL'>Match<br>(e)</div><div class='respDivR'><font style='color:orange'>No Match<br>(i)</font></div></div></div>","null","FEEDBACK","","","","","","","","","","",""
"html-keyboard-response","50","619293","0.0-7.0-1.3","5d63f9cd26a2ac001758c70d","bdp_wmem","Thu Jul 28 2022 00:16:53 GMT-0400 (Eastern Daylight Time)","991808","Match,No Match","","null","","","","","","","<div class='trialBorder'><div class='vertical-center'><img src='img/fixation2_sml.jpg'</img></div></div>","null","FIX","","","","","","","","","","",""
"html-keyboard-response","51","622295","0.0-7.0-2.3","5d63f9cd26a2ac001758c70d","bdp_wmem","Thu Jul 28 2022 00:16:53 GMT-0400 (Eastern Daylight Time)","991808","Match,No Match","","null","","","","","","","<div class='trialBorder'><div class='vertical-center'><img style='vertical-align:center; align:center' src='img/fixation2_sml.jpg'></div><div class='arrayDiv2'><div class='tl'><img class='introPic' src='trustrating_stim/white_mw091.bmp'><br><font color='green'><strong>Share</strong></font></div><div class='tr'><img class='introPic' src='trustrating_stim/white_mw010.bmp'><br><font color='red'><strong>Keep</strong></font></div></div></div>","null","ARRAY","2","trustrating_stim/white_mw091.bmp,trustrating_stim/white_mw010.bmp","1,0","Match","e","3000","","","","",""
"html-keyboard-response","52","626297","0.0-7.0-3.3","5d63f9cd26a2ac001758c70d","bdp_wmem","Thu Jul 28 2022 00:16:53 GMT-0400 (Eastern Daylight Time)","991808","Match,No Match","","null","","","","","","","<div class='trialBorder'><div class='vertical-center'><img src='img/fixation2_sml.jpg'</img></div></div>","null","DELAY","","","","","","","","","","",""
"html-keyboard-response","53","626384","0.0-7.0-4.3","5d63f9cd26a2ac001758c70d","bdp_wmem","Thu Jul 28 2022 00:16:53 GMT-0400 (Eastern Daylight Time)","991808","Match,No Match","","86","","","","","","","<div class='trialBorder'><div class='targDiv'><div class='tc'><img class='introPic' src='trustrating_stim/white_mw010.bmp'><br><font color='red'><strong>Keep</strong></font></div></div><div class='respDiv'><div class='respDivL'>Match<br>(e)</div><div class='respDivR'>No Match<br>(i)</div></div></div>","e","TARGET","2","trustrating_stim/white_mw091.bmp,trustrating_stim/white_mw010.bmp","1,0","Match","e","3000","trustrating_stim/white_mw010.bmp","red","Keep","REAL","1"
"html-keyboard-response","54","626887","0.0-7.0-5.3","5d63f9cd26a2ac001758c70d","bdp_wmem","Thu Jul 28 2022 00:16:53 GMT-0400 (Eastern Daylight Time)","991808","Match,No Match","","null","","","","","","","<div class='trialBorder'><div class='vertical-center'><img src='img/correct.jpg'></div><div class='respDiv'><div class='respDivL'><font style='color:orange'>Match<br>(e)</font></div><div class='respDivR'>No Match<br>(i)</div></div></div>","null","FEEDBACK","","","","","","","","","","",""
"html-keyboard-response","55","627388","0.0-7.0-1.4","5d63f9cd26a2ac001758c70d","bdp_wmem","Thu Jul 28 2022 00:16:53 GMT-0400 (Eastern Daylight Time)","991808","Match,No Match","","null","","","","","","","<div class='trialBorder'><div class='vertical-center'><img src='img/fixation2_sml.jpg'</img></div></div>","null","FIX","","","","","","","","","","",""
"html-keyboard-response","56","630390","0.0-7.0-2.4","5d63f9cd26a2ac001758c70d","bdp_wmem","Thu Jul 28 2022 00:16:53 GMT-0400 (Eastern Daylight Time)","991808","Match,No Match","","null","","","","","","","<div class='trialBorder'><div class='vertical-center'><img style='vertical-align:center; align:center' src='img/fixation2_sml.jpg'></div><div class='arrayDiv2'><div class='tl'><img class='introPic' src='trustrating_stim/white_mw012.bmp'><br><font color='red'><strong>Keep</strong></font></div><div class='tr'><img class='introPic' src='trustrating_stim/white_mw040.bmp'><br><font color='green'><strong>Share</strong></font></div></div></div>","null","ARRAY","2","trustrating_stim/white_mw012.bmp,trustrating_stim/white_mw040.bmp","0,1","Match","e","3000","","","","",""
"html-keyboard-response","57","634391","0.0-7.0-3.4","5d63f9cd26a2ac001758c70d","bdp_wmem","Thu Jul 28 2022 00:16:53 GMT-0400 (Eastern Daylight Time)","991808","Match,No Match","","null","","","","","","","<div class='trialBorder'><div class='vertical-center'><img src='img/fixation2_sml.jpg'</img></div></div>","null","DELAY","","","","","","","","","","",""
"html-keyboard-response","58","634456","0.0-7.0-4.4","5d63f9cd26a2ac001758c70d","bdp_wmem","Thu Jul 28 2022 00:16:53 GMT-0400 (Eastern Daylight Time)","991808","Match,No Match","","63","","","","","","","<div class='trialBorder'><div class='targDiv'><div class='tc'><img class='introPic' src='trustrating_stim/white_mw012.bmp'><br><font color='red'><strong>Keep</strong></font></div></div><div class='respDiv'><div class='respDivL'>Match<br>(e)</div><div class='respDivR'>No Match<br>(i)</div></div></div>","e","TARGET","2","trustrating_stim/white_mw012.bmp,trustrating_stim/white_mw040.bmp","0,1","Match","e","3000","trustrating_stim/white_mw012.bmp","red","Keep","REAL","1"
"html-keyboard-response","59","634958","0.0-7.0-5.4","5d63f9cd26a2ac001758c70d","bdp_wmem","Thu Jul 28 2022 00:16:53 GMT-0400 (Eastern Daylight Time)","991808","Match,No Match","","null","","","","","","","<div class='trialBorder'><div class='vertical-center'><img src='img/correct.jpg'></div><div class='respDiv'><div class='respDivL'><font style='color:orange'>Match<br>(e)</font></div><div class='respDivR'>No Match<br>(i)</div></div></div>","null","FEEDBACK","","","","","","","","","","",""
"html-keyboard-response","60","635459","0.0-7.0-1.5","5d63f9cd26a2ac001758c70d","bdp_wmem","Thu Jul 28 2022 00:16:53 GMT-0400 (Eastern Daylight Time)","991808","Match,No Match","","null","","","","","","","<div class='trialBorder'><div class='vertical-center'><img src='img/fixation2_sml.jpg'</img></div></div>","null","FIX","","","","","","","","","","",""
"html-keyboard-response","61","636961","0.0-7.0-2.5","5d63f9cd26a2ac001758c70d","bdp_wmem","Thu Jul 28 2022 00:16:53 GMT-0400 (Eastern Daylight Time)","991808","Match,No Match","","null","","","","","","","<div class='trialBorder'><div class='vertical-center'><img style='vertical-align:center; align:center' src='img/fixation2_sml.jpg'></div><div class='arrayDiv1'><div class='tc'><img class='introPic' src='trustrating_stim/white_mw078.bmp'><br><font color='green'><strong>Share</strong></font></div></div></div>","null","ARRAY","1","trustrating_stim/white_mw078.bmp","1","Match","e","1500","","","","",""
"html-keyboard-response","62","640962","0.0-7.0-3.5","5d63f9cd26a2ac001758c70d","bdp_wmem","Thu Jul 28 2022 00:16:53 GMT-0400 (Eastern Daylight Time)","991808","Match,No Match","","null","","","","","","","<div class='trialBorder'><div class='vertical-center'><img src='img/fixation2_sml.jpg'</img></div></div>","null","DELAY","","","","","","","","","","",""
"html-keyboard-response","63","641656","0.0-7.0-4.5","5d63f9cd26a2ac001758c70d","bdp_wmem","Thu Jul 28 2022 00:16:53 GMT-0400 (Eastern Daylight Time)","991808","Match,No Match","","693","","","","","","","<div class='trialBorder'><div class='targDiv'><div class='tc'><img class='introPic' src='trustrating_stim/white_mw078.bmp'><br><font color='green'><strong>Share</strong></font></div></div><div class='respDiv'><div class='respDivL'>Match<br>(e)</div><div class='respDivR'>No Match<br>(i)</div></div></div>","i","TARGET","1","trustrating_stim/white_mw078.bmp","1","Match","e","1500","trustrating_stim/white_mw078.bmp","green","Share","REAL","0"
"html-keyboard-response","64","642158","0.0-7.0-5.5","5d63f9cd26a2ac001758c70d","bdp_wmem","Thu Jul 28 2022 00:16:53 GMT-0400 (Eastern Daylight Time)","991808","Match,No Match","","null","","","","","","","<div class='trialBorder'><div class='vertical-center'><img src='img/error.jpg'></div><div class='respDiv'><div class='respDivL'>Match<br>(e)</div><div class='respDivR'><font style='color:orange'>No Match<br>(i)</font></div></div></div>","null","FEEDBACK","","","","","","","","","","",""
"html-keyboard-response","65","642659","0.0-7.0-1.6","5d63f9cd26a2ac001758c70d","bdp_wmem","Thu Jul 28 2022 00:16:53 GMT-0400 (Eastern Daylight Time)","991808","Match,No Match","","null","","","","","","","<div class='trialBorder'><div class='vertical-center'><img src='img/fixation2_sml.jpg'</img></div></div>","null","FIX","","","","","","","","","","",""
"html-keyboard-response","66","644162","0.0-7.0-2.6","5d63f9cd26a2ac001758c70d","bdp_wmem","Thu Jul 28 2022 00:16:53 GMT-0400 (Eastern Daylight Time)","991808","Match,No Match","","null","","","","","","","<div class='trialBorder'><div class='vertical-center'><img style='vertical-align:center; align:center' src='img/fixation2_sml.jpg'></div><div class='arrayDiv1'><div class='tc'><img class='introPic' src='trustrating_stim/white_mw010.bmp'><br><font color='red'><strong>Keep</strong></font></div></div></div>","null","ARRAY","1","trustrating_stim/white_mw010.bmp","0","noMatchOutcome","i","1500","","","","",""
"html-keyboard-response","67","648164","0.0-7.0-3.6","5d63f9cd26a2ac001758c70d","bdp_wmem","Thu Jul 28 2022 00:16:53 GMT-0400 (Eastern Daylight Time)","991808","Match,No Match","","null","","","","","","","<div class='trialBorder'><div class='vertical-center'><img src='img/fixation2_sml.jpg'</img></div></div>","null","DELAY","","","","","","","","","","",""
"html-keyboard-response","68","648224","0.0-7.0-4.6","5d63f9cd26a2ac001758c70d","bdp_wmem","Thu Jul 28 2022 00:16:53 GMT-0400 (Eastern Daylight Time)","991808","Match,No Match","","59","","","","","","","<div class='trialBorder'><div class='targDiv'><div class='tc'><img class='introPic' src='trustrating_stim/white_mw010.bmp'><br><font color='green'><strong>Share</strong></font></div></div><div class='respDiv'><div class='respDivL'>Match<br>(e)</div><div class='respDivR'>No Match<br>(i)</div></div></div>","e","TARGET","1","trustrating_stim/white_mw010.bmp","0","noMatchOutcome","i","1500","trustrating_stim/white_mw010.bmp","green","Share","REAL","0"
"html-keyboard-response","69","648726","0.0-7.0-5.6","5d63f9cd26a2ac001758c70d","bdp_wmem","Thu Jul 28 2022 00:16:53 GMT-0400 (Eastern Daylight Time)","991808","Match,No Match","","null","","","","","","","<div class='trialBorder'><div class='vertical-center'><img src='img/error.jpg'></div><div class='respDiv'><div class='respDivL'><font style='color:orange'>Match<br>(e)</font></div><div class='respDivR'>No Match<br>(i)</div></div></div>","null","FEEDBACK","","","","","","","","","","",""
"html-keyboard-response","70","649227","0.0-7.0-1.7","5d63f9cd26a2ac001758c70d","bdp_wmem","Thu Jul 28 2022 00:16:53 GMT-0400 (Eastern Daylight Time)","991808","Match,No Match","","null","","","","","","","<div class='trialBorder'><div class='vertical-center'><img src='img/fixation2_sml.jpg'</img></div></div>","null","FIX","","","","","","","","","","",""
"html-keyboard-response","71","653729","0.0-7.0-2.7","5d63f9cd26a2ac001758c70d","bdp_wmem","Thu Jul 28 2022 00:16:53 GMT-0400 (Eastern Daylight Time)","991808","Match,No Match","","null","","","","","","","<div class='trialBorder'><div class='vertical-center'><img style='vertical-align:center; align:center' src='img/fixation2_sml.jpg'></div><div class='arrayDiv3'><div class='tl'><img class='introPic' src='trustrating_stim/white_mw091.bmp'><br><font color='red'><strong>Keep</strong></font></div><div class='tc'><img class='introPic' src='trustrating_stim/white_mw092.bmp'><br><font color='green'><strong>Share</strong></font></div><div class='tr'><img class='introPic' src='trustrating_stim/white_mw040.bmp'><br><font color='red'><strong>Keep</strong></font></div></div></div>","null","ARRAY","3","trustrating_stim/white_mw091.bmp,trustrating_stim/white_mw092.bmp,trustrating_stim/white_mw040.bmp","0,1,0","Match","e","4500","","","","",""
"html-keyboard-response","72","657731","0.0-7.0-3.7","5d63f9cd26a2ac001758c70d","bdp_wmem","Thu Jul 28 2022 00:16:53 GMT-0400 (Eastern Daylight Time)","991808","Match,No Match","","null","","","","","","","<div class='trialBorder'><div class='vertical-center'><img src='img/fixation2_sml.jpg'</img></div></div>","null","DELAY","","","","","","","","","","",""
"html-keyboard-response","73","657841","0.0-7.0-4.7","5d63f9cd26a2ac001758c70d","bdp_wmem","Thu Jul 28 2022 00:16:53 GMT-0400 (Eastern Daylight Time)","991808","Match,No Match","","107","","","","","","","<div class='trialBorder'><div class='targDiv'><div class='tc'><img class='introPic' src='trustrating_stim/white_mw040.bmp'><br><font color='red'><strong>Keep</strong></font></div></div><div class='respDiv'><div class='respDivL'>Match<br>(e)</div><div class='respDivR'>No Match<br>(i)</div></div></div>","i","TARGET","3","trustrating_stim/white_mw091.bmp,trustrating_stim/white_mw092.bmp,trustrating_stim/white_mw040.bmp","0,1,0","Match","e","4500","trustrating_stim/white_mw040.bmp","red","Keep","REAL","0"
"html-keyboard-response","74","658342","0.0-7.0-5.7","5d63f9cd26a2ac001758c70d","bdp_wmem","Thu Jul 28 2022 00:16:53 GMT-0400 (Eastern Daylight Time)","991808","Match,No Match","","null","","","","","","","<div class='trialBorder'><div class='vertical-center'><img src='img/error.jpg'></div><div class='respDiv'><div class='respDivL'>Match<br>(e)</div><div class='respDivR'><font style='color:orange'>No Match<br>(i)</font></div></div></div>","null","FEEDBACK","","","","","","","","","","",""
"html-keyboard-response","75","658844","0.0-7.0-1.8","5d63f9cd26a2ac001758c70d","bdp_wmem","Thu Jul 28 2022 00:16:53 GMT-0400 (Eastern Daylight Time)","991808","Match,No Match","","null","","","","","","","<div class='trialBorder'><div class='vertical-center'><img src='img/fixation2_sml.jpg'</img></div></div>","null","FIX","","","","","","","","","","",""
"html-keyboard-response","76","660346","0.0-7.0-2.8","5d63f9cd26a2ac001758c70d","bdp_wmem","Thu Jul 28 2022 00:16:53 GMT-0400 (Eastern Daylight Time)","991808","Match,No Match","","null","","","","","","","<div class='trialBorder'><div class='vertical-center'><img style='vertical-align:center; align:center' src='img/fixation2_sml.jpg'></div><div class='arrayDiv1'><div class='tc'><img class='introPic' src='trustrating_stim/white_mw003.bmp'><br><font color='green'><strong>Share</strong></font></div></div></div>","null","ARRAY","1","trustrating_stim/white_mw003.bmp","1","noMatchOutcome","i","1500","","","","",""
"html-keyboard-response","77","664347","0.0-7.0-3.8","5d63f9cd26a2ac001758c70d","bdp_wmem","Thu Jul 28 2022 00:16:53 GMT-0400 (Eastern Daylight Time)","991808","Match,No Match","","null","","","","","","","<div class='trialBorder'><div class='vertical-center'><img src='img/fixation2_sml.jpg'</img></div></div>","null","DELAY","","","","","","","","","","",""
"html-keyboard-response","78","664472","0.0-7.0-4.8","5d63f9cd26a2ac001758c70d","bdp_wmem","Thu Jul 28 2022 00:16:53 GMT-0400 (Eastern Daylight Time)","991808","Match,No Match","","124","","","","","","","<div class='trialBorder'><div class='targDiv'><div class='tc'><img class='introPic' src='trustrating_stim/white_mw003.bmp'><br><font color='red'><strong>Keep</strong></font></div></div><div class='respDiv'><div class='respDivL'>Match<br>(e)</div><div class='respDivR'>No Match<br>(i)</div></div></div>","e","TARGET","1","trustrating_stim/white_mw003.bmp","1","noMatchOutcome","i","1500","trustrating_stim/white_mw003.bmp","red","Keep","REAL","0"
"html-keyboard-response","79","664973","0.0-7.0-5.8","5d63f9cd26a2ac001758c70d","bdp_wmem","Thu Jul 28 2022 00:16:53 GMT-0400 (Eastern Daylight Time)","991808","Match,No Match","","null","","","","","","","<div class='trialBorder'><div class='vertical-center'><img src='img/error.jpg'></div><div class='respDiv'><div class='respDivL'><font style='color:orange'>Match<br>(e)</font></div><div class='respDivR'>No Match<br>(i)</div></div></div>","null","FEEDBACK","","","","","","","","","","",""
"html-keyboard-response","80","665474","0.0-7.0-1.9","5d63f9cd26a2ac001758c70d","bdp_wmem","Thu Jul 28 2022 00:16:53 GMT-0400 (Eastern Daylight Time)","991808","Match,No Match","","null","","","","","","","<div class='trialBorder'><div class='vertical-center'><img src='img/fixation2_sml.jpg'</img></div></div>","null","FIX","","","","","","","","","","",""
"html-keyboard-response","81","666976","0.0-7.0-2.9","5d63f9cd26a2ac001758c70d","bdp_wmem","Thu Jul 28 2022 00:16:53 GMT-0400 (Eastern Daylight Time)","991808","Match,No Match","","null","","","","","","","<div class='trialBorder'><div class='vertical-center'><img style='vertical-align:center; align:center' src='img/fixation2_sml.jpg'></div><div class='arrayDiv1'><div class='tc'><img class='introPic' src='trustrating_stim/white_mw003.bmp'><br><font color='green'><strong>Share</strong></font></div></div></div>","null","ARRAY","1","trustrating_stim/white_mw003.bmp","1","Match","e","1500","","","","",""
"html-keyboard-response","82","670977","0.0-7.0-3.9","5d63f9cd26a2ac001758c70d","bdp_wmem","Thu Jul 28 2022 00:16:53 GMT-0400 (Eastern Daylight Time)","991808","Match,No Match","","null","","","","","","","<div class='trialBorder'><div class='vertical-center'><img src='img/fixation2_sml.jpg'</img></div></div>","null","DELAY","","","","","","","","","","",""
"html-keyboard-response","83","671056","0.0-7.0-4.9","5d63f9cd26a2ac001758c70d","bdp_wmem","Thu Jul 28 2022 00:16:53 GMT-0400 (Eastern Daylight Time)","991808","Match,No Match","","78","","","","","","","<div class='trialBorder'><div class='targDiv'><div class='tc'><img class='introPic' src='trustrating_stim/white_mw003.bmp'><br><font color='green'><strong>Share</strong></font></div></div><div class='respDiv'><div class='respDivL'>Match<br>(e)</div><div class='respDivR'>No Match<br>(i)</div></div></div>","e","TARGET","1","trustrating_stim/white_mw003.bmp","1","Match","e","1500","trustrating_stim/white_mw003.bmp","green","Share","REAL","1"
"html-keyboard-response","84","671558","0.0-7.0-5.9","5d63f9cd26a2ac001758c70d","bdp_wmem","Thu Jul 28 2022 00:16:53 GMT-0400 (Eastern Daylight Time)","991808","Match,No Match","","null","","","","","","","<div class='trialBorder'><div class='vertical-center'><img src='img/correct.jpg'></div><div class='respDiv'><div class='respDivL'><font style='color:orange'>Match<br>(e)</font></div><div class='respDivR'>No Match<br>(i)</div></div></div>","null","FEEDBACK","","","","","","","","","","",""
"html-keyboard-response","85","672059","0.0-7.0-1.10","5d63f9cd26a2ac001758c70d","bdp_wmem","Thu Jul 28 2022 00:16:53 GMT-0400 (Eastern Daylight Time)","991808","Match,No Match","","null","","","","","","","<div class='trialBorder'><div class='vertical-center'><img src='img/fixation2_sml.jpg'</img></div></div>","null","FIX","","","","","","","","","","",""
"html-keyboard-response","86","676561","0.0-7.0-2.10","5d63f9cd26a2ac001758c70d","bdp_wmem","Thu Jul 28 2022 00:16:53 GMT-0400 (Eastern Daylight Time)","991808","Match,No Match","","null","","","","","","","<div class='trialBorder'><div class='vertical-center'><img style='vertical-align:center; align:center' src='img/fixation2_sml.jpg'></div><div class='arrayDiv3'><div class='tl'><img class='introPic' src='trustrating_stim/white_mw078.bmp'><br><font color='green'><strong>Share</strong></font></div><div class='tc'><img class='introPic' src='trustrating_stim/white_mw085.bmp'><br><font color='red'><strong>Keep</strong></font></div><div class='tr'><img class='introPic' src='trustrating_stim/white_mw003.bmp'><br><font color='red'><strong>Keep</strong></font></div></div></div>","null","ARRAY","3","trustrating_stim/white_mw078.bmp,trustrating_stim/white_mw085.bmp,trustrating_stim/white_mw003.bmp","1,0,0","noMatchOutcome","i","4500","","","","",""
"html-keyboard-response","87","680562","0.0-7.0-3.10","5d63f9cd26a2ac001758c70d","bdp_wmem","Thu Jul 28 2022 00:16:53 GMT-0400 (Eastern Daylight Time)","991808","Match,No Match","","null","","","","","","","<div class='trialBorder'><div class='vertical-center'><img src='img/fixation2_sml.jpg'</img></div></div>","null","DELAY","","","","","","","","","","",""
"html-keyboard-response","88","680888","0.0-7.0-4.10","5d63f9cd26a2ac001758c70d","bdp_wmem","Thu Jul 28 2022 00:16:53 GMT-0400 (Eastern Daylight Time)","991808","Match,No Match","","325","","","","","","","<div class='trialBorder'><div class='targDiv'><div class='tc'><img class='introPic' src='trustrating_stim/white_mw003.bmp'><br><font color='green'><strong>Share</strong></font></div></div><div class='respDiv'><div class='respDivL'>Match<br>(e)</div><div class='respDivR'>No Match<br>(i)</div></div></div>","e","TARGET","3","trustrating_stim/white_mw078.bmp,trustrating_stim/white_mw085.bmp,trustrating_stim/white_mw003.bmp","1,0,0","noMatchOutcome","i","4500","trustrating_stim/white_mw003.bmp","green","Share","REAL","0"
"html-keyboard-response","89","681390","0.0-7.0-5.10","5d63f9cd26a2ac001758c70d","bdp_wmem","Thu Jul 28 2022 00:16:53 GMT-0400 (Eastern Daylight Time)","991808","Match,No Match","","null","","","","","","","<div class='trialBorder'><div class='vertical-center'><img src='img/error.jpg'></div><div class='respDiv'><div class='respDivL'><font style='color:orange'>Match<br>(e)</font></div><div class='respDivR'>No Match<br>(i)</div></div></div>","null","FEEDBACK","","","","","","","","","","",""
"html-keyboard-response","90","681891","0.0-7.0-1.11","5d63f9cd26a2ac001758c70d","bdp_wmem","Thu Jul 28 2022 00:16:53 GMT-0400 (Eastern Daylight Time)","991808","Match,No Match","","null","","","","","","","<div class='trialBorder'><div class='vertical-center'><img src='img/fixation2_sml.jpg'</img></div></div>","null","FIX","","","","","","","","","","",""
"html-keyboard-response","91","686393","0.0-7.0-2.11","5d63f9cd26a2ac001758c70d","bdp_wmem","Thu Jul 28 2022 00:16:53 GMT-0400 (Eastern Daylight Time)","991808","Match,No Match","","null","","","","","","","<div class='trialBorder'><div class='vertical-center'><img style='vertical-align:center; align:center' src='img/fixation2_sml.jpg'></div><div class='arrayDiv3'><div class='tl'><img class='introPic' src='trustrating_stim/white_mw038.bmp'><br><font color='green'><strong>Share</strong></font></div><div class='tc'><img class='introPic' src='trustrating_stim/white_mw040.bmp'><br><font color='red'><strong>Keep</strong></font></div><div class='tr'><img class='introPic' src='trustrating_stim/white_mw078.bmp'><br><font color='red'><strong>Keep</strong></font></div></div></div>","null","ARRAY","3","trustrating_stim/white_mw038.bmp,trustrating_stim/white_mw040.bmp,trustrating_stim/white_mw078.bmp","1,0,0","Match","e","4500","","","","",""
"html-keyboard-response","92","690394","0.0-7.0-3.11","5d63f9cd26a2ac001758c70d","bdp_wmem","Thu Jul 28 2022 00:16:53 GMT-0400 (Eastern Daylight Time)","991808","Match,No Match","","null","","","","","","","<div class='trialBorder'><div class='vertical-center'><img src='img/fixation2_sml.jpg'</img></div></div>","null","DELAY","","","","","","","","","","",""
"html-keyboard-response","93","690496","0.0-7.0-4.11","5d63f9cd26a2ac001758c70d","bdp_wmem","Thu Jul 28 2022 00:16:53 GMT-0400 (Eastern Daylight Time)","991808","Match,No Match","","101","","","","","","","<div class='trialBorder'><div class='targDiv'><div class='tc'><img class='introPic' src='trustrating_stim/white_mw040.bmp'><br><font color='red'><strong>Keep</strong></font></div></div><div class='respDiv'><div class='respDivL'>Match<br>(e)</div><div class='respDivR'>No Match<br>(i)</div></div></div>","i","TARGET","3","trustrating_stim/white_mw038.bmp,trustrating_stim/white_mw040.bmp,trustrating_stim/white_mw078.bmp","1,0,0","Match","e","4500","trustrating_stim/white_mw040.bmp","red","Keep","REAL","0"
"html-keyboard-response","94","690998","0.0-7.0-5.11","5d63f9cd26a2ac001758c70d","bdp_wmem","Thu Jul 28 2022 00:16:53 GMT-0400 (Eastern Daylight Time)","991808","Match,No Match","","null","","","","","","","<div class='trialBorder'><div class='vertical-center'><img src='img/error.jpg'></div><div class='respDiv'><div class='respDivL'>Match<br>(e)</div><div class='respDivR'><font style='color:orange'>No Match<br>(i)</font></div></div></div>","null","FEEDBACK","","","","","","","","","","",""
"html-keyboard-response","95","691499","0.0-7.0-1.12","5d63f9cd26a2ac001758c70d","bdp_wmem","Thu Jul 28 2022 00:16:53 GMT-0400 (Eastern Daylight Time)","991808","Match,No Match","","null","","","","","","","<div class='trialBorder'><div class='vertical-center'><img src='img/fixation2_sml.jpg'</img></div></div>","null","FIX","","","","","","","","","","",""
"html-keyboard-response","96","694501","0.0-7.0-2.12","5d63f9cd26a2ac001758c70d","bdp_wmem","Thu Jul 28 2022 00:16:53 GMT-0400 (Eastern Daylight Time)","991808","Match,No Match","","null","","","","","","","<div class='trialBorder'><div class='vertical-center'><img style='vertical-align:center; align:center' src='img/fixation2_sml.jpg'></div><div class='arrayDiv2'><div class='tl'><img class='introPic' src='trustrating_stim/white_mw042.bmp'><br><font color='green'><strong>Share</strong></font></div><div class='tr'><img class='introPic' src='trustrating_stim/white_mw091.bmp'><br><font color='red'><strong>Keep</strong></font></div></div></div>","null","ARRAY","2","trustrating_stim/white_mw042.bmp,trustrating_stim/white_mw091.bmp","1,0","noMatchFace","i","3000","","","","",""
"html-keyboard-response","97","698503","0.0-7.0-3.12","5d63f9cd26a2ac001758c70d","bdp_wmem","Thu Jul 28 2022 00:16:53 GMT-0400 (Eastern Daylight Time)","991808","Match,No Match","","null","","","","","","","<div class='trialBorder'><div class='vertical-center'><img src='img/fixation2_sml.jpg'</img></div></div>","null","DELAY","","","","","","","","","","",""
"html-keyboard-response","98","698944","0.0-7.0-4.12","5d63f9cd26a2ac001758c70d","bdp_wmem","Thu Jul 28 2022 00:16:53 GMT-0400 (Eastern Daylight Time)","991808","Match,No Match","","440","","","","","","","<div class='trialBorder'><div class='targDiv'><div class='tc'><img class='introPic' src='trustrating_stim/white_mw040.bmp'><br><font color='green'><strong>Share</strong></font></div></div><div class='respDiv'><div class='respDivL'>Match<br>(e)</div><div class='respDivR'>No Match<br>(i)</div></div></div>","e","TARGET","2","trustrating_stim/white_mw042.bmp,trustrating_stim/white_mw091.bmp","1,0","noMatchFace","i","3000","trustrating_stim/white_mw040.bmp","green","Share","REAL","0"
"html-keyboard-response","99","699446","0.0-7.0-5.12","5d63f9cd26a2ac001758c70d","bdp_wmem","Thu Jul 28 2022 00:16:53 GMT-0400 (Eastern Daylight Time)","991808","Match,No Match","","null","","","","","","","<div class='trialBorder'><div class='vertical-center'><img src='img/error.jpg'></div><div class='respDiv'><div class='respDivL'><font style='color:orange'>Match<br>(e)</font></div><div class='respDivR'>No Match<br>(i)</div></div></div>","null","FEEDBACK","","","","","","","","","","",""
"html-keyboard-response","100","699947","0.0-7.0-1.13","5d63f9cd26a2ac001758c70d","bdp_wmem","Thu Jul 28 2022 00:16:53 GMT-0400 (Eastern Daylight Time)","991808","Match,No Match","","null","","","","","","","<div class='trialBorder'><div class='vertical-center'><img src='img/fixation2_sml.jpg'</img></div></div>","null","FIX","","","","","","","","","","",""
"html-keyboard-response","101","701449","0.0-7.0-2.13","5d63f9cd26a2ac001758c70d","bdp_wmem","Thu Jul 28 2022 00:16:53 GMT-0400 (Eastern Daylight Time)","991808","Match,No Match","","null","","","","","","","<div class='trialBorder'><div class='vertical-center'><img style='vertical-align:center; align:center' src='img/fixation2_sml.jpg'></div><div class='arrayDiv1'><div class='tc'><img class='introPic' src='trustrating_stim/white_mw078.bmp'><br><font color='green'><strong>Share</strong></font></div></div></div>","null","ARRAY","1","trustrating_stim/white_mw078.bmp","1","Match","e","1500","","","","",""
"html-keyboard-response","102","705450","0.0-7.0-3.13","5d63f9cd26a2ac001758c70d","bdp_wmem","Thu Jul 28 2022 00:16:53 GMT-0400 (Eastern Daylight Time)","991808","Match,No Match","","null","","","","","","","<div class='trialBorder'><div class='vertical-center'><img src='img/fixation2_sml.jpg'</img></div></div>","null","DELAY","","","","","","","","","","",""
"html-keyboard-response","103","705528","0.0-7.0-4.13","5d63f9cd26a2ac001758c70d","bdp_wmem","Thu Jul 28 2022 00:16:53 GMT-0400 (Eastern Daylight Time)","991808","Match,No Match","","77","","","","","","","<div class='trialBorder'><div class='targDiv'><div class='tc'><img class='introPic' src='trustrating_stim/white_mw078.bmp'><br><font color='green'><strong>Share</strong></font></div></div><div class='respDiv'><div class='respDivL'>Match<br>(e)</div><div class='respDivR'>No Match<br>(i)</div></div></div>","i","TARGET","1","trustrating_stim/white_mw078.bmp","1","Match","e","1500","trustrating_stim/white_mw078.bmp","green","Share","REAL","0"
"html-keyboard-response","104","706030","0.0-7.0-5.13","5d63f9cd26a2ac001758c70d","bdp_wmem","Thu Jul 28 2022 00:16:53 GMT-0400 (Eastern Daylight Time)","991808","Match,No Match","","null","","","","","","","<div class='trialBorder'><div class='vertical-center'><img src='img/error.jpg'></div><div class='respDiv'><div class='respDivL'>Match<br>(e)</div><div class='respDivR'><font style='color:orange'>No Match<br>(i)</font></div></div></div>","null","FEEDBACK","","","","","","","","","","",""
"html-keyboard-response","105","706532","0.0-7.0-1.14","5d63f9cd26a2ac001758c70d","bdp_wmem","Thu Jul 28 2022 00:16:53 GMT-0400 (Eastern Daylight Time)","991808","Match,No Match","","null","","","","","","","<div class='trialBorder'><div class='vertical-center'><img src='img/fixation2_sml.jpg'</img></div></div>","null","FIX","","","","","","","","","","",""
"html-keyboard-response","106","709534","0.0-7.0-2.14","5d63f9cd26a2ac001758c70d","bdp_wmem","Thu Jul 28 2022 00:16:53 GMT-0400 (Eastern Daylight Time)","991808","Match,No Match","","null","","","","","","","<div class='trialBorder'><div class='vertical-center'><img style='vertical-align:center; align:center' src='img/fixation2_sml.jpg'></div><div class='arrayDiv2'><div class='tl'><img class='introPic' src='trustrating_stim/white_mw040.bmp'><br><font color='green'><strong>Share</strong></font></div><div class='tr'><img class='introPic' src='trustrating_stim/white_mw038.bmp'><br><font color='red'><strong>Keep</strong></font></div></div></div>","null","ARRAY","2","trustrating_stim/white_mw040.bmp,trustrating_stim/white_mw038.bmp","1,0","noMatchFace","i","3000","","","","",""
"html-keyboard-response","107","713535","0.0-7.0-3.14","5d63f9cd26a2ac001758c70d","bdp_wmem","Thu Jul 28 2022 00:16:53 GMT-0400 (Eastern Daylight Time)","991808","Match,No Match","","null","","","","","","","<div class='trialBorder'><div class='vertical-center'><img src='img/fixation2_sml.jpg'</img></div></div>","null","DELAY","","","","","","","","","","",""
"html-keyboard-response","108","713752","0.0-7.0-4.14","5d63f9cd26a2ac001758c70d","bdp_wmem","Thu Jul 28 2022 00:16:53 GMT-0400 (Eastern Daylight Time)","991808","Match,No Match","","216","","","","","","","<div class='trialBorder'><div class='targDiv'><div class='tc'><img class='introPic' src='trustrating_stim/white_mw085.bmp'><br><font color='red'><strong>Keep</strong></font></div></div><div class='respDiv'><div class='respDivL'>Match<br>(e)</div><div class='respDivR'>No Match<br>(i)</div></div></div>","e","TARGET","2","trustrating_stim/white_mw040.bmp,trustrating_stim/white_mw038.bmp","1,0","noMatchFace","i","3000","trustrating_stim/white_mw085.bmp","red","Keep","REAL","0"
"html-keyboard-response","109","714254","0.0-7.0-5.14","5d63f9cd26a2ac001758c70d","bdp_wmem","Thu Jul 28 2022 00:16:53 GMT-0400 (Eastern Daylight Time)","991808","Match,No Match","","null","","","","","","","<div class='trialBorder'><div class='vertical-center'><img src='img/error.jpg'></div><div class='respDiv'><div class='respDivL'><font style='color:orange'>Match<br>(e)</font></div><div class='respDivR'>No Match<br>(i)</div></div></div>","null","FEEDBACK","","","","","","","","","","",""
"html-keyboard-response","110","714755","0.0-7.0-1.15","5d63f9cd26a2ac001758c70d","bdp_wmem","Thu Jul 28 2022 00:16:53 GMT-0400 (Eastern Daylight Time)","991808","Match,No Match","","null","","","","","","","<div class='trialBorder'><div class='vertical-center'><img src='img/fixation2_sml.jpg'</img></div></div>","null","FIX","","","","","","","","","","",""
"html-keyboard-response","111","716256","0.0-7.0-2.15","5d63f9cd26a2ac001758c70d","bdp_wmem","Thu Jul 28 2022 00:16:53 GMT-0400 (Eastern Daylight Time)","991808","Match,No Match","","null","","","","","","","<div class='trialBorder'><div class='vertical-center'><img style='vertical-align:center; align:center' src='img/fixation2_sml.jpg'></div><div class='arrayDiv1'><div class='tc'><img class='introPic' src='trustrating_stim/white_mw038.bmp'><br><font color='red'><strong>Keep</strong></font></div></div></div>","null","ARRAY","1","trustrating_stim/white_mw038.bmp","0","Match","e","1500","","","","",""
"html-keyboard-response","112","720258","0.0-7.0-3.15","5d63f9cd26a2ac001758c70d","bdp_wmem","Thu Jul 28 2022 00:16:53 GMT-0400 (Eastern Daylight Time)","991808","Match,No Match","","null","","","","","","","<div class='trialBorder'><div class='vertical-center'><img src='img/fixation2_sml.jpg'</img></div></div>","null","DELAY","","","","","","","","","","",""
"html-keyboard-response","113","720440","0.0-7.0-4.15","5d63f9cd26a2ac001758c70d","bdp_wmem","Thu Jul 28 2022 00:16:53 GMT-0400 (Eastern Daylight Time)","991808","Match,No Match","","181","","","","","","","<div class='trialBorder'><div class='targDiv'><div class='tc'><img class='introPic' src='trustrating_stim/white_mw038.bmp'><br><font color='red'><strong>Keep</strong></font></div></div><div class='respDiv'><div class='respDivL'>Match<br>(e)</div><div class='respDivR'>No Match<br>(i)</div></div></div>","e","TARGET","1","trustrating_stim/white_mw038.bmp","0","Match","e","1500","trustrating_stim/white_mw038.bmp","red","Keep","REAL","1"
"html-keyboard-response","114","720941","0.0-7.0-5.15","5d63f9cd26a2ac001758c70d","bdp_wmem","Thu Jul 28 2022 00:16:53 GMT-0400 (Eastern Daylight Time)","991808","Match,No Match","","null","","","","","","","<div class='trialBorder'><div class='vertical-center'><img src='img/correct.jpg'></div><div class='respDiv'><div class='respDivL'><font style='color:orange'>Match<br>(e)</font></div><div class='respDivR'>No Match<br>(i)</div></div></div>","null","FEEDBACK","","","","","","","","","","",""
"html-keyboard-response","115","721443","0.0-7.0-1.16","5d63f9cd26a2ac001758c70d","bdp_wmem","Thu Jul 28 2022 00:16:53 GMT-0400 (Eastern Daylight Time)","991808","Match,No Match","","null","","","","","","","<div class='trialBorder'><div class='vertical-center'><img src='img/fixation2_sml.jpg'</img></div></div>","null","FIX","","","","","","","","","","",""
"html-keyboard-response","116","724444","0.0-7.0-2.16","5d63f9cd26a2ac001758c70d","bdp_wmem","Thu Jul 28 2022 00:16:53 GMT-0400 (Eastern Daylight Time)","991808","Match,No Match","","null","","","","","","","<div class='trialBorder'><div class='vertical-center'><img style='vertical-align:center; align:center' src='img/fixation2_sml.jpg'></div><div class='arrayDiv2'><div class='tl'><img class='introPic' src='trustrating_stim/white_mw040.bmp'><br><font color='red'><strong>Keep</strong></font></div><div class='tr'><img class='introPic' src='trustrating_stim/white_mw085.bmp'><br><font color='green'><strong>Share</strong></font></div></div></div>","null","ARRAY","2","trustrating_stim/white_mw040.bmp,trustrating_stim/white_mw085.bmp","0,1","noMatchOutcome","i","3000","","","","",""
"html-keyboard-response","117","728446","0.0-7.0-3.16","5d63f9cd26a2ac001758c70d","bdp_wmem","Thu Jul 28 2022 00:16:53 GMT-0400 (Eastern Daylight Time)","991808","Match,No Match","","null","","","","","","","<div class='trialBorder'><div class='vertical-center'><img src='img/fixation2_sml.jpg'</img></div></div>","null","DELAY","","","","","","","","","","",""
"html-keyboard-response","118","728456","0.0-7.0-4.16","5d63f9cd26a2ac001758c70d","bdp_wmem","Thu Jul 28 2022 00:16:53 GMT-0400 (Eastern Daylight Time)","991808","Match,No Match","","9","","","","","","","<div class='trialBorder'><div class='targDiv'><div class='tc'><img class='introPic' src='trustrating_stim/white_mw085.bmp'><br><font color='red'><strong>Keep</strong></font></div></div><div class='respDiv'><div class='respDivL'>Match<br>(e)</div><div class='respDivR'>No Match<br>(i)</div></div></div>","e","TARGET","2","trustrating_stim/white_mw040.bmp,trustrating_stim/white_mw085.bmp","0,1","noMatchOutcome","i","3000","trustrating_stim/white_mw085.bmp","red","Keep","REAL","0"
"html-keyboard-response","119","728959","0.0-7.0-5.16","5d63f9cd26a2ac001758c70d","bdp_wmem","Thu Jul 28 2022 00:16:53 GMT-0400 (Eastern Daylight Time)","991808","Match,No Match","","null","","","","","","","<div class='trialBorder'><div class='vertical-center'><img src='img/error.jpg'></div><div class='respDiv'><div class='respDivL'><font style='color:orange'>Match<br>(e)</font></div><div class='respDivR'>No Match<br>(i)</div></div></div>","null","FEEDBACK","","","","","","","","","","",""
"html-keyboard-response","120","729461","0.0-7.0-1.17","5d63f9cd26a2ac001758c70d","bdp_wmem","Thu Jul 28 2022 00:16:53 GMT-0400 (Eastern Daylight Time)","991808","Match,No Match","","null","","","","","","","<div class='trialBorder'><div class='vertical-center'><img src='img/fixation2_sml.jpg'</img></div></div>","null","FIX","","","","","","","","","","",""
"html-keyboard-response","121","732463","0.0-7.0-2.17","5d63f9cd26a2ac001758c70d","bdp_wmem","Thu Jul 28 2022 00:16:53 GMT-0400 (Eastern Daylight Time)","991808","Match,No Match","","null","","","","","","","<div class='trialBorder'><div class='vertical-center'><img style='vertical-align:center; align:center' src='img/fixation2_sml.jpg'></div><div class='arrayDiv2'><div class='tl'><img class='introPic' src='trustrating_stim/white_mw040.bmp'><br><font color='red'><strong>Keep</strong></font></div><div class='tr'><img class='introPic' src='trustrating_stim/white_mw092.bmp'><br><font color='green'><strong>Share</strong></font></div></div></div>","null","ARRAY","2","trustrating_stim/white_mw040.bmp,trustrating_stim/white_mw092.bmp","0,1","Match","e","3000","","","","",""
"html-keyboard-response","122","736465","0.0-7.0-3.17","5d63f9cd26a2ac001758c70d","bdp_wmem","Thu Jul 28 2022 00:16:53 GMT-0400 (Eastern Daylight Time)","991808","Match,No Match","","null","","","","","","","<div class='trialBorder'><div class='vertical-center'><img src='img/fixation2_sml.jpg'</img></div></div>","null","DELAY","","","","","","","","","","",""
"html-keyboard-response","123","736512","0.0-7.0-4.17","5d63f9cd26a2ac001758c70d","bdp_wmem","Thu Jul 28 2022 00:16:53 GMT-0400 (Eastern Daylight Time)","991808","Match,No Match","","45","","","","","","","<div class='trialBorder'><div class='targDiv'><div class='tc'><img class='introPic' src='trustrating_stim/white_mw092.bmp'><br><font color='green'><strong>Share</strong></font></div></div><div class='respDiv'><div class='respDivL'>Match<br>(e)</div><div class='respDivR'>No Match<br>(i)</div></div></div>","e","TARGET","2","trustrating_stim/white_mw040.bmp,trustrating_stim/white_mw092.bmp","0,1","Match","e","3000","trustrating_stim/white_mw092.bmp","green","Share","REAL","1"
"html-keyboard-response","124","737014","0.0-7.0-5.17","5d63f9cd26a2ac001758c70d","bdp_wmem","Thu Jul 28 2022 00:16:53 GMT-0400 (Eastern Daylight Time)","991808","Match,No Match","","null","","","","","","","<div class='trialBorder'><div class='vertical-center'><img src='img/correct.jpg'></div><div class='respDiv'><div class='respDivL'><font style='color:orange'>Match<br>(e)</font></div><div class='respDivR'>No Match<br>(i)</div></div></div>","null","FEEDBACK","","","","","","","","","","",""
"html-keyboard-response","125","737516","0.0-7.0-1.18","5d63f9cd26a2ac001758c70d","bdp_wmem","Thu Jul 28 2022 00:16:53 GMT-0400 (Eastern Daylight Time)","991808","Match,No Match","","null","","","","","","","<div class='trialBorder'><div class='vertical-center'><img src='img/fixation2_sml.jpg'</img></div></div>","null","FIX","","","","","","","","","","",""
"html-keyboard-response","126","742017","0.0-7.0-2.18","5d63f9cd26a2ac001758c70d","bdp_wmem","Thu Jul 28 2022 00:16:53 GMT-0400 (Eastern Daylight Time)","991808","Match,No Match","","null","","","","","","","<div class='trialBorder'><div class='vertical-center'><img style='vertical-align:center; align:center' src='img/fixation2_sml.jpg'></div><div class='arrayDiv3'><div class='tl'><img class='introPic' src='trustrating_stim/white_mw038.bmp'><br><font color='green'><strong>Share</strong></font></div><div class='tc'><img class='introPic' src='trustrating_stim/white_mw091.bmp'><br><font color='red'><strong>Keep</strong></font></div><div class='tr'><img class='introPic' src='trustrating_stim/white_mw092.bmp'><br><font color='red'><strong>Keep</strong></font></div></div></div>","null","ARRAY","3","trustrating_stim/white_mw038.bmp,trustrating_stim/white_mw091.bmp,trustrating_stim/white_mw092.bmp","1,0,0","noMatchFace","i","4500","","","","",""
"html-keyboard-response","127","746019","0.0-7.0-3.18","5d63f9cd26a2ac001758c70d","bdp_wmem","Thu Jul 28 2022 00:16:53 GMT-0400 (Eastern Daylight Time)","991808","Match,No Match","","null","","","","","","","<div class='trialBorder'><div class='vertical-center'><img src='img/fixation2_sml.jpg'</img></div></div>","null","DELAY","","","","","","","","","","",""
"html-keyboard-response","128","746256","0.0-7.0-4.18","5d63f9cd26a2ac001758c70d","bdp_wmem","Thu Jul 28 2022 00:16:53 GMT-0400 (Eastern Daylight Time)","991808","Match,No Match","","236","","","","","","","<div class='trialBorder'><div class='targDiv'><div class='tc'><img class='introPic' src='trustrating_stim/white_mw010.bmp'><br><font color='green'><strong>Share</strong></font></div></div><div class='respDiv'><div class='respDivL'>Match<br>(e)</div><div class='respDivR'>No Match<br>(i)</div></div></div>","e","TARGET","3","trustrating_stim/white_mw038.bmp,trustrating_stim/white_mw091.bmp,trustrating_stim/white_mw092.bmp","1,0,0","noMatchFace","i","4500","trustrating_stim/white_mw010.bmp","green","Share","REAL","0"
"html-keyboard-response","129","746758","0.0-7.0-5.18","5d63f9cd26a2ac001758c70d","bdp_wmem","Thu Jul 28 2022 00:16:53 GMT-0400 (Eastern Daylight Time)","991808","Match,No Match","","null","","","","","","","<div class='trialBorder'><div class='vertical-center'><img src='img/error.jpg'></div><div class='respDiv'><div class='respDivL'><font style='color:orange'>Match<br>(e)</font></div><div class='respDivR'>No Match<br>(i)</div></div></div>","null","FEEDBACK","","","","","","","","","","",""
"html-keyboard-response","130","747259","0.0-7.0-1.19","5d63f9cd26a2ac001758c70d","bdp_wmem","Thu Jul 28 2022 00:16:53 GMT-0400 (Eastern Daylight Time)","991808","Match,No Match","","null","","","","","","","<div class='trialBorder'><div class='vertical-center'><img src='img/fixation2_sml.jpg'</img></div></div>","null","FIX","","","","","","","","","","",""
"html-keyboard-response","131","748761","0.0-7.0-2.19","5d63f9cd26a2ac001758c70d","bdp_wmem","Thu Jul 28 2022 00:16:53 GMT-0400 (Eastern Daylight Time)","991808","Match,No Match","","null","","","","","","","<div class='trialBorder'><div class='vertical-center'><img style='vertical-align:center; align:center' src='img/fixation2_sml.jpg'></div><div class='arrayDiv1'><div class='tc'><img class='introPic' src='trustrating_stim/white_mw003.bmp'><br><font color='red'><strong>Keep</strong></font></div></div></div>","null","ARRAY","1","trustrating_stim/white_mw003.bmp","0","noMatchOutcome","i","1500","","","","",""
"html-keyboard-response","132","752762","0.0-7.0-3.19","5d63f9cd26a2ac001758c70d","bdp_wmem","Thu Jul 28 2022 00:16:53 GMT-0400 (Eastern Daylight Time)","991808","Match,No Match","","null","","","","","","","<div class='trialBorder'><div class='vertical-center'><img src='img/fixation2_sml.jpg'</img></div></div>","null","DELAY","","","","","","","","","","",""
"html-keyboard-response","133","753008","0.0-7.0-4.19","5d63f9cd26a2ac001758c70d","bdp_wmem","Thu Jul 28 2022 00:16:53 GMT-0400 (Eastern Daylight Time)","991808","Match,No Match","","245","","","","","","","<div class='trialBorder'><div class='targDiv'><div class='tc'><img class='introPic' src='trustrating_stim/white_mw003.bmp'><br><font color='green'><strong>Share</strong></font></div></div><div class='respDiv'><div class='respDivL'>Match<br>(e)</div><div class='respDivR'>No Match<br>(i)</div></div></div>","e","TARGET","1","trustrating_stim/white_mw003.bmp","0","noMatchOutcome","i","1500","trustrating_stim/white_mw003.bmp","green","Share","REAL","0"
"html-keyboard-response","134","753510","0.0-7.0-5.19","5d63f9cd26a2ac001758c70d","bdp_wmem","Thu Jul 28 2022 00:16:53 GMT-0400 (Eastern Daylight Time)","991808","Match,No Match","","null","","","","","","","<div class='trialBorder'><div class='vertical-center'><img src='img/error.jpg'></div><div class='respDiv'><div class='respDivL'><font style='color:orange'>Match<br>(e)</font></div><div class='respDivR'>No Match<br>(i)</div></div></div>","null","FEEDBACK","","","","","","","","","","",""
"html-keyboard-response","135","754012","0.0-7.0-1.20","5d63f9cd26a2ac001758c70d","bdp_wmem","Thu Jul 28 2022 00:16:53 GMT-0400 (Eastern Daylight Time)","991808","Match,No Match","","null","","","","","","","<div class='trialBorder'><div class='vertical-center'><img src='img/fixation2_sml.jpg'</img></div></div>","null","FIX","","","","","","","","","","",""
"html-keyboard-response","136","755514","0.0-7.0-2.20","5d63f9cd26a2ac001758c70d","bdp_wmem","Thu Jul 28 2022 00:16:53 GMT-0400 (Eastern Daylight Time)","991808","Match,No Match","","null","","","","","","","<div class='trialBorder'><div class='vertical-center'><img style='vertical-align:center; align:center' src='img/fixation2_sml.jpg'></div><div class='arrayDiv1'><div class='tc'><img class='introPic' src='trustrating_stim/white_mw012.bmp'><br><font color='green'><strong>Share</strong></font></div></div></div>","null","ARRAY","1","trustrating_stim/white_mw012.bmp","1","noMatchOutcome","i","1500","","","","",""
"html-keyboard-response","137","759515","0.0-7.0-3.20","5d63f9cd26a2ac001758c70d","bdp_wmem","Thu Jul 28 2022 00:16:53 GMT-0400 (Eastern Daylight Time)","991808","Match,No Match","","null","","","","","","","<div class='trialBorder'><div class='vertical-center'><img src='img/fixation2_sml.jpg'</img></div></div>","null","DELAY","","","","","","","","","","",""
"html-keyboard-response","138","759632","0.0-7.0-4.20","5d63f9cd26a2ac001758c70d","bdp_wmem","Thu Jul 28 2022 00:16:53 GMT-0400 (Eastern Daylight Time)","991808","Match,No Match","","116","","","","","","","<div class='trialBorder'><div class='targDiv'><div class='tc'><img class='introPic' src='trustrating_stim/white_mw012.bmp'><br><font color='red'><strong>Keep</strong></font></div></div><div class='respDiv'><div class='respDivL'>Match<br>(e)</div><div class='respDivR'>No Match<br>(i)</div></div></div>","i","TARGET","1","trustrating_stim/white_mw012.bmp","1","noMatchOutcome","i","1500","trustrating_stim/white_mw012.bmp","red","Keep","REAL","1"
"html-keyboard-response","139","760135","0.0-7.0-5.20","5d63f9cd26a2ac001758c70d","bdp_wmem","Thu Jul 28 2022 00:16:53 GMT-0400 (Eastern Daylight Time)","991808","Match,No Match","","null","","","","","","","<div class='trialBorder'><div class='vertical-center'><img src='img/correct.jpg'></div><div class='respDiv'><div class='respDivL'>Match<br>(e)</div><div class='respDivR'><font style='color:orange'>No Match<br>(i)</font></div></div></div>","null","FEEDBACK","","","","","","","","","","",""
"html-keyboard-response","140","760637","0.0-7.0-1.21","5d63f9cd26a2ac001758c70d","bdp_wmem","Thu Jul 28 2022 00:16:53 GMT-0400 (Eastern Daylight Time)","991808","Match,No Match","","null","","","","","","","<div class='trialBorder'><div class='vertical-center'><img src='img/fixation2_sml.jpg'</img></div></div>","null","FIX","","","","","","","","","","",""
"html-keyboard-response","141","762139","0.0-7.0-2.21","5d63f9cd26a2ac001758c70d","bdp_wmem","Thu Jul 28 2022 00:16:53 GMT-0400 (Eastern Daylight Time)","991808","Match,No Match","","null","","","","","","","<div class='trialBorder'><div class='vertical-center'><img style='vertical-align:center; align:center' src='img/fixation2_sml.jpg'></div><div class='arrayDiv1'><div class='tc'><img class='introPic' src='trustrating_stim/white_mw091.bmp'><br><font color='red'><strong>Keep</strong></font></div></div></div>","null","ARRAY","1","trustrating_stim/white_mw091.bmp","0","Match","e","1500","","","","",""
"html-keyboard-response","142","766141","0.0-7.0-3.21","5d63f9cd26a2ac001758c70d","bdp_wmem","Thu Jul 28 2022 00:16:53 GMT-0400 (Eastern Daylight Time)","991808","Match,No Match","","null","","","","","","","<div class='trialBorder'><div class='vertical-center'><img src='img/fixation2_sml.jpg'</img></div></div>","null","DELAY","","","","","","","","","","",""
"html-keyboard-response","143","766392","0.0-7.0-4.21","5d63f9cd26a2ac001758c70d","bdp_wmem","Thu Jul 28 2022 00:16:53 GMT-0400 (Eastern Daylight Time)","991808","Match,No Match","","250","","","","","","","<div class='trialBorder'><div class='targDiv'><div class='tc'><img class='introPic' src='trustrating_stim/white_mw091.bmp'><br><font color='red'><strong>Keep</strong></font></div></div><div class='respDiv'><div class='respDivL'>Match<br>(e)</div><div class='respDivR'>No Match<br>(i)</div></div></div>","e","TARGET","1","trustrating_stim/white_mw091.bmp","0","Match","e","1500","trustrating_stim/white_mw091.bmp","red","Keep","REAL","1"
"html-keyboard-response","144","766894","0.0-7.0-5.21","5d63f9cd26a2ac001758c70d","bdp_wmem","Thu Jul 28 2022 00:16:53 GMT-0400 (Eastern Daylight Time)","991808","Match,No Match","","null","","","","","","","<div class='trialBorder'><div class='vertical-center'><img src='img/correct.jpg'></div><div class='respDiv'><div class='respDivL'><font style='color:orange'>Match<br>(e)</font></div><div class='respDivR'>No Match<br>(i)</div></div></div>","null","FEEDBACK","","","","","","","","","","",""
"html-keyboard-response","145","767395","0.0-7.0-1.22","5d63f9cd26a2ac001758c70d","bdp_wmem","Thu Jul 28 2022 00:16:53 GMT-0400 (Eastern Daylight Time)","991808","Match,No Match","","null","","","","","","","<div class='trialBorder'><div class='vertical-center'><img src='img/fixation2_sml.jpg'</img></div></div>","null","FIX","","","","","","","","","","",""
"html-keyboard-response","146","771898","0.0-7.0-2.22","5d63f9cd26a2ac001758c70d","bdp_wmem","Thu Jul 28 2022 00:16:53 GMT-0400 (Eastern Daylight Time)","991808","Match,No Match","","null","","","","","","","<div class='trialBorder'><div class='vertical-center'><img style='vertical-align:center; align:center' src='img/fixation2_sml.jpg'></div><div class='arrayDiv3'><div class='tl'><img class='introPic' src='trustrating_stim/white_mw012.bmp'><br><font color='red'><strong>Keep</strong></font></div><div class='tc'><img class='introPic' src='trustrating_stim/white_mw070.bmp'><br><font color='green'><strong>Share</strong></font></div><div class='tr'><img class='introPic' src='trustrating_stim/white_mw013.bmp'><br><font color='red'><strong>Keep</strong></font></div></div></div>","null","ARRAY","3","trustrating_stim/white_mw012.bmp,trustrating_stim/white_mw070.bmp,trustrating_stim/white_mw013.bmp","0,1,0","noMatchFace","i","4500","","","","",""
"html-keyboard-response","147","775900","0.0-7.0-3.22","5d63f9cd26a2ac001758c70d","bdp_wmem","Thu Jul 28 2022 00:16:53 GMT-0400 (Eastern Daylight Time)","991808","Match,No Match","","null","","","","","","","<div class='trialBorder'><div class='vertical-center'><img src='img/fixation2_sml.jpg'</img></div></div>","null","DELAY","","","","","","","","","","",""
"html-keyboard-response","148","776040","0.0-7.0-4.22","5d63f9cd26a2ac001758c70d","bdp_wmem","Thu Jul 28 2022 00:16:53 GMT-0400 (Eastern Daylight Time)","991808","Match,No Match","","139","","","","","","","<div class='trialBorder'><div class='targDiv'><div class='tc'><img class='introPic' src='trustrating_stim/white_mw091.bmp'><br><font color='red'><strong>Keep</strong></font></div></div><div class='respDiv'><div class='respDivL'>Match<br>(e)</div><div class='respDivR'>No Match<br>(i)</div></div></div>","e","TARGET","3","trustrating_stim/white_mw012.bmp,trustrating_stim/white_mw070.bmp,trustrating_stim/white_mw013.bmp","0,1,0","noMatchFace","i","4500","trustrating_stim/white_mw091.bmp","red","Keep","REAL","0"
"html-keyboard-response","149","776541","0.0-7.0-5.22","5d63f9cd26a2ac001758c70d","bdp_wmem","Thu Jul 28 2022 00:16:53 GMT-0400 (Eastern Daylight Time)","991808","Match,No Match","","null","","","","","","","<div class='trialBorder'><div class='vertical-center'><img src='img/error.jpg'></div><div class='respDiv'><div class='respDivL'><font style='color:orange'>Match<br>(e)</font></div><div class='respDivR'>No Match<br>(i)</div></div></div>","null","FEEDBACK","","","","","","","","","","",""
"html-keyboard-response","150","777042","0.0-7.0-1.23","5d63f9cd26a2ac001758c70d","bdp_wmem","Thu Jul 28 2022 00:16:53 GMT-0400 (Eastern Daylight Time)","991808","Match,No Match","","null","","","","","","","<div class='trialBorder'><div class='vertical-center'><img src='img/fixation2_sml.jpg'</img></div></div>","null","FIX","","","","","","","","","","",""
"html-keyboard-response","151","780045","0.0-7.0-2.23","5d63f9cd26a2ac001758c70d","bdp_wmem","Thu Jul 28 2022 00:16:53 GMT-0400 (Eastern Daylight Time)","991808","Match,No Match","","null","","","","","","","<div class='trialBorder'><div class='vertical-center'><img style='vertical-align:center; align:center' src='img/fixation2_sml.jpg'></div><div class='arrayDiv2'><div class='tl'><img class='introPic' src='trustrating_stim/white_mw038.bmp'><br><font color='red'><strong>Keep</strong></font></div><div class='tr'><img class='introPic' src='trustrating_stim/white_mw042.bmp'><br><font color='green'><strong>Share</strong></font></div></div></div>","null","ARRAY","2","trustrating_stim/white_mw038.bmp,trustrating_stim/white_mw042.bmp","0,1","noMatchFace","i","3000","","","","",""
"html-keyboard-response","152","784046","0.0-7.0-3.23","5d63f9cd26a2ac001758c70d","bdp_wmem","Thu Jul 28 2022 00:16:53 GMT-0400 (Eastern Daylight Time)","991808","Match,No Match","","null","","","","","","","<div class='trialBorder'><div class='vertical-center'><img src='img/fixation2_sml.jpg'</img></div></div>","null","DELAY","","","","","","","","","","",""
"html-keyboard-response","153","785096","0.0-7.0-4.23","5d63f9cd26a2ac001758c70d","bdp_wmem","Thu Jul 28 2022 00:16:53 GMT-0400 (Eastern Daylight Time)","991808","Match,No Match","","1049","","","","","","","<div class='trialBorder'><div class='targDiv'><div class='tc'><img class='introPic' src='trustrating_stim/white_mw010.bmp'><br><font color='green'><strong>Share</strong></font></div></div><div class='respDiv'><div class='respDivL'>Match<br>(e)</div><div class='respDivR'>No Match<br>(i)</div></div></div>","i","TARGET","2","trustrating_stim/white_mw038.bmp,trustrating_stim/white_mw042.bmp","0,1","noMatchFace","i","3000","trustrating_stim/white_mw010.bmp","green","Share","REAL","1"
"html-keyboard-response","154","785597","0.0-7.0-5.23","5d63f9cd26a2ac001758c70d","bdp_wmem","Thu Jul 28 2022 00:16:53 GMT-0400 (Eastern Daylight Time)","991808","Match,No Match","","null","","","","","","","<div class='trialBorder'><div class='vertical-center'><img src='img/correct.jpg'></div><div class='respDiv'><div class='respDivL'>Match<br>(e)</div><div class='respDivR'><font style='color:orange'>No Match<br>(i)</font></div></div></div>","null","FEEDBACK","","","","","","","","","","",""
"html-keyboard-response","155","786099","0.0-7.0-1.24","5d63f9cd26a2ac001758c70d","bdp_wmem","Thu Jul 28 2022 00:16:53 GMT-0400 (Eastern Daylight Time)","991808","Match,No Match","","null","","","","","","","<div class='trialBorder'><div class='vertical-center'><img src='img/fixation2_sml.jpg'</img></div></div>","null","FIX","","","","","","","","","","",""
"html-keyboard-response","156","790601","0.0-7.0-2.24","5d63f9cd26a2ac001758c70d","bdp_wmem","Thu Jul 28 2022 00:16:53 GMT-0400 (Eastern Daylight Time)","991808","Match,No Match","","null","","","","","","","<div class='trialBorder'><div class='vertical-center'><img style='vertical-align:center; align:center' src='img/fixation2_sml.jpg'></div><div class='arrayDiv3'><div class='tl'><img class='introPic' src='trustrating_stim/white_mw040.bmp'><br><font color='red'><strong>Keep</strong></font></div><div class='tc'><img class='introPic' src='trustrating_stim/white_mw013.bmp'><br><font color='green'><strong>Share</strong></font></div><div class='tr'><img class='introPic' src='trustrating_stim/white_mw078.bmp'><br><font color='red'><strong>Keep</strong></font></div></div></div>","null","ARRAY","3","trustrating_stim/white_mw040.bmp,trustrating_stim/white_mw013.bmp,trustrating_stim/white_mw078.bmp","0,1,0","Match","e","4500","","","","",""
"html-keyboard-response","157","794603","0.0-7.0-3.24","5d63f9cd26a2ac001758c70d","bdp_wmem","Thu Jul 28 2022 00:16:53 GMT-0400 (Eastern Daylight Time)","991808","Match,No Match","","null","","","","","","","<div class='trialBorder'><div class='vertical-center'><img src='img/fixation2_sml.jpg'</img></div></div>","null","DELAY","","","","","","","","","","",""
"html-keyboard-response","158","794632","0.0-7.0-4.24","5d63f9cd26a2ac001758c70d","bdp_wmem","Thu Jul 28 2022 00:16:53 GMT-0400 (Eastern Daylight Time)","991808","Match,No Match","","28","","","","","","","<div class='trialBorder'><div class='targDiv'><div class='tc'><img class='introPic' src='trustrating_stim/white_mw078.bmp'><br><font color='red'><strong>Keep</strong></font></div></div><div class='respDiv'><div class='respDivL'>Match<br>(e)</div><div class='respDivR'>No Match<br>(i)</div></div></div>","i","TARGET","3","trustrating_stim/white_mw040.bmp,trustrating_stim/white_mw013.bmp,trustrating_stim/white_mw078.bmp","0,1,0","Match","e","4500","trustrating_stim/white_mw078.bmp","red","Keep","REAL","0"
"html-keyboard-response","159","795133","0.0-7.0-5.24","5d63f9cd26a2ac001758c70d","bdp_wmem","Thu Jul 28 2022 00:16:53 GMT-0400 (Eastern Daylight Time)","991808","Match,No Match","","null","","","","","","","<div class='trialBorder'><div class='vertical-center'><img src='img/error.jpg'></div><div class='respDiv'><div class='respDivL'>Match<br>(e)</div><div class='respDivR'><font style='color:orange'>No Match<br>(i)</font></div></div></div>","null","FEEDBACK","","","","","","","","","","",""
"html-keyboard-response","160","795635","0.0-7.0-1.25","5d63f9cd26a2ac001758c70d","bdp_wmem","Thu Jul 28 2022 00:16:53 GMT-0400 (Eastern Daylight Time)","991808","Match,No Match","","null","","","","","","","<div class='trialBorder'><div class='vertical-center'><img src='img/fixation2_sml.jpg'</img></div></div>","null","FIX","","","","","","","","","","",""
"html-keyboard-response","161","800137","0.0-7.0-2.25","5d63f9cd26a2ac001758c70d","bdp_wmem","Thu Jul 28 2022 00:16:53 GMT-0400 (Eastern Daylight Time)","991808","Match,No Match","","null","","","","","","","<div class='trialBorder'><div class='vertical-center'><img style='vertical-align:center; align:center' src='img/fixation2_sml.jpg'></div><div class='arrayDiv3'><div class='tl'><img class='introPic' src='trustrating_stim/white_mw042.bmp'><br><font color='green'><strong>Share</strong></font></div><div class='tc'><img class='introPic' src='trustrating_stim/white_mw013.bmp'><br><font color='green'><strong>Share</strong></font></div><div class='tr'><img class='introPic' src='trustrating_stim/white_mw038.bmp'><br><font color='red'><strong>Keep</strong></font></div></div></div>","null","ARRAY","3","trustrating_stim/white_mw042.bmp,trustrating_stim/white_mw013.bmp,trustrating_stim/white_mw038.bmp","1,1,0","Match","e","4500","","","","",""
"html-keyboard-response","162","804139","0.0-7.0-3.25","5d63f9cd26a2ac001758c70d","bdp_wmem","Thu Jul 28 2022 00:16:53 GMT-0400 (Eastern Daylight Time)","991808","Match,No Match","","null","","","","","","","<div class='trialBorder'><div class='vertical-center'><img src='img/fixation2_sml.jpg'</img></div></div>","null","DELAY","","","","","","","","","","",""
"html-keyboard-response","163","804216","0.0-7.0-4.25","5d63f9cd26a2ac001758c70d","bdp_wmem","Thu Jul 28 2022 00:16:53 GMT-0400 (Eastern Daylight Time)","991808","Match,No Match","","76","","","","","","","<div class='trialBorder'><div class='targDiv'><div class='tc'><img class='introPic' src='trustrating_stim/white_mw042.bmp'><br><font color='green'><strong>Share</strong></font></div></div><div class='respDiv'><div class='respDivL'>Match<br>(e)</div><div class='respDivR'>No Match<br>(i)</div></div></div>","e","TARGET","3","trustrating_stim/white_mw042.bmp,trustrating_stim/white_mw013.bmp,trustrating_stim/white_mw038.bmp","1,1,0","Match","e","4500","trustrating_stim/white_mw042.bmp","green","Share","REAL","1"
"html-keyboard-response","164","804717","0.0-7.0-5.25","5d63f9cd26a2ac001758c70d","bdp_wmem","Thu Jul 28 2022 00:16:53 GMT-0400 (Eastern Daylight Time)","991808","Match,No Match","","null","","","","","","","<div class='trialBorder'><div class='vertical-center'><img src='img/correct.jpg'></div><div class='respDiv'><div class='respDivL'><font style='color:orange'>Match<br>(e)</font></div><div class='respDivR'>No Match<br>(i)</div></div></div>","null","FEEDBACK","","","","","","","","","","",""
"html-keyboard-response","165","805220","0.0-7.0-1.26","5d63f9cd26a2ac001758c70d","bdp_wmem","Thu Jul 28 2022 00:16:53 GMT-0400 (Eastern Daylight Time)","991808","Match,No Match","","null","","","","","","","<div class='trialBorder'><div class='vertical-center'><img src='img/fixation2_sml.jpg'</img></div></div>","null","FIX","","","","","","","","","","",""
"html-keyboard-response","166","809721","0.0-7.0-2.26","5d63f9cd26a2ac001758c70d","bdp_wmem","Thu Jul 28 2022 00:16:53 GMT-0400 (Eastern Daylight Time)","991808","Match,No Match","","null","","","","","","","<div class='trialBorder'><div class='vertical-center'><img style='vertical-align:center; align:center' src='img/fixation2_sml.jpg'></div><div class='arrayDiv3'><div class='tl'><img class='introPic' src='trustrating_stim/white_mw013.bmp'><br><font color='red'><strong>Keep</strong></font></div><div class='tc'><img class='introPic' src='trustrating_stim/white_mw091.bmp'><br><font color='green'><strong>Share</strong></font></div><div class='tr'><img class='introPic' src='trustrating_stim/white_mw040.bmp'><br><font color='green'><strong>Share</strong></font></div></div></div>","null","ARRAY","3","trustrating_stim/white_mw013.bmp,trustrating_stim/white_mw091.bmp,trustrating_stim/white_mw040.bmp","0,1,1","Match","e","4500","","","","",""
"html-keyboard-response","167","813723","0.0-7.0-3.26","5d63f9cd26a2ac001758c70d","bdp_wmem","Thu Jul 28 2022 00:16:53 GMT-0400 (Eastern Daylight Time)","991808","Match,No Match","","null","","","","","","","<div class='trialBorder'><div class='vertical-center'><img src='img/fixation2_sml.jpg'</img></div></div>","null","DELAY","","","","","","","","","","",""
"html-keyboard-response","168","813976","0.0-7.0-4.26","5d63f9cd26a2ac001758c70d","bdp_wmem","Thu Jul 28 2022 00:16:53 GMT-0400 (Eastern Daylight Time)","991808","Match,No Match","","252","","","","","","","<div class='trialBorder'><div class='targDiv'><div class='tc'><img class='introPic' src='trustrating_stim/white_mw091.bmp'><br><font color='green'><strong>Share</strong></font></div></div><div class='respDiv'><div class='respDivL'>Match<br>(e)</div><div class='respDivR'>No Match<br>(i)</div></div></div>","e","TARGET","3","trustrating_stim/white_mw013.bmp,trustrating_stim/white_mw091.bmp,trustrating_stim/white_mw040.bmp","0,1,1","Match","e","4500","trustrating_stim/white_mw091.bmp","green","Share","REAL","1"
"html-keyboard-response","169","814477","0.0-7.0-5.26","5d63f9cd26a2ac001758c70d","bdp_wmem","Thu Jul 28 2022 00:16:53 GMT-0400 (Eastern Daylight Time)","991808","Match,No Match","","null","","","","","","","<div class='trialBorder'><div class='vertical-center'><img src='img/correct.jpg'></div><div class='respDiv'><div class='respDivL'><font style='color:orange'>Match<br>(e)</font></div><div class='respDivR'>No Match<br>(i)</div></div></div>","null","FEEDBACK","","","","","","","","","","",""
"html-keyboard-response","170","814979","0.0-7.0-1.27","5d63f9cd26a2ac001758c70d","bdp_wmem","Thu Jul 28 2022 00:16:53 GMT-0400 (Eastern Daylight Time)","991808","Match,No Match","","null","","","","","","","<div class='trialBorder'><div class='vertical-center'><img src='img/fixation2_sml.jpg'</img></div></div>","null","FIX","","","","","","","","","","",""
"html-keyboard-response","171","819487","0.0-7.0-2.27","5d63f9cd26a2ac001758c70d","bdp_wmem","Thu Jul 28 2022 00:16:53 GMT-0400 (Eastern Daylight Time)","991808","Match,No Match","","null","","","","","","","<div class='trialBorder'><div class='vertical-center'><img style='vertical-align:center; align:center' src='img/fixation2_sml.jpg'></div><div class='arrayDiv3'><div class='tl'><img class='introPic' src='trustrating_stim/white_mw003.bmp'><br><font color='red'><strong>Keep</strong></font></div><div class='tc'><img class='introPic' src='trustrating_stim/white_mw091.bmp'><br><font color='green'><strong>Share</strong></font></div><div class='tr'><img class='introPic' src='trustrating_stim/white_mw085.bmp'><br><font color='red'><strong>Keep</strong></font></div></div></div>","null","ARRAY","3","trustrating_stim/white_mw003.bmp,trustrating_stim/white_mw091.bmp,trustrating_stim/white_mw085.bmp","0,1,0","noMatchOutcome","i","4500","","","","",""
"html-keyboard-response","172","823489","0.0-7.0-3.27","5d63f9cd26a2ac001758c70d","bdp_wmem","Thu Jul 28 2022 00:16:53 GMT-0400 (Eastern Daylight Time)","991808","Match,No Match","","null","","","","","","","<div class='trialBorder'><div class='vertical-center'><img src='img/fixation2_sml.jpg'</img></div></div>","null","DELAY","","","","","","","","","","",""
"html-keyboard-response","173","824232","0.0-7.0-4.27","5d63f9cd26a2ac001758c70d","bdp_wmem","Thu Jul 28 2022 00:16:53 GMT-0400 (Eastern Daylight Time)","991808","Match,No Match","","742","","","","","","","<div class='trialBorder'><div class='targDiv'><div class='tc'><img class='introPic' src='trustrating_stim/white_mw003.bmp'><br><font color='green'><strong>Share</strong></font></div></div><div class='respDiv'><div class='respDivL'>Match<br>(e)</div><div class='respDivR'>No Match<br>(i)</div></div></div>","e","TARGET","3","trustrating_stim/white_mw003.bmp,trustrating_stim/white_mw091.bmp,trustrating_stim/white_mw085.bmp","0,1,0","noMatchOutcome","i","4500","trustrating_stim/white_mw003.bmp","green","Share","REAL","0"
"html-keyboard-response","174","824733","0.0-7.0-5.27","5d63f9cd26a2ac001758c70d","bdp_wmem","Thu Jul 28 2022 00:16:53 GMT-0400 (Eastern Daylight Time)","991808","Match,No Match","","null","","","","","","","<div class='trialBorder'><div class='vertical-center'><img src='img/error.jpg'></div><div class='respDiv'><div class='respDivL'><font style='color:orange'>Match<br>(e)</font></div><div class='respDivR'>No Match<br>(i)</div></div></div>","null","FEEDBACK","","","","","","","","","","",""
"html-keyboard-response","175","825235","0.0-7.0-1.28","5d63f9cd26a2ac001758c70d","bdp_wmem","Thu Jul 28 2022 00:16:53 GMT-0400 (Eastern Daylight Time)","991808","Match,No Match","","null","","","","","","","<div class='trialBorder'><div class='vertical-center'><img src='img/fixation2_sml.jpg'</img></div></div>","null","FIX","","","","","","","","","","",""
"html-keyboard-response","176","829737","0.0-7.0-2.28","5d63f9cd26a2ac001758c70d","bdp_wmem","Thu Jul 28 2022 00:16:53 GMT-0400 (Eastern Daylight Time)","991808","Match,No Match","","null","","","","","","","<div class='trialBorder'><div class='vertical-center'><img style='vertical-align:center; align:center' src='img/fixation2_sml.jpg'></div><div class='arrayDiv3'><div class='tl'><img class='introPic' src='trustrating_stim/white_mw003.bmp'><br><font color='red'><strong>Keep</strong></font></div><div class='tc'><img class='introPic' src='trustrating_stim/white_mw085.bmp'><br><font color='green'><strong>Share</strong></font></div><div class='tr'><img class='introPic' src='trustrating_stim/white_mw038.bmp'><br><font color='red'><strong>Keep</strong></font></div></div></div>","null","ARRAY","3","trustrating_stim/white_mw003.bmp,trustrating_stim/white_mw085.bmp,trustrating_stim/white_mw038.bmp","0,1,0","noMatchFace","i","4500","","","","",""
"html-keyboard-response","177","833739","0.0-7.0-3.28","5d63f9cd26a2ac001758c70d","bdp_wmem","Thu Jul 28 2022 00:16:53 GMT-0400 (Eastern Daylight Time)","991808","Match,No Match","","null","","","","","","","<div class='trialBorder'><div class='vertical-center'><img src='img/fixation2_sml.jpg'</img></div></div>","null","DELAY","","","","","","","","","","",""
"html-keyboard-response","178","833752","0.0-7.0-4.28","5d63f9cd26a2ac001758c70d","bdp_wmem","Thu Jul 28 2022 00:16:53 GMT-0400 (Eastern Daylight Time)","991808","Match,No Match","","12","","","","","","","<div class='trialBorder'><div class='targDiv'><div class='tc'><img class='introPic' src='trustrating_stim/white_mw070.bmp'><br><font color='green'><strong>Share</strong></font></div></div><div class='respDiv'><div class='respDivL'>Match<br>(e)</div><div class='respDivR'>No Match<br>(i)</div></div></div>","i","TARGET","3","trustrating_stim/white_mw003.bmp,trustrating_stim/white_mw085.bmp,trustrating_stim/white_mw038.bmp","0,1,0","noMatchFace","i","4500","trustrating_stim/white_mw070.bmp","green","Share","REAL","1"
"html-keyboard-response","179","834254","0.0-7.0-5.28","5d63f9cd26a2ac001758c70d","bdp_wmem","Thu Jul 28 2022 00:16:53 GMT-0400 (Eastern Daylight Time)","991808","Match,No Match","","null","","","","","","","<div class='trialBorder'><div class='vertical-center'><img src='img/correct.jpg'></div><div class='respDiv'><div class='respDivL'>Match<br>(e)</div><div class='respDivR'><font style='color:orange'>No Match<br>(i)</font></div></div></div>","null","FEEDBACK","","","","","","","","","","",""
"html-keyboard-response","180","834756","0.0-7.0-1.29","5d63f9cd26a2ac001758c70d","bdp_wmem","Thu Jul 28 2022 00:16:53 GMT-0400 (Eastern Daylight Time)","991808","Match,No Match","","null","","","","","","","<div class='trialBorder'><div class='vertical-center'><img src='img/fixation2_sml.jpg'</img></div></div>","null","FIX","","","","","","","","","","",""
"html-keyboard-response","181","837758","0.0-7.0-2.29","5d63f9cd26a2ac001758c70d","bdp_wmem","Thu Jul 28 2022 00:16:53 GMT-0400 (Eastern Daylight Time)","991808","Match,No Match","","null","","","","","","","<div class='trialBorder'><div class='vertical-center'><img style='vertical-align:center; align:center' src='img/fixation2_sml.jpg'></div><div class='arrayDiv2'><div class='tl'><img class='introPic' src='trustrating_stim/white_mw091.bmp'><br><font color='red'><strong>Keep</strong></font></div><div class='tr'><img class='introPic' src='trustrating_stim/white_mw013.bmp'><br><font color='green'><strong>Share</strong></font></div></div></div>","null","ARRAY","2","trustrating_stim/white_mw091.bmp,trustrating_stim/white_mw013.bmp","0,1","noMatchOutcome","i","3000","","","","",""
"html-keyboard-response","182","841759","0.0-7.0-3.29","5d63f9cd26a2ac001758c70d","bdp_wmem","Thu Jul 28 2022 00:16:53 GMT-0400 (Eastern Daylight Time)","991808","Match,No Match","","null","","","","","","","<div class='trialBorder'><div class='vertical-center'><img src='img/fixation2_sml.jpg'</img></div></div>","null","DELAY","","","","","","","","","","",""
"html-keyboard-response","183","841936","0.0-7.0-4.29","5d63f9cd26a2ac001758c70d","bdp_wmem","Thu Jul 28 2022 00:16:53 GMT-0400 (Eastern Daylight Time)","991808","Match,No Match","","175","","","","","","","<div class='trialBorder'><div class='targDiv'><div class='tc'><img class='introPic' src='trustrating_stim/white_mw013.bmp'><br><font color='red'><strong>Keep</strong></font></div></div><div class='respDiv'><div class='respDivL'>Match<br>(e)</div><div class='respDivR'>No Match<br>(i)</div></div></div>","i","TARGET","2","trustrating_stim/white_mw091.bmp,trustrating_stim/white_mw013.bmp","0,1","noMatchOutcome","i","3000","trustrating_stim/white_mw013.bmp","red","Keep","REAL","1"
"html-keyboard-response","184","842437","0.0-7.0-5.29","5d63f9cd26a2ac001758c70d","bdp_wmem","Thu Jul 28 2022 00:16:53 GMT-0400 (Eastern Daylight Time)","991808","Match,No Match","","null","","","","","","","<div class='trialBorder'><div class='vertical-center'><img src='img/correct.jpg'></div><div class='respDiv'><div class='respDivL'>Match<br>(e)</div><div class='respDivR'><font style='color:orange'>No Match<br>(i)</font></div></div></div>","null","FEEDBACK","","","","","","","","","","",""
"html-keyboard-response","185","842939","0.0-7.0-1.30","5d63f9cd26a2ac001758c70d","bdp_wmem","Thu Jul 28 2022 00:16:53 GMT-0400 (Eastern Daylight Time)","991808","Match,No Match","","null","","","","","","","<div class='trialBorder'><div class='vertical-center'><img src='img/fixation2_sml.jpg'</img></div></div>","null","FIX","","","","","","","","","","",""
