"trial_type","trial_index","time_elapsed","internal_node_id","subject_id","task","startTime","totalTime","labels","view_history","rt","event","trial","time","trialtype","success","stimulus","key_press","stimType","arraySize","arrayFaces","arrayOutcomes","matchType","corrResp","arrayDur","targFace","targCol","targOutcome","trialType","corr"
"pavlovia","0","11","0.0-0.0","5c59d8105bbd810001fb26de","bdp_wmem","Mon Mar 13 2023 14:13:06 GMT-0500 (Central Daylight Time)","839660","Match,No Match","","","","","","","","","","","","","","","","","","","","",""
"instructions","1","4424","0.0-1.0","5c59d8105bbd810001fb26de","bdp_wmem","Mon Mar 13 2023 14:13:06 GMT-0500 (Central Daylight Time)","839660","Match,No Match","[{""page_index"":0,""viewing_time"":4411}]","4411","","","","","","","","","","","","","","","","","","",""
"","","","","5c59d8105bbd810001fb26de","bdp_wmem","Mon Mar 13 2023 14:13:06 GMT-0500 (Central Daylight Time)","839660","Match,No Match","","","fullscreenenter","2","6834","fullscreenenter","","","","","","","","","","","","","","",""
"fullscreen","2","7818","0.0-2.0","5c59d8105bbd810001fb26de","bdp_wmem","Mon Mar 13 2023 14:13:06 GMT-0500 (Central Daylight Time)","839660","Match,No Match","","","","","","","true","","","","","","","","","","","","","",""
"instructions","3","208739","0.0-4.0","5c59d8105bbd810001fb26de","bdp_wmem","Mon Mar 13 2023 14:13:06 GMT-0500 (Central Daylight Time)","839660","Match,No Match","[{""page_index"":0,""viewing_time"":31394},{""page_index"":1,""viewing_time"":95154},{""page_index"":2,""viewing_time"":11224},{""page_index"":3,""viewing_time"":36604},{""page_index"":4,""viewing_time"":26543}]","200919","","","","","","","","","","","","","","","","","","",""
"html-keyboard-response","4","209244","0.0-5.0-1.0","5c59d8105bbd810001fb26de","bdp_wmem","Mon Mar 13 2023 14:13:06 GMT-0500 (Central Daylight Time)","839660","Match,No Match","","null","","","","","","<div class='trialBorder'><div class='vertical-center'><img src='img/fixation2_sml.jpg'</img></div></div>","null","FIX","","","","","","","","","","",""
"html-keyboard-response","5","212247","0.0-5.0-2.0","5c59d8105bbd810001fb26de","bdp_wmem","Mon Mar 13 2023 14:13:06 GMT-0500 (Central Daylight Time)","839660","Match,No Match","","null","","","","","","<div class='trialBorder'><div class='vertical-center'><img style='vertical-align:center; align:center' src='img/fixation2_sml.jpg'></div><div class='arrayDiv2'><div class='tl'><img class='introPic' src='trustrating_stim/white_mw012.bmp'><br><font color='red'><strong>Keep</strong></font></div><div class='tr'><img class='introPic' src='trustrating_stim/white_mw070.bmp'><br><font color='green'><strong>Share</strong></font></div></div></div>","null","ARRAY","2","trustrating_stim/white_mw012.bmp,trustrating_stim/white_mw070.bmp","0,1","noMatchFace","i","3000","","","","",""
"html-keyboard-response","6","216250","0.0-5.0-3.0","5c59d8105bbd810001fb26de","bdp_wmem","Mon Mar 13 2023 14:13:06 GMT-0500 (Central Daylight Time)","839660","Match,No Match","","null","","","","","","<div class='trialBorder'><div class='vertical-center'><img src='img/fixation2_sml.jpg'</img></div></div>","null","DELAY","","","","","","","","","","",""
"html-keyboard-response","7","223257","0.0-5.0-4.0","5c59d8105bbd810001fb26de","bdp_wmem","Mon Mar 13 2023 14:13:06 GMT-0500 (Central Daylight Time)","839660","Match,No Match","","7005","","","","","","<div class='trialBorder'><div class='targDiv'><div class='tc'><img class='introPic' src='trustrating_stim/white_mw085.bmp'><br><font color='green'><strong>Share</strong></font></div></div><div class='respDiv'><div class='respDivL'>Match<br>(e)</div><div class='respDivR'>No Match<br>(i)</div></div></div>","e","TARGET","2","trustrating_stim/white_mw012.bmp,trustrating_stim/white_mw070.bmp","0,1","noMatchFace","i","3000","trustrating_stim/white_mw085.bmp","green","Share","PRACTICE","0"
"html-keyboard-response","8","223760","0.0-5.0-5.0","5c59d8105bbd810001fb26de","bdp_wmem","Mon Mar 13 2023 14:13:06 GMT-0500 (Central Daylight Time)","839660","Match,No Match","","null","","","","","","<div class='trialBorder'><div class='vertical-center'><img src='img/error.jpg'></div><div class='respDiv'><div class='respDivL'><font style='color:orange'>Match<br>(e)</font></div><div class='respDivR'>No Match<br>(i)</div></div></div>","null","FEEDBACK","","","","","","","","","","",""
"html-keyboard-response","9","224264","0.0-5.0-1.1","5c59d8105bbd810001fb26de","bdp_wmem","Mon Mar 13 2023 14:13:06 GMT-0500 (Central Daylight Time)","839660","Match,No Match","","null","","","","","","<div class='trialBorder'><div class='vertical-center'><img src='img/fixation2_sml.jpg'</img></div></div>","null","FIX","","","","","","","","","","",""
"html-keyboard-response","10","225767","0.0-5.0-2.1","5c59d8105bbd810001fb26de","bdp_wmem","Mon Mar 13 2023 14:13:06 GMT-0500 (Central Daylight Time)","839660","Match,No Match","","null","","","","","","<div class='trialBorder'><div class='vertical-center'><img style='vertical-align:center; align:center' src='img/fixation2_sml.jpg'></div><div class='arrayDiv1'><div class='tc'><img class='introPic' src='trustrating_stim/white_mw038.bmp'><br><font color='green'><strong>Share</strong></font></div></div></div>","null","ARRAY","1","trustrating_stim/white_mw038.bmp","1","noMatchFace","i","1500","","","","",""
"html-keyboard-response","11","229770","0.0-5.0-3.1","5c59d8105bbd810001fb26de","bdp_wmem","Mon Mar 13 2023 14:13:06 GMT-0500 (Central Daylight Time)","839660","Match,No Match","","null","","","","","","<div class='trialBorder'><div class='vertical-center'><img src='img/fixation2_sml.jpg'</img></div></div>","null","DELAY","","","","","","","","","","",""
"html-keyboard-response","12","232827","0.0-5.0-4.1","5c59d8105bbd810001fb26de","bdp_wmem","Mon Mar 13 2023 14:13:06 GMT-0500 (Central Daylight Time)","839660","Match,No Match","","3055","","","","","","<div class='trialBorder'><div class='targDiv'><div class='tc'><img class='introPic' src='trustrating_stim/white_mw070.bmp'><br><font color='green'><strong>Share</strong></font></div></div><div class='respDiv'><div class='respDivL'>Match<br>(e)</div><div class='respDivR'>No Match<br>(i)</div></div></div>","e","TARGET","1","trustrating_stim/white_mw038.bmp","1","noMatchFace","i","1500","trustrating_stim/white_mw070.bmp","green","Share","PRACTICE","0"
"html-keyboard-response","13","233330","0.0-5.0-5.1","5c59d8105bbd810001fb26de","bdp_wmem","Mon Mar 13 2023 14:13:06 GMT-0500 (Central Daylight Time)","839660","Match,No Match","","null","","","","","","<div class='trialBorder'><div class='vertical-center'><img src='img/error.jpg'></div><div class='respDiv'><div class='respDivL'><font style='color:orange'>Match<br>(e)</font></div><div class='respDivR'>No Match<br>(i)</div></div></div>","null","FEEDBACK","","","","","","","","","","",""
"html-keyboard-response","14","233832","0.0-5.0-1.2","5c59d8105bbd810001fb26de","bdp_wmem","Mon Mar 13 2023 14:13:06 GMT-0500 (Central Daylight Time)","839660","Match,No Match","","null","","","","","","<div class='trialBorder'><div class='vertical-center'><img src='img/fixation2_sml.jpg'</img></div></div>","null","FIX","","","","","","","","","","",""
"html-keyboard-response","15","238336","0.0-5.0-2.2","5c59d8105bbd810001fb26de","bdp_wmem","Mon Mar 13 2023 14:13:06 GMT-0500 (Central Daylight Time)","839660","Match,No Match","","null","","","","","","<div class='trialBorder'><div class='vertical-center'><img style='vertical-align:center; align:center' src='img/fixation2_sml.jpg'></div><div class='arrayDiv3'><div class='tl'><img class='introPic' src='trustrating_stim/white_mw013.bmp'><br><font color='red'><strong>Keep</strong></font></div><div class='tc'><img class='introPic' src='trustrating_stim/white_mw070.bmp'><br><font color='red'><strong>Keep</strong></font></div><div class='tr'><img class='introPic' src='trustrating_stim/white_mw042.bmp'><br><font color='green'><strong>Share</strong></font></div></div></div>","null","ARRAY","3","trustrating_stim/white_mw013.bmp,trustrating_stim/white_mw070.bmp,trustrating_stim/white_mw042.bmp","0,0,1","noMatchOutcome","i","4500","","","","",""
"html-keyboard-response","16","242338","0.0-5.0-3.2","5c59d8105bbd810001fb26de","bdp_wmem","Mon Mar 13 2023 14:13:06 GMT-0500 (Central Daylight Time)","839660","Match,No Match","","null","","","","","","<div class='trialBorder'><div class='vertical-center'><img src='img/fixation2_sml.jpg'</img></div></div>","null","DELAY","","","","","","","","","","",""
"html-keyboard-response","17","245356","0.0-5.0-4.2","5c59d8105bbd810001fb26de","bdp_wmem","Mon Mar 13 2023 14:13:06 GMT-0500 (Central Daylight Time)","839660","Match,No Match","","3015","","","","","","<div class='trialBorder'><div class='targDiv'><div class='tc'><img class='introPic' src='trustrating_stim/white_mw070.bmp'><br><font color='green'><strong>Share</strong></font></div></div><div class='respDiv'><div class='respDivL'>Match<br>(e)</div><div class='respDivR'>No Match<br>(i)</div></div></div>","i","TARGET","3","trustrating_stim/white_mw013.bmp,trustrating_stim/white_mw070.bmp,trustrating_stim/white_mw042.bmp","0,0,1","noMatchOutcome","i","4500","trustrating_stim/white_mw070.bmp","green","Share","PRACTICE","1"
"html-keyboard-response","18","245858","0.0-5.0-5.2","5c59d8105bbd810001fb26de","bdp_wmem","Mon Mar 13 2023 14:13:06 GMT-0500 (Central Daylight Time)","839660","Match,No Match","","null","","","","","","<div class='trialBorder'><div class='vertical-center'><img src='img/correct.jpg'></div><div class='respDiv'><div class='respDivL'>Match<br>(e)</div><div class='respDivR'><font style='color:orange'>No Match<br>(i)</font></div></div></div>","null","FEEDBACK","","","","","","","","","","",""
"html-keyboard-response","19","246361","0.0-5.0-1.3","5c59d8105bbd810001fb26de","bdp_wmem","Mon Mar 13 2023 14:13:06 GMT-0500 (Central Daylight Time)","839660","Match,No Match","","null","","","","","","<div class='trialBorder'><div class='vertical-center'><img src='img/fixation2_sml.jpg'</img></div></div>","null","FIX","","","","","","","","","","",""
"html-keyboard-response","20","247866","0.0-5.0-2.3","5c59d8105bbd810001fb26de","bdp_wmem","Mon Mar 13 2023 14:13:06 GMT-0500 (Central Daylight Time)","839660","Match,No Match","","null","","","","","","<div class='trialBorder'><div class='vertical-center'><img style='vertical-align:center; align:center' src='img/fixation2_sml.jpg'></div><div class='arrayDiv1'><div class='tc'><img class='introPic' src='trustrating_stim/white_mw092.bmp'><br><font color='red'><strong>Keep</strong></font></div></div></div>","null","ARRAY","1","trustrating_stim/white_mw092.bmp","0","Match","e","1500","","","","",""
"html-keyboard-response","21","251868","0.0-5.0-3.3","5c59d8105bbd810001fb26de","bdp_wmem","Mon Mar 13 2023 14:13:06 GMT-0500 (Central Daylight Time)","839660","Match,No Match","","null","","","","","","<div class='trialBorder'><div class='vertical-center'><img src='img/fixation2_sml.jpg'</img></div></div>","null","DELAY","","","","","","","","","","",""
"html-keyboard-response","22","255604","0.0-5.0-4.3","5c59d8105bbd810001fb26de","bdp_wmem","Mon Mar 13 2023 14:13:06 GMT-0500 (Central Daylight Time)","839660","Match,No Match","","3734","","","","","","<div class='trialBorder'><div class='targDiv'><div class='tc'><img class='introPic' src='trustrating_stim/white_mw092.bmp'><br><font color='red'><strong>Keep</strong></font></div></div><div class='respDiv'><div class='respDivL'>Match<br>(e)</div><div class='respDivR'>No Match<br>(i)</div></div></div>","e","TARGET","1","trustrating_stim/white_mw092.bmp","0","Match","e","1500","trustrating_stim/white_mw092.bmp","red","Keep","PRACTICE","1"
"html-keyboard-response","23","256107","0.0-5.0-5.3","5c59d8105bbd810001fb26de","bdp_wmem","Mon Mar 13 2023 14:13:06 GMT-0500 (Central Daylight Time)","839660","Match,No Match","","null","","","","","","<div class='trialBorder'><div class='vertical-center'><img src='img/correct.jpg'></div><div class='respDiv'><div class='respDivL'><font style='color:orange'>Match<br>(e)</font></div><div class='respDivR'>No Match<br>(i)</div></div></div>","null","FEEDBACK","","","","","","","","","","",""
"html-keyboard-response","24","256609","0.0-5.0-1.4","5c59d8105bbd810001fb26de","bdp_wmem","Mon Mar 13 2023 14:13:06 GMT-0500 (Central Daylight Time)","839660","Match,No Match","","null","","","","","","<div class='trialBorder'><div class='vertical-center'><img src='img/fixation2_sml.jpg'</img></div></div>","null","FIX","","","","","","","","","","",""
"html-keyboard-response","25","261113","0.0-5.0-2.4","5c59d8105bbd810001fb26de","bdp_wmem","Mon Mar 13 2023 14:13:06 GMT-0500 (Central Daylight Time)","839660","Match,No Match","","null","","","","","","<div class='trialBorder'><div class='vertical-center'><img style='vertical-align:center; align:center' src='img/fixation2_sml.jpg'></div><div class='arrayDiv3'><div class='tl'><img class='introPic' src='trustrating_stim/white_mw040.bmp'><br><font color='red'><strong>Keep</strong></font></div><div class='tc'><img class='introPic' src='trustrating_stim/white_mw070.bmp'><br><font color='red'><strong>Keep</strong></font></div><div class='tr'><img class='introPic' src='trustrating_stim/white_mw012.bmp'><br><font color='green'><strong>Share</strong></font></div></div></div>","null","ARRAY","3","trustrating_stim/white_mw040.bmp,trustrating_stim/white_mw070.bmp,trustrating_stim/white_mw012.bmp","0,0,1","Match","e","4500","","","","",""
"html-keyboard-response","26","265115","0.0-5.0-3.4","5c59d8105bbd810001fb26de","bdp_wmem","Mon Mar 13 2023 14:13:06 GMT-0500 (Central Daylight Time)","839660","Match,No Match","","null","","","","","","<div class='trialBorder'><div class='vertical-center'><img src='img/fixation2_sml.jpg'</img></div></div>","null","DELAY","","","","","","","","","","",""
"html-keyboard-response","27","269078","0.0-5.0-4.4","5c59d8105bbd810001fb26de","bdp_wmem","Mon Mar 13 2023 14:13:06 GMT-0500 (Central Daylight Time)","839660","Match,No Match","","3960","","","","","","<div class='trialBorder'><div class='targDiv'><div class='tc'><img class='introPic' src='trustrating_stim/white_mw070.bmp'><br><font color='red'><strong>Keep</strong></font></div></div><div class='respDiv'><div class='respDivL'>Match<br>(e)</div><div class='respDivR'>No Match<br>(i)</div></div></div>","e","TARGET","3","trustrating_stim/white_mw040.bmp,trustrating_stim/white_mw070.bmp,trustrating_stim/white_mw012.bmp","0,0,1","Match","e","4500","trustrating_stim/white_mw070.bmp","red","Keep","PRACTICE","1"
"html-keyboard-response","28","269580","0.0-5.0-5.4","5c59d8105bbd810001fb26de","bdp_wmem","Mon Mar 13 2023 14:13:06 GMT-0500 (Central Daylight Time)","839660","Match,No Match","","null","","","","","","<div class='trialBorder'><div class='vertical-center'><img src='img/correct.jpg'></div><div class='respDiv'><div class='respDivL'><font style='color:orange'>Match<br>(e)</font></div><div class='respDivR'>No Match<br>(i)</div></div></div>","null","FEEDBACK","","","","","","","","","","",""
"html-keyboard-response","29","270082","0.0-5.0-1.5","5c59d8105bbd810001fb26de","bdp_wmem","Mon Mar 13 2023 14:13:06 GMT-0500 (Central Daylight Time)","839660","Match,No Match","","null","","","","","","<div class='trialBorder'><div class='vertical-center'><img src='img/fixation2_sml.jpg'</img></div></div>","null","FIX","","","","","","","","","","",""
"html-keyboard-response","30","273086","0.0-5.0-2.5","5c59d8105bbd810001fb26de","bdp_wmem","Mon Mar 13 2023 14:13:06 GMT-0500 (Central Daylight Time)","839660","Match,No Match","","null","","","","","","<div class='trialBorder'><div class='vertical-center'><img style='vertical-align:center; align:center' src='img/fixation2_sml.jpg'></div><div class='arrayDiv2'><div class='tl'><img class='introPic' src='trustrating_stim/white_mw078.bmp'><br><font color='green'><strong>Share</strong></font></div><div class='tr'><img class='introPic' src='trustrating_stim/white_mw038.bmp'><br><font color='red'><strong>Keep</strong></font></div></div></div>","null","ARRAY","2","trustrating_stim/white_mw078.bmp,trustrating_stim/white_mw038.bmp","1,0","Match","e","3000","","","","",""
"html-keyboard-response","31","277091","0.0-5.0-3.5","5c59d8105bbd810001fb26de","bdp_wmem","Mon Mar 13 2023 14:13:06 GMT-0500 (Central Daylight Time)","839660","Match,No Match","","null","","","","","","<div class='trialBorder'><div class='vertical-center'><img src='img/fixation2_sml.jpg'</img></div></div>","null","DELAY","","","","","","","","","","",""
"html-keyboard-response","32","280032","0.0-5.0-4.5","5c59d8105bbd810001fb26de","bdp_wmem","Mon Mar 13 2023 14:13:06 GMT-0500 (Central Daylight Time)","839660","Match,No Match","","2938","","","","","","<div class='trialBorder'><div class='targDiv'><div class='tc'><img class='introPic' src='trustrating_stim/white_mw078.bmp'><br><font color='green'><strong>Share</strong></font></div></div><div class='respDiv'><div class='respDivL'>Match<br>(e)</div><div class='respDivR'>No Match<br>(i)</div></div></div>","i","TARGET","2","trustrating_stim/white_mw078.bmp,trustrating_stim/white_mw038.bmp","1,0","Match","e","3000","trustrating_stim/white_mw078.bmp","green","Share","PRACTICE","0"
"html-keyboard-response","33","280535","0.0-5.0-5.5","5c59d8105bbd810001fb26de","bdp_wmem","Mon Mar 13 2023 14:13:06 GMT-0500 (Central Daylight Time)","839660","Match,No Match","","null","","","","","","<div class='trialBorder'><div class='vertical-center'><img src='img/error.jpg'></div><div class='respDiv'><div class='respDivL'>Match<br>(e)</div><div class='respDivR'><font style='color:orange'>No Match<br>(i)</font></div></div></div>","null","FEEDBACK","","","","","","","","","","",""
"instructions","34","304853","0.0-6.0","5c59d8105bbd810001fb26de","bdp_wmem","Mon Mar 13 2023 14:13:06 GMT-0500 (Central Daylight Time)","839660","Match,No Match","[{""page_index"":0,""viewing_time"":24318}]","24318","","","","","","","","","","","","","","","","","","",""
"html-keyboard-response","35","305356","0.0-7.0-1.0","5c59d8105bbd810001fb26de","bdp_wmem","Mon Mar 13 2023 14:13:06 GMT-0500 (Central Daylight Time)","839660","Match,No Match","","null","","","","","","<div class='trialBorder'><div class='vertical-center'><img src='img/fixation2_sml.jpg'</img></div></div>","null","FIX","","","","","","","","","","",""
"html-keyboard-response","36","308360","0.0-7.0-2.0","5c59d8105bbd810001fb26de","bdp_wmem","Mon Mar 13 2023 14:13:06 GMT-0500 (Central Daylight Time)","839660","Match,No Match","","null","","","","","","<div class='trialBorder'><div class='vertical-center'><img style='vertical-align:center; align:center' src='img/fixation2_sml.jpg'></div><div class='arrayDiv2'><div class='tl'><img class='introPic' src='trustrating_stim/white_mw040.bmp'><br><font color='red'><strong>Keep</strong></font></div><div class='tr'><img class='introPic' src='trustrating_stim/white_mw085.bmp'><br><font color='green'><strong>Share</strong></font></div></div></div>","null","ARRAY","2","trustrating_stim/white_mw040.bmp,trustrating_stim/white_mw085.bmp","0,1","Match","e","3000","","","","",""
"html-keyboard-response","37","312362","0.0-7.0-3.0","5c59d8105bbd810001fb26de","bdp_wmem","Mon Mar 13 2023 14:13:06 GMT-0500 (Central Daylight Time)","839660","Match,No Match","","null","","","","","","<div class='trialBorder'><div class='vertical-center'><img src='img/fixation2_sml.jpg'</img></div></div>","null","DELAY","","","","","","","","","","",""
"html-keyboard-response","38","315723","0.0-7.0-4.0","5c59d8105bbd810001fb26de","bdp_wmem","Mon Mar 13 2023 14:13:06 GMT-0500 (Central Daylight Time)","839660","Match,No Match","","3359","","","","","","<div class='trialBorder'><div class='targDiv'><div class='tc'><img class='introPic' src='trustrating_stim/white_mw040.bmp'><br><font color='red'><strong>Keep</strong></font></div></div><div class='respDiv'><div class='respDivL'>Match<br>(e)</div><div class='respDivR'>No Match<br>(i)</div></div></div>","e","TARGET","2","trustrating_stim/white_mw040.bmp,trustrating_stim/white_mw085.bmp","0,1","Match","e","3000","trustrating_stim/white_mw040.bmp","red","Keep","REAL","1"
"html-keyboard-response","39","316237","0.0-7.0-5.0","5c59d8105bbd810001fb26de","bdp_wmem","Mon Mar 13 2023 14:13:06 GMT-0500 (Central Daylight Time)","839660","Match,No Match","","null","","","","","","<div class='trialBorder'><div class='vertical-center'><img src='img/correct.jpg'></div><div class='respDiv'><div class='respDivL'><font style='color:orange'>Match<br>(e)</font></div><div class='respDivR'>No Match<br>(i)</div></div></div>","null","FEEDBACK","","","","","","","","","","",""
"html-keyboard-response","40","316739","0.0-7.0-1.1","5c59d8105bbd810001fb26de","bdp_wmem","Mon Mar 13 2023 14:13:06 GMT-0500 (Central Daylight Time)","839660","Match,No Match","","null","","","","","","<div class='trialBorder'><div class='vertical-center'><img src='img/fixation2_sml.jpg'</img></div></div>","null","FIX","","","","","","","","","","",""
"html-keyboard-response","41","319743","0.0-7.0-2.1","5c59d8105bbd810001fb26de","bdp_wmem","Mon Mar 13 2023 14:13:06 GMT-0500 (Central Daylight Time)","839660","Match,No Match","","null","","","","","","<div class='trialBorder'><div class='vertical-center'><img style='vertical-align:center; align:center' src='img/fixation2_sml.jpg'></div><div class='arrayDiv2'><div class='tl'><img class='introPic' src='trustrating_stim/white_mw070.bmp'><br><font color='red'><strong>Keep</strong></font></div><div class='tr'><img class='introPic' src='trustrating_stim/white_mw012.bmp'><br><font color='green'><strong>Share</strong></font></div></div></div>","null","ARRAY","2","trustrating_stim/white_mw070.bmp,trustrating_stim/white_mw012.bmp","0,1","Match","e","3000","","","","",""
"html-keyboard-response","42","323744","0.0-7.0-3.1","5c59d8105bbd810001fb26de","bdp_wmem","Mon Mar 13 2023 14:13:06 GMT-0500 (Central Daylight Time)","839660","Match,No Match","","null","","","","","","<div class='trialBorder'><div class='vertical-center'><img src='img/fixation2_sml.jpg'</img></div></div>","null","DELAY","","","","","","","","","","",""
"html-keyboard-response","43","326075","0.0-7.0-4.1","5c59d8105bbd810001fb26de","bdp_wmem","Mon Mar 13 2023 14:13:06 GMT-0500 (Central Daylight Time)","839660","Match,No Match","","2328","","","","","","<div class='trialBorder'><div class='targDiv'><div class='tc'><img class='introPic' src='trustrating_stim/white_mw070.bmp'><br><font color='red'><strong>Keep</strong></font></div></div><div class='respDiv'><div class='respDivL'>Match<br>(e)</div><div class='respDivR'>No Match<br>(i)</div></div></div>","e","TARGET","2","trustrating_stim/white_mw070.bmp,trustrating_stim/white_mw012.bmp","0,1","Match","e","3000","trustrating_stim/white_mw070.bmp","red","Keep","REAL","1"
"html-keyboard-response","44","326578","0.0-7.0-5.1","5c59d8105bbd810001fb26de","bdp_wmem","Mon Mar 13 2023 14:13:06 GMT-0500 (Central Daylight Time)","839660","Match,No Match","","null","","","","","","<div class='trialBorder'><div class='vertical-center'><img src='img/correct.jpg'></div><div class='respDiv'><div class='respDivL'><font style='color:orange'>Match<br>(e)</font></div><div class='respDivR'>No Match<br>(i)</div></div></div>","null","FEEDBACK","","","","","","","","","","",""
"html-keyboard-response","45","327080","0.0-7.0-1.2","5c59d8105bbd810001fb26de","bdp_wmem","Mon Mar 13 2023 14:13:06 GMT-0500 (Central Daylight Time)","839660","Match,No Match","","null","","","","","","<div class='trialBorder'><div class='vertical-center'><img src='img/fixation2_sml.jpg'</img></div></div>","null","FIX","","","","","","","","","","",""
"html-keyboard-response","46","330083","0.0-7.0-2.2","5c59d8105bbd810001fb26de","bdp_wmem","Mon Mar 13 2023 14:13:06 GMT-0500 (Central Daylight Time)","839660","Match,No Match","","null","","","","","","<div class='trialBorder'><div class='vertical-center'><img style='vertical-align:center; align:center' src='img/fixation2_sml.jpg'></div><div class='arrayDiv2'><div class='tl'><img class='introPic' src='trustrating_stim/white_mw070.bmp'><br><font color='red'><strong>Keep</strong></font></div><div class='tr'><img class='introPic' src='trustrating_stim/white_mw092.bmp'><br><font color='green'><strong>Share</strong></font></div></div></div>","null","ARRAY","2","trustrating_stim/white_mw070.bmp,trustrating_stim/white_mw092.bmp","0,1","noMatchOutcome","i","3000","","","","",""
"html-keyboard-response","47","334085","0.0-7.0-3.2","5c59d8105bbd810001fb26de","bdp_wmem","Mon Mar 13 2023 14:13:06 GMT-0500 (Central Daylight Time)","839660","Match,No Match","","null","","","","","","<div class='trialBorder'><div class='vertical-center'><img src='img/fixation2_sml.jpg'</img></div></div>","null","DELAY","","","","","","","","","","",""
"html-keyboard-response","48","335771","0.0-7.0-4.2","5c59d8105bbd810001fb26de","bdp_wmem","Mon Mar 13 2023 14:13:06 GMT-0500 (Central Daylight Time)","839660","Match,No Match","","1684","","","","","","<div class='trialBorder'><div class='targDiv'><div class='tc'><img class='introPic' src='trustrating_stim/white_mw092.bmp'><br><font color='red'><strong>Keep</strong></font></div></div><div class='respDiv'><div class='respDivL'>Match<br>(e)</div><div class='respDivR'>No Match<br>(i)</div></div></div>","i","TARGET","2","trustrating_stim/white_mw070.bmp,trustrating_stim/white_mw092.bmp","0,1","noMatchOutcome","i","3000","trustrating_stim/white_mw092.bmp","red","Keep","REAL","1"
"html-keyboard-response","49","336274","0.0-7.0-5.2","5c59d8105bbd810001fb26de","bdp_wmem","Mon Mar 13 2023 14:13:06 GMT-0500 (Central Daylight Time)","839660","Match,No Match","","null","","","","","","<div class='trialBorder'><div class='vertical-center'><img src='img/correct.jpg'></div><div class='respDiv'><div class='respDivL'>Match<br>(e)</div><div class='respDivR'><font style='color:orange'>No Match<br>(i)</font></div></div></div>","null","FEEDBACK","","","","","","","","","","",""
"html-keyboard-response","50","336776","0.0-7.0-1.3","5c59d8105bbd810001fb26de","bdp_wmem","Mon Mar 13 2023 14:13:06 GMT-0500 (Central Daylight Time)","839660","Match,No Match","","null","","","","","","<div class='trialBorder'><div class='vertical-center'><img src='img/fixation2_sml.jpg'</img></div></div>","null","FIX","","","","","","","","","","",""
"html-keyboard-response","51","338280","0.0-7.0-2.3","5c59d8105bbd810001fb26de","bdp_wmem","Mon Mar 13 2023 14:13:06 GMT-0500 (Central Daylight Time)","839660","Match,No Match","","null","","","","","","<div class='trialBorder'><div class='vertical-center'><img style='vertical-align:center; align:center' src='img/fixation2_sml.jpg'></div><div class='arrayDiv1'><div class='tc'><img class='introPic' src='trustrating_stim/white_mw010.bmp'><br><font color='green'><strong>Share</strong></font></div></div></div>","null","ARRAY","1","trustrating_stim/white_mw010.bmp","1","Match","e","1500","","","","",""
"html-keyboard-response","52","342282","0.0-7.0-3.3","5c59d8105bbd810001fb26de","bdp_wmem","Mon Mar 13 2023 14:13:06 GMT-0500 (Central Daylight Time)","839660","Match,No Match","","null","","","","","","<div class='trialBorder'><div class='vertical-center'><img src='img/fixation2_sml.jpg'</img></div></div>","null","DELAY","","","","","","","","","","",""
"html-keyboard-response","53","344079","0.0-7.0-4.3","5c59d8105bbd810001fb26de","bdp_wmem","Mon Mar 13 2023 14:13:06 GMT-0500 (Central Daylight Time)","839660","Match,No Match","","1794","","","","","","<div class='trialBorder'><div class='targDiv'><div class='tc'><img class='introPic' src='trustrating_stim/white_mw010.bmp'><br><font color='green'><strong>Share</strong></font></div></div><div class='respDiv'><div class='respDivL'>Match<br>(e)</div><div class='respDivR'>No Match<br>(i)</div></div></div>","e","TARGET","1","trustrating_stim/white_mw010.bmp","1","Match","e","1500","trustrating_stim/white_mw010.bmp","green","Share","REAL","1"
"html-keyboard-response","54","344581","0.0-7.0-5.3","5c59d8105bbd810001fb26de","bdp_wmem","Mon Mar 13 2023 14:13:06 GMT-0500 (Central Daylight Time)","839660","Match,No Match","","null","","","","","","<div class='trialBorder'><div class='vertical-center'><img src='img/correct.jpg'></div><div class='respDiv'><div class='respDivL'><font style='color:orange'>Match<br>(e)</font></div><div class='respDivR'>No Match<br>(i)</div></div></div>","null","FEEDBACK","","","","","","","","","","",""
"html-keyboard-response","55","345084","0.0-7.0-1.4","5c59d8105bbd810001fb26de","bdp_wmem","Mon Mar 13 2023 14:13:06 GMT-0500 (Central Daylight Time)","839660","Match,No Match","","null","","","","","","<div class='trialBorder'><div class='vertical-center'><img src='img/fixation2_sml.jpg'</img></div></div>","null","FIX","","","","","","","","","","",""
"html-keyboard-response","56","349588","0.0-7.0-2.4","5c59d8105bbd810001fb26de","bdp_wmem","Mon Mar 13 2023 14:13:06 GMT-0500 (Central Daylight Time)","839660","Match,No Match","","null","","","","","","<div class='trialBorder'><div class='vertical-center'><img style='vertical-align:center; align:center' src='img/fixation2_sml.jpg'></div><div class='arrayDiv3'><div class='tl'><img class='introPic' src='trustrating_stim/white_mw070.bmp'><br><font color='red'><strong>Keep</strong></font></div><div class='tc'><img class='introPic' src='trustrating_stim/white_mw078.bmp'><br><font color='green'><strong>Share</strong></font></div><div class='tr'><img class='introPic' src='trustrating_stim/white_mw085.bmp'><br><font color='red'><strong>Keep</strong></font></div></div></div>","null","ARRAY","3","trustrating_stim/white_mw070.bmp,trustrating_stim/white_mw078.bmp,trustrating_stim/white_mw085.bmp","0,1,0","noMatchOutcome","i","4500","","","","",""
"html-keyboard-response","57","353589","0.0-7.0-3.4","5c59d8105bbd810001fb26de","bdp_wmem","Mon Mar 13 2023 14:13:06 GMT-0500 (Central Daylight Time)","839660","Match,No Match","","null","","","","","","<div class='trialBorder'><div class='vertical-center'><img src='img/fixation2_sml.jpg'</img></div></div>","null","DELAY","","","","","","","","","","",""
"html-keyboard-response","58","358761","0.0-7.0-4.4","5c59d8105bbd810001fb26de","bdp_wmem","Mon Mar 13 2023 14:13:06 GMT-0500 (Central Daylight Time)","839660","Match,No Match","","5168","","","","","","<div class='trialBorder'><div class='targDiv'><div class='tc'><img class='introPic' src='trustrating_stim/white_mw085.bmp'><br><font color='green'><strong>Share</strong></font></div></div><div class='respDiv'><div class='respDivL'>Match<br>(e)</div><div class='respDivR'>No Match<br>(i)</div></div></div>","e","TARGET","3","trustrating_stim/white_mw070.bmp,trustrating_stim/white_mw078.bmp,trustrating_stim/white_mw085.bmp","0,1,0","noMatchOutcome","i","4500","trustrating_stim/white_mw085.bmp","green","Share","REAL","0"
"html-keyboard-response","59","359263","0.0-7.0-5.4","5c59d8105bbd810001fb26de","bdp_wmem","Mon Mar 13 2023 14:13:06 GMT-0500 (Central Daylight Time)","839660","Match,No Match","","null","","","","","","<div class='trialBorder'><div class='vertical-center'><img src='img/error.jpg'></div><div class='respDiv'><div class='respDivL'><font style='color:orange'>Match<br>(e)</font></div><div class='respDivR'>No Match<br>(i)</div></div></div>","null","FEEDBACK","","","","","","","","","","",""
"html-keyboard-response","60","359765","0.0-7.0-1.5","5c59d8105bbd810001fb26de","bdp_wmem","Mon Mar 13 2023 14:13:06 GMT-0500 (Central Daylight Time)","839660","Match,No Match","","null","","","","","","<div class='trialBorder'><div class='vertical-center'><img src='img/fixation2_sml.jpg'</img></div></div>","null","FIX","","","","","","","","","","",""
"html-keyboard-response","61","364269","0.0-7.0-2.5","5c59d8105bbd810001fb26de","bdp_wmem","Mon Mar 13 2023 14:13:06 GMT-0500 (Central Daylight Time)","839660","Match,No Match","","null","","","","","","<div class='trialBorder'><div class='vertical-center'><img style='vertical-align:center; align:center' src='img/fixation2_sml.jpg'></div><div class='arrayDiv3'><div class='tl'><img class='introPic' src='trustrating_stim/white_mw013.bmp'><br><font color='green'><strong>Share</strong></font></div><div class='tc'><img class='introPic' src='trustrating_stim/white_mw078.bmp'><br><font color='green'><strong>Share</strong></font></div><div class='tr'><img class='introPic' src='trustrating_stim/white_mw091.bmp'><br><font color='red'><strong>Keep</strong></font></div></div></div>","null","ARRAY","3","trustrating_stim/white_mw013.bmp,trustrating_stim/white_mw078.bmp,trustrating_stim/white_mw091.bmp","1,1,0","Match","e","4500","","","","",""
"html-keyboard-response","62","368271","0.0-7.0-3.5","5c59d8105bbd810001fb26de","bdp_wmem","Mon Mar 13 2023 14:13:06 GMT-0500 (Central Daylight Time)","839660","Match,No Match","","null","","","","","","<div class='trialBorder'><div class='vertical-center'><img src='img/fixation2_sml.jpg'</img></div></div>","null","DELAY","","","","","","","","","","",""
"html-keyboard-response","63","372229","0.0-7.0-4.5","5c59d8105bbd810001fb26de","bdp_wmem","Mon Mar 13 2023 14:13:06 GMT-0500 (Central Daylight Time)","839660","Match,No Match","","3955","","","","","","<div class='trialBorder'><div class='targDiv'><div class='tc'><img class='introPic' src='trustrating_stim/white_mw013.bmp'><br><font color='green'><strong>Share</strong></font></div></div><div class='respDiv'><div class='respDivL'>Match<br>(e)</div><div class='respDivR'>No Match<br>(i)</div></div></div>","e","TARGET","3","trustrating_stim/white_mw013.bmp,trustrating_stim/white_mw078.bmp,trustrating_stim/white_mw091.bmp","1,1,0","Match","e","4500","trustrating_stim/white_mw013.bmp","green","Share","REAL","1"
"html-keyboard-response","64","372732","0.0-7.0-5.5","5c59d8105bbd810001fb26de","bdp_wmem","Mon Mar 13 2023 14:13:06 GMT-0500 (Central Daylight Time)","839660","Match,No Match","","null","","","","","","<div class='trialBorder'><div class='vertical-center'><img src='img/correct.jpg'></div><div class='respDiv'><div class='respDivL'><font style='color:orange'>Match<br>(e)</font></div><div class='respDivR'>No Match<br>(i)</div></div></div>","null","FEEDBACK","","","","","","","","","","",""
"html-keyboard-response","65","373234","0.0-7.0-1.6","5c59d8105bbd810001fb26de","bdp_wmem","Mon Mar 13 2023 14:13:06 GMT-0500 (Central Daylight Time)","839660","Match,No Match","","null","","","","","","<div class='trialBorder'><div class='vertical-center'><img src='img/fixation2_sml.jpg'</img></div></div>","null","FIX","","","","","","","","","","",""
"html-keyboard-response","66","376238","0.0-7.0-2.6","5c59d8105bbd810001fb26de","bdp_wmem","Mon Mar 13 2023 14:13:06 GMT-0500 (Central Daylight Time)","839660","Match,No Match","","null","","","","","","<div class='trialBorder'><div class='vertical-center'><img style='vertical-align:center; align:center' src='img/fixation2_sml.jpg'></div><div class='arrayDiv2'><div class='tl'><img class='introPic' src='trustrating_stim/white_mw078.bmp'><br><font color='green'><strong>Share</strong></font></div><div class='tr'><img class='introPic' src='trustrating_stim/white_mw010.bmp'><br><font color='red'><strong>Keep</strong></font></div></div></div>","null","ARRAY","2","trustrating_stim/white_mw078.bmp,trustrating_stim/white_mw010.bmp","1,0","noMatchFace","i","3000","","","","",""
"html-keyboard-response","67","380240","0.0-7.0-3.6","5c59d8105bbd810001fb26de","bdp_wmem","Mon Mar 13 2023 14:13:06 GMT-0500 (Central Daylight Time)","839660","Match,No Match","","null","","","","","","<div class='trialBorder'><div class='vertical-center'><img src='img/fixation2_sml.jpg'</img></div></div>","null","DELAY","","","","","","","","","","",""
"html-keyboard-response","68","382252","0.0-7.0-4.6","5c59d8105bbd810001fb26de","bdp_wmem","Mon Mar 13 2023 14:13:06 GMT-0500 (Central Daylight Time)","839660","Match,No Match","","2008","","","","","","<div class='trialBorder'><div class='targDiv'><div class='tc'><img class='introPic' src='trustrating_stim/white_mw085.bmp'><br><font color='red'><strong>Keep</strong></font></div></div><div class='respDiv'><div class='respDivL'>Match<br>(e)</div><div class='respDivR'>No Match<br>(i)</div></div></div>","i","TARGET","2","trustrating_stim/white_mw078.bmp,trustrating_stim/white_mw010.bmp","1,0","noMatchFace","i","3000","trustrating_stim/white_mw085.bmp","red","Keep","REAL","1"
"html-keyboard-response","69","382755","0.0-7.0-5.6","5c59d8105bbd810001fb26de","bdp_wmem","Mon Mar 13 2023 14:13:06 GMT-0500 (Central Daylight Time)","839660","Match,No Match","","null","","","","","","<div class='trialBorder'><div class='vertical-center'><img src='img/correct.jpg'></div><div class='respDiv'><div class='respDivL'>Match<br>(e)</div><div class='respDivR'><font style='color:orange'>No Match<br>(i)</font></div></div></div>","null","FEEDBACK","","","","","","","","","","",""
"html-keyboard-response","70","383256","0.0-7.0-1.7","5c59d8105bbd810001fb26de","bdp_wmem","Mon Mar 13 2023 14:13:06 GMT-0500 (Central Daylight Time)","839660","Match,No Match","","null","","","","","","<div class='trialBorder'><div class='vertical-center'><img src='img/fixation2_sml.jpg'</img></div></div>","null","FIX","","","","","","","","","","",""
"html-keyboard-response","71","384758","0.0-7.0-2.7","5c59d8105bbd810001fb26de","bdp_wmem","Mon Mar 13 2023 14:13:06 GMT-0500 (Central Daylight Time)","839660","Match,No Match","","null","","","","","","<div class='trialBorder'><div class='vertical-center'><img style='vertical-align:center; align:center' src='img/fixation2_sml.jpg'></div><div class='arrayDiv1'><div class='tc'><img class='introPic' src='trustrating_stim/white_mw078.bmp'><br><font color='green'><strong>Share</strong></font></div></div></div>","null","ARRAY","1","trustrating_stim/white_mw078.bmp","1","Match","e","1500","","","","",""
"html-keyboard-response","72","388761","0.0-7.0-3.7","5c59d8105bbd810001fb26de","bdp_wmem","Mon Mar 13 2023 14:13:06 GMT-0500 (Central Daylight Time)","839660","Match,No Match","","null","","","","","","<div class='trialBorder'><div class='vertical-center'><img src='img/fixation2_sml.jpg'</img></div></div>","null","DELAY","","","","","","","","","","",""
"html-keyboard-response","73","390581","0.0-7.0-4.7","5c59d8105bbd810001fb26de","bdp_wmem","Mon Mar 13 2023 14:13:06 GMT-0500 (Central Daylight Time)","839660","Match,No Match","","1817","","","","","","<div class='trialBorder'><div class='targDiv'><div class='tc'><img class='introPic' src='trustrating_stim/white_mw078.bmp'><br><font color='green'><strong>Share</strong></font></div></div><div class='respDiv'><div class='respDivL'>Match<br>(e)</div><div class='respDivR'>No Match<br>(i)</div></div></div>","e","TARGET","1","trustrating_stim/white_mw078.bmp","1","Match","e","1500","trustrating_stim/white_mw078.bmp","green","Share","REAL","1"
"html-keyboard-response","74","391083","0.0-7.0-5.7","5c59d8105bbd810001fb26de","bdp_wmem","Mon Mar 13 2023 14:13:06 GMT-0500 (Central Daylight Time)","839660","Match,No Match","","null","","","","","","<div class='trialBorder'><div class='vertical-center'><img src='img/correct.jpg'></div><div class='respDiv'><div class='respDivL'><font style='color:orange'>Match<br>(e)</font></div><div class='respDivR'>No Match<br>(i)</div></div></div>","null","FEEDBACK","","","","","","","","","","",""
"html-keyboard-response","75","391585","0.0-7.0-1.8","5c59d8105bbd810001fb26de","bdp_wmem","Mon Mar 13 2023 14:13:06 GMT-0500 (Central Daylight Time)","839660","Match,No Match","","null","","","","","","<div class='trialBorder'><div class='vertical-center'><img src='img/fixation2_sml.jpg'</img></div></div>","null","FIX","","","","","","","","","","",""
"html-keyboard-response","76","394588","0.0-7.0-2.8","5c59d8105bbd810001fb26de","bdp_wmem","Mon Mar 13 2023 14:13:06 GMT-0500 (Central Daylight Time)","839660","Match,No Match","","null","","","","","","<div class='trialBorder'><div class='vertical-center'><img style='vertical-align:center; align:center' src='img/fixation2_sml.jpg'></div><div class='arrayDiv2'><div class='tl'><img class='introPic' src='trustrating_stim/white_mw038.bmp'><br><font color='green'><strong>Share</strong></font></div><div class='tr'><img class='introPic' src='trustrating_stim/white_mw040.bmp'><br><font color='red'><strong>Keep</strong></font></div></div></div>","null","ARRAY","2","trustrating_stim/white_mw038.bmp,trustrating_stim/white_mw040.bmp","1,0","Match","e","3000","","","","",""
"html-keyboard-response","77","398590","0.0-7.0-3.8","5c59d8105bbd810001fb26de","bdp_wmem","Mon Mar 13 2023 14:13:06 GMT-0500 (Central Daylight Time)","839660","Match,No Match","","null","","","","","","<div class='trialBorder'><div class='vertical-center'><img src='img/fixation2_sml.jpg'</img></div></div>","null","DELAY","","","","","","","","","","",""
"html-keyboard-response","78","402861","0.0-7.0-4.8","5c59d8105bbd810001fb26de","bdp_wmem","Mon Mar 13 2023 14:13:06 GMT-0500 (Central Daylight Time)","839660","Match,No Match","","4269","","","","","","<div class='trialBorder'><div class='targDiv'><div class='tc'><img class='introPic' src='trustrating_stim/white_mw040.bmp'><br><font color='red'><strong>Keep</strong></font></div></div><div class='respDiv'><div class='respDivL'>Match<br>(e)</div><div class='respDivR'>No Match<br>(i)</div></div></div>","e","TARGET","2","trustrating_stim/white_mw038.bmp,trustrating_stim/white_mw040.bmp","1,0","Match","e","3000","trustrating_stim/white_mw040.bmp","red","Keep","REAL","1"
"html-keyboard-response","79","403364","0.0-7.0-5.8","5c59d8105bbd810001fb26de","bdp_wmem","Mon Mar 13 2023 14:13:06 GMT-0500 (Central Daylight Time)","839660","Match,No Match","","null","","","","","","<div class='trialBorder'><div class='vertical-center'><img src='img/correct.jpg'></div><div class='respDiv'><div class='respDivL'><font style='color:orange'>Match<br>(e)</font></div><div class='respDivR'>No Match<br>(i)</div></div></div>","null","FEEDBACK","","","","","","","","","","",""
"html-keyboard-response","80","403866","0.0-7.0-1.9","5c59d8105bbd810001fb26de","bdp_wmem","Mon Mar 13 2023 14:13:06 GMT-0500 (Central Daylight Time)","839660","Match,No Match","","null","","","","","","<div class='trialBorder'><div class='vertical-center'><img src='img/fixation2_sml.jpg'</img></div></div>","null","FIX","","","","","","","","","","",""
"html-keyboard-response","81","408370","0.0-7.0-2.9","5c59d8105bbd810001fb26de","bdp_wmem","Mon Mar 13 2023 14:13:06 GMT-0500 (Central Daylight Time)","839660","Match,No Match","","null","","","","","","<div class='trialBorder'><div class='vertical-center'><img style='vertical-align:center; align:center' src='img/fixation2_sml.jpg'></div><div class='arrayDiv3'><div class='tl'><img class='introPic' src='trustrating_stim/white_mw092.bmp'><br><font color='green'><strong>Share</strong></font></div><div class='tc'><img class='introPic' src='trustrating_stim/white_mw003.bmp'><br><font color='green'><strong>Share</strong></font></div><div class='tr'><img class='introPic' src='trustrating_stim/white_mw085.bmp'><br><font color='red'><strong>Keep</strong></font></div></div></div>","null","ARRAY","3","trustrating_stim/white_mw092.bmp,trustrating_stim/white_mw003.bmp,trustrating_stim/white_mw085.bmp","1,1,0","Match","e","4500","","","","",""
"html-keyboard-response","82","412372","0.0-7.0-3.9","5c59d8105bbd810001fb26de","bdp_wmem","Mon Mar 13 2023 14:13:06 GMT-0500 (Central Daylight Time)","839660","Match,No Match","","null","","","","","","<div class='trialBorder'><div class='vertical-center'><img src='img/fixation2_sml.jpg'</img></div></div>","null","DELAY","","","","","","","","","","",""
"html-keyboard-response","83","414684","0.0-7.0-4.9","5c59d8105bbd810001fb26de","bdp_wmem","Mon Mar 13 2023 14:13:06 GMT-0500 (Central Daylight Time)","839660","Match,No Match","","2311","","","","","","<div class='trialBorder'><div class='targDiv'><div class='tc'><img class='introPic' src='trustrating_stim/white_mw085.bmp'><br><font color='red'><strong>Keep</strong></font></div></div><div class='respDiv'><div class='respDivL'>Match<br>(e)</div><div class='respDivR'>No Match<br>(i)</div></div></div>","e","TARGET","3","trustrating_stim/white_mw092.bmp,trustrating_stim/white_mw003.bmp,trustrating_stim/white_mw085.bmp","1,1,0","Match","e","4500","trustrating_stim/white_mw085.bmp","red","Keep","REAL","1"
"html-keyboard-response","84","415186","0.0-7.0-5.9","5c59d8105bbd810001fb26de","bdp_wmem","Mon Mar 13 2023 14:13:06 GMT-0500 (Central Daylight Time)","839660","Match,No Match","","null","","","","","","<div class='trialBorder'><div class='vertical-center'><img src='img/correct.jpg'></div><div class='respDiv'><div class='respDivL'><font style='color:orange'>Match<br>(e)</font></div><div class='respDivR'>No Match<br>(i)</div></div></div>","null","FEEDBACK","","","","","","","","","","",""
"html-keyboard-response","85","415688","0.0-7.0-1.10","5c59d8105bbd810001fb26de","bdp_wmem","Mon Mar 13 2023 14:13:06 GMT-0500 (Central Daylight Time)","839660","Match,No Match","","null","","","","","","<div class='trialBorder'><div class='vertical-center'><img src='img/fixation2_sml.jpg'</img></div></div>","null","FIX","","","","","","","","","","",""
"html-keyboard-response","86","418691","0.0-7.0-2.10","5c59d8105bbd810001fb26de","bdp_wmem","Mon Mar 13 2023 14:13:06 GMT-0500 (Central Daylight Time)","839660","Match,No Match","","null","","","","","","<div class='trialBorder'><div class='vertical-center'><img style='vertical-align:center; align:center' src='img/fixation2_sml.jpg'></div><div class='arrayDiv2'><div class='tl'><img class='introPic' src='trustrating_stim/white_mw010.bmp'><br><font color='green'><strong>Share</strong></font></div><div class='tr'><img class='introPic' src='trustrating_stim/white_mw070.bmp'><br><font color='red'><strong>Keep</strong></font></div></div></div>","null","ARRAY","2","trustrating_stim/white_mw010.bmp,trustrating_stim/white_mw070.bmp","1,0","noMatchFace","i","3000","","","","",""
"html-keyboard-response","87","422693","0.0-7.0-3.10","5c59d8105bbd810001fb26de","bdp_wmem","Mon Mar 13 2023 14:13:06 GMT-0500 (Central Daylight Time)","839660","Match,No Match","","null","","","","","","<div class='trialBorder'><div class='vertical-center'><img src='img/fixation2_sml.jpg'</img></div></div>","null","DELAY","","","","","","","","","","",""
"html-keyboard-response","88","427840","0.0-7.0-4.10","5c59d8105bbd810001fb26de","bdp_wmem","Mon Mar 13 2023 14:13:06 GMT-0500 (Central Daylight Time)","839660","Match,No Match","","5144","","","","","","<div class='trialBorder'><div class='targDiv'><div class='tc'><img class='introPic' src='trustrating_stim/white_mw003.bmp'><br><font color='green'><strong>Share</strong></font></div></div><div class='respDiv'><div class='respDivL'>Match<br>(e)</div><div class='respDivR'>No Match<br>(i)</div></div></div>","i","TARGET","2","trustrating_stim/white_mw010.bmp,trustrating_stim/white_mw070.bmp","1,0","noMatchFace","i","3000","trustrating_stim/white_mw003.bmp","green","Share","REAL","1"
"html-keyboard-response","89","428342","0.0-7.0-5.10","5c59d8105bbd810001fb26de","bdp_wmem","Mon Mar 13 2023 14:13:06 GMT-0500 (Central Daylight Time)","839660","Match,No Match","","null","","","","","","<div class='trialBorder'><div class='vertical-center'><img src='img/correct.jpg'></div><div class='respDiv'><div class='respDivL'>Match<br>(e)</div><div class='respDivR'><font style='color:orange'>No Match<br>(i)</font></div></div></div>","null","FEEDBACK","","","","","","","","","","",""
"html-keyboard-response","90","428845","0.0-7.0-1.11","5c59d8105bbd810001fb26de","bdp_wmem","Mon Mar 13 2023 14:13:06 GMT-0500 (Central Daylight Time)","839660","Match,No Match","","null","","","","","","<div class='trialBorder'><div class='vertical-center'><img src='img/fixation2_sml.jpg'</img></div></div>","null","FIX","","","","","","","","","","",""
"html-keyboard-response","91","430348","0.0-7.0-2.11","5c59d8105bbd810001fb26de","bdp_wmem","Mon Mar 13 2023 14:13:06 GMT-0500 (Central Daylight Time)","839660","Match,No Match","","null","","","","","","<div class='trialBorder'><div class='vertical-center'><img style='vertical-align:center; align:center' src='img/fixation2_sml.jpg'></div><div class='arrayDiv1'><div class='tc'><img class='introPic' src='trustrating_stim/white_mw070.bmp'><br><font color='red'><strong>Keep</strong></font></div></div></div>","null","ARRAY","1","trustrating_stim/white_mw070.bmp","0","noMatchFace","i","1500","","","","",""
"html-keyboard-response","92","434350","0.0-7.0-3.11","5c59d8105bbd810001fb26de","bdp_wmem","Mon Mar 13 2023 14:13:06 GMT-0500 (Central Daylight Time)","839660","Match,No Match","","null","","","","","","<div class='trialBorder'><div class='vertical-center'><img src='img/fixation2_sml.jpg'</img></div></div>","null","DELAY","","","","","","","","","","",""
"html-keyboard-response","93","438170","0.0-7.0-4.11","5c59d8105bbd810001fb26de","bdp_wmem","Mon Mar 13 2023 14:13:06 GMT-0500 (Central Daylight Time)","839660","Match,No Match","","3818","","","","","","<div class='trialBorder'><div class='targDiv'><div class='tc'><img class='introPic' src='trustrating_stim/white_mw038.bmp'><br><font color='red'><strong>Keep</strong></font></div></div><div class='respDiv'><div class='respDivL'>Match<br>(e)</div><div class='respDivR'>No Match<br>(i)</div></div></div>","i","TARGET","1","trustrating_stim/white_mw070.bmp","0","noMatchFace","i","1500","trustrating_stim/white_mw038.bmp","red","Keep","REAL","1"
"html-keyboard-response","94","438672","0.0-7.0-5.11","5c59d8105bbd810001fb26de","bdp_wmem","Mon Mar 13 2023 14:13:06 GMT-0500 (Central Daylight Time)","839660","Match,No Match","","null","","","","","","<div class='trialBorder'><div class='vertical-center'><img src='img/correct.jpg'></div><div class='respDiv'><div class='respDivL'>Match<br>(e)</div><div class='respDivR'><font style='color:orange'>No Match<br>(i)</font></div></div></div>","null","FEEDBACK","","","","","","","","","","",""
"html-keyboard-response","95","439174","0.0-7.0-1.12","5c59d8105bbd810001fb26de","bdp_wmem","Mon Mar 13 2023 14:13:06 GMT-0500 (Central Daylight Time)","839660","Match,No Match","","null","","","","","","<div class='trialBorder'><div class='vertical-center'><img src='img/fixation2_sml.jpg'</img></div></div>","null","FIX","","","","","","","","","","",""
"html-keyboard-response","96","442178","0.0-7.0-2.12","5c59d8105bbd810001fb26de","bdp_wmem","Mon Mar 13 2023 14:13:06 GMT-0500 (Central Daylight Time)","839660","Match,No Match","","null","","","","","","<div class='trialBorder'><div class='vertical-center'><img style='vertical-align:center; align:center' src='img/fixation2_sml.jpg'></div><div class='arrayDiv2'><div class='tl'><img class='introPic' src='trustrating_stim/white_mw070.bmp'><br><font color='red'><strong>Keep</strong></font></div><div class='tr'><img class='introPic' src='trustrating_stim/white_mw040.bmp'><br><font color='green'><strong>Share</strong></font></div></div></div>","null","ARRAY","2","trustrating_stim/white_mw070.bmp,trustrating_stim/white_mw040.bmp","0,1","Match","e","3000","","","","",""
"html-keyboard-response","97","446181","0.0-7.0-3.12","5c59d8105bbd810001fb26de","bdp_wmem","Mon Mar 13 2023 14:13:06 GMT-0500 (Central Daylight Time)","839660","Match,No Match","","null","","","","","","<div class='trialBorder'><div class='vertical-center'><img src='img/fixation2_sml.jpg'</img></div></div>","null","DELAY","","","","","","","","","","",""
"html-keyboard-response","98","448678","0.0-7.0-4.12","5c59d8105bbd810001fb26de","bdp_wmem","Mon Mar 13 2023 14:13:06 GMT-0500 (Central Daylight Time)","839660","Match,No Match","","2495","","","","","","<div class='trialBorder'><div class='targDiv'><div class='tc'><img class='introPic' src='trustrating_stim/white_mw040.bmp'><br><font color='green'><strong>Share</strong></font></div></div><div class='respDiv'><div class='respDivL'>Match<br>(e)</div><div class='respDivR'>No Match<br>(i)</div></div></div>","e","TARGET","2","trustrating_stim/white_mw070.bmp,trustrating_stim/white_mw040.bmp","0,1","Match","e","3000","trustrating_stim/white_mw040.bmp","green","Share","REAL","1"
"html-keyboard-response","99","449181","0.0-7.0-5.12","5c59d8105bbd810001fb26de","bdp_wmem","Mon Mar 13 2023 14:13:06 GMT-0500 (Central Daylight Time)","839660","Match,No Match","","null","","","","","","<div class='trialBorder'><div class='vertical-center'><img src='img/correct.jpg'></div><div class='respDiv'><div class='respDivL'><font style='color:orange'>Match<br>(e)</font></div><div class='respDivR'>No Match<br>(i)</div></div></div>","null","FEEDBACK","","","","","","","","","","",""
"html-keyboard-response","100","449683","0.0-7.0-1.13","5c59d8105bbd810001fb26de","bdp_wmem","Mon Mar 13 2023 14:13:06 GMT-0500 (Central Daylight Time)","839660","Match,No Match","","null","","","","","","<div class='trialBorder'><div class='vertical-center'><img src='img/fixation2_sml.jpg'</img></div></div>","null","FIX","","","","","","","","","","",""
"html-keyboard-response","101","451186","0.0-7.0-2.13","5c59d8105bbd810001fb26de","bdp_wmem","Mon Mar 13 2023 14:13:06 GMT-0500 (Central Daylight Time)","839660","Match,No Match","","null","","","","","","<div class='trialBorder'><div class='vertical-center'><img style='vertical-align:center; align:center' src='img/fixation2_sml.jpg'></div><div class='arrayDiv1'><div class='tc'><img class='introPic' src='trustrating_stim/white_mw091.bmp'><br><font color='red'><strong>Keep</strong></font></div></div></div>","null","ARRAY","1","trustrating_stim/white_mw091.bmp","0","noMatchOutcome","i","1500","","","","",""
"html-keyboard-response","102","455188","0.0-7.0-3.13","5c59d8105bbd810001fb26de","bdp_wmem","Mon Mar 13 2023 14:13:06 GMT-0500 (Central Daylight Time)","839660","Match,No Match","","null","","","","","","<div class='trialBorder'><div class='vertical-center'><img src='img/fixation2_sml.jpg'</img></div></div>","null","DELAY","","","","","","","","","","",""
"html-keyboard-response","103","458360","0.0-7.0-4.13","5c59d8105bbd810001fb26de","bdp_wmem","Mon Mar 13 2023 14:13:06 GMT-0500 (Central Daylight Time)","839660","Match,No Match","","3169","","","","","","<div class='trialBorder'><div class='targDiv'><div class='tc'><img class='introPic' src='trustrating_stim/white_mw091.bmp'><br><font color='green'><strong>Share</strong></font></div></div><div class='respDiv'><div class='respDivL'>Match<br>(e)</div><div class='respDivR'>No Match<br>(i)</div></div></div>","i","TARGET","1","trustrating_stim/white_mw091.bmp","0","noMatchOutcome","i","1500","trustrating_stim/white_mw091.bmp","green","Share","REAL","1"
"html-keyboard-response","104","458862","0.0-7.0-5.13","5c59d8105bbd810001fb26de","bdp_wmem","Mon Mar 13 2023 14:13:06 GMT-0500 (Central Daylight Time)","839660","Match,No Match","","null","","","","","","<div class='trialBorder'><div class='vertical-center'><img src='img/correct.jpg'></div><div class='respDiv'><div class='respDivL'>Match<br>(e)</div><div class='respDivR'><font style='color:orange'>No Match<br>(i)</font></div></div></div>","null","FEEDBACK","","","","","","","","","","",""
"html-keyboard-response","105","459365","0.0-7.0-1.14","5c59d8105bbd810001fb26de","bdp_wmem","Mon Mar 13 2023 14:13:06 GMT-0500 (Central Daylight Time)","839660","Match,No Match","","null","","","","","","<div class='trialBorder'><div class='vertical-center'><img src='img/fixation2_sml.jpg'</img></div></div>","null","FIX","","","","","","","","","","",""
"html-keyboard-response","106","460868","0.0-7.0-2.14","5c59d8105bbd810001fb26de","bdp_wmem","Mon Mar 13 2023 14:13:06 GMT-0500 (Central Daylight Time)","839660","Match,No Match","","null","","","","","","<div class='trialBorder'><div class='vertical-center'><img style='vertical-align:center; align:center' src='img/fixation2_sml.jpg'></div><div class='arrayDiv1'><div class='tc'><img class='introPic' src='trustrating_stim/white_mw010.bmp'><br><font color='red'><strong>Keep</strong></font></div></div></div>","null","ARRAY","1","trustrating_stim/white_mw010.bmp","0","Match","e","1500","","","","",""
"html-keyboard-response","107","464870","0.0-7.0-3.14","5c59d8105bbd810001fb26de","bdp_wmem","Mon Mar 13 2023 14:13:06 GMT-0500 (Central Daylight Time)","839660","Match,No Match","","null","","","","","","<div class='trialBorder'><div class='vertical-center'><img src='img/fixation2_sml.jpg'</img></div></div>","null","DELAY","","","","","","","","","","",""
"html-keyboard-response","108","467733","0.0-7.0-4.14","5c59d8105bbd810001fb26de","bdp_wmem","Mon Mar 13 2023 14:13:06 GMT-0500 (Central Daylight Time)","839660","Match,No Match","","2861","","","","","","<div class='trialBorder'><div class='targDiv'><div class='tc'><img class='introPic' src='trustrating_stim/white_mw010.bmp'><br><font color='red'><strong>Keep</strong></font></div></div><div class='respDiv'><div class='respDivL'>Match<br>(e)</div><div class='respDivR'>No Match<br>(i)</div></div></div>","e","TARGET","1","trustrating_stim/white_mw010.bmp","0","Match","e","1500","trustrating_stim/white_mw010.bmp","red","Keep","REAL","1"
"html-keyboard-response","109","468236","0.0-7.0-5.14","5c59d8105bbd810001fb26de","bdp_wmem","Mon Mar 13 2023 14:13:06 GMT-0500 (Central Daylight Time)","839660","Match,No Match","","null","","","","","","<div class='trialBorder'><div class='vertical-center'><img src='img/correct.jpg'></div><div class='respDiv'><div class='respDivL'><font style='color:orange'>Match<br>(e)</font></div><div class='respDivR'>No Match<br>(i)</div></div></div>","null","FEEDBACK","","","","","","","","","","",""
"html-keyboard-response","110","468738","0.0-7.0-1.15","5c59d8105bbd810001fb26de","bdp_wmem","Mon Mar 13 2023 14:13:06 GMT-0500 (Central Daylight Time)","839660","Match,No Match","","null","","","","","","<div class='trialBorder'><div class='vertical-center'><img src='img/fixation2_sml.jpg'</img></div></div>","null","FIX","","","","","","","","","","",""
"html-keyboard-response","111","473242","0.0-7.0-2.15","5c59d8105bbd810001fb26de","bdp_wmem","Mon Mar 13 2023 14:13:06 GMT-0500 (Central Daylight Time)","839660","Match,No Match","","null","","","","","","<div class='trialBorder'><div class='vertical-center'><img style='vertical-align:center; align:center' src='img/fixation2_sml.jpg'></div><div class='arrayDiv3'><div class='tl'><img class='introPic' src='trustrating_stim/white_mw085.bmp'><br><font color='green'><strong>Share</strong></font></div><div class='tc'><img class='introPic' src='trustrating_stim/white_mw010.bmp'><br><font color='green'><strong>Share</strong></font></div><div class='tr'><img class='introPic' src='trustrating_stim/white_mw003.bmp'><br><font color='red'><strong>Keep</strong></font></div></div></div>","null","ARRAY","3","trustrating_stim/white_mw085.bmp,trustrating_stim/white_mw010.bmp,trustrating_stim/white_mw003.bmp","1,1,0","noMatchFace","i","4500","","","","",""
"html-keyboard-response","112","477244","0.0-7.0-3.15","5c59d8105bbd810001fb26de","bdp_wmem","Mon Mar 13 2023 14:13:06 GMT-0500 (Central Daylight Time)","839660","Match,No Match","","null","","","","","","<div class='trialBorder'><div class='vertical-center'><img src='img/fixation2_sml.jpg'</img></div></div>","null","DELAY","","","","","","","","","","",""
"html-keyboard-response","113","483432","0.0-7.0-4.15","5c59d8105bbd810001fb26de","bdp_wmem","Mon Mar 13 2023 14:13:06 GMT-0500 (Central Daylight Time)","839660","Match,No Match","","6185","","","","","","<div class='trialBorder'><div class='targDiv'><div class='tc'><img class='introPic' src='trustrating_stim/white_mw042.bmp'><br><font color='green'><strong>Share</strong></font></div></div><div class='respDiv'><div class='respDivL'>Match<br>(e)</div><div class='respDivR'>No Match<br>(i)</div></div></div>","e","TARGET","3","trustrating_stim/white_mw085.bmp,trustrating_stim/white_mw010.bmp,trustrating_stim/white_mw003.bmp","1,1,0","noMatchFace","i","4500","trustrating_stim/white_mw042.bmp","green","Share","REAL","0"
"html-keyboard-response","114","483933","0.0-7.0-5.15","5c59d8105bbd810001fb26de","bdp_wmem","Mon Mar 13 2023 14:13:06 GMT-0500 (Central Daylight Time)","839660","Match,No Match","","null","","","","","","<div class='trialBorder'><div class='vertical-center'><img src='img/error.jpg'></div><div class='respDiv'><div class='respDivL'><font style='color:orange'>Match<br>(e)</font></div><div class='respDivR'>No Match<br>(i)</div></div></div>","null","FEEDBACK","","","","","","","","","","",""
"html-keyboard-response","115","484436","0.0-7.0-1.16","5c59d8105bbd810001fb26de","bdp_wmem","Mon Mar 13 2023 14:13:06 GMT-0500 (Central Daylight Time)","839660","Match,No Match","","null","","","","","","<div class='trialBorder'><div class='vertical-center'><img src='img/fixation2_sml.jpg'</img></div></div>","null","FIX","","","","","","","","","","",""
"html-keyboard-response","116","488941","0.0-7.0-2.16","5c59d8105bbd810001fb26de","bdp_wmem","Mon Mar 13 2023 14:13:06 GMT-0500 (Central Daylight Time)","839660","Match,No Match","","null","","","","","","<div class='trialBorder'><div class='vertical-center'><img style='vertical-align:center; align:center' src='img/fixation2_sml.jpg'></div><div class='arrayDiv3'><div class='tl'><img class='introPic' src='trustrating_stim/white_mw042.bmp'><br><font color='green'><strong>Share</strong></font></div><div class='tc'><img class='introPic' src='trustrating_stim/white_mw003.bmp'><br><font color='red'><strong>Keep</strong></font></div><div class='tr'><img class='introPic' src='trustrating_stim/white_mw038.bmp'><br><font color='green'><strong>Share</strong></font></div></div></div>","null","ARRAY","3","trustrating_stim/white_mw042.bmp,trustrating_stim/white_mw003.bmp,trustrating_stim/white_mw038.bmp","1,0,1","Match","e","4500","","","","",""
"html-keyboard-response","117","492943","0.0-7.0-3.16","5c59d8105bbd810001fb26de","bdp_wmem","Mon Mar 13 2023 14:13:06 GMT-0500 (Central Daylight Time)","839660","Match,No Match","","null","","","","","","<div class='trialBorder'><div class='vertical-center'><img src='img/fixation2_sml.jpg'</img></div></div>","null","DELAY","","","","","","","","","","",""
"html-keyboard-response","118","495358","0.0-7.0-4.16","5c59d8105bbd810001fb26de","bdp_wmem","Mon Mar 13 2023 14:13:06 GMT-0500 (Central Daylight Time)","839660","Match,No Match","","2411","","","","","","<div class='trialBorder'><div class='targDiv'><div class='tc'><img class='introPic' src='trustrating_stim/white_mw038.bmp'><br><font color='green'><strong>Share</strong></font></div></div><div class='respDiv'><div class='respDivL'>Match<br>(e)</div><div class='respDivR'>No Match<br>(i)</div></div></div>","e","TARGET","3","trustrating_stim/white_mw042.bmp,trustrating_stim/white_mw003.bmp,trustrating_stim/white_mw038.bmp","1,0,1","Match","e","4500","trustrating_stim/white_mw038.bmp","green","Share","REAL","1"
"html-keyboard-response","119","495860","0.0-7.0-5.16","5c59d8105bbd810001fb26de","bdp_wmem","Mon Mar 13 2023 14:13:06 GMT-0500 (Central Daylight Time)","839660","Match,No Match","","null","","","","","","<div class='trialBorder'><div class='vertical-center'><img src='img/correct.jpg'></div><div class='respDiv'><div class='respDivL'><font style='color:orange'>Match<br>(e)</font></div><div class='respDivR'>No Match<br>(i)</div></div></div>","null","FEEDBACK","","","","","","","","","","",""
"html-keyboard-response","120","496362","0.0-7.0-1.17","5c59d8105bbd810001fb26de","bdp_wmem","Mon Mar 13 2023 14:13:06 GMT-0500 (Central Daylight Time)","839660","Match,No Match","","null","","","","","","<div class='trialBorder'><div class='vertical-center'><img src='img/fixation2_sml.jpg'</img></div></div>","null","FIX","","","","","","","","","","",""
"html-keyboard-response","121","499366","0.0-7.0-2.17","5c59d8105bbd810001fb26de","bdp_wmem","Mon Mar 13 2023 14:13:06 GMT-0500 (Central Daylight Time)","839660","Match,No Match","","null","","","","","","<div class='trialBorder'><div class='vertical-center'><img style='vertical-align:center; align:center' src='img/fixation2_sml.jpg'></div><div class='arrayDiv2'><div class='tl'><img class='introPic' src='trustrating_stim/white_mw010.bmp'><br><font color='green'><strong>Share</strong></font></div><div class='tr'><img class='introPic' src='trustrating_stim/white_mw092.bmp'><br><font color='red'><strong>Keep</strong></font></div></div></div>","null","ARRAY","2","trustrating_stim/white_mw010.bmp,trustrating_stim/white_mw092.bmp","1,0","noMatchOutcome","i","3000","","","","",""
"html-keyboard-response","122","503368","0.0-7.0-3.17","5c59d8105bbd810001fb26de","bdp_wmem","Mon Mar 13 2023 14:13:06 GMT-0500 (Central Daylight Time)","839660","Match,No Match","","null","","","","","","<div class='trialBorder'><div class='vertical-center'><img src='img/fixation2_sml.jpg'</img></div></div>","null","DELAY","","","","","","","","","","",""
"html-keyboard-response","123","506166","0.0-7.0-4.17","5c59d8105bbd810001fb26de","bdp_wmem","Mon Mar 13 2023 14:13:06 GMT-0500 (Central Daylight Time)","839660","Match,No Match","","2796","","","","","","<div class='trialBorder'><div class='targDiv'><div class='tc'><img class='introPic' src='trustrating_stim/white_mw092.bmp'><br><font color='green'><strong>Share</strong></font></div></div><div class='respDiv'><div class='respDivL'>Match<br>(e)</div><div class='respDivR'>No Match<br>(i)</div></div></div>","i","TARGET","2","trustrating_stim/white_mw010.bmp,trustrating_stim/white_mw092.bmp","1,0","noMatchOutcome","i","3000","trustrating_stim/white_mw092.bmp","green","Share","REAL","1"
"html-keyboard-response","124","506669","0.0-7.0-5.17","5c59d8105bbd810001fb26de","bdp_wmem","Mon Mar 13 2023 14:13:06 GMT-0500 (Central Daylight Time)","839660","Match,No Match","","null","","","","","","<div class='trialBorder'><div class='vertical-center'><img src='img/correct.jpg'></div><div class='respDiv'><div class='respDivL'>Match<br>(e)</div><div class='respDivR'><font style='color:orange'>No Match<br>(i)</font></div></div></div>","null","FEEDBACK","","","","","","","","","","",""
"html-keyboard-response","125","507170","0.0-7.0-1.18","5c59d8105bbd810001fb26de","bdp_wmem","Mon Mar 13 2023 14:13:06 GMT-0500 (Central Daylight Time)","839660","Match,No Match","","null","","","","","","<div class='trialBorder'><div class='vertical-center'><img src='img/fixation2_sml.jpg'</img></div></div>","null","FIX","","","","","","","","","","",""
"html-keyboard-response","126","510174","0.0-7.0-2.18","5c59d8105bbd810001fb26de","bdp_wmem","Mon Mar 13 2023 14:13:06 GMT-0500 (Central Daylight Time)","839660","Match,No Match","","null","","","","","","<div class='trialBorder'><div class='vertical-center'><img style='vertical-align:center; align:center' src='img/fixation2_sml.jpg'></div><div class='arrayDiv2'><div class='tl'><img class='introPic' src='trustrating_stim/white_mw091.bmp'><br><font color='red'><strong>Keep</strong></font></div><div class='tr'><img class='introPic' src='trustrating_stim/white_mw040.bmp'><br><font color='green'><strong>Share</strong></font></div></div></div>","null","ARRAY","2","trustrating_stim/white_mw091.bmp,trustrating_stim/white_mw040.bmp","0,1","Match","e","3000","","","","",""
"html-keyboard-response","127","514176","0.0-7.0-3.18","5c59d8105bbd810001fb26de","bdp_wmem","Mon Mar 13 2023 14:13:06 GMT-0500 (Central Daylight Time)","839660","Match,No Match","","null","","","","","","<div class='trialBorder'><div class='vertical-center'><img src='img/fixation2_sml.jpg'</img></div></div>","null","DELAY","","","","","","","","","","",""
"html-keyboard-response","128","518697","0.0-7.0-4.18","5c59d8105bbd810001fb26de","bdp_wmem","Mon Mar 13 2023 14:13:06 GMT-0500 (Central Daylight Time)","839660","Match,No Match","","4517","","","","","","<div class='trialBorder'><div class='targDiv'><div class='tc'><img class='introPic' src='trustrating_stim/white_mw091.bmp'><br><font color='red'><strong>Keep</strong></font></div></div><div class='respDiv'><div class='respDivL'>Match<br>(e)</div><div class='respDivR'>No Match<br>(i)</div></div></div>","e","TARGET","2","trustrating_stim/white_mw091.bmp,trustrating_stim/white_mw040.bmp","0,1","Match","e","3000","trustrating_stim/white_mw091.bmp","red","Keep","REAL","1"
"html-keyboard-response","129","519200","0.0-7.0-5.18","5c59d8105bbd810001fb26de","bdp_wmem","Mon Mar 13 2023 14:13:06 GMT-0500 (Central Daylight Time)","839660","Match,No Match","","null","","","","","","<div class='trialBorder'><div class='vertical-center'><img src='img/correct.jpg'></div><div class='respDiv'><div class='respDivL'><font style='color:orange'>Match<br>(e)</font></div><div class='respDivR'>No Match<br>(i)</div></div></div>","null","FEEDBACK","","","","","","","","","","",""
"html-keyboard-response","130","519701","0.0-7.0-1.19","5c59d8105bbd810001fb26de","bdp_wmem","Mon Mar 13 2023 14:13:06 GMT-0500 (Central Daylight Time)","839660","Match,No Match","","null","","","","","","<div class='trialBorder'><div class='vertical-center'><img src='img/fixation2_sml.jpg'</img></div></div>","null","FIX","","","","","","","","","","",""
"html-keyboard-response","131","521203","0.0-7.0-2.19","5c59d8105bbd810001fb26de","bdp_wmem","Mon Mar 13 2023 14:13:06 GMT-0500 (Central Daylight Time)","839660","Match,No Match","","null","","","","","","<div class='trialBorder'><div class='vertical-center'><img style='vertical-align:center; align:center' src='img/fixation2_sml.jpg'></div><div class='arrayDiv1'><div class='tc'><img class='introPic' src='trustrating_stim/white_mw070.bmp'><br><font color='green'><strong>Share</strong></font></div></div></div>","null","ARRAY","1","trustrating_stim/white_mw070.bmp","1","noMatchFace","i","1500","","","","",""
"html-keyboard-response","132","525205","0.0-7.0-3.19","5c59d8105bbd810001fb26de","bdp_wmem","Mon Mar 13 2023 14:13:06 GMT-0500 (Central Daylight Time)","839660","Match,No Match","","null","","","","","","<div class='trialBorder'><div class='vertical-center'><img src='img/fixation2_sml.jpg'</img></div></div>","null","DELAY","","","","","","","","","","",""
"html-keyboard-response","133","527704","0.0-7.0-4.19","5c59d8105bbd810001fb26de","bdp_wmem","Mon Mar 13 2023 14:13:06 GMT-0500 (Central Daylight Time)","839660","Match,No Match","","2497","","","","","","<div class='trialBorder'><div class='targDiv'><div class='tc'><img class='introPic' src='trustrating_stim/white_mw003.bmp'><br><font color='green'><strong>Share</strong></font></div></div><div class='respDiv'><div class='respDivL'>Match<br>(e)</div><div class='respDivR'>No Match<br>(i)</div></div></div>","i","TARGET","1","trustrating_stim/white_mw070.bmp","1","noMatchFace","i","1500","trustrating_stim/white_mw003.bmp","green","Share","REAL","1"
"html-keyboard-response","134","528207","0.0-7.0-5.19","5c59d8105bbd810001fb26de","bdp_wmem","Mon Mar 13 2023 14:13:06 GMT-0500 (Central Daylight Time)","839660","Match,No Match","","null","","","","","","<div class='trialBorder'><div class='vertical-center'><img src='img/correct.jpg'></div><div class='respDiv'><div class='respDivL'>Match<br>(e)</div><div class='respDivR'><font style='color:orange'>No Match<br>(i)</font></div></div></div>","null","FEEDBACK","","","","","","","","","","",""
"html-keyboard-response","135","528709","0.0-7.0-1.20","5c59d8105bbd810001fb26de","bdp_wmem","Mon Mar 13 2023 14:13:06 GMT-0500 (Central Daylight Time)","839660","Match,No Match","","null","","","","","","<div class='trialBorder'><div class='vertical-center'><img src='img/fixation2_sml.jpg'</img></div></div>","null","FIX","","","","","","","","","","",""
"html-keyboard-response","136","533214","0.0-7.0-2.20","5c59d8105bbd810001fb26de","bdp_wmem","Mon Mar 13 2023 14:13:06 GMT-0500 (Central Daylight Time)","839660","Match,No Match","","null","","","","","","<div class='trialBorder'><div class='vertical-center'><img style='vertical-align:center; align:center' src='img/fixation2_sml.jpg'></div><div class='arrayDiv3'><div class='tl'><img class='introPic' src='trustrating_stim/white_mw013.bmp'><br><font color='red'><strong>Keep</strong></font></div><div class='tc'><img class='introPic' src='trustrating_stim/white_mw003.bmp'><br><font color='green'><strong>Share</strong></font></div><div class='tr'><img class='introPic' src='trustrating_stim/white_mw091.bmp'><br><font color='green'><strong>Share</strong></font></div></div></div>","null","ARRAY","3","trustrating_stim/white_mw013.bmp,trustrating_stim/white_mw003.bmp,trustrating_stim/white_mw091.bmp","0,1,1","Match","e","4500","","","","",""
"html-keyboard-response","137","537216","0.0-7.0-3.20","5c59d8105bbd810001fb26de","bdp_wmem","Mon Mar 13 2023 14:13:06 GMT-0500 (Central Daylight Time)","839660","Match,No Match","","null","","","","","","<div class='trialBorder'><div class='vertical-center'><img src='img/fixation2_sml.jpg'</img></div></div>","null","DELAY","","","","","","","","","","",""
"html-keyboard-response","138","539103","0.0-7.0-4.20","5c59d8105bbd810001fb26de","bdp_wmem","Mon Mar 13 2023 14:13:06 GMT-0500 (Central Daylight Time)","839660","Match,No Match","","1884","","","","","","<div class='trialBorder'><div class='targDiv'><div class='tc'><img class='introPic' src='trustrating_stim/white_mw003.bmp'><br><font color='green'><strong>Share</strong></font></div></div><div class='respDiv'><div class='respDivL'>Match<br>(e)</div><div class='respDivR'>No Match<br>(i)</div></div></div>","i","TARGET","3","trustrating_stim/white_mw013.bmp,trustrating_stim/white_mw003.bmp,trustrating_stim/white_mw091.bmp","0,1,1","Match","e","4500","trustrating_stim/white_mw003.bmp","green","Share","REAL","0"
"html-keyboard-response","139","539618","0.0-7.0-5.20","5c59d8105bbd810001fb26de","bdp_wmem","Mon Mar 13 2023 14:13:06 GMT-0500 (Central Daylight Time)","839660","Match,No Match","","null","","","","","","<div class='trialBorder'><div class='vertical-center'><img src='img/error.jpg'></div><div class='respDiv'><div class='respDivL'>Match<br>(e)</div><div class='respDivR'><font style='color:orange'>No Match<br>(i)</font></div></div></div>","null","FEEDBACK","","","","","","","","","","",""
"html-keyboard-response","140","540129","0.0-7.0-1.21","5c59d8105bbd810001fb26de","bdp_wmem","Mon Mar 13 2023 14:13:06 GMT-0500 (Central Daylight Time)","839660","Match,No Match","","null","","","","","","<div class='trialBorder'><div class='vertical-center'><img src='img/fixation2_sml.jpg'</img></div></div>","null","FIX","","","","","","","","","","",""
"html-keyboard-response","141","543132","0.0-7.0-2.21","5c59d8105bbd810001fb26de","bdp_wmem","Mon Mar 13 2023 14:13:06 GMT-0500 (Central Daylight Time)","839660","Match,No Match","","null","","","","","","<div class='trialBorder'><div class='vertical-center'><img style='vertical-align:center; align:center' src='img/fixation2_sml.jpg'></div><div class='arrayDiv2'><div class='tl'><img class='introPic' src='trustrating_stim/white_mw003.bmp'><br><font color='green'><strong>Share</strong></font></div><div class='tr'><img class='introPic' src='trustrating_stim/white_mw012.bmp'><br><font color='red'><strong>Keep</strong></font></div></div></div>","null","ARRAY","2","trustrating_stim/white_mw003.bmp,trustrating_stim/white_mw012.bmp","1,0","noMatchOutcome","i","3000","","","","",""
"html-keyboard-response","142","547134","0.0-7.0-3.21","5c59d8105bbd810001fb26de","bdp_wmem","Mon Mar 13 2023 14:13:06 GMT-0500 (Central Daylight Time)","839660","Match,No Match","","null","","","","","","<div class='trialBorder'><div class='vertical-center'><img src='img/fixation2_sml.jpg'</img></div></div>","null","DELAY","","","","","","","","","","",""
"html-keyboard-response","143","550850","0.0-7.0-4.21","5c59d8105bbd810001fb26de","bdp_wmem","Mon Mar 13 2023 14:13:06 GMT-0500 (Central Daylight Time)","839660","Match,No Match","","3714","","","","","","<div class='trialBorder'><div class='targDiv'><div class='tc'><img class='introPic' src='trustrating_stim/white_mw012.bmp'><br><font color='green'><strong>Share</strong></font></div></div><div class='respDiv'><div class='respDivL'>Match<br>(e)</div><div class='respDivR'>No Match<br>(i)</div></div></div>","i","TARGET","2","trustrating_stim/white_mw003.bmp,trustrating_stim/white_mw012.bmp","1,0","noMatchOutcome","i","3000","trustrating_stim/white_mw012.bmp","green","Share","REAL","1"
"html-keyboard-response","144","551352","0.0-7.0-5.21","5c59d8105bbd810001fb26de","bdp_wmem","Mon Mar 13 2023 14:13:06 GMT-0500 (Central Daylight Time)","839660","Match,No Match","","null","","","","","","<div class='trialBorder'><div class='vertical-center'><img src='img/correct.jpg'></div><div class='respDiv'><div class='respDivL'>Match<br>(e)</div><div class='respDivR'><font style='color:orange'>No Match<br>(i)</font></div></div></div>","null","FEEDBACK","","","","","","","","","","",""
"html-keyboard-response","145","551855","0.0-7.0-1.22","5c59d8105bbd810001fb26de","bdp_wmem","Mon Mar 13 2023 14:13:06 GMT-0500 (Central Daylight Time)","839660","Match,No Match","","null","","","","","","<div class='trialBorder'><div class='vertical-center'><img src='img/fixation2_sml.jpg'</img></div></div>","null","FIX","","","","","","","","","","",""
"html-keyboard-response","146","553358","0.0-7.0-2.22","5c59d8105bbd810001fb26de","bdp_wmem","Mon Mar 13 2023 14:13:06 GMT-0500 (Central Daylight Time)","839660","Match,No Match","","null","","","","","","<div class='trialBorder'><div class='vertical-center'><img style='vertical-align:center; align:center' src='img/fixation2_sml.jpg'></div><div class='arrayDiv1'><div class='tc'><img class='introPic' src='trustrating_stim/white_mw038.bmp'><br><font color='green'><strong>Share</strong></font></div></div></div>","null","ARRAY","1","trustrating_stim/white_mw038.bmp","1","noMatchFace","i","1500","","","","",""
"html-keyboard-response","147","557361","0.0-7.0-3.22","5c59d8105bbd810001fb26de","bdp_wmem","Mon Mar 13 2023 14:13:06 GMT-0500 (Central Daylight Time)","839660","Match,No Match","","null","","","","","","<div class='trialBorder'><div class='vertical-center'><img src='img/fixation2_sml.jpg'</img></div></div>","null","DELAY","","","","","","","","","","",""
"html-keyboard-response","148","559878","0.0-7.0-4.22","5c59d8105bbd810001fb26de","bdp_wmem","Mon Mar 13 2023 14:13:06 GMT-0500 (Central Daylight Time)","839660","Match,No Match","","2515","","","","","","<div class='trialBorder'><div class='targDiv'><div class='tc'><img class='introPic' src='trustrating_stim/white_mw003.bmp'><br><font color='green'><strong>Share</strong></font></div></div><div class='respDiv'><div class='respDivL'>Match<br>(e)</div><div class='respDivR'>No Match<br>(i)</div></div></div>","i","TARGET","1","trustrating_stim/white_mw038.bmp","1","noMatchFace","i","1500","trustrating_stim/white_mw003.bmp","green","Share","REAL","1"
"html-keyboard-response","149","560380","0.0-7.0-5.22","5c59d8105bbd810001fb26de","bdp_wmem","Mon Mar 13 2023 14:13:06 GMT-0500 (Central Daylight Time)","839660","Match,No Match","","null","","","","","","<div class='trialBorder'><div class='vertical-center'><img src='img/correct.jpg'></div><div class='respDiv'><div class='respDivL'>Match<br>(e)</div><div class='respDivR'><font style='color:orange'>No Match<br>(i)</font></div></div></div>","null","FEEDBACK","","","","","","","","","","",""
"html-keyboard-response","150","560881","0.0-7.0-1.23","5c59d8105bbd810001fb26de","bdp_wmem","Mon Mar 13 2023 14:13:06 GMT-0500 (Central Daylight Time)","839660","Match,No Match","","null","","","","","","<div class='trialBorder'><div class='vertical-center'><img src='img/fixation2_sml.jpg'</img></div></div>","null","FIX","","","","","","","","","","",""
"html-keyboard-response","151","562384","0.0-7.0-2.23","5c59d8105bbd810001fb26de","bdp_wmem","Mon Mar 13 2023 14:13:06 GMT-0500 (Central Daylight Time)","839660","Match,No Match","","null","","","","","","<div class='trialBorder'><div class='vertical-center'><img style='vertical-align:center; align:center' src='img/fixation2_sml.jpg'></div><div class='arrayDiv1'><div class='tc'><img class='introPic' src='trustrating_stim/white_mw040.bmp'><br><font color='green'><strong>Share</strong></font></div></div></div>","null","ARRAY","1","trustrating_stim/white_mw040.bmp","1","Match","e","1500","","","","",""
"html-keyboard-response","152","566387","0.0-7.0-3.23","5c59d8105bbd810001fb26de","bdp_wmem","Mon Mar 13 2023 14:13:06 GMT-0500 (Central Daylight Time)","839660","Match,No Match","","null","","","","","","<div class='trialBorder'><div class='vertical-center'><img src='img/fixation2_sml.jpg'</img></div></div>","null","DELAY","","","","","","","","","","",""
"html-keyboard-response","153","576713","0.0-7.0-4.23","5c59d8105bbd810001fb26de","bdp_wmem","Mon Mar 13 2023 14:13:06 GMT-0500 (Central Daylight Time)","839660","Match,No Match","","10324","","","","","","<div class='trialBorder'><div class='targDiv'><div class='tc'><img class='introPic' src='trustrating_stim/white_mw040.bmp'><br><font color='green'><strong>Share</strong></font></div></div><div class='respDiv'><div class='respDivL'>Match<br>(e)</div><div class='respDivR'>No Match<br>(i)</div></div></div>","e","TARGET","1","trustrating_stim/white_mw040.bmp","1","Match","e","1500","trustrating_stim/white_mw040.bmp","green","Share","REAL","1"
"html-keyboard-response","154","577215","0.0-7.0-5.23","5c59d8105bbd810001fb26de","bdp_wmem","Mon Mar 13 2023 14:13:06 GMT-0500 (Central Daylight Time)","839660","Match,No Match","","null","","","","","","<div class='trialBorder'><div class='vertical-center'><img src='img/correct.jpg'></div><div class='respDiv'><div class='respDivL'><font style='color:orange'>Match<br>(e)</font></div><div class='respDivR'>No Match<br>(i)</div></div></div>","null","FEEDBACK","","","","","","","","","","",""
"html-keyboard-response","155","577717","0.0-7.0-1.24","5c59d8105bbd810001fb26de","bdp_wmem","Mon Mar 13 2023 14:13:06 GMT-0500 (Central Daylight Time)","839660","Match,No Match","","null","","","","","","<div class='trialBorder'><div class='vertical-center'><img src='img/fixation2_sml.jpg'</img></div></div>","null","FIX","","","","","","","","","","",""
"html-keyboard-response","156","579221","0.0-7.0-2.24","5c59d8105bbd810001fb26de","bdp_wmem","Mon Mar 13 2023 14:13:06 GMT-0500 (Central Daylight Time)","839660","Match,No Match","","null","","","","","","<div class='trialBorder'><div class='vertical-center'><img style='vertical-align:center; align:center' src='img/fixation2_sml.jpg'></div><div class='arrayDiv1'><div class='tc'><img class='introPic' src='trustrating_stim/white_mw040.bmp'><br><font color='green'><strong>Share</strong></font></div></div></div>","null","ARRAY","1","trustrating_stim/white_mw040.bmp","1","Match","e","1500","","","","",""
"html-keyboard-response","157","583223","0.0-7.0-3.24","5c59d8105bbd810001fb26de","bdp_wmem","Mon Mar 13 2023 14:13:06 GMT-0500 (Central Daylight Time)","839660","Match,No Match","","null","","","","","","<div class='trialBorder'><div class='vertical-center'><img src='img/fixation2_sml.jpg'</img></div></div>","null","DELAY","","","","","","","","","","",""
"html-keyboard-response","158","586405","0.0-7.0-4.24","5c59d8105bbd810001fb26de","bdp_wmem","Mon Mar 13 2023 14:13:06 GMT-0500 (Central Daylight Time)","839660","Match,No Match","","3180","","","","","","<div class='trialBorder'><div class='targDiv'><div class='tc'><img class='introPic' src='trustrating_stim/white_mw040.bmp'><br><font color='green'><strong>Share</strong></font></div></div><div class='respDiv'><div class='respDivL'>Match<br>(e)</div><div class='respDivR'>No Match<br>(i)</div></div></div>","e","TARGET","1","trustrating_stim/white_mw040.bmp","1","Match","e","1500","trustrating_stim/white_mw040.bmp","green","Share","REAL","1"
"html-keyboard-response","159","586907","0.0-7.0-5.24","5c59d8105bbd810001fb26de","bdp_wmem","Mon Mar 13 2023 14:13:06 GMT-0500 (Central Daylight Time)","839660","Match,No Match","","null","","","","","","<div class='trialBorder'><div class='vertical-center'><img src='img/correct.jpg'></div><div class='respDiv'><div class='respDivL'><font style='color:orange'>Match<br>(e)</font></div><div class='respDivR'>No Match<br>(i)</div></div></div>","null","FEEDBACK","","","","","","","","","","",""
"html-keyboard-response","160","587409","0.0-7.0-1.25","5c59d8105bbd810001fb26de","bdp_wmem","Mon Mar 13 2023 14:13:06 GMT-0500 (Central Daylight Time)","839660","Match,No Match","","null","","","","","","<div class='trialBorder'><div class='vertical-center'><img src='img/fixation2_sml.jpg'</img></div></div>","null","FIX","","","","","","","","","","",""
"html-keyboard-response","161","591922","0.0-7.0-2.25","5c59d8105bbd810001fb26de","bdp_wmem","Mon Mar 13 2023 14:13:06 GMT-0500 (Central Daylight Time)","839660","Match,No Match","","null","","","","","","<div class='trialBorder'><div class='vertical-center'><img style='vertical-align:center; align:center' src='img/fixation2_sml.jpg'></div><div class='arrayDiv3'><div class='tl'><img class='introPic' src='trustrating_stim/white_mw038.bmp'><br><font color='green'><strong>Share</strong></font></div><div class='tc'><img class='introPic' src='trustrating_stim/white_mw040.bmp'><br><font color='green'><strong>Share</strong></font></div><div class='tr'><img class='introPic' src='trustrating_stim/white_mw085.bmp'><br><font color='red'><strong>Keep</strong></font></div></div></div>","null","ARRAY","3","trustrating_stim/white_mw038.bmp,trustrating_stim/white_mw040.bmp,trustrating_stim/white_mw085.bmp","1,1,0","noMatchOutcome","i","4500","","","","",""
"html-keyboard-response","162","595923","0.0-7.0-3.25","5c59d8105bbd810001fb26de","bdp_wmem","Mon Mar 13 2023 14:13:06 GMT-0500 (Central Daylight Time)","839660","Match,No Match","","null","","","","","","<div class='trialBorder'><div class='vertical-center'><img src='img/fixation2_sml.jpg'</img></div></div>","null","DELAY","","","","","","","","","","",""
"html-keyboard-response","163","599536","0.0-7.0-4.25","5c59d8105bbd810001fb26de","bdp_wmem","Mon Mar 13 2023 14:13:06 GMT-0500 (Central Daylight Time)","839660","Match,No Match","","3609","","","","","","<div class='trialBorder'><div class='targDiv'><div class='tc'><img class='introPic' src='trustrating_stim/white_mw038.bmp'><br><font color='red'><strong>Keep</strong></font></div></div><div class='respDiv'><div class='respDivL'>Match<br>(e)</div><div class='respDivR'>No Match<br>(i)</div></div></div>","i","TARGET","3","trustrating_stim/white_mw038.bmp,trustrating_stim/white_mw040.bmp,trustrating_stim/white_mw085.bmp","1,1,0","noMatchOutcome","i","4500","trustrating_stim/white_mw038.bmp","red","Keep","REAL","1"
"html-keyboard-response","164","600039","0.0-7.0-5.25","5c59d8105bbd810001fb26de","bdp_wmem","Mon Mar 13 2023 14:13:06 GMT-0500 (Central Daylight Time)","839660","Match,No Match","","null","","","","","","<div class='trialBorder'><div class='vertical-center'><img src='img/correct.jpg'></div><div class='respDiv'><div class='respDivL'>Match<br>(e)</div><div class='respDivR'><font style='color:orange'>No Match<br>(i)</font></div></div></div>","null","FEEDBACK","","","","","","","","","","",""
"html-keyboard-response","165","600541","0.0-7.0-1.26","5c59d8105bbd810001fb26de","bdp_wmem","Mon Mar 13 2023 14:13:06 GMT-0500 (Central Daylight Time)","839660","Match,No Match","","null","","","","","","<div class='trialBorder'><div class='vertical-center'><img src='img/fixation2_sml.jpg'</img></div></div>","null","FIX","","","","","","","","","","",""
"html-keyboard-response","166","603545","0.0-7.0-2.26","5c59d8105bbd810001fb26de","bdp_wmem","Mon Mar 13 2023 14:13:06 GMT-0500 (Central Daylight Time)","839660","Match,No Match","","null","","","","","","<div class='trialBorder'><div class='vertical-center'><img style='vertical-align:center; align:center' src='img/fixation2_sml.jpg'></div><div class='arrayDiv2'><div class='tl'><img class='introPic' src='trustrating_stim/white_mw091.bmp'><br><font color='red'><strong>Keep</strong></font></div><div class='tr'><img class='introPic' src='trustrating_stim/white_mw038.bmp'><br><font color='green'><strong>Share</strong></font></div></div></div>","null","ARRAY","2","trustrating_stim/white_mw091.bmp,trustrating_stim/white_mw038.bmp","0,1","noMatchFace","i","3000","","","","",""
"html-keyboard-response","167","607547","0.0-7.0-3.26","5c59d8105bbd810001fb26de","bdp_wmem","Mon Mar 13 2023 14:13:06 GMT-0500 (Central Daylight Time)","839660","Match,No Match","","null","","","","","","<div class='trialBorder'><div class='vertical-center'><img src='img/fixation2_sml.jpg'</img></div></div>","null","DELAY","","","","","","","","","","",""
"html-keyboard-response","168","610333","0.0-7.0-4.26","5c59d8105bbd810001fb26de","bdp_wmem","Mon Mar 13 2023 14:13:06 GMT-0500 (Central Daylight Time)","839660","Match,No Match","","2782","","","","","","<div class='trialBorder'><div class='targDiv'><div class='tc'><img class='introPic' src='trustrating_stim/white_mw012.bmp'><br><font color='green'><strong>Share</strong></font></div></div><div class='respDiv'><div class='respDivL'>Match<br>(e)</div><div class='respDivR'>No Match<br>(i)</div></div></div>","i","TARGET","2","trustrating_stim/white_mw091.bmp,trustrating_stim/white_mw038.bmp","0,1","noMatchFace","i","3000","trustrating_stim/white_mw012.bmp","green","Share","REAL","1"
"html-keyboard-response","169","610835","0.0-7.0-5.26","5c59d8105bbd810001fb26de","bdp_wmem","Mon Mar 13 2023 14:13:06 GMT-0500 (Central Daylight Time)","839660","Match,No Match","","null","","","","","","<div class='trialBorder'><div class='vertical-center'><img src='img/correct.jpg'></div><div class='respDiv'><div class='respDivL'>Match<br>(e)</div><div class='respDivR'><font style='color:orange'>No Match<br>(i)</font></div></div></div>","null","FEEDBACK","","","","","","","","","","",""
"html-keyboard-response","170","611337","0.0-7.0-1.27","5c59d8105bbd810001fb26de","bdp_wmem","Mon Mar 13 2023 14:13:06 GMT-0500 (Central Daylight Time)","839660","Match,No Match","","null","","","","","","<div class='trialBorder'><div class='vertical-center'><img src='img/fixation2_sml.jpg'</img></div></div>","null","FIX","","","","","","","","","","",""
"html-keyboard-response","171","615842","0.0-7.0-2.27","5c59d8105bbd810001fb26de","bdp_wmem","Mon Mar 13 2023 14:13:06 GMT-0500 (Central Daylight Time)","839660","Match,No Match","","null","","","","","","<div class='trialBorder'><div class='vertical-center'><img style='vertical-align:center; align:center' src='img/fixation2_sml.jpg'></div><div class='arrayDiv3'><div class='tl'><img class='introPic' src='trustrating_stim/white_mw003.bmp'><br><font color='green'><strong>Share</strong></font></div><div class='tc'><img class='introPic' src='trustrating_stim/white_mw013.bmp'><br><font color='red'><strong>Keep</strong></font></div><div class='tr'><img class='introPic' src='trustrating_stim/white_mw012.bmp'><br><font color='green'><strong>Share</strong></font></div></div></div>","null","ARRAY","3","trustrating_stim/white_mw003.bmp,trustrating_stim/white_mw013.bmp,trustrating_stim/white_mw012.bmp","1,0,1","Match","e","4500","","","","",""
"html-keyboard-response","172","619844","0.0-7.0-3.27","5c59d8105bbd810001fb26de","bdp_wmem","Mon Mar 13 2023 14:13:06 GMT-0500 (Central Daylight Time)","839660","Match,No Match","","null","","","","","","<div class='trialBorder'><div class='vertical-center'><img src='img/fixation2_sml.jpg'</img></div></div>","null","DELAY","","","","","","","","","","",""
"html-keyboard-response","173","622233","0.0-7.0-4.27","5c59d8105bbd810001fb26de","bdp_wmem","Mon Mar 13 2023 14:13:06 GMT-0500 (Central Daylight Time)","839660","Match,No Match","","2387","","","","","","<div class='trialBorder'><div class='targDiv'><div class='tc'><img class='introPic' src='trustrating_stim/white_mw003.bmp'><br><font color='green'><strong>Share</strong></font></div></div><div class='respDiv'><div class='respDivL'>Match<br>(e)</div><div class='respDivR'>No Match<br>(i)</div></div></div>","e","TARGET","3","trustrating_stim/white_mw003.bmp,trustrating_stim/white_mw013.bmp,trustrating_stim/white_mw012.bmp","1,0,1","Match","e","4500","trustrating_stim/white_mw003.bmp","green","Share","REAL","1"
"html-keyboard-response","174","622735","0.0-7.0-5.27","5c59d8105bbd810001fb26de","bdp_wmem","Mon Mar 13 2023 14:13:06 GMT-0500 (Central Daylight Time)","839660","Match,No Match","","null","","","","","","<div class='trialBorder'><div class='vertical-center'><img src='img/correct.jpg'></div><div class='respDiv'><div class='respDivL'><font style='color:orange'>Match<br>(e)</font></div><div class='respDivR'>No Match<br>(i)</div></div></div>","null","FEEDBACK","","","","","","","","","","",""
"html-keyboard-response","175","623237","0.0-7.0-1.28","5c59d8105bbd810001fb26de","bdp_wmem","Mon Mar 13 2023 14:13:06 GMT-0500 (Central Daylight Time)","839660","Match,No Match","","null","","","","","","<div class='trialBorder'><div class='vertical-center'><img src='img/fixation2_sml.jpg'</img></div></div>","null","FIX","","","","","","","","","","",""
"html-keyboard-response","176","624740","0.0-7.0-2.28","5c59d8105bbd810001fb26de","bdp_wmem","Mon Mar 13 2023 14:13:06 GMT-0500 (Central Daylight Time)","839660","Match,No Match","","null","","","","","","<div class='trialBorder'><div class='vertical-center'><img style='vertical-align:center; align:center' src='img/fixation2_sml.jpg'></div><div class='arrayDiv1'><div class='tc'><img class='introPic' src='trustrating_stim/white_mw085.bmp'><br><font color='green'><strong>Share</strong></font></div></div></div>","null","ARRAY","1","trustrating_stim/white_mw085.bmp","1","Match","e","1500","","","","",""
"html-keyboard-response","177","628743","0.0-7.0-3.28","5c59d8105bbd810001fb26de","bdp_wmem","Mon Mar 13 2023 14:13:06 GMT-0500 (Central Daylight Time)","839660","Match,No Match","","null","","","","","","<div class='trialBorder'><div class='vertical-center'><img src='img/fixation2_sml.jpg'</img></div></div>","null","DELAY","","","","","","","","","","",""
"html-keyboard-response","178","632895","0.0-7.0-4.28","5c59d8105bbd810001fb26de","bdp_wmem","Mon Mar 13 2023 14:13:06 GMT-0500 (Central Daylight Time)","839660","Match,No Match","","4150","","","","","","<div class='trialBorder'><div class='targDiv'><div class='tc'><img class='introPic' src='trustrating_stim/white_mw085.bmp'><br><font color='green'><strong>Share</strong></font></div></div><div class='respDiv'><div class='respDivL'>Match<br>(e)</div><div class='respDivR'>No Match<br>(i)</div></div></div>","i","TARGET","1","trustrating_stim/white_mw085.bmp","1","Match","e","1500","trustrating_stim/white_mw085.bmp","green","Share","REAL","0"
"html-keyboard-response","179","633397","0.0-7.0-5.28","5c59d8105bbd810001fb26de","bdp_wmem","Mon Mar 13 2023 14:13:06 GMT-0500 (Central Daylight Time)","839660","Match,No Match","","null","","","","","","<div class='trialBorder'><div class='vertical-center'><img src='img/error.jpg'></div><div class='respDiv'><div class='respDivL'>Match<br>(e)</div><div class='respDivR'><font style='color:orange'>No Match<br>(i)</font></div></div></div>","null","FEEDBACK","","","","","","","","","","",""
"html-keyboard-response","180","633899","0.0-7.0-1.29","5c59d8105bbd810001fb26de","bdp_wmem","Mon Mar 13 2023 14:13:06 GMT-0500 (Central Daylight Time)","839660","Match,No Match","","null","","","","","","<div class='trialBorder'><div class='vertical-center'><img src='img/fixation2_sml.jpg'</img></div></div>","null","FIX","","","","","","","","","","",""
"html-keyboard-response","181","635403","0.0-7.0-2.29","5c59d8105bbd810001fb26de","bdp_wmem","Mon Mar 13 2023 14:13:06 GMT-0500 (Central Daylight Time)","839660","Match,No Match","","null","","","","","","<div class='trialBorder'><div class='vertical-center'><img style='vertical-align:center; align:center' src='img/fixation2_sml.jpg'></div><div class='arrayDiv1'><div class='tc'><img class='introPic' src='trustrating_stim/white_mw085.bmp'><br><font color='red'><strong>Keep</strong></font></div></div></div>","null","ARRAY","1","trustrating_stim/white_mw085.bmp","0","Match","e","1500","","","","",""
"html-keyboard-response","182","639405","0.0-7.0-3.29","5c59d8105bbd810001fb26de","bdp_wmem","Mon Mar 13 2023 14:13:06 GMT-0500 (Central Daylight Time)","839660","Match,No Match","","null","","","","","","<div class='trialBorder'><div class='vertical-center'><img src='img/fixation2_sml.jpg'</img></div></div>","null","DELAY","","","","","","","","","","",""
"html-keyboard-response","183","642088","0.0-7.0-4.29","5c59d8105bbd810001fb26de","bdp_wmem","Mon Mar 13 2023 14:13:06 GMT-0500 (Central Daylight Time)","839660","Match,No Match","","2680","","","","","","<div class='trialBorder'><div class='targDiv'><div class='tc'><img class='introPic' src='trustrating_stim/white_mw085.bmp'><br><font color='red'><strong>Keep</strong></font></div></div><div class='respDiv'><div class='respDivL'>Match<br>(e)</div><div class='respDivR'>No Match<br>(i)</div></div></div>","i","TARGET","1","trustrating_stim/white_mw085.bmp","0","Match","e","1500","trustrating_stim/white_mw085.bmp","red","Keep","REAL","0"
"html-keyboard-response","184","642590","0.0-7.0-5.29","5c59d8105bbd810001fb26de","bdp_wmem","Mon Mar 13 2023 14:13:06 GMT-0500 (Central Daylight Time)","839660","Match,No Match","","null","","","","","","<div class='trialBorder'><div class='vertical-center'><img src='img/error.jpg'></div><div class='respDiv'><div class='respDivL'>Match<br>(e)</div><div class='respDivR'><font style='color:orange'>No Match<br>(i)</font></div></div></div>","null","FEEDBACK","","","","","","","","","","",""
"html-keyboard-response","185","643092","0.0-7.0-1.30","5c59d8105bbd810001fb26de","bdp_wmem","Mon Mar 13 2023 14:13:06 GMT-0500 (Central Daylight Time)","839660","Match,No Match","","null","","","","","","<div class='trialBorder'><div class='vertical-center'><img src='img/fixation2_sml.jpg'</img></div></div>","null","FIX","","","","","","","","","","",""
"html-keyboard-response","186","647596","0.0-7.0-2.30","5c59d8105bbd810001fb26de","bdp_wmem","Mon Mar 13 2023 14:13:06 GMT-0500 (Central Daylight Time)","839660","Match,No Match","","null","","","","","","<div class='trialBorder'><div class='vertical-center'><img style='vertical-align:center; align:center' src='img/fixation2_sml.jpg'></div><div class='arrayDiv3'><div class='tl'><img class='introPic' src='trustrating_stim/white_mw078.bmp'><br><font color='green'><strong>Share</strong></font></div><div class='tc'><img class='introPic' src='trustrating_stim/white_mw038.bmp'><br><font color='red'><strong>Keep</strong></font></div><div class='tr'><img class='introPic' src='trustrating_stim/white_mw013.bmp'><br><font color='red'><strong>Keep</strong></font></div></div></div>","null","ARRAY","3","trustrating_stim/white_mw078.bmp,trustrating_stim/white_mw038.bmp,trustrating_stim/white_mw013.bmp","1,0,0","noMatchOutcome","i","4500","","","","",""
"html-keyboard-response","187","651598","0.0-7.0-3.30","5c59d8105bbd810001fb26de","bdp_wmem","Mon Mar 13 2023 14:13:06 GMT-0500 (Central Daylight Time)","839660","Match,No Match","","null","","","","","","<div class='trialBorder'><div class='vertical-center'><img src='img/fixation2_sml.jpg'</img></div></div>","null","DELAY","","","","","","","","","","",""
"html-keyboard-response","188","653305","0.0-7.0-4.30","5c59d8105bbd810001fb26de","bdp_wmem","Mon Mar 13 2023 14:13:06 GMT-0500 (Central Daylight Time)","839660","Match,No Match","","1703","","","","","","<div class='trialBorder'><div class='targDiv'><div class='tc'><img class='introPic' src='trustrating_stim/white_mw038.bmp'><br><font color='green'><strong>Share</strong></font></div></div><div class='respDiv'><div class='respDivL'>Match<br>(e)</div><div class='respDivR'>No Match<br>(i)</div></div></div>","e","TARGET","3","trustrating_stim/white_mw078.bmp,trustrating_stim/white_mw038.bmp,trustrating_stim/white_mw013.bmp","1,0,0","noMatchOutcome","i","4500","trustrating_stim/white_mw038.bmp","green","Share","REAL","0"
