"trial_type","trial_index","time_elapsed","internal_node_id","subject_id","task","startTime","totalTime","labels","view_history","rt","event","trial","time","trialtype","success","stimulus","key_press","stimType","arraySize","arrayFaces","arrayOutcomes","matchType","corrResp","arrayDur","targFace","targCol","targOutcome","trialType","corr"
"pavlovia","0","3","0.0-0.0","6105338a15c74e8435e95c71","bdp_wmem","Wed Mar 15 2023 15:59:21 GMT-0400 (Eastern Daylight Time)","551015","Match,No Match","","","","","","","","","","","","","","","","","","","","",""
"instructions","1","2720","0.0-1.0","6105338a15c74e8435e95c71","bdp_wmem","Wed Mar 15 2023 15:59:21 GMT-0400 (Eastern Daylight Time)","551015","Match,No Match","[{""page_index"":0,""viewing_time"":2716}]","2716","","","","","","","","","","","","","","","","","","",""
"","","","","6105338a15c74e8435e95c71","bdp_wmem","Wed Mar 15 2023 15:59:21 GMT-0400 (Eastern Daylight Time)","551015","Match,No Match","","","fullscreenenter","2","4310","fullscreenenter","","","","","","","","","","","","","","",""
"fullscreen","2","5310","0.0-2.0","6105338a15c74e8435e95c71","bdp_wmem","Wed Mar 15 2023 15:59:21 GMT-0400 (Eastern Daylight Time)","551015","Match,No Match","","","","","","","true","","","","","","","","","","","","","",""
"instructions","3","47581","0.0-4.0","6105338a15c74e8435e95c71","bdp_wmem","Wed Mar 15 2023 15:59:21 GMT-0400 (Eastern Daylight Time)","551015","Match,No Match","[{""page_index"":0,""viewing_time"":10278},{""page_index"":1,""viewing_time"":14027},{""page_index"":2,""viewing_time"":10494},{""page_index"":3,""viewing_time"":3174},{""page_index"":4,""viewing_time"":4294}]","42268","","","","","","","","","","","","","","","","","","",""
"html-keyboard-response","4","48084","0.0-5.0-1.0","6105338a15c74e8435e95c71","bdp_wmem","Wed Mar 15 2023 15:59:21 GMT-0400 (Eastern Daylight Time)","551015","Match,No Match","","null","","","","","","<div class='trialBorder'><div class='vertical-center'><img src='img/fixation2_sml.jpg'</img></div></div>","null","FIX","","","","","","","","","","",""
"html-keyboard-response","5","52596","0.0-5.0-2.0","6105338a15c74e8435e95c71","bdp_wmem","Wed Mar 15 2023 15:59:21 GMT-0400 (Eastern Daylight Time)","551015","Match,No Match","","null","","","","","","<div class='trialBorder'><div class='vertical-center'><img style='vertical-align:center; align:center' src='img/fixation2_sml.jpg'></div><div class='arrayDiv3'><div class='tl'><img class='introPic' src='trustrating_stim/white_mw078.bmp'><br><font color='green'><strong>Share</strong></font></div><div class='tc'><img class='introPic' src='trustrating_stim/white_mw092.bmp'><br><font color='red'><strong>Keep</strong></font></div><div class='tr'><img class='introPic' src='trustrating_stim/white_mw070.bmp'><br><font color='green'><strong>Share</strong></font></div></div></div>","null","ARRAY","3","trustrating_stim/white_mw078.bmp,trustrating_stim/white_mw092.bmp,trustrating_stim/white_mw070.bmp","1,0,1","Match","e","4500","","","","",""
"html-keyboard-response","6","56606","0.0-5.0-3.0","6105338a15c74e8435e95c71","bdp_wmem","Wed Mar 15 2023 15:59:21 GMT-0400 (Eastern Daylight Time)","551015","Match,No Match","","null","","","","","","<div class='trialBorder'><div class='vertical-center'><img src='img/fixation2_sml.jpg'</img></div></div>","null","DELAY","","","","","","","","","","",""
"html-keyboard-response","7","58273","0.0-5.0-4.0","6105338a15c74e8435e95c71","bdp_wmem","Wed Mar 15 2023 15:59:21 GMT-0400 (Eastern Daylight Time)","551015","Match,No Match","","1663","","","","","","<div class='trialBorder'><div class='targDiv'><div class='tc'><img class='introPic' src='trustrating_stim/white_mw070.bmp'><br><font color='green'><strong>Share</strong></font></div></div><div class='respDiv'><div class='respDivL'>Match<br>(e)</div><div class='respDivR'>No Match<br>(i)</div></div></div>","e","TARGET","3","trustrating_stim/white_mw078.bmp,trustrating_stim/white_mw092.bmp,trustrating_stim/white_mw070.bmp","1,0,1","Match","e","4500","trustrating_stim/white_mw070.bmp","green","Share","PRACTICE","1"
"html-keyboard-response","8","58782","0.0-5.0-5.0","6105338a15c74e8435e95c71","bdp_wmem","Wed Mar 15 2023 15:59:21 GMT-0400 (Eastern Daylight Time)","551015","Match,No Match","","null","","","","","","<div class='trialBorder'><div class='vertical-center'><img src='img/correct.jpg'></div><div class='respDiv'><div class='respDivL'><font style='color:orange'>Match<br>(e)</font></div><div class='respDivR'>No Match<br>(i)</div></div></div>","null","FEEDBACK","","","","","","","","","","",""
"html-keyboard-response","9","59294","0.0-5.0-1.1","6105338a15c74e8435e95c71","bdp_wmem","Wed Mar 15 2023 15:59:21 GMT-0400 (Eastern Daylight Time)","551015","Match,No Match","","null","","","","","","<div class='trialBorder'><div class='vertical-center'><img src='img/fixation2_sml.jpg'</img></div></div>","null","FIX","","","","","","","","","","",""
"html-keyboard-response","10","62302","0.0-5.0-2.1","6105338a15c74e8435e95c71","bdp_wmem","Wed Mar 15 2023 15:59:21 GMT-0400 (Eastern Daylight Time)","551015","Match,No Match","","null","","","","","","<div class='trialBorder'><div class='vertical-center'><img style='vertical-align:center; align:center' src='img/fixation2_sml.jpg'></div><div class='arrayDiv2'><div class='tl'><img class='introPic' src='trustrating_stim/white_mw040.bmp'><br><font color='red'><strong>Keep</strong></font></div><div class='tr'><img class='introPic' src='trustrating_stim/white_mw092.bmp'><br><font color='green'><strong>Share</strong></font></div></div></div>","null","ARRAY","2","trustrating_stim/white_mw040.bmp,trustrating_stim/white_mw092.bmp","0,1","Match","e","3000","","","","",""
"html-keyboard-response","11","66308","0.0-5.0-3.1","6105338a15c74e8435e95c71","bdp_wmem","Wed Mar 15 2023 15:59:21 GMT-0400 (Eastern Daylight Time)","551015","Match,No Match","","null","","","","","","<div class='trialBorder'><div class='vertical-center'><img src='img/fixation2_sml.jpg'</img></div></div>","null","DELAY","","","","","","","","","","",""
"html-keyboard-response","12","67624","0.0-5.0-4.1","6105338a15c74e8435e95c71","bdp_wmem","Wed Mar 15 2023 15:59:21 GMT-0400 (Eastern Daylight Time)","551015","Match,No Match","","1312","","","","","","<div class='trialBorder'><div class='targDiv'><div class='tc'><img class='introPic' src='trustrating_stim/white_mw092.bmp'><br><font color='green'><strong>Share</strong></font></div></div><div class='respDiv'><div class='respDivL'>Match<br>(e)</div><div class='respDivR'>No Match<br>(i)</div></div></div>","e","TARGET","2","trustrating_stim/white_mw040.bmp,trustrating_stim/white_mw092.bmp","0,1","Match","e","3000","trustrating_stim/white_mw092.bmp","green","Share","PRACTICE","1"
"html-keyboard-response","13","68133","0.0-5.0-5.1","6105338a15c74e8435e95c71","bdp_wmem","Wed Mar 15 2023 15:59:21 GMT-0400 (Eastern Daylight Time)","551015","Match,No Match","","null","","","","","","<div class='trialBorder'><div class='vertical-center'><img src='img/correct.jpg'></div><div class='respDiv'><div class='respDivL'><font style='color:orange'>Match<br>(e)</font></div><div class='respDivR'>No Match<br>(i)</div></div></div>","null","FEEDBACK","","","","","","","","","","",""
"html-keyboard-response","14","68643","0.0-5.0-1.2","6105338a15c74e8435e95c71","bdp_wmem","Wed Mar 15 2023 15:59:21 GMT-0400 (Eastern Daylight Time)","551015","Match,No Match","","null","","","","","","<div class='trialBorder'><div class='vertical-center'><img src='img/fixation2_sml.jpg'</img></div></div>","null","FIX","","","","","","","","","","",""
"html-keyboard-response","15","70147","0.0-5.0-2.2","6105338a15c74e8435e95c71","bdp_wmem","Wed Mar 15 2023 15:59:21 GMT-0400 (Eastern Daylight Time)","551015","Match,No Match","","null","","","","","","<div class='trialBorder'><div class='vertical-center'><img style='vertical-align:center; align:center' src='img/fixation2_sml.jpg'></div><div class='arrayDiv1'><div class='tc'><img class='introPic' src='trustrating_stim/white_mw010.bmp'><br><font color='green'><strong>Share</strong></font></div></div></div>","null","ARRAY","1","trustrating_stim/white_mw010.bmp","1","noMatchFace","i","1500","","","","",""
"html-keyboard-response","16","74158","0.0-5.0-3.2","6105338a15c74e8435e95c71","bdp_wmem","Wed Mar 15 2023 15:59:21 GMT-0400 (Eastern Daylight Time)","551015","Match,No Match","","null","","","","","","<div class='trialBorder'><div class='vertical-center'><img src='img/fixation2_sml.jpg'</img></div></div>","null","DELAY","","","","","","","","","","",""
"html-keyboard-response","17","75021","0.0-5.0-4.2","6105338a15c74e8435e95c71","bdp_wmem","Wed Mar 15 2023 15:59:21 GMT-0400 (Eastern Daylight Time)","551015","Match,No Match","","860","","","","","","<div class='trialBorder'><div class='targDiv'><div class='tc'><img class='introPic' src='trustrating_stim/white_mw012.bmp'><br><font color='green'><strong>Share</strong></font></div></div><div class='respDiv'><div class='respDivL'>Match<br>(e)</div><div class='respDivR'>No Match<br>(i)</div></div></div>","i","TARGET","1","trustrating_stim/white_mw010.bmp","1","noMatchFace","i","1500","trustrating_stim/white_mw012.bmp","green","Share","PRACTICE","1"
"html-keyboard-response","18","75524","0.0-5.0-5.2","6105338a15c74e8435e95c71","bdp_wmem","Wed Mar 15 2023 15:59:21 GMT-0400 (Eastern Daylight Time)","551015","Match,No Match","","null","","","","","","<div class='trialBorder'><div class='vertical-center'><img src='img/correct.jpg'></div><div class='respDiv'><div class='respDivL'>Match<br>(e)</div><div class='respDivR'><font style='color:orange'>No Match<br>(i)</font></div></div></div>","null","FEEDBACK","","","","","","","","","","",""
"html-keyboard-response","19","76030","0.0-5.0-1.3","6105338a15c74e8435e95c71","bdp_wmem","Wed Mar 15 2023 15:59:21 GMT-0400 (Eastern Daylight Time)","551015","Match,No Match","","null","","","","","","<div class='trialBorder'><div class='vertical-center'><img src='img/fixation2_sml.jpg'</img></div></div>","null","FIX","","","","","","","","","","",""
"html-keyboard-response","20","77540","0.0-5.0-2.3","6105338a15c74e8435e95c71","bdp_wmem","Wed Mar 15 2023 15:59:21 GMT-0400 (Eastern Daylight Time)","551015","Match,No Match","","null","","","","","","<div class='trialBorder'><div class='vertical-center'><img style='vertical-align:center; align:center' src='img/fixation2_sml.jpg'></div><div class='arrayDiv1'><div class='tc'><img class='introPic' src='trustrating_stim/white_mw042.bmp'><br><font color='red'><strong>Keep</strong></font></div></div></div>","null","ARRAY","1","trustrating_stim/white_mw042.bmp","0","Match","e","1500","","","","",""
"html-keyboard-response","21","81550","0.0-5.0-3.3","6105338a15c74e8435e95c71","bdp_wmem","Wed Mar 15 2023 15:59:21 GMT-0400 (Eastern Daylight Time)","551015","Match,No Match","","null","","","","","","<div class='trialBorder'><div class='vertical-center'><img src='img/fixation2_sml.jpg'</img></div></div>","null","DELAY","","","","","","","","","","",""
"html-keyboard-response","22","82774","0.0-5.0-4.3","6105338a15c74e8435e95c71","bdp_wmem","Wed Mar 15 2023 15:59:21 GMT-0400 (Eastern Daylight Time)","551015","Match,No Match","","1220","","","","","","<div class='trialBorder'><div class='targDiv'><div class='tc'><img class='introPic' src='trustrating_stim/white_mw042.bmp'><br><font color='red'><strong>Keep</strong></font></div></div><div class='respDiv'><div class='respDivL'>Match<br>(e)</div><div class='respDivR'>No Match<br>(i)</div></div></div>","e","TARGET","1","trustrating_stim/white_mw042.bmp","0","Match","e","1500","trustrating_stim/white_mw042.bmp","red","Keep","PRACTICE","1"
"html-keyboard-response","23","83278","0.0-5.0-5.3","6105338a15c74e8435e95c71","bdp_wmem","Wed Mar 15 2023 15:59:21 GMT-0400 (Eastern Daylight Time)","551015","Match,No Match","","null","","","","","","<div class='trialBorder'><div class='vertical-center'><img src='img/correct.jpg'></div><div class='respDiv'><div class='respDivL'><font style='color:orange'>Match<br>(e)</font></div><div class='respDivR'>No Match<br>(i)</div></div></div>","null","FEEDBACK","","","","","","","","","","",""
"html-keyboard-response","24","83792","0.0-5.0-1.4","6105338a15c74e8435e95c71","bdp_wmem","Wed Mar 15 2023 15:59:21 GMT-0400 (Eastern Daylight Time)","551015","Match,No Match","","null","","","","","","<div class='trialBorder'><div class='vertical-center'><img src='img/fixation2_sml.jpg'</img></div></div>","null","FIX","","","","","","","","","","",""
"html-keyboard-response","25","88302","0.0-5.0-2.4","6105338a15c74e8435e95c71","bdp_wmem","Wed Mar 15 2023 15:59:21 GMT-0400 (Eastern Daylight Time)","551015","Match,No Match","","null","","","","","","<div class='trialBorder'><div class='vertical-center'><img style='vertical-align:center; align:center' src='img/fixation2_sml.jpg'></div><div class='arrayDiv3'><div class='tl'><img class='introPic' src='trustrating_stim/white_mw078.bmp'><br><font color='green'><strong>Share</strong></font></div><div class='tc'><img class='introPic' src='trustrating_stim/white_mw040.bmp'><br><font color='red'><strong>Keep</strong></font></div><div class='tr'><img class='introPic' src='trustrating_stim/white_mw085.bmp'><br><font color='red'><strong>Keep</strong></font></div></div></div>","null","ARRAY","3","trustrating_stim/white_mw078.bmp,trustrating_stim/white_mw040.bmp,trustrating_stim/white_mw085.bmp","1,0,0","noMatchOutcome","i","4500","","","","",""
"html-keyboard-response","26","92308","0.0-5.0-3.4","6105338a15c74e8435e95c71","bdp_wmem","Wed Mar 15 2023 15:59:21 GMT-0400 (Eastern Daylight Time)","551015","Match,No Match","","null","","","","","","<div class='trialBorder'><div class='vertical-center'><img src='img/fixation2_sml.jpg'</img></div></div>","null","DELAY","","","","","","","","","","",""
"html-keyboard-response","27","94879","0.0-5.0-4.4","6105338a15c74e8435e95c71","bdp_wmem","Wed Mar 15 2023 15:59:21 GMT-0400 (Eastern Daylight Time)","551015","Match,No Match","","2569","","","","","","<div class='trialBorder'><div class='targDiv'><div class='tc'><img class='introPic' src='trustrating_stim/white_mw040.bmp'><br><font color='green'><strong>Share</strong></font></div></div><div class='respDiv'><div class='respDivL'>Match<br>(e)</div><div class='respDivR'>No Match<br>(i)</div></div></div>","e","TARGET","3","trustrating_stim/white_mw078.bmp,trustrating_stim/white_mw040.bmp,trustrating_stim/white_mw085.bmp","1,0,0","noMatchOutcome","i","4500","trustrating_stim/white_mw040.bmp","green","Share","PRACTICE","0"
"html-keyboard-response","28","95390","0.0-5.0-5.4","6105338a15c74e8435e95c71","bdp_wmem","Wed Mar 15 2023 15:59:21 GMT-0400 (Eastern Daylight Time)","551015","Match,No Match","","null","","","","","","<div class='trialBorder'><div class='vertical-center'><img src='img/error.jpg'></div><div class='respDiv'><div class='respDivL'><font style='color:orange'>Match<br>(e)</font></div><div class='respDivR'>No Match<br>(i)</div></div></div>","null","FEEDBACK","","","","","","","","","","",""
"html-keyboard-response","29","95900","0.0-5.0-1.5","6105338a15c74e8435e95c71","bdp_wmem","Wed Mar 15 2023 15:59:21 GMT-0400 (Eastern Daylight Time)","551015","Match,No Match","","null","","","","","","<div class='trialBorder'><div class='vertical-center'><img src='img/fixation2_sml.jpg'</img></div></div>","null","FIX","","","","","","","","","","",""
"html-keyboard-response","30","98911","0.0-5.0-2.5","6105338a15c74e8435e95c71","bdp_wmem","Wed Mar 15 2023 15:59:21 GMT-0400 (Eastern Daylight Time)","551015","Match,No Match","","null","","","","","","<div class='trialBorder'><div class='vertical-center'><img style='vertical-align:center; align:center' src='img/fixation2_sml.jpg'></div><div class='arrayDiv2'><div class='tl'><img class='introPic' src='trustrating_stim/white_mw070.bmp'><br><font color='red'><strong>Keep</strong></font></div><div class='tr'><img class='introPic' src='trustrating_stim/white_mw038.bmp'><br><font color='green'><strong>Share</strong></font></div></div></div>","null","ARRAY","2","trustrating_stim/white_mw070.bmp,trustrating_stim/white_mw038.bmp","0,1","noMatchOutcome","i","3000","","","","",""
"html-keyboard-response","31","102916","0.0-5.0-3.5","6105338a15c74e8435e95c71","bdp_wmem","Wed Mar 15 2023 15:59:21 GMT-0400 (Eastern Daylight Time)","551015","Match,No Match","","null","","","","","","<div class='trialBorder'><div class='vertical-center'><img src='img/fixation2_sml.jpg'</img></div></div>","null","DELAY","","","","","","","","","","",""
"html-keyboard-response","32","104324","0.0-5.0-4.5","6105338a15c74e8435e95c71","bdp_wmem","Wed Mar 15 2023 15:59:21 GMT-0400 (Eastern Daylight Time)","551015","Match,No Match","","1404","","","","","","<div class='trialBorder'><div class='targDiv'><div class='tc'><img class='introPic' src='trustrating_stim/white_mw038.bmp'><br><font color='red'><strong>Keep</strong></font></div></div><div class='respDiv'><div class='respDivL'>Match<br>(e)</div><div class='respDivR'>No Match<br>(i)</div></div></div>","e","TARGET","2","trustrating_stim/white_mw070.bmp,trustrating_stim/white_mw038.bmp","0,1","noMatchOutcome","i","3000","trustrating_stim/white_mw038.bmp","red","Keep","PRACTICE","0"
"html-keyboard-response","33","104830","0.0-5.0-5.5","6105338a15c74e8435e95c71","bdp_wmem","Wed Mar 15 2023 15:59:21 GMT-0400 (Eastern Daylight Time)","551015","Match,No Match","","null","","","","","","<div class='trialBorder'><div class='vertical-center'><img src='img/error.jpg'></div><div class='respDiv'><div class='respDivL'><font style='color:orange'>Match<br>(e)</font></div><div class='respDivR'>No Match<br>(i)</div></div></div>","null","FEEDBACK","","","","","","","","","","",""
"instructions","34","108986","0.0-6.0","6105338a15c74e8435e95c71","bdp_wmem","Wed Mar 15 2023 15:59:21 GMT-0400 (Eastern Daylight Time)","551015","Match,No Match","[{""page_index"":0,""viewing_time"":4154}]","4154","","","","","","","","","","","","","","","","","","",""
"html-keyboard-response","35","109491","0.0-7.0-1.0","6105338a15c74e8435e95c71","bdp_wmem","Wed Mar 15 2023 15:59:21 GMT-0400 (Eastern Daylight Time)","551015","Match,No Match","","null","","","","","","<div class='trialBorder'><div class='vertical-center'><img src='img/fixation2_sml.jpg'</img></div></div>","null","FIX","","","","","","","","","","",""
"html-keyboard-response","36","114004","0.0-7.0-2.0","6105338a15c74e8435e95c71","bdp_wmem","Wed Mar 15 2023 15:59:21 GMT-0400 (Eastern Daylight Time)","551015","Match,No Match","","null","","","","","","<div class='trialBorder'><div class='vertical-center'><img style='vertical-align:center; align:center' src='img/fixation2_sml.jpg'></div><div class='arrayDiv3'><div class='tl'><img class='introPic' src='trustrating_stim/white_mw078.bmp'><br><font color='green'><strong>Share</strong></font></div><div class='tc'><img class='introPic' src='trustrating_stim/white_mw010.bmp'><br><font color='red'><strong>Keep</strong></font></div><div class='tr'><img class='introPic' src='trustrating_stim/white_mw070.bmp'><br><font color='green'><strong>Share</strong></font></div></div></div>","null","ARRAY","3","trustrating_stim/white_mw078.bmp,trustrating_stim/white_mw010.bmp,trustrating_stim/white_mw070.bmp","1,0,1","noMatchFace","i","4500","","","","",""
"html-keyboard-response","37","118015","0.0-7.0-3.0","6105338a15c74e8435e95c71","bdp_wmem","Wed Mar 15 2023 15:59:21 GMT-0400 (Eastern Daylight Time)","551015","Match,No Match","","null","","","","","","<div class='trialBorder'><div class='vertical-center'><img src='img/fixation2_sml.jpg'</img></div></div>","null","DELAY","","","","","","","","","","",""
"html-keyboard-response","38","119417","0.0-7.0-4.0","6105338a15c74e8435e95c71","bdp_wmem","Wed Mar 15 2023 15:59:21 GMT-0400 (Eastern Daylight Time)","551015","Match,No Match","","1401","","","","","","<div class='trialBorder'><div class='targDiv'><div class='tc'><img class='introPic' src='trustrating_stim/white_mw013.bmp'><br><font color='red'><strong>Keep</strong></font></div></div><div class='respDiv'><div class='respDivL'>Match<br>(e)</div><div class='respDivR'>No Match<br>(i)</div></div></div>","i","TARGET","3","trustrating_stim/white_mw078.bmp,trustrating_stim/white_mw010.bmp,trustrating_stim/white_mw070.bmp","1,0,1","noMatchFace","i","4500","trustrating_stim/white_mw013.bmp","red","Keep","REAL","1"
"html-keyboard-response","39","119923","0.0-7.0-5.0","6105338a15c74e8435e95c71","bdp_wmem","Wed Mar 15 2023 15:59:21 GMT-0400 (Eastern Daylight Time)","551015","Match,No Match","","null","","","","","","<div class='trialBorder'><div class='vertical-center'><img src='img/correct.jpg'></div><div class='respDiv'><div class='respDivL'>Match<br>(e)</div><div class='respDivR'><font style='color:orange'>No Match<br>(i)</font></div></div></div>","null","FEEDBACK","","","","","","","","","","",""
"html-keyboard-response","40","120430","0.0-7.0-1.1","6105338a15c74e8435e95c71","bdp_wmem","Wed Mar 15 2023 15:59:21 GMT-0400 (Eastern Daylight Time)","551015","Match,No Match","","null","","","","","","<div class='trialBorder'><div class='vertical-center'><img src='img/fixation2_sml.jpg'</img></div></div>","null","FIX","","","","","","","","","","",""
"html-keyboard-response","41","123438","0.0-7.0-2.1","6105338a15c74e8435e95c71","bdp_wmem","Wed Mar 15 2023 15:59:21 GMT-0400 (Eastern Daylight Time)","551015","Match,No Match","","null","","","","","","<div class='trialBorder'><div class='vertical-center'><img style='vertical-align:center; align:center' src='img/fixation2_sml.jpg'></div><div class='arrayDiv2'><div class='tl'><img class='introPic' src='trustrating_stim/white_mw038.bmp'><br><font color='green'><strong>Share</strong></font></div><div class='tr'><img class='introPic' src='trustrating_stim/white_mw013.bmp'><br><font color='red'><strong>Keep</strong></font></div></div></div>","null","ARRAY","2","trustrating_stim/white_mw038.bmp,trustrating_stim/white_mw013.bmp","1,0","Match","e","3000","","","","",""
"html-keyboard-response","42","127443","0.0-7.0-3.1","6105338a15c74e8435e95c71","bdp_wmem","Wed Mar 15 2023 15:59:21 GMT-0400 (Eastern Daylight Time)","551015","Match,No Match","","null","","","","","","<div class='trialBorder'><div class='vertical-center'><img src='img/fixation2_sml.jpg'</img></div></div>","null","DELAY","","","","","","","","","","",""
"html-keyboard-response","43","129520","0.0-7.0-4.1","6105338a15c74e8435e95c71","bdp_wmem","Wed Mar 15 2023 15:59:21 GMT-0400 (Eastern Daylight Time)","551015","Match,No Match","","2075","","","","","","<div class='trialBorder'><div class='targDiv'><div class='tc'><img class='introPic' src='trustrating_stim/white_mw013.bmp'><br><font color='red'><strong>Keep</strong></font></div></div><div class='respDiv'><div class='respDivL'>Match<br>(e)</div><div class='respDivR'>No Match<br>(i)</div></div></div>","e","TARGET","2","trustrating_stim/white_mw038.bmp,trustrating_stim/white_mw013.bmp","1,0","Match","e","3000","trustrating_stim/white_mw013.bmp","red","Keep","REAL","1"
"html-keyboard-response","44","130030","0.0-7.0-5.1","6105338a15c74e8435e95c71","bdp_wmem","Wed Mar 15 2023 15:59:21 GMT-0400 (Eastern Daylight Time)","551015","Match,No Match","","null","","","","","","<div class='trialBorder'><div class='vertical-center'><img src='img/correct.jpg'></div><div class='respDiv'><div class='respDivL'><font style='color:orange'>Match<br>(e)</font></div><div class='respDivR'>No Match<br>(i)</div></div></div>","null","FEEDBACK","","","","","","","","","","",""
"html-keyboard-response","45","130540","0.0-7.0-1.2","6105338a15c74e8435e95c71","bdp_wmem","Wed Mar 15 2023 15:59:21 GMT-0400 (Eastern Daylight Time)","551015","Match,No Match","","null","","","","","","<div class='trialBorder'><div class='vertical-center'><img src='img/fixation2_sml.jpg'</img></div></div>","null","FIX","","","","","","","","","","",""
"html-keyboard-response","46","133551","0.0-7.0-2.2","6105338a15c74e8435e95c71","bdp_wmem","Wed Mar 15 2023 15:59:21 GMT-0400 (Eastern Daylight Time)","551015","Match,No Match","","null","","","","","","<div class='trialBorder'><div class='vertical-center'><img style='vertical-align:center; align:center' src='img/fixation2_sml.jpg'></div><div class='arrayDiv2'><div class='tl'><img class='introPic' src='trustrating_stim/white_mw040.bmp'><br><font color='green'><strong>Share</strong></font></div><div class='tr'><img class='introPic' src='trustrating_stim/white_mw010.bmp'><br><font color='red'><strong>Keep</strong></font></div></div></div>","null","ARRAY","2","trustrating_stim/white_mw040.bmp,trustrating_stim/white_mw010.bmp","1,0","noMatchFace","i","3000","","","","",""
"html-keyboard-response","47","137556","0.0-7.0-3.2","6105338a15c74e8435e95c71","bdp_wmem","Wed Mar 15 2023 15:59:21 GMT-0400 (Eastern Daylight Time)","551015","Match,No Match","","null","","","","","","<div class='trialBorder'><div class='vertical-center'><img src='img/fixation2_sml.jpg'</img></div></div>","null","DELAY","","","","","","","","","","",""
"html-keyboard-response","48","138675","0.0-7.0-4.2","6105338a15c74e8435e95c71","bdp_wmem","Wed Mar 15 2023 15:59:21 GMT-0400 (Eastern Daylight Time)","551015","Match,No Match","","1116","","","","","","<div class='trialBorder'><div class='targDiv'><div class='tc'><img class='introPic' src='trustrating_stim/white_mw003.bmp'><br><font color='red'><strong>Keep</strong></font></div></div><div class='respDiv'><div class='respDivL'>Match<br>(e)</div><div class='respDivR'>No Match<br>(i)</div></div></div>","i","TARGET","2","trustrating_stim/white_mw040.bmp,trustrating_stim/white_mw010.bmp","1,0","noMatchFace","i","3000","trustrating_stim/white_mw003.bmp","red","Keep","REAL","1"
"html-keyboard-response","49","139182","0.0-7.0-5.2","6105338a15c74e8435e95c71","bdp_wmem","Wed Mar 15 2023 15:59:21 GMT-0400 (Eastern Daylight Time)","551015","Match,No Match","","null","","","","","","<div class='trialBorder'><div class='vertical-center'><img src='img/correct.jpg'></div><div class='respDiv'><div class='respDivL'>Match<br>(e)</div><div class='respDivR'><font style='color:orange'>No Match<br>(i)</font></div></div></div>","null","FEEDBACK","","","","","","","","","","",""
"html-keyboard-response","50","139694","0.0-7.0-1.3","6105338a15c74e8435e95c71","bdp_wmem","Wed Mar 15 2023 15:59:21 GMT-0400 (Eastern Daylight Time)","551015","Match,No Match","","null","","","","","","<div class='trialBorder'><div class='vertical-center'><img src='img/fixation2_sml.jpg'</img></div></div>","null","FIX","","","","","","","","","","",""
"html-keyboard-response","51","144206","0.0-7.0-2.3","6105338a15c74e8435e95c71","bdp_wmem","Wed Mar 15 2023 15:59:21 GMT-0400 (Eastern Daylight Time)","551015","Match,No Match","","null","","","","","","<div class='trialBorder'><div class='vertical-center'><img style='vertical-align:center; align:center' src='img/fixation2_sml.jpg'></div><div class='arrayDiv3'><div class='tl'><img class='introPic' src='trustrating_stim/white_mw078.bmp'><br><font color='green'><strong>Share</strong></font></div><div class='tc'><img class='introPic' src='trustrating_stim/white_mw085.bmp'><br><font color='red'><strong>Keep</strong></font></div><div class='tr'><img class='introPic' src='trustrating_stim/white_mw003.bmp'><br><font color='red'><strong>Keep</strong></font></div></div></div>","null","ARRAY","3","trustrating_stim/white_mw078.bmp,trustrating_stim/white_mw085.bmp,trustrating_stim/white_mw003.bmp","1,0,0","Match","e","4500","","","","",""
"html-keyboard-response","52","148211","0.0-7.0-3.3","6105338a15c74e8435e95c71","bdp_wmem","Wed Mar 15 2023 15:59:21 GMT-0400 (Eastern Daylight Time)","551015","Match,No Match","","null","","","","","","<div class='trialBorder'><div class='vertical-center'><img src='img/fixation2_sml.jpg'</img></div></div>","null","DELAY","","","","","","","","","","",""
"html-keyboard-response","53","148933","0.0-7.0-4.3","6105338a15c74e8435e95c71","bdp_wmem","Wed Mar 15 2023 15:59:21 GMT-0400 (Eastern Daylight Time)","551015","Match,No Match","","718","","","","","","<div class='trialBorder'><div class='targDiv'><div class='tc'><img class='introPic' src='trustrating_stim/white_mw078.bmp'><br><font color='green'><strong>Share</strong></font></div></div><div class='respDiv'><div class='respDivL'>Match<br>(e)</div><div class='respDivR'>No Match<br>(i)</div></div></div>","e","TARGET","3","trustrating_stim/white_mw078.bmp,trustrating_stim/white_mw085.bmp,trustrating_stim/white_mw003.bmp","1,0,0","Match","e","4500","trustrating_stim/white_mw078.bmp","green","Share","REAL","1"
"html-keyboard-response","54","149438","0.0-7.0-5.3","6105338a15c74e8435e95c71","bdp_wmem","Wed Mar 15 2023 15:59:21 GMT-0400 (Eastern Daylight Time)","551015","Match,No Match","","null","","","","","","<div class='trialBorder'><div class='vertical-center'><img src='img/correct.jpg'></div><div class='respDiv'><div class='respDivL'><font style='color:orange'>Match<br>(e)</font></div><div class='respDivR'>No Match<br>(i)</div></div></div>","null","FEEDBACK","","","","","","","","","","",""
"html-keyboard-response","55","149950","0.0-7.0-1.4","6105338a15c74e8435e95c71","bdp_wmem","Wed Mar 15 2023 15:59:21 GMT-0400 (Eastern Daylight Time)","551015","Match,No Match","","null","","","","","","<div class='trialBorder'><div class='vertical-center'><img src='img/fixation2_sml.jpg'</img></div></div>","null","FIX","","","","","","","","","","",""
"html-keyboard-response","56","152959","0.0-7.0-2.4","6105338a15c74e8435e95c71","bdp_wmem","Wed Mar 15 2023 15:59:21 GMT-0400 (Eastern Daylight Time)","551015","Match,No Match","","null","","","","","","<div class='trialBorder'><div class='vertical-center'><img style='vertical-align:center; align:center' src='img/fixation2_sml.jpg'></div><div class='arrayDiv2'><div class='tl'><img class='introPic' src='trustrating_stim/white_mw092.bmp'><br><font color='red'><strong>Keep</strong></font></div><div class='tr'><img class='introPic' src='trustrating_stim/white_mw003.bmp'><br><font color='green'><strong>Share</strong></font></div></div></div>","null","ARRAY","2","trustrating_stim/white_mw092.bmp,trustrating_stim/white_mw003.bmp","0,1","noMatchOutcome","i","3000","","","","",""
"html-keyboard-response","57","156964","0.0-7.0-3.4","6105338a15c74e8435e95c71","bdp_wmem","Wed Mar 15 2023 15:59:21 GMT-0400 (Eastern Daylight Time)","551015","Match,No Match","","null","","","","","","<div class='trialBorder'><div class='vertical-center'><img src='img/fixation2_sml.jpg'</img></div></div>","null","DELAY","","","","","","","","","","",""
"html-keyboard-response","58","158024","0.0-7.0-4.4","6105338a15c74e8435e95c71","bdp_wmem","Wed Mar 15 2023 15:59:21 GMT-0400 (Eastern Daylight Time)","551015","Match,No Match","","1057","","","","","","<div class='trialBorder'><div class='targDiv'><div class='tc'><img class='introPic' src='trustrating_stim/white_mw003.bmp'><br><font color='red'><strong>Keep</strong></font></div></div><div class='respDiv'><div class='respDivL'>Match<br>(e)</div><div class='respDivR'>No Match<br>(i)</div></div></div>","e","TARGET","2","trustrating_stim/white_mw092.bmp,trustrating_stim/white_mw003.bmp","0,1","noMatchOutcome","i","3000","trustrating_stim/white_mw003.bmp","red","Keep","REAL","0"
"html-keyboard-response","59","158532","0.0-7.0-5.4","6105338a15c74e8435e95c71","bdp_wmem","Wed Mar 15 2023 15:59:21 GMT-0400 (Eastern Daylight Time)","551015","Match,No Match","","null","","","","","","<div class='trialBorder'><div class='vertical-center'><img src='img/error.jpg'></div><div class='respDiv'><div class='respDivL'><font style='color:orange'>Match<br>(e)</font></div><div class='respDivR'>No Match<br>(i)</div></div></div>","null","FEEDBACK","","","","","","","","","","",""
"html-keyboard-response","60","159038","0.0-7.0-1.5","6105338a15c74e8435e95c71","bdp_wmem","Wed Mar 15 2023 15:59:21 GMT-0400 (Eastern Daylight Time)","551015","Match,No Match","","null","","","","","","<div class='trialBorder'><div class='vertical-center'><img src='img/fixation2_sml.jpg'</img></div></div>","null","FIX","","","","","","","","","","",""
"html-keyboard-response","61","162043","0.0-7.0-2.5","6105338a15c74e8435e95c71","bdp_wmem","Wed Mar 15 2023 15:59:21 GMT-0400 (Eastern Daylight Time)","551015","Match,No Match","","null","","","","","","<div class='trialBorder'><div class='vertical-center'><img style='vertical-align:center; align:center' src='img/fixation2_sml.jpg'></div><div class='arrayDiv2'><div class='tl'><img class='introPic' src='trustrating_stim/white_mw070.bmp'><br><font color='green'><strong>Share</strong></font></div><div class='tr'><img class='introPic' src='trustrating_stim/white_mw078.bmp'><br><font color='red'><strong>Keep</strong></font></div></div></div>","null","ARRAY","2","trustrating_stim/white_mw070.bmp,trustrating_stim/white_mw078.bmp","1,0","Match","e","3000","","","","",""
"html-keyboard-response","62","166052","0.0-7.0-3.5","6105338a15c74e8435e95c71","bdp_wmem","Wed Mar 15 2023 15:59:21 GMT-0400 (Eastern Daylight Time)","551015","Match,No Match","","null","","","","","","<div class='trialBorder'><div class='vertical-center'><img src='img/fixation2_sml.jpg'</img></div></div>","null","DELAY","","","","","","","","","","",""
"html-keyboard-response","63","167491","0.0-7.0-4.5","6105338a15c74e8435e95c71","bdp_wmem","Wed Mar 15 2023 15:59:21 GMT-0400 (Eastern Daylight Time)","551015","Match,No Match","","1437","","","","","","<div class='trialBorder'><div class='targDiv'><div class='tc'><img class='introPic' src='trustrating_stim/white_mw078.bmp'><br><font color='red'><strong>Keep</strong></font></div></div><div class='respDiv'><div class='respDivL'>Match<br>(e)</div><div class='respDivR'>No Match<br>(i)</div></div></div>","i","TARGET","2","trustrating_stim/white_mw070.bmp,trustrating_stim/white_mw078.bmp","1,0","Match","e","3000","trustrating_stim/white_mw078.bmp","red","Keep","REAL","0"
"html-keyboard-response","64","167998","0.0-7.0-5.5","6105338a15c74e8435e95c71","bdp_wmem","Wed Mar 15 2023 15:59:21 GMT-0400 (Eastern Daylight Time)","551015","Match,No Match","","null","","","","","","<div class='trialBorder'><div class='vertical-center'><img src='img/error.jpg'></div><div class='respDiv'><div class='respDivL'>Match<br>(e)</div><div class='respDivR'><font style='color:orange'>No Match<br>(i)</font></div></div></div>","null","FEEDBACK","","","","","","","","","","",""
"html-keyboard-response","65","168510","0.0-7.0-1.6","6105338a15c74e8435e95c71","bdp_wmem","Wed Mar 15 2023 15:59:21 GMT-0400 (Eastern Daylight Time)","551015","Match,No Match","","null","","","","","","<div class='trialBorder'><div class='vertical-center'><img src='img/fixation2_sml.jpg'</img></div></div>","null","FIX","","","","","","","","","","",""
"html-keyboard-response","66","173022","0.0-7.0-2.6","6105338a15c74e8435e95c71","bdp_wmem","Wed Mar 15 2023 15:59:21 GMT-0400 (Eastern Daylight Time)","551015","Match,No Match","","null","","","","","","<div class='trialBorder'><div class='vertical-center'><img style='vertical-align:center; align:center' src='img/fixation2_sml.jpg'></div><div class='arrayDiv3'><div class='tl'><img class='introPic' src='trustrating_stim/white_mw038.bmp'><br><font color='green'><strong>Share</strong></font></div><div class='tc'><img class='introPic' src='trustrating_stim/white_mw003.bmp'><br><font color='red'><strong>Keep</strong></font></div><div class='tr'><img class='introPic' src='trustrating_stim/white_mw012.bmp'><br><font color='green'><strong>Share</strong></font></div></div></div>","null","ARRAY","3","trustrating_stim/white_mw038.bmp,trustrating_stim/white_mw003.bmp,trustrating_stim/white_mw012.bmp","1,0,1","Match","e","4500","","","","",""
"html-keyboard-response","67","177028","0.0-7.0-3.6","6105338a15c74e8435e95c71","bdp_wmem","Wed Mar 15 2023 15:59:21 GMT-0400 (Eastern Daylight Time)","551015","Match,No Match","","null","","","","","","<div class='trialBorder'><div class='vertical-center'><img src='img/fixation2_sml.jpg'</img></div></div>","null","DELAY","","","","","","","","","","",""
"html-keyboard-response","68","178369","0.0-7.0-4.6","6105338a15c74e8435e95c71","bdp_wmem","Wed Mar 15 2023 15:59:21 GMT-0400 (Eastern Daylight Time)","551015","Match,No Match","","1339","","","","","","<div class='trialBorder'><div class='targDiv'><div class='tc'><img class='introPic' src='trustrating_stim/white_mw003.bmp'><br><font color='red'><strong>Keep</strong></font></div></div><div class='respDiv'><div class='respDivL'>Match<br>(e)</div><div class='respDivR'>No Match<br>(i)</div></div></div>","e","TARGET","3","trustrating_stim/white_mw038.bmp,trustrating_stim/white_mw003.bmp,trustrating_stim/white_mw012.bmp","1,0,1","Match","e","4500","trustrating_stim/white_mw003.bmp","red","Keep","REAL","1"
"html-keyboard-response","69","178878","0.0-7.0-5.6","6105338a15c74e8435e95c71","bdp_wmem","Wed Mar 15 2023 15:59:21 GMT-0400 (Eastern Daylight Time)","551015","Match,No Match","","null","","","","","","<div class='trialBorder'><div class='vertical-center'><img src='img/correct.jpg'></div><div class='respDiv'><div class='respDivL'><font style='color:orange'>Match<br>(e)</font></div><div class='respDivR'>No Match<br>(i)</div></div></div>","null","FEEDBACK","","","","","","","","","","",""
"html-keyboard-response","70","179390","0.0-7.0-1.7","6105338a15c74e8435e95c71","bdp_wmem","Wed Mar 15 2023 15:59:21 GMT-0400 (Eastern Daylight Time)","551015","Match,No Match","","null","","","","","","<div class='trialBorder'><div class='vertical-center'><img src='img/fixation2_sml.jpg'</img></div></div>","null","FIX","","","","","","","","","","",""
"html-keyboard-response","71","182398","0.0-7.0-2.7","6105338a15c74e8435e95c71","bdp_wmem","Wed Mar 15 2023 15:59:21 GMT-0400 (Eastern Daylight Time)","551015","Match,No Match","","null","","","","","","<div class='trialBorder'><div class='vertical-center'><img style='vertical-align:center; align:center' src='img/fixation2_sml.jpg'></div><div class='arrayDiv2'><div class='tl'><img class='introPic' src='trustrating_stim/white_mw038.bmp'><br><font color='green'><strong>Share</strong></font></div><div class='tr'><img class='introPic' src='trustrating_stim/white_mw010.bmp'><br><font color='red'><strong>Keep</strong></font></div></div></div>","null","ARRAY","2","trustrating_stim/white_mw038.bmp,trustrating_stim/white_mw010.bmp","1,0","noMatchOutcome","i","3000","","","","",""
"html-keyboard-response","72","186404","0.0-7.0-3.7","6105338a15c74e8435e95c71","bdp_wmem","Wed Mar 15 2023 15:59:21 GMT-0400 (Eastern Daylight Time)","551015","Match,No Match","","null","","","","","","<div class='trialBorder'><div class='vertical-center'><img src='img/fixation2_sml.jpg'</img></div></div>","null","DELAY","","","","","","","","","","",""
"html-keyboard-response","73","187590","0.0-7.0-4.7","6105338a15c74e8435e95c71","bdp_wmem","Wed Mar 15 2023 15:59:21 GMT-0400 (Eastern Daylight Time)","551015","Match,No Match","","1183","","","","","","<div class='trialBorder'><div class='targDiv'><div class='tc'><img class='introPic' src='trustrating_stim/white_mw010.bmp'><br><font color='green'><strong>Share</strong></font></div></div><div class='respDiv'><div class='respDivL'>Match<br>(e)</div><div class='respDivR'>No Match<br>(i)</div></div></div>","i","TARGET","2","trustrating_stim/white_mw038.bmp,trustrating_stim/white_mw010.bmp","1,0","noMatchOutcome","i","3000","trustrating_stim/white_mw010.bmp","green","Share","REAL","1"
"html-keyboard-response","74","188094","0.0-7.0-5.7","6105338a15c74e8435e95c71","bdp_wmem","Wed Mar 15 2023 15:59:21 GMT-0400 (Eastern Daylight Time)","551015","Match,No Match","","null","","","","","","<div class='trialBorder'><div class='vertical-center'><img src='img/correct.jpg'></div><div class='respDiv'><div class='respDivL'>Match<br>(e)</div><div class='respDivR'><font style='color:orange'>No Match<br>(i)</font></div></div></div>","null","FEEDBACK","","","","","","","","","","",""
"html-keyboard-response","75","188606","0.0-7.0-1.8","6105338a15c74e8435e95c71","bdp_wmem","Wed Mar 15 2023 15:59:21 GMT-0400 (Eastern Daylight Time)","551015","Match,No Match","","null","","","","","","<div class='trialBorder'><div class='vertical-center'><img src='img/fixation2_sml.jpg'</img></div></div>","null","FIX","","","","","","","","","","",""
"html-keyboard-response","76","191614","0.0-7.0-2.8","6105338a15c74e8435e95c71","bdp_wmem","Wed Mar 15 2023 15:59:21 GMT-0400 (Eastern Daylight Time)","551015","Match,No Match","","null","","","","","","<div class='trialBorder'><div class='vertical-center'><img style='vertical-align:center; align:center' src='img/fixation2_sml.jpg'></div><div class='arrayDiv2'><div class='tl'><img class='introPic' src='trustrating_stim/white_mw003.bmp'><br><font color='green'><strong>Share</strong></font></div><div class='tr'><img class='introPic' src='trustrating_stim/white_mw092.bmp'><br><font color='red'><strong>Keep</strong></font></div></div></div>","null","ARRAY","2","trustrating_stim/white_mw003.bmp,trustrating_stim/white_mw092.bmp","1,0","noMatchFace","i","3000","","","","",""
"html-keyboard-response","77","195620","0.0-7.0-3.8","6105338a15c74e8435e95c71","bdp_wmem","Wed Mar 15 2023 15:59:21 GMT-0400 (Eastern Daylight Time)","551015","Match,No Match","","null","","","","","","<div class='trialBorder'><div class='vertical-center'><img src='img/fixation2_sml.jpg'</img></div></div>","null","DELAY","","","","","","","","","","",""
"html-keyboard-response","78","196936","0.0-7.0-4.8","6105338a15c74e8435e95c71","bdp_wmem","Wed Mar 15 2023 15:59:21 GMT-0400 (Eastern Daylight Time)","551015","Match,No Match","","1314","","","","","","<div class='trialBorder'><div class='targDiv'><div class='tc'><img class='introPic' src='trustrating_stim/white_mw040.bmp'><br><font color='red'><strong>Keep</strong></font></div></div><div class='respDiv'><div class='respDivL'>Match<br>(e)</div><div class='respDivR'>No Match<br>(i)</div></div></div>","e","TARGET","2","trustrating_stim/white_mw003.bmp,trustrating_stim/white_mw092.bmp","1,0","noMatchFace","i","3000","trustrating_stim/white_mw040.bmp","red","Keep","REAL","0"
"html-keyboard-response","79","197444","0.0-7.0-5.8","6105338a15c74e8435e95c71","bdp_wmem","Wed Mar 15 2023 15:59:21 GMT-0400 (Eastern Daylight Time)","551015","Match,No Match","","null","","","","","","<div class='trialBorder'><div class='vertical-center'><img src='img/error.jpg'></div><div class='respDiv'><div class='respDivL'><font style='color:orange'>Match<br>(e)</font></div><div class='respDivR'>No Match<br>(i)</div></div></div>","null","FEEDBACK","","","","","","","","","","",""
"html-keyboard-response","80","197950","0.0-7.0-1.9","6105338a15c74e8435e95c71","bdp_wmem","Wed Mar 15 2023 15:59:21 GMT-0400 (Eastern Daylight Time)","551015","Match,No Match","","null","","","","","","<div class='trialBorder'><div class='vertical-center'><img src='img/fixation2_sml.jpg'</img></div></div>","null","FIX","","","","","","","","","","",""
"html-keyboard-response","81","199460","0.0-7.0-2.9","6105338a15c74e8435e95c71","bdp_wmem","Wed Mar 15 2023 15:59:21 GMT-0400 (Eastern Daylight Time)","551015","Match,No Match","","null","","","","","","<div class='trialBorder'><div class='vertical-center'><img style='vertical-align:center; align:center' src='img/fixation2_sml.jpg'></div><div class='arrayDiv1'><div class='tc'><img class='introPic' src='trustrating_stim/white_mw070.bmp'><br><font color='green'><strong>Share</strong></font></div></div></div>","null","ARRAY","1","trustrating_stim/white_mw070.bmp","1","noMatchFace","i","1500","","","","",""
"html-keyboard-response","82","203470","0.0-7.0-3.9","6105338a15c74e8435e95c71","bdp_wmem","Wed Mar 15 2023 15:59:21 GMT-0400 (Eastern Daylight Time)","551015","Match,No Match","","null","","","","","","<div class='trialBorder'><div class='vertical-center'><img src='img/fixation2_sml.jpg'</img></div></div>","null","DELAY","","","","","","","","","","",""
"html-keyboard-response","83","204333","0.0-7.0-4.9","6105338a15c74e8435e95c71","bdp_wmem","Wed Mar 15 2023 15:59:21 GMT-0400 (Eastern Daylight Time)","551015","Match,No Match","","860","","","","","","<div class='trialBorder'><div class='targDiv'><div class='tc'><img class='introPic' src='trustrating_stim/white_mw040.bmp'><br><font color='green'><strong>Share</strong></font></div></div><div class='respDiv'><div class='respDivL'>Match<br>(e)</div><div class='respDivR'>No Match<br>(i)</div></div></div>","i","TARGET","1","trustrating_stim/white_mw070.bmp","1","noMatchFace","i","1500","trustrating_stim/white_mw040.bmp","green","Share","REAL","1"
"html-keyboard-response","84","204835","0.0-7.0-5.9","6105338a15c74e8435e95c71","bdp_wmem","Wed Mar 15 2023 15:59:21 GMT-0400 (Eastern Daylight Time)","551015","Match,No Match","","null","","","","","","<div class='trialBorder'><div class='vertical-center'><img src='img/correct.jpg'></div><div class='respDiv'><div class='respDivL'>Match<br>(e)</div><div class='respDivR'><font style='color:orange'>No Match<br>(i)</font></div></div></div>","null","FEEDBACK","","","","","","","","","","",""
"html-keyboard-response","85","205342","0.0-7.0-1.10","6105338a15c74e8435e95c71","bdp_wmem","Wed Mar 15 2023 15:59:21 GMT-0400 (Eastern Daylight Time)","551015","Match,No Match","","null","","","","","","<div class='trialBorder'><div class='vertical-center'><img src='img/fixation2_sml.jpg'</img></div></div>","null","FIX","","","","","","","","","","",""
"html-keyboard-response","86","206852","0.0-7.0-2.10","6105338a15c74e8435e95c71","bdp_wmem","Wed Mar 15 2023 15:59:21 GMT-0400 (Eastern Daylight Time)","551015","Match,No Match","","null","","","","","","<div class='trialBorder'><div class='vertical-center'><img style='vertical-align:center; align:center' src='img/fixation2_sml.jpg'></div><div class='arrayDiv1'><div class='tc'><img class='introPic' src='trustrating_stim/white_mw010.bmp'><br><font color='green'><strong>Share</strong></font></div></div></div>","null","ARRAY","1","trustrating_stim/white_mw010.bmp","1","Match","e","1500","","","","",""
"html-keyboard-response","87","210862","0.0-7.0-3.10","6105338a15c74e8435e95c71","bdp_wmem","Wed Mar 15 2023 15:59:21 GMT-0400 (Eastern Daylight Time)","551015","Match,No Match","","null","","","","","","<div class='trialBorder'><div class='vertical-center'><img src='img/fixation2_sml.jpg'</img></div></div>","null","DELAY","","","","","","","","","","",""
"html-keyboard-response","88","211797","0.0-7.0-4.10","6105338a15c74e8435e95c71","bdp_wmem","Wed Mar 15 2023 15:59:21 GMT-0400 (Eastern Daylight Time)","551015","Match,No Match","","931","","","","","","<div class='trialBorder'><div class='targDiv'><div class='tc'><img class='introPic' src='trustrating_stim/white_mw010.bmp'><br><font color='green'><strong>Share</strong></font></div></div><div class='respDiv'><div class='respDivL'>Match<br>(e)</div><div class='respDivR'>No Match<br>(i)</div></div></div>","e","TARGET","1","trustrating_stim/white_mw010.bmp","1","Match","e","1500","trustrating_stim/white_mw010.bmp","green","Share","REAL","1"
"html-keyboard-response","89","212302","0.0-7.0-5.10","6105338a15c74e8435e95c71","bdp_wmem","Wed Mar 15 2023 15:59:21 GMT-0400 (Eastern Daylight Time)","551015","Match,No Match","","null","","","","","","<div class='trialBorder'><div class='vertical-center'><img src='img/correct.jpg'></div><div class='respDiv'><div class='respDivL'><font style='color:orange'>Match<br>(e)</font></div><div class='respDivR'>No Match<br>(i)</div></div></div>","null","FEEDBACK","","","","","","","","","","",""
"html-keyboard-response","90","212814","0.0-7.0-1.11","6105338a15c74e8435e95c71","bdp_wmem","Wed Mar 15 2023 15:59:21 GMT-0400 (Eastern Daylight Time)","551015","Match,No Match","","null","","","","","","<div class='trialBorder'><div class='vertical-center'><img src='img/fixation2_sml.jpg'</img></div></div>","null","FIX","","","","","","","","","","",""
"html-keyboard-response","91","217326","0.0-7.0-2.11","6105338a15c74e8435e95c71","bdp_wmem","Wed Mar 15 2023 15:59:21 GMT-0400 (Eastern Daylight Time)","551015","Match,No Match","","null","","","","","","<div class='trialBorder'><div class='vertical-center'><img style='vertical-align:center; align:center' src='img/fixation2_sml.jpg'></div><div class='arrayDiv3'><div class='tl'><img class='introPic' src='trustrating_stim/white_mw085.bmp'><br><font color='red'><strong>Keep</strong></font></div><div class='tc'><img class='introPic' src='trustrating_stim/white_mw078.bmp'><br><font color='red'><strong>Keep</strong></font></div><div class='tr'><img class='introPic' src='trustrating_stim/white_mw091.bmp'><br><font color='green'><strong>Share</strong></font></div></div></div>","null","ARRAY","3","trustrating_stim/white_mw085.bmp,trustrating_stim/white_mw078.bmp,trustrating_stim/white_mw091.bmp","0,0,1","Match","e","4500","","","","",""
"html-keyboard-response","92","221332","0.0-7.0-3.11","6105338a15c74e8435e95c71","bdp_wmem","Wed Mar 15 2023 15:59:21 GMT-0400 (Eastern Daylight Time)","551015","Match,No Match","","null","","","","","","<div class='trialBorder'><div class='vertical-center'><img src='img/fixation2_sml.jpg'</img></div></div>","null","DELAY","","","","","","","","","","",""
"html-keyboard-response","93","222589","0.0-7.0-4.11","6105338a15c74e8435e95c71","bdp_wmem","Wed Mar 15 2023 15:59:21 GMT-0400 (Eastern Daylight Time)","551015","Match,No Match","","1255","","","","","","<div class='trialBorder'><div class='targDiv'><div class='tc'><img class='introPic' src='trustrating_stim/white_mw085.bmp'><br><font color='red'><strong>Keep</strong></font></div></div><div class='respDiv'><div class='respDivL'>Match<br>(e)</div><div class='respDivR'>No Match<br>(i)</div></div></div>","e","TARGET","3","trustrating_stim/white_mw085.bmp,trustrating_stim/white_mw078.bmp,trustrating_stim/white_mw091.bmp","0,0,1","Match","e","4500","trustrating_stim/white_mw085.bmp","red","Keep","REAL","1"
"html-keyboard-response","94","223091","0.0-7.0-5.11","6105338a15c74e8435e95c71","bdp_wmem","Wed Mar 15 2023 15:59:21 GMT-0400 (Eastern Daylight Time)","551015","Match,No Match","","null","","","","","","<div class='trialBorder'><div class='vertical-center'><img src='img/correct.jpg'></div><div class='respDiv'><div class='respDivL'><font style='color:orange'>Match<br>(e)</font></div><div class='respDivR'>No Match<br>(i)</div></div></div>","null","FEEDBACK","","","","","","","","","","",""
"html-keyboard-response","95","223598","0.0-7.0-1.12","6105338a15c74e8435e95c71","bdp_wmem","Wed Mar 15 2023 15:59:21 GMT-0400 (Eastern Daylight Time)","551015","Match,No Match","","null","","","","","","<div class='trialBorder'><div class='vertical-center'><img src='img/fixation2_sml.jpg'</img></div></div>","null","FIX","","","","","","","","","","",""
"html-keyboard-response","96","228110","0.0-7.0-2.12","6105338a15c74e8435e95c71","bdp_wmem","Wed Mar 15 2023 15:59:21 GMT-0400 (Eastern Daylight Time)","551015","Match,No Match","","null","","","","","","<div class='trialBorder'><div class='vertical-center'><img style='vertical-align:center; align:center' src='img/fixation2_sml.jpg'></div><div class='arrayDiv3'><div class='tl'><img class='introPic' src='trustrating_stim/white_mw003.bmp'><br><font color='green'><strong>Share</strong></font></div><div class='tc'><img class='introPic' src='trustrating_stim/white_mw010.bmp'><br><font color='red'><strong>Keep</strong></font></div><div class='tr'><img class='introPic' src='trustrating_stim/white_mw013.bmp'><br><font color='green'><strong>Share</strong></font></div></div></div>","null","ARRAY","3","trustrating_stim/white_mw003.bmp,trustrating_stim/white_mw010.bmp,trustrating_stim/white_mw013.bmp","1,0,1","noMatchOutcome","i","4500","","","","",""
"html-keyboard-response","97","232116","0.0-7.0-3.12","6105338a15c74e8435e95c71","bdp_wmem","Wed Mar 15 2023 15:59:21 GMT-0400 (Eastern Daylight Time)","551015","Match,No Match","","null","","","","","","<div class='trialBorder'><div class='vertical-center'><img src='img/fixation2_sml.jpg'</img></div></div>","null","DELAY","","","","","","","","","","",""
"html-keyboard-response","98","233616","0.0-7.0-4.12","6105338a15c74e8435e95c71","bdp_wmem","Wed Mar 15 2023 15:59:21 GMT-0400 (Eastern Daylight Time)","551015","Match,No Match","","1497","","","","","","<div class='trialBorder'><div class='targDiv'><div class='tc'><img class='introPic' src='trustrating_stim/white_mw003.bmp'><br><font color='red'><strong>Keep</strong></font></div></div><div class='respDiv'><div class='respDivL'>Match<br>(e)</div><div class='respDivR'>No Match<br>(i)</div></div></div>","e","TARGET","3","trustrating_stim/white_mw003.bmp,trustrating_stim/white_mw010.bmp,trustrating_stim/white_mw013.bmp","1,0,1","noMatchOutcome","i","4500","trustrating_stim/white_mw003.bmp","red","Keep","REAL","0"
"html-keyboard-response","99","234126","0.0-7.0-5.12","6105338a15c74e8435e95c71","bdp_wmem","Wed Mar 15 2023 15:59:21 GMT-0400 (Eastern Daylight Time)","551015","Match,No Match","","null","","","","","","<div class='trialBorder'><div class='vertical-center'><img src='img/error.jpg'></div><div class='respDiv'><div class='respDivL'><font style='color:orange'>Match<br>(e)</font></div><div class='respDivR'>No Match<br>(i)</div></div></div>","null","FEEDBACK","","","","","","","","","","",""
"html-keyboard-response","100","234638","0.0-7.0-1.13","6105338a15c74e8435e95c71","bdp_wmem","Wed Mar 15 2023 15:59:21 GMT-0400 (Eastern Daylight Time)","551015","Match,No Match","","null","","","","","","<div class='trialBorder'><div class='vertical-center'><img src='img/fixation2_sml.jpg'</img></div></div>","null","FIX","","","","","","","","","","",""
"html-keyboard-response","101","236142","0.0-7.0-2.13","6105338a15c74e8435e95c71","bdp_wmem","Wed Mar 15 2023 15:59:21 GMT-0400 (Eastern Daylight Time)","551015","Match,No Match","","null","","","","","","<div class='trialBorder'><div class='vertical-center'><img style='vertical-align:center; align:center' src='img/fixation2_sml.jpg'></div><div class='arrayDiv1'><div class='tc'><img class='introPic' src='trustrating_stim/white_mw003.bmp'><br><font color='green'><strong>Share</strong></font></div></div></div>","null","ARRAY","1","trustrating_stim/white_mw003.bmp","1","noMatchOutcome","i","1500","","","","",""
"html-keyboard-response","102","240147","0.0-7.0-3.13","6105338a15c74e8435e95c71","bdp_wmem","Wed Mar 15 2023 15:59:21 GMT-0400 (Eastern Daylight Time)","551015","Match,No Match","","null","","","","","","<div class='trialBorder'><div class='vertical-center'><img src='img/fixation2_sml.jpg'</img></div></div>","null","DELAY","","","","","","","","","","",""
"html-keyboard-response","103","241263","0.0-7.0-4.13","6105338a15c74e8435e95c71","bdp_wmem","Wed Mar 15 2023 15:59:21 GMT-0400 (Eastern Daylight Time)","551015","Match,No Match","","1112","","","","","","<div class='trialBorder'><div class='targDiv'><div class='tc'><img class='introPic' src='trustrating_stim/white_mw003.bmp'><br><font color='red'><strong>Keep</strong></font></div></div><div class='respDiv'><div class='respDivL'>Match<br>(e)</div><div class='respDivR'>No Match<br>(i)</div></div></div>","i","TARGET","1","trustrating_stim/white_mw003.bmp","1","noMatchOutcome","i","1500","trustrating_stim/white_mw003.bmp","red","Keep","REAL","1"
"html-keyboard-response","104","241774","0.0-7.0-5.13","6105338a15c74e8435e95c71","bdp_wmem","Wed Mar 15 2023 15:59:21 GMT-0400 (Eastern Daylight Time)","551015","Match,No Match","","null","","","","","","<div class='trialBorder'><div class='vertical-center'><img src='img/correct.jpg'></div><div class='respDiv'><div class='respDivL'>Match<br>(e)</div><div class='respDivR'><font style='color:orange'>No Match<br>(i)</font></div></div></div>","null","FEEDBACK","","","","","","","","","","",""
"html-keyboard-response","105","242286","0.0-7.0-1.14","6105338a15c74e8435e95c71","bdp_wmem","Wed Mar 15 2023 15:59:21 GMT-0400 (Eastern Daylight Time)","551015","Match,No Match","","null","","","","","","<div class='trialBorder'><div class='vertical-center'><img src='img/fixation2_sml.jpg'</img></div></div>","null","FIX","","","","","","","","","","",""
"html-keyboard-response","106","243795","0.0-7.0-2.14","6105338a15c74e8435e95c71","bdp_wmem","Wed Mar 15 2023 15:59:21 GMT-0400 (Eastern Daylight Time)","551015","Match,No Match","","null","","","","","","<div class='trialBorder'><div class='vertical-center'><img style='vertical-align:center; align:center' src='img/fixation2_sml.jpg'></div><div class='arrayDiv1'><div class='tc'><img class='introPic' src='trustrating_stim/white_mw042.bmp'><br><font color='red'><strong>Keep</strong></font></div></div></div>","null","ARRAY","1","trustrating_stim/white_mw042.bmp","0","noMatchOutcome","i","1500","","","","",""
"html-keyboard-response","107","247806","0.0-7.0-3.14","6105338a15c74e8435e95c71","bdp_wmem","Wed Mar 15 2023 15:59:21 GMT-0400 (Eastern Daylight Time)","551015","Match,No Match","","null","","","","","","<div class='trialBorder'><div class='vertical-center'><img src='img/fixation2_sml.jpg'</img></div></div>","null","DELAY","","","","","","","","","","",""
"html-keyboard-response","108","248814","0.0-7.0-4.14","6105338a15c74e8435e95c71","bdp_wmem","Wed Mar 15 2023 15:59:21 GMT-0400 (Eastern Daylight Time)","551015","Match,No Match","","1004","","","","","","<div class='trialBorder'><div class='targDiv'><div class='tc'><img class='introPic' src='trustrating_stim/white_mw042.bmp'><br><font color='green'><strong>Share</strong></font></div></div><div class='respDiv'><div class='respDivL'>Match<br>(e)</div><div class='respDivR'>No Match<br>(i)</div></div></div>","i","TARGET","1","trustrating_stim/white_mw042.bmp","0","noMatchOutcome","i","1500","trustrating_stim/white_mw042.bmp","green","Share","REAL","1"
"html-keyboard-response","109","249315","0.0-7.0-5.14","6105338a15c74e8435e95c71","bdp_wmem","Wed Mar 15 2023 15:59:21 GMT-0400 (Eastern Daylight Time)","551015","Match,No Match","","null","","","","","","<div class='trialBorder'><div class='vertical-center'><img src='img/correct.jpg'></div><div class='respDiv'><div class='respDivL'>Match<br>(e)</div><div class='respDivR'><font style='color:orange'>No Match<br>(i)</font></div></div></div>","null","FEEDBACK","","","","","","","","","","",""
"html-keyboard-response","110","249822","0.0-7.0-1.15","6105338a15c74e8435e95c71","bdp_wmem","Wed Mar 15 2023 15:59:21 GMT-0400 (Eastern Daylight Time)","551015","Match,No Match","","null","","","","","","<div class='trialBorder'><div class='vertical-center'><img src='img/fixation2_sml.jpg'</img></div></div>","null","FIX","","","","","","","","","","",""
"html-keyboard-response","111","254334","0.0-7.0-2.15","6105338a15c74e8435e95c71","bdp_wmem","Wed Mar 15 2023 15:59:21 GMT-0400 (Eastern Daylight Time)","551015","Match,No Match","","null","","","","","","<div class='trialBorder'><div class='vertical-center'><img style='vertical-align:center; align:center' src='img/fixation2_sml.jpg'></div><div class='arrayDiv3'><div class='tl'><img class='introPic' src='trustrating_stim/white_mw040.bmp'><br><font color='green'><strong>Share</strong></font></div><div class='tc'><img class='introPic' src='trustrating_stim/white_mw038.bmp'><br><font color='green'><strong>Share</strong></font></div><div class='tr'><img class='introPic' src='trustrating_stim/white_mw042.bmp'><br><font color='red'><strong>Keep</strong></font></div></div></div>","null","ARRAY","3","trustrating_stim/white_mw040.bmp,trustrating_stim/white_mw038.bmp,trustrating_stim/white_mw042.bmp","1,1,0","Match","e","4500","","","","",""
"html-keyboard-response","112","258339","0.0-7.0-3.15","6105338a15c74e8435e95c71","bdp_wmem","Wed Mar 15 2023 15:59:21 GMT-0400 (Eastern Daylight Time)","551015","Match,No Match","","null","","","","","","<div class='trialBorder'><div class='vertical-center'><img src='img/fixation2_sml.jpg'</img></div></div>","null","DELAY","","","","","","","","","","",""
"html-keyboard-response","113","260376","0.0-7.0-4.15","6105338a15c74e8435e95c71","bdp_wmem","Wed Mar 15 2023 15:59:21 GMT-0400 (Eastern Daylight Time)","551015","Match,No Match","","2034","","","","","","<div class='trialBorder'><div class='targDiv'><div class='tc'><img class='introPic' src='trustrating_stim/white_mw042.bmp'><br><font color='red'><strong>Keep</strong></font></div></div><div class='respDiv'><div class='respDivL'>Match<br>(e)</div><div class='respDivR'>No Match<br>(i)</div></div></div>","i","TARGET","3","trustrating_stim/white_mw040.bmp,trustrating_stim/white_mw038.bmp,trustrating_stim/white_mw042.bmp","1,1,0","Match","e","4500","trustrating_stim/white_mw042.bmp","red","Keep","REAL","0"
"html-keyboard-response","114","260884","0.0-7.0-5.15","6105338a15c74e8435e95c71","bdp_wmem","Wed Mar 15 2023 15:59:21 GMT-0400 (Eastern Daylight Time)","551015","Match,No Match","","null","","","","","","<div class='trialBorder'><div class='vertical-center'><img src='img/error.jpg'></div><div class='respDiv'><div class='respDivL'>Match<br>(e)</div><div class='respDivR'><font style='color:orange'>No Match<br>(i)</font></div></div></div>","null","FEEDBACK","","","","","","","","","","",""
"html-keyboard-response","115","261390","0.0-7.0-1.16","6105338a15c74e8435e95c71","bdp_wmem","Wed Mar 15 2023 15:59:21 GMT-0400 (Eastern Daylight Time)","551015","Match,No Match","","null","","","","","","<div class='trialBorder'><div class='vertical-center'><img src='img/fixation2_sml.jpg'</img></div></div>","null","FIX","","","","","","","","","","",""
"html-keyboard-response","116","262900","0.0-7.0-2.16","6105338a15c74e8435e95c71","bdp_wmem","Wed Mar 15 2023 15:59:21 GMT-0400 (Eastern Daylight Time)","551015","Match,No Match","","null","","","","","","<div class='trialBorder'><div class='vertical-center'><img style='vertical-align:center; align:center' src='img/fixation2_sml.jpg'></div><div class='arrayDiv1'><div class='tc'><img class='introPic' src='trustrating_stim/white_mw085.bmp'><br><font color='green'><strong>Share</strong></font></div></div></div>","null","ARRAY","1","trustrating_stim/white_mw085.bmp","1","Match","e","1500","","","","",""
"html-keyboard-response","117","266910","0.0-7.0-3.16","6105338a15c74e8435e95c71","bdp_wmem","Wed Mar 15 2023 15:59:21 GMT-0400 (Eastern Daylight Time)","551015","Match,No Match","","null","","","","","","<div class='trialBorder'><div class='vertical-center'><img src='img/fixation2_sml.jpg'</img></div></div>","null","DELAY","","","","","","","","","","",""
"html-keyboard-response","118","267638","0.0-7.0-4.16","6105338a15c74e8435e95c71","bdp_wmem","Wed Mar 15 2023 15:59:21 GMT-0400 (Eastern Daylight Time)","551015","Match,No Match","","725","","","","","","<div class='trialBorder'><div class='targDiv'><div class='tc'><img class='introPic' src='trustrating_stim/white_mw085.bmp'><br><font color='green'><strong>Share</strong></font></div></div><div class='respDiv'><div class='respDivL'>Match<br>(e)</div><div class='respDivR'>No Match<br>(i)</div></div></div>","e","TARGET","1","trustrating_stim/white_mw085.bmp","1","Match","e","1500","trustrating_stim/white_mw085.bmp","green","Share","REAL","1"
"html-keyboard-response","119","268142","0.0-7.0-5.16","6105338a15c74e8435e95c71","bdp_wmem","Wed Mar 15 2023 15:59:21 GMT-0400 (Eastern Daylight Time)","551015","Match,No Match","","null","","","","","","<div class='trialBorder'><div class='vertical-center'><img src='img/correct.jpg'></div><div class='respDiv'><div class='respDivL'><font style='color:orange'>Match<br>(e)</font></div><div class='respDivR'>No Match<br>(i)</div></div></div>","null","FEEDBACK","","","","","","","","","","",""
"html-keyboard-response","120","268654","0.0-7.0-1.17","6105338a15c74e8435e95c71","bdp_wmem","Wed Mar 15 2023 15:59:21 GMT-0400 (Eastern Daylight Time)","551015","Match,No Match","","null","","","","","","<div class='trialBorder'><div class='vertical-center'><img src='img/fixation2_sml.jpg'</img></div></div>","null","FIX","","","","","","","","","","",""
"html-keyboard-response","121","273166","0.0-7.0-2.17","6105338a15c74e8435e95c71","bdp_wmem","Wed Mar 15 2023 15:59:21 GMT-0400 (Eastern Daylight Time)","551015","Match,No Match","","null","","","","","","<div class='trialBorder'><div class='vertical-center'><img style='vertical-align:center; align:center' src='img/fixation2_sml.jpg'></div><div class='arrayDiv3'><div class='tl'><img class='introPic' src='trustrating_stim/white_mw003.bmp'><br><font color='green'><strong>Share</strong></font></div><div class='tc'><img class='introPic' src='trustrating_stim/white_mw013.bmp'><br><font color='red'><strong>Keep</strong></font></div><div class='tr'><img class='introPic' src='trustrating_stim/white_mw091.bmp'><br><font color='green'><strong>Share</strong></font></div></div></div>","null","ARRAY","3","trustrating_stim/white_mw003.bmp,trustrating_stim/white_mw013.bmp,trustrating_stim/white_mw091.bmp","1,0,1","Match","e","4500","","","","",""
"html-keyboard-response","122","277171","0.0-7.0-3.17","6105338a15c74e8435e95c71","bdp_wmem","Wed Mar 15 2023 15:59:21 GMT-0400 (Eastern Daylight Time)","551015","Match,No Match","","null","","","","","","<div class='trialBorder'><div class='vertical-center'><img src='img/fixation2_sml.jpg'</img></div></div>","null","DELAY","","","","","","","","","","",""
"html-keyboard-response","123","279077","0.0-7.0-4.17","6105338a15c74e8435e95c71","bdp_wmem","Wed Mar 15 2023 15:59:21 GMT-0400 (Eastern Daylight Time)","551015","Match,No Match","","1902","","","","","","<div class='trialBorder'><div class='targDiv'><div class='tc'><img class='introPic' src='trustrating_stim/white_mw013.bmp'><br><font color='red'><strong>Keep</strong></font></div></div><div class='respDiv'><div class='respDivL'>Match<br>(e)</div><div class='respDivR'>No Match<br>(i)</div></div></div>","i","TARGET","3","trustrating_stim/white_mw003.bmp,trustrating_stim/white_mw013.bmp,trustrating_stim/white_mw091.bmp","1,0,1","Match","e","4500","trustrating_stim/white_mw013.bmp","red","Keep","REAL","0"
"html-keyboard-response","124","279582","0.0-7.0-5.17","6105338a15c74e8435e95c71","bdp_wmem","Wed Mar 15 2023 15:59:21 GMT-0400 (Eastern Daylight Time)","551015","Match,No Match","","null","","","","","","<div class='trialBorder'><div class='vertical-center'><img src='img/error.jpg'></div><div class='respDiv'><div class='respDivL'>Match<br>(e)</div><div class='respDivR'><font style='color:orange'>No Match<br>(i)</font></div></div></div>","null","FEEDBACK","","","","","","","","","","",""
"html-keyboard-response","125","280094","0.0-7.0-1.18","6105338a15c74e8435e95c71","bdp_wmem","Wed Mar 15 2023 15:59:21 GMT-0400 (Eastern Daylight Time)","551015","Match,No Match","","null","","","","","","<div class='trialBorder'><div class='vertical-center'><img src='img/fixation2_sml.jpg'</img></div></div>","null","FIX","","","","","","","","","","",""
"html-keyboard-response","126","284606","0.0-7.0-2.18","6105338a15c74e8435e95c71","bdp_wmem","Wed Mar 15 2023 15:59:21 GMT-0400 (Eastern Daylight Time)","551015","Match,No Match","","null","","","","","","<div class='trialBorder'><div class='vertical-center'><img style='vertical-align:center; align:center' src='img/fixation2_sml.jpg'></div><div class='arrayDiv3'><div class='tl'><img class='introPic' src='trustrating_stim/white_mw078.bmp'><br><font color='red'><strong>Keep</strong></font></div><div class='tc'><img class='introPic' src='trustrating_stim/white_mw038.bmp'><br><font color='green'><strong>Share</strong></font></div><div class='tr'><img class='introPic' src='trustrating_stim/white_mw085.bmp'><br><font color='green'><strong>Share</strong></font></div></div></div>","null","ARRAY","3","trustrating_stim/white_mw078.bmp,trustrating_stim/white_mw038.bmp,trustrating_stim/white_mw085.bmp","0,1,1","Match","e","4500","","","","",""
"html-keyboard-response","127","288612","0.0-7.0-3.18","6105338a15c74e8435e95c71","bdp_wmem","Wed Mar 15 2023 15:59:21 GMT-0400 (Eastern Daylight Time)","551015","Match,No Match","","null","","","","","","<div class='trialBorder'><div class='vertical-center'><img src='img/fixation2_sml.jpg'</img></div></div>","null","DELAY","","","","","","","","","","",""
"html-keyboard-response","128","289496","0.0-7.0-4.18","6105338a15c74e8435e95c71","bdp_wmem","Wed Mar 15 2023 15:59:21 GMT-0400 (Eastern Daylight Time)","551015","Match,No Match","","882","","","","","","<div class='trialBorder'><div class='targDiv'><div class='tc'><img class='introPic' src='trustrating_stim/white_mw078.bmp'><br><font color='red'><strong>Keep</strong></font></div></div><div class='respDiv'><div class='respDivL'>Match<br>(e)</div><div class='respDivR'>No Match<br>(i)</div></div></div>","e","TARGET","3","trustrating_stim/white_mw078.bmp,trustrating_stim/white_mw038.bmp,trustrating_stim/white_mw085.bmp","0,1,1","Match","e","4500","trustrating_stim/white_mw078.bmp","red","Keep","REAL","1"
"html-keyboard-response","129","290003","0.0-7.0-5.18","6105338a15c74e8435e95c71","bdp_wmem","Wed Mar 15 2023 15:59:21 GMT-0400 (Eastern Daylight Time)","551015","Match,No Match","","null","","","","","","<div class='trialBorder'><div class='vertical-center'><img src='img/correct.jpg'></div><div class='respDiv'><div class='respDivL'><font style='color:orange'>Match<br>(e)</font></div><div class='respDivR'>No Match<br>(i)</div></div></div>","null","FEEDBACK","","","","","","","","","","",""
"html-keyboard-response","130","290510","0.0-7.0-1.19","6105338a15c74e8435e95c71","bdp_wmem","Wed Mar 15 2023 15:59:21 GMT-0400 (Eastern Daylight Time)","551015","Match,No Match","","null","","","","","","<div class='trialBorder'><div class='vertical-center'><img src='img/fixation2_sml.jpg'</img></div></div>","null","FIX","","","","","","","","","","",""
"html-keyboard-response","131","295022","0.0-7.0-2.19","6105338a15c74e8435e95c71","bdp_wmem","Wed Mar 15 2023 15:59:21 GMT-0400 (Eastern Daylight Time)","551015","Match,No Match","","null","","","","","","<div class='trialBorder'><div class='vertical-center'><img style='vertical-align:center; align:center' src='img/fixation2_sml.jpg'></div><div class='arrayDiv3'><div class='tl'><img class='introPic' src='trustrating_stim/white_mw003.bmp'><br><font color='green'><strong>Share</strong></font></div><div class='tc'><img class='introPic' src='trustrating_stim/white_mw013.bmp'><br><font color='red'><strong>Keep</strong></font></div><div class='tr'><img class='introPic' src='trustrating_stim/white_mw040.bmp'><br><font color='red'><strong>Keep</strong></font></div></div></div>","null","ARRAY","3","trustrating_stim/white_mw003.bmp,trustrating_stim/white_mw013.bmp,trustrating_stim/white_mw040.bmp","1,0,0","Match","e","4500","","","","",""
"html-keyboard-response","132","299028","0.0-7.0-3.19","6105338a15c74e8435e95c71","bdp_wmem","Wed Mar 15 2023 15:59:21 GMT-0400 (Eastern Daylight Time)","551015","Match,No Match","","null","","","","","","<div class='trialBorder'><div class='vertical-center'><img src='img/fixation2_sml.jpg'</img></div></div>","null","DELAY","","","","","","","","","","",""
"html-keyboard-response","133","300398","0.0-7.0-4.19","6105338a15c74e8435e95c71","bdp_wmem","Wed Mar 15 2023 15:59:21 GMT-0400 (Eastern Daylight Time)","551015","Match,No Match","","1368","","","","","","<div class='trialBorder'><div class='targDiv'><div class='tc'><img class='introPic' src='trustrating_stim/white_mw040.bmp'><br><font color='red'><strong>Keep</strong></font></div></div><div class='respDiv'><div class='respDivL'>Match<br>(e)</div><div class='respDivR'>No Match<br>(i)</div></div></div>","e","TARGET","3","trustrating_stim/white_mw003.bmp,trustrating_stim/white_mw013.bmp,trustrating_stim/white_mw040.bmp","1,0,0","Match","e","4500","trustrating_stim/white_mw040.bmp","red","Keep","REAL","1"
"html-keyboard-response","134","300899","0.0-7.0-5.19","6105338a15c74e8435e95c71","bdp_wmem","Wed Mar 15 2023 15:59:21 GMT-0400 (Eastern Daylight Time)","551015","Match,No Match","","null","","","","","","<div class='trialBorder'><div class='vertical-center'><img src='img/correct.jpg'></div><div class='respDiv'><div class='respDivL'><font style='color:orange'>Match<br>(e)</font></div><div class='respDivR'>No Match<br>(i)</div></div></div>","null","FEEDBACK","","","","","","","","","","",""
"html-keyboard-response","135","301406","0.0-7.0-1.20","6105338a15c74e8435e95c71","bdp_wmem","Wed Mar 15 2023 15:59:21 GMT-0400 (Eastern Daylight Time)","551015","Match,No Match","","null","","","","","","<div class='trialBorder'><div class='vertical-center'><img src='img/fixation2_sml.jpg'</img></div></div>","null","FIX","","","","","","","","","","",""
"html-keyboard-response","136","302915","0.0-7.0-2.20","6105338a15c74e8435e95c71","bdp_wmem","Wed Mar 15 2023 15:59:21 GMT-0400 (Eastern Daylight Time)","551015","Match,No Match","","null","","","","","","<div class='trialBorder'><div class='vertical-center'><img style='vertical-align:center; align:center' src='img/fixation2_sml.jpg'></div><div class='arrayDiv1'><div class='tc'><img class='introPic' src='trustrating_stim/white_mw085.bmp'><br><font color='red'><strong>Keep</strong></font></div></div></div>","null","ARRAY","1","trustrating_stim/white_mw085.bmp","0","noMatchOutcome","i","1500","","","","",""
"html-keyboard-response","137","306926","0.0-7.0-3.20","6105338a15c74e8435e95c71","bdp_wmem","Wed Mar 15 2023 15:59:21 GMT-0400 (Eastern Daylight Time)","551015","Match,No Match","","null","","","","","","<div class='trialBorder'><div class='vertical-center'><img src='img/fixation2_sml.jpg'</img></div></div>","null","DELAY","","","","","","","","","","",""
"html-keyboard-response","138","307979","0.0-7.0-4.20","6105338a15c74e8435e95c71","bdp_wmem","Wed Mar 15 2023 15:59:21 GMT-0400 (Eastern Daylight Time)","551015","Match,No Match","","1052","","","","","","<div class='trialBorder'><div class='targDiv'><div class='tc'><img class='introPic' src='trustrating_stim/white_mw085.bmp'><br><font color='green'><strong>Share</strong></font></div></div><div class='respDiv'><div class='respDivL'>Match<br>(e)</div><div class='respDivR'>No Match<br>(i)</div></div></div>","i","TARGET","1","trustrating_stim/white_mw085.bmp","0","noMatchOutcome","i","1500","trustrating_stim/white_mw085.bmp","green","Share","REAL","1"
"html-keyboard-response","139","308483","0.0-7.0-5.20","6105338a15c74e8435e95c71","bdp_wmem","Wed Mar 15 2023 15:59:21 GMT-0400 (Eastern Daylight Time)","551015","Match,No Match","","null","","","","","","<div class='trialBorder'><div class='vertical-center'><img src='img/correct.jpg'></div><div class='respDiv'><div class='respDivL'>Match<br>(e)</div><div class='respDivR'><font style='color:orange'>No Match<br>(i)</font></div></div></div>","null","FEEDBACK","","","","","","","","","","",""
"html-keyboard-response","140","308990","0.0-7.0-1.21","6105338a15c74e8435e95c71","bdp_wmem","Wed Mar 15 2023 15:59:21 GMT-0400 (Eastern Daylight Time)","551015","Match,No Match","","null","","","","","","<div class='trialBorder'><div class='vertical-center'><img src='img/fixation2_sml.jpg'</img></div></div>","null","FIX","","","","","","","","","","",""
"html-keyboard-response","141","310500","0.0-7.0-2.21","6105338a15c74e8435e95c71","bdp_wmem","Wed Mar 15 2023 15:59:21 GMT-0400 (Eastern Daylight Time)","551015","Match,No Match","","null","","","","","","<div class='trialBorder'><div class='vertical-center'><img style='vertical-align:center; align:center' src='img/fixation2_sml.jpg'></div><div class='arrayDiv1'><div class='tc'><img class='introPic' src='trustrating_stim/white_mw010.bmp'><br><font color='red'><strong>Keep</strong></font></div></div></div>","null","ARRAY","1","trustrating_stim/white_mw010.bmp","0","Match","e","1500","","","","",""
"html-keyboard-response","142","314510","0.0-7.0-3.21","6105338a15c74e8435e95c71","bdp_wmem","Wed Mar 15 2023 15:59:21 GMT-0400 (Eastern Daylight Time)","551015","Match,No Match","","null","","","","","","<div class='trialBorder'><div class='vertical-center'><img src='img/fixation2_sml.jpg'</img></div></div>","null","DELAY","","","","","","","","","","",""
"html-keyboard-response","143","315086","0.0-7.0-4.21","6105338a15c74e8435e95c71","bdp_wmem","Wed Mar 15 2023 15:59:21 GMT-0400 (Eastern Daylight Time)","551015","Match,No Match","","573","","","","","","<div class='trialBorder'><div class='targDiv'><div class='tc'><img class='introPic' src='trustrating_stim/white_mw010.bmp'><br><font color='red'><strong>Keep</strong></font></div></div><div class='respDiv'><div class='respDivL'>Match<br>(e)</div><div class='respDivR'>No Match<br>(i)</div></div></div>","e","TARGET","1","trustrating_stim/white_mw010.bmp","0","Match","e","1500","trustrating_stim/white_mw010.bmp","red","Keep","REAL","1"
"html-keyboard-response","144","315587","0.0-7.0-5.21","6105338a15c74e8435e95c71","bdp_wmem","Wed Mar 15 2023 15:59:21 GMT-0400 (Eastern Daylight Time)","551015","Match,No Match","","null","","","","","","<div class='trialBorder'><div class='vertical-center'><img src='img/correct.jpg'></div><div class='respDiv'><div class='respDivL'><font style='color:orange'>Match<br>(e)</font></div><div class='respDivR'>No Match<br>(i)</div></div></div>","null","FEEDBACK","","","","","","","","","","",""
"html-keyboard-response","145","316094","0.0-7.0-1.22","6105338a15c74e8435e95c71","bdp_wmem","Wed Mar 15 2023 15:59:21 GMT-0400 (Eastern Daylight Time)","551015","Match,No Match","","null","","","","","","<div class='trialBorder'><div class='vertical-center'><img src='img/fixation2_sml.jpg'</img></div></div>","null","FIX","","","","","","","","","","",""
"html-keyboard-response","146","317604","0.0-7.0-2.22","6105338a15c74e8435e95c71","bdp_wmem","Wed Mar 15 2023 15:59:21 GMT-0400 (Eastern Daylight Time)","551015","Match,No Match","","null","","","","","","<div class='trialBorder'><div class='vertical-center'><img style='vertical-align:center; align:center' src='img/fixation2_sml.jpg'></div><div class='arrayDiv1'><div class='tc'><img class='introPic' src='trustrating_stim/white_mw092.bmp'><br><font color='green'><strong>Share</strong></font></div></div></div>","null","ARRAY","1","trustrating_stim/white_mw092.bmp","1","noMatchOutcome","i","1500","","","","",""
"html-keyboard-response","147","321614","0.0-7.0-3.22","6105338a15c74e8435e95c71","bdp_wmem","Wed Mar 15 2023 15:59:21 GMT-0400 (Eastern Daylight Time)","551015","Match,No Match","","null","","","","","","<div class='trialBorder'><div class='vertical-center'><img src='img/fixation2_sml.jpg'</img></div></div>","null","DELAY","","","","","","","","","","",""
"html-keyboard-response","148","322593","0.0-7.0-4.22","6105338a15c74e8435e95c71","bdp_wmem","Wed Mar 15 2023 15:59:21 GMT-0400 (Eastern Daylight Time)","551015","Match,No Match","","975","","","","","","<div class='trialBorder'><div class='targDiv'><div class='tc'><img class='introPic' src='trustrating_stim/white_mw092.bmp'><br><font color='red'><strong>Keep</strong></font></div></div><div class='respDiv'><div class='respDivL'>Match<br>(e)</div><div class='respDivR'>No Match<br>(i)</div></div></div>","i","TARGET","1","trustrating_stim/white_mw092.bmp","1","noMatchOutcome","i","1500","trustrating_stim/white_mw092.bmp","red","Keep","REAL","1"
"html-keyboard-response","149","323102","0.0-7.0-5.22","6105338a15c74e8435e95c71","bdp_wmem","Wed Mar 15 2023 15:59:21 GMT-0400 (Eastern Daylight Time)","551015","Match,No Match","","null","","","","","","<div class='trialBorder'><div class='vertical-center'><img src='img/correct.jpg'></div><div class='respDiv'><div class='respDivL'>Match<br>(e)</div><div class='respDivR'><font style='color:orange'>No Match<br>(i)</font></div></div></div>","null","FEEDBACK","","","","","","","","","","",""
"html-keyboard-response","150","323614","0.0-7.0-1.23","6105338a15c74e8435e95c71","bdp_wmem","Wed Mar 15 2023 15:59:21 GMT-0400 (Eastern Daylight Time)","551015","Match,No Match","","null","","","","","","<div class='trialBorder'><div class='vertical-center'><img src='img/fixation2_sml.jpg'</img></div></div>","null","FIX","","","","","","","","","","",""
"html-keyboard-response","151","326622","0.0-7.0-2.23","6105338a15c74e8435e95c71","bdp_wmem","Wed Mar 15 2023 15:59:21 GMT-0400 (Eastern Daylight Time)","551015","Match,No Match","","null","","","","","","<div class='trialBorder'><div class='vertical-center'><img style='vertical-align:center; align:center' src='img/fixation2_sml.jpg'></div><div class='arrayDiv2'><div class='tl'><img class='introPic' src='trustrating_stim/white_mw085.bmp'><br><font color='green'><strong>Share</strong></font></div><div class='tr'><img class='introPic' src='trustrating_stim/white_mw091.bmp'><br><font color='red'><strong>Keep</strong></font></div></div></div>","null","ARRAY","2","trustrating_stim/white_mw085.bmp,trustrating_stim/white_mw091.bmp","1,0","noMatchFace","i","3000","","","","",""
"html-keyboard-response","152","330628","0.0-7.0-3.23","6105338a15c74e8435e95c71","bdp_wmem","Wed Mar 15 2023 15:59:21 GMT-0400 (Eastern Daylight Time)","551015","Match,No Match","","null","","","","","","<div class='trialBorder'><div class='vertical-center'><img src='img/fixation2_sml.jpg'</img></div></div>","null","DELAY","","","","","","","","","","",""
"html-keyboard-response","153","332114","0.0-7.0-4.23","6105338a15c74e8435e95c71","bdp_wmem","Wed Mar 15 2023 15:59:21 GMT-0400 (Eastern Daylight Time)","551015","Match,No Match","","1484","","","","","","<div class='trialBorder'><div class='targDiv'><div class='tc'><img class='introPic' src='trustrating_stim/white_mw042.bmp'><br><font color='red'><strong>Keep</strong></font></div></div><div class='respDiv'><div class='respDivL'>Match<br>(e)</div><div class='respDivR'>No Match<br>(i)</div></div></div>","i","TARGET","2","trustrating_stim/white_mw085.bmp,trustrating_stim/white_mw091.bmp","1,0","noMatchFace","i","3000","trustrating_stim/white_mw042.bmp","red","Keep","REAL","1"
"html-keyboard-response","154","332623","0.0-7.0-5.23","6105338a15c74e8435e95c71","bdp_wmem","Wed Mar 15 2023 15:59:21 GMT-0400 (Eastern Daylight Time)","551015","Match,No Match","","null","","","","","","<div class='trialBorder'><div class='vertical-center'><img src='img/correct.jpg'></div><div class='respDiv'><div class='respDivL'>Match<br>(e)</div><div class='respDivR'><font style='color:orange'>No Match<br>(i)</font></div></div></div>","null","FEEDBACK","","","","","","","","","","",""
"html-keyboard-response","155","333134","0.0-7.0-1.24","6105338a15c74e8435e95c71","bdp_wmem","Wed Mar 15 2023 15:59:21 GMT-0400 (Eastern Daylight Time)","551015","Match,No Match","","null","","","","","","<div class='trialBorder'><div class='vertical-center'><img src='img/fixation2_sml.jpg'</img></div></div>","null","FIX","","","","","","","","","","",""
"html-keyboard-response","156","336142","0.0-7.0-2.24","6105338a15c74e8435e95c71","bdp_wmem","Wed Mar 15 2023 15:59:21 GMT-0400 (Eastern Daylight Time)","551015","Match,No Match","","null","","","","","","<div class='trialBorder'><div class='vertical-center'><img style='vertical-align:center; align:center' src='img/fixation2_sml.jpg'></div><div class='arrayDiv2'><div class='tl'><img class='introPic' src='trustrating_stim/white_mw078.bmp'><br><font color='green'><strong>Share</strong></font></div><div class='tr'><img class='introPic' src='trustrating_stim/white_mw010.bmp'><br><font color='red'><strong>Keep</strong></font></div></div></div>","null","ARRAY","2","trustrating_stim/white_mw078.bmp,trustrating_stim/white_mw010.bmp","1,0","Match","e","3000","","","","",""
"html-keyboard-response","157","340147","0.0-7.0-3.24","6105338a15c74e8435e95c71","bdp_wmem","Wed Mar 15 2023 15:59:21 GMT-0400 (Eastern Daylight Time)","551015","Match,No Match","","null","","","","","","<div class='trialBorder'><div class='vertical-center'><img src='img/fixation2_sml.jpg'</img></div></div>","null","DELAY","","","","","","","","","","",""
"html-keyboard-response","158","340973","0.0-7.0-4.24","6105338a15c74e8435e95c71","bdp_wmem","Wed Mar 15 2023 15:59:21 GMT-0400 (Eastern Daylight Time)","551015","Match,No Match","","822","","","","","","<div class='trialBorder'><div class='targDiv'><div class='tc'><img class='introPic' src='trustrating_stim/white_mw010.bmp'><br><font color='red'><strong>Keep</strong></font></div></div><div class='respDiv'><div class='respDivL'>Match<br>(e)</div><div class='respDivR'>No Match<br>(i)</div></div></div>","e","TARGET","2","trustrating_stim/white_mw078.bmp,trustrating_stim/white_mw010.bmp","1,0","Match","e","3000","trustrating_stim/white_mw010.bmp","red","Keep","REAL","1"
"html-keyboard-response","159","341476","0.0-7.0-5.24","6105338a15c74e8435e95c71","bdp_wmem","Wed Mar 15 2023 15:59:21 GMT-0400 (Eastern Daylight Time)","551015","Match,No Match","","null","","","","","","<div class='trialBorder'><div class='vertical-center'><img src='img/correct.jpg'></div><div class='respDiv'><div class='respDivL'><font style='color:orange'>Match<br>(e)</font></div><div class='respDivR'>No Match<br>(i)</div></div></div>","null","FEEDBACK","","","","","","","","","","",""
"html-keyboard-response","160","341982","0.0-7.0-1.25","6105338a15c74e8435e95c71","bdp_wmem","Wed Mar 15 2023 15:59:21 GMT-0400 (Eastern Daylight Time)","551015","Match,No Match","","null","","","","","","<div class='trialBorder'><div class='vertical-center'><img src='img/fixation2_sml.jpg'</img></div></div>","null","FIX","","","","","","","","","","",""
"html-keyboard-response","161","344990","0.0-7.0-2.25","6105338a15c74e8435e95c71","bdp_wmem","Wed Mar 15 2023 15:59:21 GMT-0400 (Eastern Daylight Time)","551015","Match,No Match","","null","","","","","","<div class='trialBorder'><div class='vertical-center'><img style='vertical-align:center; align:center' src='img/fixation2_sml.jpg'></div><div class='arrayDiv2'><div class='tl'><img class='introPic' src='trustrating_stim/white_mw013.bmp'><br><font color='red'><strong>Keep</strong></font></div><div class='tr'><img class='introPic' src='trustrating_stim/white_mw010.bmp'><br><font color='green'><strong>Share</strong></font></div></div></div>","null","ARRAY","2","trustrating_stim/white_mw013.bmp,trustrating_stim/white_mw010.bmp","0,1","noMatchFace","i","3000","","","","",""
"html-keyboard-response","162","348995","0.0-7.0-3.25","6105338a15c74e8435e95c71","bdp_wmem","Wed Mar 15 2023 15:59:21 GMT-0400 (Eastern Daylight Time)","551015","Match,No Match","","null","","","","","","<div class='trialBorder'><div class='vertical-center'><img src='img/fixation2_sml.jpg'</img></div></div>","null","DELAY","","","","","","","","","","",""
"html-keyboard-response","163","349939","0.0-7.0-4.25","6105338a15c74e8435e95c71","bdp_wmem","Wed Mar 15 2023 15:59:21 GMT-0400 (Eastern Daylight Time)","551015","Match,No Match","","941","","","","","","<div class='trialBorder'><div class='targDiv'><div class='tc'><img class='introPic' src='trustrating_stim/white_mw038.bmp'><br><font color='green'><strong>Share</strong></font></div></div><div class='respDiv'><div class='respDivL'>Match<br>(e)</div><div class='respDivR'>No Match<br>(i)</div></div></div>","i","TARGET","2","trustrating_stim/white_mw013.bmp,trustrating_stim/white_mw010.bmp","0,1","noMatchFace","i","3000","trustrating_stim/white_mw038.bmp","green","Share","REAL","1"
"html-keyboard-response","164","350446","0.0-7.0-5.25","6105338a15c74e8435e95c71","bdp_wmem","Wed Mar 15 2023 15:59:21 GMT-0400 (Eastern Daylight Time)","551015","Match,No Match","","null","","","","","","<div class='trialBorder'><div class='vertical-center'><img src='img/correct.jpg'></div><div class='respDiv'><div class='respDivL'>Match<br>(e)</div><div class='respDivR'><font style='color:orange'>No Match<br>(i)</font></div></div></div>","null","FEEDBACK","","","","","","","","","","",""
"html-keyboard-response","165","350958","0.0-7.0-1.26","6105338a15c74e8435e95c71","bdp_wmem","Wed Mar 15 2023 15:59:21 GMT-0400 (Eastern Daylight Time)","551015","Match,No Match","","null","","","","","","<div class='trialBorder'><div class='vertical-center'><img src='img/fixation2_sml.jpg'</img></div></div>","null","FIX","","","","","","","","","","",""
"html-keyboard-response","166","355470","0.0-7.0-2.26","6105338a15c74e8435e95c71","bdp_wmem","Wed Mar 15 2023 15:59:21 GMT-0400 (Eastern Daylight Time)","551015","Match,No Match","","null","","","","","","<div class='trialBorder'><div class='vertical-center'><img style='vertical-align:center; align:center' src='img/fixation2_sml.jpg'></div><div class='arrayDiv3'><div class='tl'><img class='introPic' src='trustrating_stim/white_mw042.bmp'><br><font color='green'><strong>Share</strong></font></div><div class='tc'><img class='introPic' src='trustrating_stim/white_mw092.bmp'><br><font color='red'><strong>Keep</strong></font></div><div class='tr'><img class='introPic' src='trustrating_stim/white_mw013.bmp'><br><font color='red'><strong>Keep</strong></font></div></div></div>","null","ARRAY","3","trustrating_stim/white_mw042.bmp,trustrating_stim/white_mw092.bmp,trustrating_stim/white_mw013.bmp","1,0,0","noMatchFace","i","4500","","","","",""
"html-keyboard-response","167","359475","0.0-7.0-3.26","6105338a15c74e8435e95c71","bdp_wmem","Wed Mar 15 2023 15:59:21 GMT-0400 (Eastern Daylight Time)","551015","Match,No Match","","null","","","","","","<div class='trialBorder'><div class='vertical-center'><img src='img/fixation2_sml.jpg'</img></div></div>","null","DELAY","","","","","","","","","","",""
"html-keyboard-response","168","360740","0.0-7.0-4.26","6105338a15c74e8435e95c71","bdp_wmem","Wed Mar 15 2023 15:59:21 GMT-0400 (Eastern Daylight Time)","551015","Match,No Match","","1262","","","","","","<div class='trialBorder'><div class='targDiv'><div class='tc'><img class='introPic' src='trustrating_stim/white_mw012.bmp'><br><font color='red'><strong>Keep</strong></font></div></div><div class='respDiv'><div class='respDivL'>Match<br>(e)</div><div class='respDivR'>No Match<br>(i)</div></div></div>","i","TARGET","3","trustrating_stim/white_mw042.bmp,trustrating_stim/white_mw092.bmp,trustrating_stim/white_mw013.bmp","1,0,0","noMatchFace","i","4500","trustrating_stim/white_mw012.bmp","red","Keep","REAL","1"
"html-keyboard-response","169","361246","0.0-7.0-5.26","6105338a15c74e8435e95c71","bdp_wmem","Wed Mar 15 2023 15:59:21 GMT-0400 (Eastern Daylight Time)","551015","Match,No Match","","null","","","","","","<div class='trialBorder'><div class='vertical-center'><img src='img/correct.jpg'></div><div class='respDiv'><div class='respDivL'>Match<br>(e)</div><div class='respDivR'><font style='color:orange'>No Match<br>(i)</font></div></div></div>","null","FEEDBACK","","","","","","","","","","",""
"html-keyboard-response","170","361758","0.0-7.0-1.27","6105338a15c74e8435e95c71","bdp_wmem","Wed Mar 15 2023 15:59:21 GMT-0400 (Eastern Daylight Time)","551015","Match,No Match","","null","","","","","","<div class='trialBorder'><div class='vertical-center'><img src='img/fixation2_sml.jpg'</img></div></div>","null","FIX","","","","","","","","","","",""
"html-keyboard-response","171","364766","0.0-7.0-2.27","6105338a15c74e8435e95c71","bdp_wmem","Wed Mar 15 2023 15:59:21 GMT-0400 (Eastern Daylight Time)","551015","Match,No Match","","null","","","","","","<div class='trialBorder'><div class='vertical-center'><img style='vertical-align:center; align:center' src='img/fixation2_sml.jpg'></div><div class='arrayDiv2'><div class='tl'><img class='introPic' src='trustrating_stim/white_mw042.bmp'><br><font color='green'><strong>Share</strong></font></div><div class='tr'><img class='introPic' src='trustrating_stim/white_mw038.bmp'><br><font color='red'><strong>Keep</strong></font></div></div></div>","null","ARRAY","2","trustrating_stim/white_mw042.bmp,trustrating_stim/white_mw038.bmp","1,0","Match","e","3000","","","","",""
"html-keyboard-response","172","368772","0.0-7.0-3.27","6105338a15c74e8435e95c71","bdp_wmem","Wed Mar 15 2023 15:59:21 GMT-0400 (Eastern Daylight Time)","551015","Match,No Match","","null","","","","","","<div class='trialBorder'><div class='vertical-center'><img src='img/fixation2_sml.jpg'</img></div></div>","null","DELAY","","","","","","","","","","",""
"html-keyboard-response","173","370106","0.0-7.0-4.27","6105338a15c74e8435e95c71","bdp_wmem","Wed Mar 15 2023 15:59:21 GMT-0400 (Eastern Daylight Time)","551015","Match,No Match","","1331","","","","","","<div class='trialBorder'><div class='targDiv'><div class='tc'><img class='introPic' src='trustrating_stim/white_mw042.bmp'><br><font color='green'><strong>Share</strong></font></div></div><div class='respDiv'><div class='respDivL'>Match<br>(e)</div><div class='respDivR'>No Match<br>(i)</div></div></div>","e","TARGET","2","trustrating_stim/white_mw042.bmp,trustrating_stim/white_mw038.bmp","1,0","Match","e","3000","trustrating_stim/white_mw042.bmp","green","Share","REAL","1"
"html-keyboard-response","174","370611","0.0-7.0-5.27","6105338a15c74e8435e95c71","bdp_wmem","Wed Mar 15 2023 15:59:21 GMT-0400 (Eastern Daylight Time)","551015","Match,No Match","","null","","","","","","<div class='trialBorder'><div class='vertical-center'><img src='img/correct.jpg'></div><div class='respDiv'><div class='respDivL'><font style='color:orange'>Match<br>(e)</font></div><div class='respDivR'>No Match<br>(i)</div></div></div>","null","FEEDBACK","","","","","","","","","","",""
"html-keyboard-response","175","371118","0.0-7.0-1.28","6105338a15c74e8435e95c71","bdp_wmem","Wed Mar 15 2023 15:59:21 GMT-0400 (Eastern Daylight Time)","551015","Match,No Match","","null","","","","","","<div class='trialBorder'><div class='vertical-center'><img src='img/fixation2_sml.jpg'</img></div></div>","null","FIX","","","","","","","","","","",""
"html-keyboard-response","176","372628","0.0-7.0-2.28","6105338a15c74e8435e95c71","bdp_wmem","Wed Mar 15 2023 15:59:21 GMT-0400 (Eastern Daylight Time)","551015","Match,No Match","","null","","","","","","<div class='trialBorder'><div class='vertical-center'><img style='vertical-align:center; align:center' src='img/fixation2_sml.jpg'></div><div class='arrayDiv1'><div class='tc'><img class='introPic' src='trustrating_stim/white_mw042.bmp'><br><font color='red'><strong>Keep</strong></font></div></div></div>","null","ARRAY","1","trustrating_stim/white_mw042.bmp","0","Match","e","1500","","","","",""
"html-keyboard-response","177","376638","0.0-7.0-3.28","6105338a15c74e8435e95c71","bdp_wmem","Wed Mar 15 2023 15:59:21 GMT-0400 (Eastern Daylight Time)","551015","Match,No Match","","null","","","","","","<div class='trialBorder'><div class='vertical-center'><img src='img/fixation2_sml.jpg'</img></div></div>","null","DELAY","","","","","","","","","","",""
"html-keyboard-response","178","377439","0.0-7.0-4.28","6105338a15c74e8435e95c71","bdp_wmem","Wed Mar 15 2023 15:59:21 GMT-0400 (Eastern Daylight Time)","551015","Match,No Match","","798","","","","","","<div class='trialBorder'><div class='targDiv'><div class='tc'><img class='introPic' src='trustrating_stim/white_mw042.bmp'><br><font color='red'><strong>Keep</strong></font></div></div><div class='respDiv'><div class='respDivL'>Match<br>(e)</div><div class='respDivR'>No Match<br>(i)</div></div></div>","e","TARGET","1","trustrating_stim/white_mw042.bmp","0","Match","e","1500","trustrating_stim/white_mw042.bmp","red","Keep","REAL","1"
"html-keyboard-response","179","377950","0.0-7.0-5.28","6105338a15c74e8435e95c71","bdp_wmem","Wed Mar 15 2023 15:59:21 GMT-0400 (Eastern Daylight Time)","551015","Match,No Match","","null","","","","","","<div class='trialBorder'><div class='vertical-center'><img src='img/correct.jpg'></div><div class='respDiv'><div class='respDivL'><font style='color:orange'>Match<br>(e)</font></div><div class='respDivR'>No Match<br>(i)</div></div></div>","null","FEEDBACK","","","","","","","","","","",""
"html-keyboard-response","180","378462","0.0-7.0-1.29","6105338a15c74e8435e95c71","bdp_wmem","Wed Mar 15 2023 15:59:21 GMT-0400 (Eastern Daylight Time)","551015","Match,No Match","","null","","","","","","<div class='trialBorder'><div class='vertical-center'><img src='img/fixation2_sml.jpg'</img></div></div>","null","FIX","","","","","","","","","","",""
"html-keyboard-response","181","382974","0.0-7.0-2.29","6105338a15c74e8435e95c71","bdp_wmem","Wed Mar 15 2023 15:59:21 GMT-0400 (Eastern Daylight Time)","551015","Match,No Match","","null","","","","","","<div class='trialBorder'><div class='vertical-center'><img style='vertical-align:center; align:center' src='img/fixation2_sml.jpg'></div><div class='arrayDiv3'><div class='tl'><img class='introPic' src='trustrating_stim/white_mw091.bmp'><br><font color='red'><strong>Keep</strong></font></div><div class='tc'><img class='introPic' src='trustrating_stim/white_mw040.bmp'><br><font color='red'><strong>Keep</strong></font></div><div class='tr'><img class='introPic' src='trustrating_stim/white_mw085.bmp'><br><font color='green'><strong>Share</strong></font></div></div></div>","null","ARRAY","3","trustrating_stim/white_mw091.bmp,trustrating_stim/white_mw040.bmp,trustrating_stim/white_mw085.bmp","0,0,1","Match","e","4500","","","","",""
"html-keyboard-response","182","386979","0.0-7.0-3.29","6105338a15c74e8435e95c71","bdp_wmem","Wed Mar 15 2023 15:59:21 GMT-0400 (Eastern Daylight Time)","551015","Match,No Match","","null","","","","","","<div class='trialBorder'><div class='vertical-center'><img src='img/fixation2_sml.jpg'</img></div></div>","null","DELAY","","","","","","","","","","",""
"html-keyboard-response","183","387926","0.0-7.0-4.29","6105338a15c74e8435e95c71","bdp_wmem","Wed Mar 15 2023 15:59:21 GMT-0400 (Eastern Daylight Time)","551015","Match,No Match","","944","","","","","","<div class='trialBorder'><div class='targDiv'><div class='tc'><img class='introPic' src='trustrating_stim/white_mw040.bmp'><br><font color='red'><strong>Keep</strong></font></div></div><div class='respDiv'><div class='respDivL'>Match<br>(e)</div><div class='respDivR'>No Match<br>(i)</div></div></div>","e","TARGET","3","trustrating_stim/white_mw091.bmp,trustrating_stim/white_mw040.bmp,trustrating_stim/white_mw085.bmp","0,0,1","Match","e","4500","trustrating_stim/white_mw040.bmp","red","Keep","REAL","1"
"html-keyboard-response","184","388430","0.0-7.0-5.29","6105338a15c74e8435e95c71","bdp_wmem","Wed Mar 15 2023 15:59:21 GMT-0400 (Eastern Daylight Time)","551015","Match,No Match","","null","","","","","","<div class='trialBorder'><div class='vertical-center'><img src='img/correct.jpg'></div><div class='respDiv'><div class='respDivL'><font style='color:orange'>Match<br>(e)</font></div><div class='respDivR'>No Match<br>(i)</div></div></div>","null","FEEDBACK","","","","","","","","","","",""
"html-keyboard-response","185","388942","0.0-7.0-1.30","6105338a15c74e8435e95c71","bdp_wmem","Wed Mar 15 2023 15:59:21 GMT-0400 (Eastern Daylight Time)","551015","Match,No Match","","null","","","","","","<div class='trialBorder'><div class='vertical-center'><img src='img/fixation2_sml.jpg'</img></div></div>","null","FIX","","","","","","","","","","",""
"html-keyboard-response","186","393454","0.0-7.0-2.30","6105338a15c74e8435e95c71","bdp_wmem","Wed Mar 15 2023 15:59:21 GMT-0400 (Eastern Daylight Time)","551015","Match,No Match","","null","","","","","","<div class='trialBorder'><div class='vertical-center'><img style='vertical-align:center; align:center' src='img/fixation2_sml.jpg'></div><div class='arrayDiv3'><div class='tl'><img class='introPic' src='trustrating_stim/white_mw091.bmp'><br><font color='red'><strong>Keep</strong></font></div><div class='tc'><img class='introPic' src='trustrating_stim/white_mw012.bmp'><br><font color='green'><strong>Share</strong></font></div><div class='tr'><img class='introPic' src='trustrating_stim/white_mw040.bmp'><br><font color='green'><strong>Share</strong></font></div></div></div>","null","ARRAY","3","trustrating_stim/white_mw091.bmp,trustrating_stim/white_mw012.bmp,trustrating_stim/white_mw040.bmp","0,1,1","noMatchFace","i","4500","","","","",""
