"trial_type","trial_index","time_elapsed","internal_node_id","subject_id","task","startTime","totalTime","labels","view_history","rt","event","trial","time","trialtype","success","stimulus","key_press","stimType","arraySize","arrayFaces","arrayOutcomes","matchType","corrResp","arrayDur","targFace","targCol","targOutcome","trialType","corr"
"pavlovia","0","3","0.0-0.0","5783d80d275be60001358349","bdp_wmem","Tue Mar 14 2023 20:48:16 GMT-0500 (Central Daylight Time)","553425","Match,No Match","","","","","","","","","","","","","","","","","","","","",""
"instructions","1","1169","0.0-1.0","5783d80d275be60001358349","bdp_wmem","Tue Mar 14 2023 20:48:16 GMT-0500 (Central Daylight Time)","553425","Match,No Match","[{""page_index"":0,""viewing_time"":1164}]","1164","","","","","","","","","","","","","","","","","","",""
"","","","","5783d80d275be60001358349","bdp_wmem","Tue Mar 14 2023 20:48:16 GMT-0500 (Central Daylight Time)","553425","Match,No Match","","","fullscreenenter","2","3166","fullscreenenter","","","","","","","","","","","","","","",""
"fullscreen","2","4151","0.0-2.0","5783d80d275be60001358349","bdp_wmem","Tue Mar 14 2023 20:48:16 GMT-0500 (Central Daylight Time)","553425","Match,No Match","","","","","","","true","","","","","","","","","","","","","",""
"instructions","3","60295","0.0-4.0","5783d80d275be60001358349","bdp_wmem","Tue Mar 14 2023 20:48:16 GMT-0500 (Central Daylight Time)","553425","Match,No Match","[{""page_index"":0,""viewing_time"":16741},{""page_index"":1,""viewing_time"":24813},{""page_index"":2,""viewing_time"":9489},{""page_index"":3,""viewing_time"":2157},{""page_index"":4,""viewing_time"":2942}]","56142","","","","","","","","","","","","","","","","","","",""
"html-keyboard-response","4","60798","0.0-5.0-1.0","5783d80d275be60001358349","bdp_wmem","Tue Mar 14 2023 20:48:16 GMT-0500 (Central Daylight Time)","553425","Match,No Match","","null","","","","","","<div class='trialBorder'><div class='vertical-center'><img src='img/fixation2_sml.jpg'</img></div></div>","null","FIX","","","","","","","","","","",""
"html-keyboard-response","5","62301","0.0-5.0-2.0","5783d80d275be60001358349","bdp_wmem","Tue Mar 14 2023 20:48:16 GMT-0500 (Central Daylight Time)","553425","Match,No Match","","null","","","","","","<div class='trialBorder'><div class='vertical-center'><img style='vertical-align:center; align:center' src='img/fixation2_sml.jpg'></div><div class='arrayDiv1'><div class='tc'><img class='introPic' src='trustrating_stim/white_mw042.bmp'><br><font color='green'><strong>Share</strong></font></div></div></div>","null","ARRAY","1","trustrating_stim/white_mw042.bmp","1","Match","e","1500","","","","",""
"html-keyboard-response","6","66303","0.0-5.0-3.0","5783d80d275be60001358349","bdp_wmem","Tue Mar 14 2023 20:48:16 GMT-0500 (Central Daylight Time)","553425","Match,No Match","","null","","","","","","<div class='trialBorder'><div class='vertical-center'><img src='img/fixation2_sml.jpg'</img></div></div>","null","DELAY","","","","","","","","","","",""
"html-keyboard-response","7","67457","0.0-5.0-4.0","5783d80d275be60001358349","bdp_wmem","Tue Mar 14 2023 20:48:16 GMT-0500 (Central Daylight Time)","553425","Match,No Match","","1150","","","","","","<div class='trialBorder'><div class='targDiv'><div class='tc'><img class='introPic' src='trustrating_stim/white_mw042.bmp'><br><font color='green'><strong>Share</strong></font></div></div><div class='respDiv'><div class='respDivL'>Match<br>(e)</div><div class='respDivR'>No Match<br>(i)</div></div></div>","e","TARGET","1","trustrating_stim/white_mw042.bmp","1","Match","e","1500","trustrating_stim/white_mw042.bmp","green","Share","PRACTICE","1"
"html-keyboard-response","8","67960","0.0-5.0-5.0","5783d80d275be60001358349","bdp_wmem","Tue Mar 14 2023 20:48:16 GMT-0500 (Central Daylight Time)","553425","Match,No Match","","null","","","","","","<div class='trialBorder'><div class='vertical-center'><img src='img/correct.jpg'></div><div class='respDiv'><div class='respDivL'><font style='color:orange'>Match<br>(e)</font></div><div class='respDivR'>No Match<br>(i)</div></div></div>","null","FEEDBACK","","","","","","","","","","",""
"html-keyboard-response","9","68463","0.0-5.0-1.1","5783d80d275be60001358349","bdp_wmem","Tue Mar 14 2023 20:48:16 GMT-0500 (Central Daylight Time)","553425","Match,No Match","","null","","","","","","<div class='trialBorder'><div class='vertical-center'><img src='img/fixation2_sml.jpg'</img></div></div>","null","FIX","","","","","","","","","","",""
"html-keyboard-response","10","69967","0.0-5.0-2.1","5783d80d275be60001358349","bdp_wmem","Tue Mar 14 2023 20:48:16 GMT-0500 (Central Daylight Time)","553425","Match,No Match","","null","","","","","","<div class='trialBorder'><div class='vertical-center'><img style='vertical-align:center; align:center' src='img/fixation2_sml.jpg'></div><div class='arrayDiv1'><div class='tc'><img class='introPic' src='trustrating_stim/white_mw012.bmp'><br><font color='red'><strong>Keep</strong></font></div></div></div>","null","ARRAY","1","trustrating_stim/white_mw012.bmp","0","noMatchFace","i","1500","","","","",""
"html-keyboard-response","11","73971","0.0-5.0-3.1","5783d80d275be60001358349","bdp_wmem","Tue Mar 14 2023 20:48:16 GMT-0500 (Central Daylight Time)","553425","Match,No Match","","null","","","","","","<div class='trialBorder'><div class='vertical-center'><img src='img/fixation2_sml.jpg'</img></div></div>","null","DELAY","","","","","","","","","","",""
"html-keyboard-response","12","74781","0.0-5.0-4.1","5783d80d275be60001358349","bdp_wmem","Tue Mar 14 2023 20:48:16 GMT-0500 (Central Daylight Time)","553425","Match,No Match","","807","","","","","","<div class='trialBorder'><div class='targDiv'><div class='tc'><img class='introPic' src='trustrating_stim/white_mw042.bmp'><br><font color='red'><strong>Keep</strong></font></div></div><div class='respDiv'><div class='respDivL'>Match<br>(e)</div><div class='respDivR'>No Match<br>(i)</div></div></div>","i","TARGET","1","trustrating_stim/white_mw012.bmp","0","noMatchFace","i","1500","trustrating_stim/white_mw042.bmp","red","Keep","PRACTICE","1"
"html-keyboard-response","13","75283","0.0-5.0-5.1","5783d80d275be60001358349","bdp_wmem","Tue Mar 14 2023 20:48:16 GMT-0500 (Central Daylight Time)","553425","Match,No Match","","null","","","","","","<div class='trialBorder'><div class='vertical-center'><img src='img/correct.jpg'></div><div class='respDiv'><div class='respDivL'>Match<br>(e)</div><div class='respDivR'><font style='color:orange'>No Match<br>(i)</font></div></div></div>","null","FEEDBACK","","","","","","","","","","",""
"html-keyboard-response","14","75786","0.0-5.0-1.2","5783d80d275be60001358349","bdp_wmem","Tue Mar 14 2023 20:48:16 GMT-0500 (Central Daylight Time)","553425","Match,No Match","","null","","","","","","<div class='trialBorder'><div class='vertical-center'><img src='img/fixation2_sml.jpg'</img></div></div>","null","FIX","","","","","","","","","","",""
"html-keyboard-response","15","78790","0.0-5.0-2.2","5783d80d275be60001358349","bdp_wmem","Tue Mar 14 2023 20:48:16 GMT-0500 (Central Daylight Time)","553425","Match,No Match","","null","","","","","","<div class='trialBorder'><div class='vertical-center'><img style='vertical-align:center; align:center' src='img/fixation2_sml.jpg'></div><div class='arrayDiv2'><div class='tl'><img class='introPic' src='trustrating_stim/white_mw038.bmp'><br><font color='red'><strong>Keep</strong></font></div><div class='tr'><img class='introPic' src='trustrating_stim/white_mw040.bmp'><br><font color='green'><strong>Share</strong></font></div></div></div>","null","ARRAY","2","trustrating_stim/white_mw038.bmp,trustrating_stim/white_mw040.bmp","0,1","noMatchOutcome","i","3000","","","","",""
"html-keyboard-response","16","82793","0.0-5.0-3.2","5783d80d275be60001358349","bdp_wmem","Tue Mar 14 2023 20:48:16 GMT-0500 (Central Daylight Time)","553425","Match,No Match","","null","","","","","","<div class='trialBorder'><div class='vertical-center'><img src='img/fixation2_sml.jpg'</img></div></div>","null","DELAY","","","","","","","","","","",""
"html-keyboard-response","17","84382","0.0-5.0-4.2","5783d80d275be60001358349","bdp_wmem","Tue Mar 14 2023 20:48:16 GMT-0500 (Central Daylight Time)","553425","Match,No Match","","1586","","","","","","<div class='trialBorder'><div class='targDiv'><div class='tc'><img class='introPic' src='trustrating_stim/white_mw038.bmp'><br><font color='green'><strong>Share</strong></font></div></div><div class='respDiv'><div class='respDivL'>Match<br>(e)</div><div class='respDivR'>No Match<br>(i)</div></div></div>","i","TARGET","2","trustrating_stim/white_mw038.bmp,trustrating_stim/white_mw040.bmp","0,1","noMatchOutcome","i","3000","trustrating_stim/white_mw038.bmp","green","Share","PRACTICE","1"
"html-keyboard-response","18","84885","0.0-5.0-5.2","5783d80d275be60001358349","bdp_wmem","Tue Mar 14 2023 20:48:16 GMT-0500 (Central Daylight Time)","553425","Match,No Match","","null","","","","","","<div class='trialBorder'><div class='vertical-center'><img src='img/correct.jpg'></div><div class='respDiv'><div class='respDivL'>Match<br>(e)</div><div class='respDivR'><font style='color:orange'>No Match<br>(i)</font></div></div></div>","null","FEEDBACK","","","","","","","","","","",""
"html-keyboard-response","19","85388","0.0-5.0-1.3","5783d80d275be60001358349","bdp_wmem","Tue Mar 14 2023 20:48:16 GMT-0500 (Central Daylight Time)","553425","Match,No Match","","null","","","","","","<div class='trialBorder'><div class='vertical-center'><img src='img/fixation2_sml.jpg'</img></div></div>","null","FIX","","","","","","","","","","",""
"html-keyboard-response","20","88391","0.0-5.0-2.3","5783d80d275be60001358349","bdp_wmem","Tue Mar 14 2023 20:48:16 GMT-0500 (Central Daylight Time)","553425","Match,No Match","","null","","","","","","<div class='trialBorder'><div class='vertical-center'><img style='vertical-align:center; align:center' src='img/fixation2_sml.jpg'></div><div class='arrayDiv2'><div class='tl'><img class='introPic' src='trustrating_stim/white_mw092.bmp'><br><font color='red'><strong>Keep</strong></font></div><div class='tr'><img class='introPic' src='trustrating_stim/white_mw013.bmp'><br><font color='green'><strong>Share</strong></font></div></div></div>","null","ARRAY","2","trustrating_stim/white_mw092.bmp,trustrating_stim/white_mw013.bmp","0,1","Match","e","3000","","","","",""
"html-keyboard-response","21","92393","0.0-5.0-3.3","5783d80d275be60001358349","bdp_wmem","Tue Mar 14 2023 20:48:16 GMT-0500 (Central Daylight Time)","553425","Match,No Match","","null","","","","","","<div class='trialBorder'><div class='vertical-center'><img src='img/fixation2_sml.jpg'</img></div></div>","null","DELAY","","","","","","","","","","",""
"html-keyboard-response","22","93082","0.0-5.0-4.3","5783d80d275be60001358349","bdp_wmem","Tue Mar 14 2023 20:48:16 GMT-0500 (Central Daylight Time)","553425","Match,No Match","","687","","","","","","<div class='trialBorder'><div class='targDiv'><div class='tc'><img class='introPic' src='trustrating_stim/white_mw013.bmp'><br><font color='green'><strong>Share</strong></font></div></div><div class='respDiv'><div class='respDivL'>Match<br>(e)</div><div class='respDivR'>No Match<br>(i)</div></div></div>","e","TARGET","2","trustrating_stim/white_mw092.bmp,trustrating_stim/white_mw013.bmp","0,1","Match","e","3000","trustrating_stim/white_mw013.bmp","green","Share","PRACTICE","1"
"html-keyboard-response","23","93585","0.0-5.0-5.3","5783d80d275be60001358349","bdp_wmem","Tue Mar 14 2023 20:48:16 GMT-0500 (Central Daylight Time)","553425","Match,No Match","","null","","","","","","<div class='trialBorder'><div class='vertical-center'><img src='img/correct.jpg'></div><div class='respDiv'><div class='respDivL'><font style='color:orange'>Match<br>(e)</font></div><div class='respDivR'>No Match<br>(i)</div></div></div>","null","FEEDBACK","","","","","","","","","","",""
"html-keyboard-response","24","94087","0.0-5.0-1.4","5783d80d275be60001358349","bdp_wmem","Tue Mar 14 2023 20:48:16 GMT-0500 (Central Daylight Time)","553425","Match,No Match","","null","","","","","","<div class='trialBorder'><div class='vertical-center'><img src='img/fixation2_sml.jpg'</img></div></div>","null","FIX","","","","","","","","","","",""
"html-keyboard-response","25","98590","0.0-5.0-2.4","5783d80d275be60001358349","bdp_wmem","Tue Mar 14 2023 20:48:16 GMT-0500 (Central Daylight Time)","553425","Match,No Match","","null","","","","","","<div class='trialBorder'><div class='vertical-center'><img style='vertical-align:center; align:center' src='img/fixation2_sml.jpg'></div><div class='arrayDiv3'><div class='tl'><img class='introPic' src='trustrating_stim/white_mw042.bmp'><br><font color='red'><strong>Keep</strong></font></div><div class='tc'><img class='introPic' src='trustrating_stim/white_mw085.bmp'><br><font color='green'><strong>Share</strong></font></div><div class='tr'><img class='introPic' src='trustrating_stim/white_mw038.bmp'><br><font color='green'><strong>Share</strong></font></div></div></div>","null","ARRAY","3","trustrating_stim/white_mw042.bmp,trustrating_stim/white_mw085.bmp,trustrating_stim/white_mw038.bmp","0,1,1","noMatchOutcome","i","4500","","","","",""
"html-keyboard-response","26","102593","0.0-5.0-3.4","5783d80d275be60001358349","bdp_wmem","Tue Mar 14 2023 20:48:16 GMT-0500 (Central Daylight Time)","553425","Match,No Match","","null","","","","","","<div class='trialBorder'><div class='vertical-center'><img src='img/fixation2_sml.jpg'</img></div></div>","null","DELAY","","","","","","","","","","",""
"html-keyboard-response","27","104289","0.0-5.0-4.4","5783d80d275be60001358349","bdp_wmem","Tue Mar 14 2023 20:48:16 GMT-0500 (Central Daylight Time)","553425","Match,No Match","","1694","","","","","","<div class='trialBorder'><div class='targDiv'><div class='tc'><img class='introPic' src='trustrating_stim/white_mw038.bmp'><br><font color='red'><strong>Keep</strong></font></div></div><div class='respDiv'><div class='respDivL'>Match<br>(e)</div><div class='respDivR'>No Match<br>(i)</div></div></div>","i","TARGET","3","trustrating_stim/white_mw042.bmp,trustrating_stim/white_mw085.bmp,trustrating_stim/white_mw038.bmp","0,1,1","noMatchOutcome","i","4500","trustrating_stim/white_mw038.bmp","red","Keep","PRACTICE","1"
"html-keyboard-response","28","104792","0.0-5.0-5.4","5783d80d275be60001358349","bdp_wmem","Tue Mar 14 2023 20:48:16 GMT-0500 (Central Daylight Time)","553425","Match,No Match","","null","","","","","","<div class='trialBorder'><div class='vertical-center'><img src='img/correct.jpg'></div><div class='respDiv'><div class='respDivL'>Match<br>(e)</div><div class='respDivR'><font style='color:orange'>No Match<br>(i)</font></div></div></div>","null","FEEDBACK","","","","","","","","","","",""
"html-keyboard-response","29","105295","0.0-5.0-1.5","5783d80d275be60001358349","bdp_wmem","Tue Mar 14 2023 20:48:16 GMT-0500 (Central Daylight Time)","553425","Match,No Match","","null","","","","","","<div class='trialBorder'><div class='vertical-center'><img src='img/fixation2_sml.jpg'</img></div></div>","null","FIX","","","","","","","","","","",""
"html-keyboard-response","30","109801","0.0-5.0-2.5","5783d80d275be60001358349","bdp_wmem","Tue Mar 14 2023 20:48:16 GMT-0500 (Central Daylight Time)","553425","Match,No Match","","null","","","","","","<div class='trialBorder'><div class='vertical-center'><img style='vertical-align:center; align:center' src='img/fixation2_sml.jpg'></div><div class='arrayDiv3'><div class='tl'><img class='introPic' src='trustrating_stim/white_mw040.bmp'><br><font color='green'><strong>Share</strong></font></div><div class='tc'><img class='introPic' src='trustrating_stim/white_mw092.bmp'><br><font color='red'><strong>Keep</strong></font></div><div class='tr'><img class='introPic' src='trustrating_stim/white_mw078.bmp'><br><font color='red'><strong>Keep</strong></font></div></div></div>","null","ARRAY","3","trustrating_stim/white_mw040.bmp,trustrating_stim/white_mw092.bmp,trustrating_stim/white_mw078.bmp","1,0,0","Match","e","4500","","","","",""
"html-keyboard-response","31","113803","0.0-5.0-3.5","5783d80d275be60001358349","bdp_wmem","Tue Mar 14 2023 20:48:16 GMT-0500 (Central Daylight Time)","553425","Match,No Match","","null","","","","","","<div class='trialBorder'><div class='vertical-center'><img src='img/fixation2_sml.jpg'</img></div></div>","null","DELAY","","","","","","","","","","",""
"html-keyboard-response","32","115362","0.0-5.0-4.5","5783d80d275be60001358349","bdp_wmem","Tue Mar 14 2023 20:48:16 GMT-0500 (Central Daylight Time)","553425","Match,No Match","","1556","","","","","","<div class='trialBorder'><div class='targDiv'><div class='tc'><img class='introPic' src='trustrating_stim/white_mw040.bmp'><br><font color='green'><strong>Share</strong></font></div></div><div class='respDiv'><div class='respDivL'>Match<br>(e)</div><div class='respDivR'>No Match<br>(i)</div></div></div>","i","TARGET","3","trustrating_stim/white_mw040.bmp,trustrating_stim/white_mw092.bmp,trustrating_stim/white_mw078.bmp","1,0,0","Match","e","4500","trustrating_stim/white_mw040.bmp","green","Share","PRACTICE","0"
"html-keyboard-response","33","115864","0.0-5.0-5.5","5783d80d275be60001358349","bdp_wmem","Tue Mar 14 2023 20:48:16 GMT-0500 (Central Daylight Time)","553425","Match,No Match","","null","","","","","","<div class='trialBorder'><div class='vertical-center'><img src='img/error.jpg'></div><div class='respDiv'><div class='respDivL'>Match<br>(e)</div><div class='respDivR'><font style='color:orange'>No Match<br>(i)</font></div></div></div>","null","FEEDBACK","","","","","","","","","","",""
"instructions","34","119180","0.0-6.0","5783d80d275be60001358349","bdp_wmem","Tue Mar 14 2023 20:48:16 GMT-0500 (Central Daylight Time)","553425","Match,No Match","[{""page_index"":0,""viewing_time"":3315}]","3315","","","","","","","","","","","","","","","","","","",""
"html-keyboard-response","35","119683","0.0-7.0-1.0","5783d80d275be60001358349","bdp_wmem","Tue Mar 14 2023 20:48:16 GMT-0500 (Central Daylight Time)","553425","Match,No Match","","null","","","","","","<div class='trialBorder'><div class='vertical-center'><img src='img/fixation2_sml.jpg'</img></div></div>","null","FIX","","","","","","","","","","",""
"html-keyboard-response","36","124187","0.0-7.0-2.0","5783d80d275be60001358349","bdp_wmem","Tue Mar 14 2023 20:48:16 GMT-0500 (Central Daylight Time)","553425","Match,No Match","","null","","","","","","<div class='trialBorder'><div class='vertical-center'><img style='vertical-align:center; align:center' src='img/fixation2_sml.jpg'></div><div class='arrayDiv3'><div class='tl'><img class='introPic' src='trustrating_stim/white_mw003.bmp'><br><font color='green'><strong>Share</strong></font></div><div class='tc'><img class='introPic' src='trustrating_stim/white_mw078.bmp'><br><font color='green'><strong>Share</strong></font></div><div class='tr'><img class='introPic' src='trustrating_stim/white_mw013.bmp'><br><font color='red'><strong>Keep</strong></font></div></div></div>","null","ARRAY","3","trustrating_stim/white_mw003.bmp,trustrating_stim/white_mw078.bmp,trustrating_stim/white_mw013.bmp","1,1,0","Match","e","4500","","","","",""
"html-keyboard-response","37","128190","0.0-7.0-3.0","5783d80d275be60001358349","bdp_wmem","Tue Mar 14 2023 20:48:16 GMT-0500 (Central Daylight Time)","553425","Match,No Match","","null","","","","","","<div class='trialBorder'><div class='vertical-center'><img src='img/fixation2_sml.jpg'</img></div></div>","null","DELAY","","","","","","","","","","",""
"html-keyboard-response","38","129070","0.0-7.0-4.0","5783d80d275be60001358349","bdp_wmem","Tue Mar 14 2023 20:48:16 GMT-0500 (Central Daylight Time)","553425","Match,No Match","","877","","","","","","<div class='trialBorder'><div class='targDiv'><div class='tc'><img class='introPic' src='trustrating_stim/white_mw078.bmp'><br><font color='green'><strong>Share</strong></font></div></div><div class='respDiv'><div class='respDivL'>Match<br>(e)</div><div class='respDivR'>No Match<br>(i)</div></div></div>","e","TARGET","3","trustrating_stim/white_mw003.bmp,trustrating_stim/white_mw078.bmp,trustrating_stim/white_mw013.bmp","1,1,0","Match","e","4500","trustrating_stim/white_mw078.bmp","green","Share","REAL","1"
"html-keyboard-response","39","129573","0.0-7.0-5.0","5783d80d275be60001358349","bdp_wmem","Tue Mar 14 2023 20:48:16 GMT-0500 (Central Daylight Time)","553425","Match,No Match","","null","","","","","","<div class='trialBorder'><div class='vertical-center'><img src='img/correct.jpg'></div><div class='respDiv'><div class='respDivL'><font style='color:orange'>Match<br>(e)</font></div><div class='respDivR'>No Match<br>(i)</div></div></div>","null","FEEDBACK","","","","","","","","","","",""
"html-keyboard-response","40","130075","0.0-7.0-1.1","5783d80d275be60001358349","bdp_wmem","Tue Mar 14 2023 20:48:16 GMT-0500 (Central Daylight Time)","553425","Match,No Match","","null","","","","","","<div class='trialBorder'><div class='vertical-center'><img src='img/fixation2_sml.jpg'</img></div></div>","null","FIX","","","","","","","","","","",""
"html-keyboard-response","41","131578","0.0-7.0-2.1","5783d80d275be60001358349","bdp_wmem","Tue Mar 14 2023 20:48:16 GMT-0500 (Central Daylight Time)","553425","Match,No Match","","null","","","","","","<div class='trialBorder'><div class='vertical-center'><img style='vertical-align:center; align:center' src='img/fixation2_sml.jpg'></div><div class='arrayDiv1'><div class='tc'><img class='introPic' src='trustrating_stim/white_mw040.bmp'><br><font color='green'><strong>Share</strong></font></div></div></div>","null","ARRAY","1","trustrating_stim/white_mw040.bmp","1","noMatchOutcome","i","1500","","","","",""
"html-keyboard-response","42","135580","0.0-7.0-3.1","5783d80d275be60001358349","bdp_wmem","Tue Mar 14 2023 20:48:16 GMT-0500 (Central Daylight Time)","553425","Match,No Match","","null","","","","","","<div class='trialBorder'><div class='vertical-center'><img src='img/fixation2_sml.jpg'</img></div></div>","null","DELAY","","","","","","","","","","",""
"html-keyboard-response","43","136302","0.0-7.0-4.1","5783d80d275be60001358349","bdp_wmem","Tue Mar 14 2023 20:48:16 GMT-0500 (Central Daylight Time)","553425","Match,No Match","","719","","","","","","<div class='trialBorder'><div class='targDiv'><div class='tc'><img class='introPic' src='trustrating_stim/white_mw040.bmp'><br><font color='red'><strong>Keep</strong></font></div></div><div class='respDiv'><div class='respDivL'>Match<br>(e)</div><div class='respDivR'>No Match<br>(i)</div></div></div>","i","TARGET","1","trustrating_stim/white_mw040.bmp","1","noMatchOutcome","i","1500","trustrating_stim/white_mw040.bmp","red","Keep","REAL","1"
"html-keyboard-response","44","136804","0.0-7.0-5.1","5783d80d275be60001358349","bdp_wmem","Tue Mar 14 2023 20:48:16 GMT-0500 (Central Daylight Time)","553425","Match,No Match","","null","","","","","","<div class='trialBorder'><div class='vertical-center'><img src='img/correct.jpg'></div><div class='respDiv'><div class='respDivL'>Match<br>(e)</div><div class='respDivR'><font style='color:orange'>No Match<br>(i)</font></div></div></div>","null","FEEDBACK","","","","","","","","","","",""
"html-keyboard-response","45","137307","0.0-7.0-1.2","5783d80d275be60001358349","bdp_wmem","Tue Mar 14 2023 20:48:16 GMT-0500 (Central Daylight Time)","553425","Match,No Match","","null","","","","","","<div class='trialBorder'><div class='vertical-center'><img src='img/fixation2_sml.jpg'</img></div></div>","null","FIX","","","","","","","","","","",""
"html-keyboard-response","46","140310","0.0-7.0-2.2","5783d80d275be60001358349","bdp_wmem","Tue Mar 14 2023 20:48:16 GMT-0500 (Central Daylight Time)","553425","Match,No Match","","null","","","","","","<div class='trialBorder'><div class='vertical-center'><img style='vertical-align:center; align:center' src='img/fixation2_sml.jpg'></div><div class='arrayDiv2'><div class='tl'><img class='introPic' src='trustrating_stim/white_mw038.bmp'><br><font color='red'><strong>Keep</strong></font></div><div class='tr'><img class='introPic' src='trustrating_stim/white_mw070.bmp'><br><font color='green'><strong>Share</strong></font></div></div></div>","null","ARRAY","2","trustrating_stim/white_mw038.bmp,trustrating_stim/white_mw070.bmp","0,1","noMatchFace","i","3000","","","","",""
"html-keyboard-response","47","144313","0.0-7.0-3.2","5783d80d275be60001358349","bdp_wmem","Tue Mar 14 2023 20:48:16 GMT-0500 (Central Daylight Time)","553425","Match,No Match","","null","","","","","","<div class='trialBorder'><div class='vertical-center'><img src='img/fixation2_sml.jpg'</img></div></div>","null","DELAY","","","","","","","","","","",""
"html-keyboard-response","48","145028","0.0-7.0-4.2","5783d80d275be60001358349","bdp_wmem","Tue Mar 14 2023 20:48:16 GMT-0500 (Central Daylight Time)","553425","Match,No Match","","713","","","","","","<div class='trialBorder'><div class='targDiv'><div class='tc'><img class='introPic' src='trustrating_stim/white_mw091.bmp'><br><font color='green'><strong>Share</strong></font></div></div><div class='respDiv'><div class='respDivL'>Match<br>(e)</div><div class='respDivR'>No Match<br>(i)</div></div></div>","i","TARGET","2","trustrating_stim/white_mw038.bmp,trustrating_stim/white_mw070.bmp","0,1","noMatchFace","i","3000","trustrating_stim/white_mw091.bmp","green","Share","REAL","1"
"html-keyboard-response","49","145529","0.0-7.0-5.2","5783d80d275be60001358349","bdp_wmem","Tue Mar 14 2023 20:48:16 GMT-0500 (Central Daylight Time)","553425","Match,No Match","","null","","","","","","<div class='trialBorder'><div class='vertical-center'><img src='img/correct.jpg'></div><div class='respDiv'><div class='respDivL'>Match<br>(e)</div><div class='respDivR'><font style='color:orange'>No Match<br>(i)</font></div></div></div>","null","FEEDBACK","","","","","","","","","","",""
"html-keyboard-response","50","146031","0.0-7.0-1.3","5783d80d275be60001358349","bdp_wmem","Tue Mar 14 2023 20:48:16 GMT-0500 (Central Daylight Time)","553425","Match,No Match","","null","","","","","","<div class='trialBorder'><div class='vertical-center'><img src='img/fixation2_sml.jpg'</img></div></div>","null","FIX","","","","","","","","","","",""
"html-keyboard-response","51","150535","0.0-7.0-2.3","5783d80d275be60001358349","bdp_wmem","Tue Mar 14 2023 20:48:16 GMT-0500 (Central Daylight Time)","553425","Match,No Match","","null","","","","","","<div class='trialBorder'><div class='vertical-center'><img style='vertical-align:center; align:center' src='img/fixation2_sml.jpg'></div><div class='arrayDiv3'><div class='tl'><img class='introPic' src='trustrating_stim/white_mw013.bmp'><br><font color='red'><strong>Keep</strong></font></div><div class='tc'><img class='introPic' src='trustrating_stim/white_mw078.bmp'><br><font color='red'><strong>Keep</strong></font></div><div class='tr'><img class='introPic' src='trustrating_stim/white_mw040.bmp'><br><font color='green'><strong>Share</strong></font></div></div></div>","null","ARRAY","3","trustrating_stim/white_mw013.bmp,trustrating_stim/white_mw078.bmp,trustrating_stim/white_mw040.bmp","0,0,1","noMatchOutcome","i","4500","","","","",""
"html-keyboard-response","52","154537","0.0-7.0-3.3","5783d80d275be60001358349","bdp_wmem","Tue Mar 14 2023 20:48:16 GMT-0500 (Central Daylight Time)","553425","Match,No Match","","null","","","","","","<div class='trialBorder'><div class='vertical-center'><img src='img/fixation2_sml.jpg'</img></div></div>","null","DELAY","","","","","","","","","","",""
"html-keyboard-response","53","155778","0.0-7.0-4.3","5783d80d275be60001358349","bdp_wmem","Tue Mar 14 2023 20:48:16 GMT-0500 (Central Daylight Time)","553425","Match,No Match","","1239","","","","","","<div class='trialBorder'><div class='targDiv'><div class='tc'><img class='introPic' src='trustrating_stim/white_mw040.bmp'><br><font color='red'><strong>Keep</strong></font></div></div><div class='respDiv'><div class='respDivL'>Match<br>(e)</div><div class='respDivR'>No Match<br>(i)</div></div></div>","i","TARGET","3","trustrating_stim/white_mw013.bmp,trustrating_stim/white_mw078.bmp,trustrating_stim/white_mw040.bmp","0,0,1","noMatchOutcome","i","4500","trustrating_stim/white_mw040.bmp","red","Keep","REAL","1"
"html-keyboard-response","54","156282","0.0-7.0-5.3","5783d80d275be60001358349","bdp_wmem","Tue Mar 14 2023 20:48:16 GMT-0500 (Central Daylight Time)","553425","Match,No Match","","null","","","","","","<div class='trialBorder'><div class='vertical-center'><img src='img/correct.jpg'></div><div class='respDiv'><div class='respDivL'>Match<br>(e)</div><div class='respDivR'><font style='color:orange'>No Match<br>(i)</font></div></div></div>","null","FEEDBACK","","","","","","","","","","",""
"html-keyboard-response","55","156784","0.0-7.0-1.4","5783d80d275be60001358349","bdp_wmem","Tue Mar 14 2023 20:48:16 GMT-0500 (Central Daylight Time)","553425","Match,No Match","","null","","","","","","<div class='trialBorder'><div class='vertical-center'><img src='img/fixation2_sml.jpg'</img></div></div>","null","FIX","","","","","","","","","","",""
"html-keyboard-response","56","161289","0.0-7.0-2.4","5783d80d275be60001358349","bdp_wmem","Tue Mar 14 2023 20:48:16 GMT-0500 (Central Daylight Time)","553425","Match,No Match","","null","","","","","","<div class='trialBorder'><div class='vertical-center'><img style='vertical-align:center; align:center' src='img/fixation2_sml.jpg'></div><div class='arrayDiv3'><div class='tl'><img class='introPic' src='trustrating_stim/white_mw010.bmp'><br><font color='green'><strong>Share</strong></font></div><div class='tc'><img class='introPic' src='trustrating_stim/white_mw091.bmp'><br><font color='red'><strong>Keep</strong></font></div><div class='tr'><img class='introPic' src='trustrating_stim/white_mw070.bmp'><br><font color='green'><strong>Share</strong></font></div></div></div>","null","ARRAY","3","trustrating_stim/white_mw010.bmp,trustrating_stim/white_mw091.bmp,trustrating_stim/white_mw070.bmp","1,0,1","noMatchFace","i","4500","","","","",""
"html-keyboard-response","57","165291","0.0-7.0-3.4","5783d80d275be60001358349","bdp_wmem","Tue Mar 14 2023 20:48:16 GMT-0500 (Central Daylight Time)","553425","Match,No Match","","null","","","","","","<div class='trialBorder'><div class='vertical-center'><img src='img/fixation2_sml.jpg'</img></div></div>","null","DELAY","","","","","","","","","","",""
"html-keyboard-response","58","166740","0.0-7.0-4.4","5783d80d275be60001358349","bdp_wmem","Tue Mar 14 2023 20:48:16 GMT-0500 (Central Daylight Time)","553425","Match,No Match","","1446","","","","","","<div class='trialBorder'><div class='targDiv'><div class='tc'><img class='introPic' src='trustrating_stim/white_mw040.bmp'><br><font color='green'><strong>Share</strong></font></div></div><div class='respDiv'><div class='respDivL'>Match<br>(e)</div><div class='respDivR'>No Match<br>(i)</div></div></div>","i","TARGET","3","trustrating_stim/white_mw010.bmp,trustrating_stim/white_mw091.bmp,trustrating_stim/white_mw070.bmp","1,0,1","noMatchFace","i","4500","trustrating_stim/white_mw040.bmp","green","Share","REAL","1"
"html-keyboard-response","59","167242","0.0-7.0-5.4","5783d80d275be60001358349","bdp_wmem","Tue Mar 14 2023 20:48:16 GMT-0500 (Central Daylight Time)","553425","Match,No Match","","null","","","","","","<div class='trialBorder'><div class='vertical-center'><img src='img/correct.jpg'></div><div class='respDiv'><div class='respDivL'>Match<br>(e)</div><div class='respDivR'><font style='color:orange'>No Match<br>(i)</font></div></div></div>","null","FEEDBACK","","","","","","","","","","",""
"html-keyboard-response","60","167745","0.0-7.0-1.5","5783d80d275be60001358349","bdp_wmem","Tue Mar 14 2023 20:48:16 GMT-0500 (Central Daylight Time)","553425","Match,No Match","","null","","","","","","<div class='trialBorder'><div class='vertical-center'><img src='img/fixation2_sml.jpg'</img></div></div>","null","FIX","","","","","","","","","","",""
"html-keyboard-response","61","172248","0.0-7.0-2.5","5783d80d275be60001358349","bdp_wmem","Tue Mar 14 2023 20:48:16 GMT-0500 (Central Daylight Time)","553425","Match,No Match","","null","","","","","","<div class='trialBorder'><div class='vertical-center'><img style='vertical-align:center; align:center' src='img/fixation2_sml.jpg'></div><div class='arrayDiv3'><div class='tl'><img class='introPic' src='trustrating_stim/white_mw040.bmp'><br><font color='green'><strong>Share</strong></font></div><div class='tc'><img class='introPic' src='trustrating_stim/white_mw078.bmp'><br><font color='red'><strong>Keep</strong></font></div><div class='tr'><img class='introPic' src='trustrating_stim/white_mw091.bmp'><br><font color='red'><strong>Keep</strong></font></div></div></div>","null","ARRAY","3","trustrating_stim/white_mw040.bmp,trustrating_stim/white_mw078.bmp,trustrating_stim/white_mw091.bmp","1,0,0","noMatchOutcome","i","4500","","","","",""
"html-keyboard-response","62","176250","0.0-7.0-3.5","5783d80d275be60001358349","bdp_wmem","Tue Mar 14 2023 20:48:16 GMT-0500 (Central Daylight Time)","553425","Match,No Match","","null","","","","","","<div class='trialBorder'><div class='vertical-center'><img src='img/fixation2_sml.jpg'</img></div></div>","null","DELAY","","","","","","","","","","",""
"html-keyboard-response","63","177517","0.0-7.0-4.5","5783d80d275be60001358349","bdp_wmem","Tue Mar 14 2023 20:48:16 GMT-0500 (Central Daylight Time)","553425","Match,No Match","","1265","","","","","","<div class='trialBorder'><div class='targDiv'><div class='tc'><img class='introPic' src='trustrating_stim/white_mw040.bmp'><br><font color='red'><strong>Keep</strong></font></div></div><div class='respDiv'><div class='respDivL'>Match<br>(e)</div><div class='respDivR'>No Match<br>(i)</div></div></div>","i","TARGET","3","trustrating_stim/white_mw040.bmp,trustrating_stim/white_mw078.bmp,trustrating_stim/white_mw091.bmp","1,0,0","noMatchOutcome","i","4500","trustrating_stim/white_mw040.bmp","red","Keep","REAL","1"
"html-keyboard-response","64","178020","0.0-7.0-5.5","5783d80d275be60001358349","bdp_wmem","Tue Mar 14 2023 20:48:16 GMT-0500 (Central Daylight Time)","553425","Match,No Match","","null","","","","","","<div class='trialBorder'><div class='vertical-center'><img src='img/correct.jpg'></div><div class='respDiv'><div class='respDivL'>Match<br>(e)</div><div class='respDivR'><font style='color:orange'>No Match<br>(i)</font></div></div></div>","null","FEEDBACK","","","","","","","","","","",""
"html-keyboard-response","65","178522","0.0-7.0-1.6","5783d80d275be60001358349","bdp_wmem","Tue Mar 14 2023 20:48:16 GMT-0500 (Central Daylight Time)","553425","Match,No Match","","null","","","","","","<div class='trialBorder'><div class='vertical-center'><img src='img/fixation2_sml.jpg'</img></div></div>","null","FIX","","","","","","","","","","",""
"html-keyboard-response","66","180024","0.0-7.0-2.6","5783d80d275be60001358349","bdp_wmem","Tue Mar 14 2023 20:48:16 GMT-0500 (Central Daylight Time)","553425","Match,No Match","","null","","","","","","<div class='trialBorder'><div class='vertical-center'><img style='vertical-align:center; align:center' src='img/fixation2_sml.jpg'></div><div class='arrayDiv1'><div class='tc'><img class='introPic' src='trustrating_stim/white_mw012.bmp'><br><font color='green'><strong>Share</strong></font></div></div></div>","null","ARRAY","1","trustrating_stim/white_mw012.bmp","1","Match","e","1500","","","","",""
"html-keyboard-response","67","184026","0.0-7.0-3.6","5783d80d275be60001358349","bdp_wmem","Tue Mar 14 2023 20:48:16 GMT-0500 (Central Daylight Time)","553425","Match,No Match","","null","","","","","","<div class='trialBorder'><div class='vertical-center'><img src='img/fixation2_sml.jpg'</img></div></div>","null","DELAY","","","","","","","","","","",""
"html-keyboard-response","68","184668","0.0-7.0-4.6","5783d80d275be60001358349","bdp_wmem","Tue Mar 14 2023 20:48:16 GMT-0500 (Central Daylight Time)","553425","Match,No Match","","639","","","","","","<div class='trialBorder'><div class='targDiv'><div class='tc'><img class='introPic' src='trustrating_stim/white_mw012.bmp'><br><font color='green'><strong>Share</strong></font></div></div><div class='respDiv'><div class='respDivL'>Match<br>(e)</div><div class='respDivR'>No Match<br>(i)</div></div></div>","e","TARGET","1","trustrating_stim/white_mw012.bmp","1","Match","e","1500","trustrating_stim/white_mw012.bmp","green","Share","REAL","1"
"html-keyboard-response","69","185171","0.0-7.0-5.6","5783d80d275be60001358349","bdp_wmem","Tue Mar 14 2023 20:48:16 GMT-0500 (Central Daylight Time)","553425","Match,No Match","","null","","","","","","<div class='trialBorder'><div class='vertical-center'><img src='img/correct.jpg'></div><div class='respDiv'><div class='respDivL'><font style='color:orange'>Match<br>(e)</font></div><div class='respDivR'>No Match<br>(i)</div></div></div>","null","FEEDBACK","","","","","","","","","","",""
"html-keyboard-response","70","185673","0.0-7.0-1.7","5783d80d275be60001358349","bdp_wmem","Tue Mar 14 2023 20:48:16 GMT-0500 (Central Daylight Time)","553425","Match,No Match","","null","","","","","","<div class='trialBorder'><div class='vertical-center'><img src='img/fixation2_sml.jpg'</img></div></div>","null","FIX","","","","","","","","","","",""
"html-keyboard-response","71","190177","0.0-7.0-2.7","5783d80d275be60001358349","bdp_wmem","Tue Mar 14 2023 20:48:16 GMT-0500 (Central Daylight Time)","553425","Match,No Match","","null","","","","","","<div class='trialBorder'><div class='vertical-center'><img style='vertical-align:center; align:center' src='img/fixation2_sml.jpg'></div><div class='arrayDiv3'><div class='tl'><img class='introPic' src='trustrating_stim/white_mw010.bmp'><br><font color='green'><strong>Share</strong></font></div><div class='tc'><img class='introPic' src='trustrating_stim/white_mw013.bmp'><br><font color='green'><strong>Share</strong></font></div><div class='tr'><img class='introPic' src='trustrating_stim/white_mw070.bmp'><br><font color='red'><strong>Keep</strong></font></div></div></div>","null","ARRAY","3","trustrating_stim/white_mw010.bmp,trustrating_stim/white_mw013.bmp,trustrating_stim/white_mw070.bmp","1,1,0","Match","e","4500","","","","",""
"html-keyboard-response","72","194180","0.0-7.0-3.7","5783d80d275be60001358349","bdp_wmem","Tue Mar 14 2023 20:48:16 GMT-0500 (Central Daylight Time)","553425","Match,No Match","","null","","","","","","<div class='trialBorder'><div class='vertical-center'><img src='img/fixation2_sml.jpg'</img></div></div>","null","DELAY","","","","","","","","","","",""
"html-keyboard-response","73","195010","0.0-7.0-4.7","5783d80d275be60001358349","bdp_wmem","Tue Mar 14 2023 20:48:16 GMT-0500 (Central Daylight Time)","553425","Match,No Match","","827","","","","","","<div class='trialBorder'><div class='targDiv'><div class='tc'><img class='introPic' src='trustrating_stim/white_mw010.bmp'><br><font color='green'><strong>Share</strong></font></div></div><div class='respDiv'><div class='respDivL'>Match<br>(e)</div><div class='respDivR'>No Match<br>(i)</div></div></div>","e","TARGET","3","trustrating_stim/white_mw010.bmp,trustrating_stim/white_mw013.bmp,trustrating_stim/white_mw070.bmp","1,1,0","Match","e","4500","trustrating_stim/white_mw010.bmp","green","Share","REAL","1"
"html-keyboard-response","74","195512","0.0-7.0-5.7","5783d80d275be60001358349","bdp_wmem","Tue Mar 14 2023 20:48:16 GMT-0500 (Central Daylight Time)","553425","Match,No Match","","null","","","","","","<div class='trialBorder'><div class='vertical-center'><img src='img/correct.jpg'></div><div class='respDiv'><div class='respDivL'><font style='color:orange'>Match<br>(e)</font></div><div class='respDivR'>No Match<br>(i)</div></div></div>","null","FEEDBACK","","","","","","","","","","",""
"html-keyboard-response","75","196014","0.0-7.0-1.8","5783d80d275be60001358349","bdp_wmem","Tue Mar 14 2023 20:48:16 GMT-0500 (Central Daylight Time)","553425","Match,No Match","","null","","","","","","<div class='trialBorder'><div class='vertical-center'><img src='img/fixation2_sml.jpg'</img></div></div>","null","FIX","","","","","","","","","","",""
"html-keyboard-response","76","199017","0.0-7.0-2.8","5783d80d275be60001358349","bdp_wmem","Tue Mar 14 2023 20:48:16 GMT-0500 (Central Daylight Time)","553425","Match,No Match","","null","","","","","","<div class='trialBorder'><div class='vertical-center'><img style='vertical-align:center; align:center' src='img/fixation2_sml.jpg'></div><div class='arrayDiv2'><div class='tl'><img class='introPic' src='trustrating_stim/white_mw078.bmp'><br><font color='green'><strong>Share</strong></font></div><div class='tr'><img class='introPic' src='trustrating_stim/white_mw085.bmp'><br><font color='red'><strong>Keep</strong></font></div></div></div>","null","ARRAY","2","trustrating_stim/white_mw078.bmp,trustrating_stim/white_mw085.bmp","1,0","noMatchFace","i","3000","","","","",""
"html-keyboard-response","77","203020","0.0-7.0-3.8","5783d80d275be60001358349","bdp_wmem","Tue Mar 14 2023 20:48:16 GMT-0500 (Central Daylight Time)","553425","Match,No Match","","null","","","","","","<div class='trialBorder'><div class='vertical-center'><img src='img/fixation2_sml.jpg'</img></div></div>","null","DELAY","","","","","","","","","","",""
"html-keyboard-response","78","203930","0.0-7.0-4.8","5783d80d275be60001358349","bdp_wmem","Tue Mar 14 2023 20:48:16 GMT-0500 (Central Daylight Time)","553425","Match,No Match","","907","","","","","","<div class='trialBorder'><div class='targDiv'><div class='tc'><img class='introPic' src='trustrating_stim/white_mw092.bmp'><br><font color='red'><strong>Keep</strong></font></div></div><div class='respDiv'><div class='respDivL'>Match<br>(e)</div><div class='respDivR'>No Match<br>(i)</div></div></div>","i","TARGET","2","trustrating_stim/white_mw078.bmp,trustrating_stim/white_mw085.bmp","1,0","noMatchFace","i","3000","trustrating_stim/white_mw092.bmp","red","Keep","REAL","1"
"html-keyboard-response","79","204433","0.0-7.0-5.8","5783d80d275be60001358349","bdp_wmem","Tue Mar 14 2023 20:48:16 GMT-0500 (Central Daylight Time)","553425","Match,No Match","","null","","","","","","<div class='trialBorder'><div class='vertical-center'><img src='img/correct.jpg'></div><div class='respDiv'><div class='respDivL'>Match<br>(e)</div><div class='respDivR'><font style='color:orange'>No Match<br>(i)</font></div></div></div>","null","FEEDBACK","","","","","","","","","","",""
"html-keyboard-response","80","204936","0.0-7.0-1.9","5783d80d275be60001358349","bdp_wmem","Tue Mar 14 2023 20:48:16 GMT-0500 (Central Daylight Time)","553425","Match,No Match","","null","","","","","","<div class='trialBorder'><div class='vertical-center'><img src='img/fixation2_sml.jpg'</img></div></div>","null","FIX","","","","","","","","","","",""
"html-keyboard-response","81","209442","0.0-7.0-2.9","5783d80d275be60001358349","bdp_wmem","Tue Mar 14 2023 20:48:16 GMT-0500 (Central Daylight Time)","553425","Match,No Match","","null","","","","","","<div class='trialBorder'><div class='vertical-center'><img style='vertical-align:center; align:center' src='img/fixation2_sml.jpg'></div><div class='arrayDiv3'><div class='tl'><img class='introPic' src='trustrating_stim/white_mw092.bmp'><br><font color='green'><strong>Share</strong></font></div><div class='tc'><img class='introPic' src='trustrating_stim/white_mw078.bmp'><br><font color='red'><strong>Keep</strong></font></div><div class='tr'><img class='introPic' src='trustrating_stim/white_mw040.bmp'><br><font color='green'><strong>Share</strong></font></div></div></div>","null","ARRAY","3","trustrating_stim/white_mw092.bmp,trustrating_stim/white_mw078.bmp,trustrating_stim/white_mw040.bmp","1,0,1","Match","e","4500","","","","",""
"html-keyboard-response","82","213444","0.0-7.0-3.9","5783d80d275be60001358349","bdp_wmem","Tue Mar 14 2023 20:48:16 GMT-0500 (Central Daylight Time)","553425","Match,No Match","","null","","","","","","<div class='trialBorder'><div class='vertical-center'><img src='img/fixation2_sml.jpg'</img></div></div>","null","DELAY","","","","","","","","","","",""
"html-keyboard-response","83","214376","0.0-7.0-4.9","5783d80d275be60001358349","bdp_wmem","Tue Mar 14 2023 20:48:16 GMT-0500 (Central Daylight Time)","553425","Match,No Match","","928","","","","","","<div class='trialBorder'><div class='targDiv'><div class='tc'><img class='introPic' src='trustrating_stim/white_mw092.bmp'><br><font color='green'><strong>Share</strong></font></div></div><div class='respDiv'><div class='respDivL'>Match<br>(e)</div><div class='respDivR'>No Match<br>(i)</div></div></div>","e","TARGET","3","trustrating_stim/white_mw092.bmp,trustrating_stim/white_mw078.bmp,trustrating_stim/white_mw040.bmp","1,0,1","Match","e","4500","trustrating_stim/white_mw092.bmp","green","Share","REAL","1"
"html-keyboard-response","84","214878","0.0-7.0-5.9","5783d80d275be60001358349","bdp_wmem","Tue Mar 14 2023 20:48:16 GMT-0500 (Central Daylight Time)","553425","Match,No Match","","null","","","","","","<div class='trialBorder'><div class='vertical-center'><img src='img/correct.jpg'></div><div class='respDiv'><div class='respDivL'><font style='color:orange'>Match<br>(e)</font></div><div class='respDivR'>No Match<br>(i)</div></div></div>","null","FEEDBACK","","","","","","","","","","",""
"html-keyboard-response","85","215380","0.0-7.0-1.10","5783d80d275be60001358349","bdp_wmem","Tue Mar 14 2023 20:48:16 GMT-0500 (Central Daylight Time)","553425","Match,No Match","","null","","","","","","<div class='trialBorder'><div class='vertical-center'><img src='img/fixation2_sml.jpg'</img></div></div>","null","FIX","","","","","","","","","","",""
"html-keyboard-response","86","218383","0.0-7.0-2.10","5783d80d275be60001358349","bdp_wmem","Tue Mar 14 2023 20:48:16 GMT-0500 (Central Daylight Time)","553425","Match,No Match","","null","","","","","","<div class='trialBorder'><div class='vertical-center'><img style='vertical-align:center; align:center' src='img/fixation2_sml.jpg'></div><div class='arrayDiv2'><div class='tl'><img class='introPic' src='trustrating_stim/white_mw085.bmp'><br><font color='red'><strong>Keep</strong></font></div><div class='tr'><img class='introPic' src='trustrating_stim/white_mw013.bmp'><br><font color='green'><strong>Share</strong></font></div></div></div>","null","ARRAY","2","trustrating_stim/white_mw085.bmp,trustrating_stim/white_mw013.bmp","0,1","noMatchFace","i","3000","","","","",""
"html-keyboard-response","87","222386","0.0-7.0-3.10","5783d80d275be60001358349","bdp_wmem","Tue Mar 14 2023 20:48:16 GMT-0500 (Central Daylight Time)","553425","Match,No Match","","null","","","","","","<div class='trialBorder'><div class='vertical-center'><img src='img/fixation2_sml.jpg'</img></div></div>","null","DELAY","","","","","","","","","","",""
"html-keyboard-response","88","223112","0.0-7.0-4.10","5783d80d275be60001358349","bdp_wmem","Tue Mar 14 2023 20:48:16 GMT-0500 (Central Daylight Time)","553425","Match,No Match","","722","","","","","","<div class='trialBorder'><div class='targDiv'><div class='tc'><img class='introPic' src='trustrating_stim/white_mw042.bmp'><br><font color='green'><strong>Share</strong></font></div></div><div class='respDiv'><div class='respDivL'>Match<br>(e)</div><div class='respDivR'>No Match<br>(i)</div></div></div>","i","TARGET","2","trustrating_stim/white_mw085.bmp,trustrating_stim/white_mw013.bmp","0,1","noMatchFace","i","3000","trustrating_stim/white_mw042.bmp","green","Share","REAL","1"
"html-keyboard-response","89","223614","0.0-7.0-5.10","5783d80d275be60001358349","bdp_wmem","Tue Mar 14 2023 20:48:16 GMT-0500 (Central Daylight Time)","553425","Match,No Match","","null","","","","","","<div class='trialBorder'><div class='vertical-center'><img src='img/correct.jpg'></div><div class='respDiv'><div class='respDivL'>Match<br>(e)</div><div class='respDivR'><font style='color:orange'>No Match<br>(i)</font></div></div></div>","null","FEEDBACK","","","","","","","","","","",""
"html-keyboard-response","90","224116","0.0-7.0-1.11","5783d80d275be60001358349","bdp_wmem","Tue Mar 14 2023 20:48:16 GMT-0500 (Central Daylight Time)","553425","Match,No Match","","null","","","","","","<div class='trialBorder'><div class='vertical-center'><img src='img/fixation2_sml.jpg'</img></div></div>","null","FIX","","","","","","","","","","",""
"html-keyboard-response","91","225619","0.0-7.0-2.11","5783d80d275be60001358349","bdp_wmem","Tue Mar 14 2023 20:48:16 GMT-0500 (Central Daylight Time)","553425","Match,No Match","","null","","","","","","<div class='trialBorder'><div class='vertical-center'><img style='vertical-align:center; align:center' src='img/fixation2_sml.jpg'></div><div class='arrayDiv1'><div class='tc'><img class='introPic' src='trustrating_stim/white_mw010.bmp'><br><font color='green'><strong>Share</strong></font></div></div></div>","null","ARRAY","1","trustrating_stim/white_mw010.bmp","1","noMatchFace","i","1500","","","","",""
"html-keyboard-response","92","229621","0.0-7.0-3.11","5783d80d275be60001358349","bdp_wmem","Tue Mar 14 2023 20:48:16 GMT-0500 (Central Daylight Time)","553425","Match,No Match","","null","","","","","","<div class='trialBorder'><div class='vertical-center'><img src='img/fixation2_sml.jpg'</img></div></div>","null","DELAY","","","","","","","","","","",""
"html-keyboard-response","93","230199","0.0-7.0-4.11","5783d80d275be60001358349","bdp_wmem","Tue Mar 14 2023 20:48:16 GMT-0500 (Central Daylight Time)","553425","Match,No Match","","574","","","","","","<div class='trialBorder'><div class='targDiv'><div class='tc'><img class='introPic' src='trustrating_stim/white_mw038.bmp'><br><font color='green'><strong>Share</strong></font></div></div><div class='respDiv'><div class='respDivL'>Match<br>(e)</div><div class='respDivR'>No Match<br>(i)</div></div></div>","i","TARGET","1","trustrating_stim/white_mw010.bmp","1","noMatchFace","i","1500","trustrating_stim/white_mw038.bmp","green","Share","REAL","1"
"html-keyboard-response","94","230701","0.0-7.0-5.11","5783d80d275be60001358349","bdp_wmem","Tue Mar 14 2023 20:48:16 GMT-0500 (Central Daylight Time)","553425","Match,No Match","","null","","","","","","<div class='trialBorder'><div class='vertical-center'><img src='img/correct.jpg'></div><div class='respDiv'><div class='respDivL'>Match<br>(e)</div><div class='respDivR'><font style='color:orange'>No Match<br>(i)</font></div></div></div>","null","FEEDBACK","","","","","","","","","","",""
"html-keyboard-response","95","231204","0.0-7.0-1.12","5783d80d275be60001358349","bdp_wmem","Tue Mar 14 2023 20:48:16 GMT-0500 (Central Daylight Time)","553425","Match,No Match","","null","","","","","","<div class='trialBorder'><div class='vertical-center'><img src='img/fixation2_sml.jpg'</img></div></div>","null","FIX","","","","","","","","","","",""
"html-keyboard-response","96","234208","0.0-7.0-2.12","5783d80d275be60001358349","bdp_wmem","Tue Mar 14 2023 20:48:16 GMT-0500 (Central Daylight Time)","553425","Match,No Match","","null","","","","","","<div class='trialBorder'><div class='vertical-center'><img style='vertical-align:center; align:center' src='img/fixation2_sml.jpg'></div><div class='arrayDiv2'><div class='tl'><img class='introPic' src='trustrating_stim/white_mw040.bmp'><br><font color='red'><strong>Keep</strong></font></div><div class='tr'><img class='introPic' src='trustrating_stim/white_mw003.bmp'><br><font color='green'><strong>Share</strong></font></div></div></div>","null","ARRAY","2","trustrating_stim/white_mw040.bmp,trustrating_stim/white_mw003.bmp","0,1","Match","e","3000","","","","",""
"html-keyboard-response","97","238210","0.0-7.0-3.12","5783d80d275be60001358349","bdp_wmem","Tue Mar 14 2023 20:48:16 GMT-0500 (Central Daylight Time)","553425","Match,No Match","","null","","","","","","<div class='trialBorder'><div class='vertical-center'><img src='img/fixation2_sml.jpg'</img></div></div>","null","DELAY","","","","","","","","","","",""
"html-keyboard-response","98","239201","0.0-7.0-4.12","5783d80d275be60001358349","bdp_wmem","Tue Mar 14 2023 20:48:16 GMT-0500 (Central Daylight Time)","553425","Match,No Match","","988","","","","","","<div class='trialBorder'><div class='targDiv'><div class='tc'><img class='introPic' src='trustrating_stim/white_mw003.bmp'><br><font color='green'><strong>Share</strong></font></div></div><div class='respDiv'><div class='respDivL'>Match<br>(e)</div><div class='respDivR'>No Match<br>(i)</div></div></div>","e","TARGET","2","trustrating_stim/white_mw040.bmp,trustrating_stim/white_mw003.bmp","0,1","Match","e","3000","trustrating_stim/white_mw003.bmp","green","Share","REAL","1"
"html-keyboard-response","99","239703","0.0-7.0-5.12","5783d80d275be60001358349","bdp_wmem","Tue Mar 14 2023 20:48:16 GMT-0500 (Central Daylight Time)","553425","Match,No Match","","null","","","","","","<div class='trialBorder'><div class='vertical-center'><img src='img/correct.jpg'></div><div class='respDiv'><div class='respDivL'><font style='color:orange'>Match<br>(e)</font></div><div class='respDivR'>No Match<br>(i)</div></div></div>","null","FEEDBACK","","","","","","","","","","",""
"html-keyboard-response","100","240205","0.0-7.0-1.13","5783d80d275be60001358349","bdp_wmem","Tue Mar 14 2023 20:48:16 GMT-0500 (Central Daylight Time)","553425","Match,No Match","","null","","","","","","<div class='trialBorder'><div class='vertical-center'><img src='img/fixation2_sml.jpg'</img></div></div>","null","FIX","","","","","","","","","","",""
"html-keyboard-response","101","243207","0.0-7.0-2.13","5783d80d275be60001358349","bdp_wmem","Tue Mar 14 2023 20:48:16 GMT-0500 (Central Daylight Time)","553425","Match,No Match","","null","","","","","","<div class='trialBorder'><div class='vertical-center'><img style='vertical-align:center; align:center' src='img/fixation2_sml.jpg'></div><div class='arrayDiv2'><div class='tl'><img class='introPic' src='trustrating_stim/white_mw042.bmp'><br><font color='red'><strong>Keep</strong></font></div><div class='tr'><img class='introPic' src='trustrating_stim/white_mw038.bmp'><br><font color='green'><strong>Share</strong></font></div></div></div>","null","ARRAY","2","trustrating_stim/white_mw042.bmp,trustrating_stim/white_mw038.bmp","0,1","Match","e","3000","","","","",""
"html-keyboard-response","102","247210","0.0-7.0-3.13","5783d80d275be60001358349","bdp_wmem","Tue Mar 14 2023 20:48:16 GMT-0500 (Central Daylight Time)","553425","Match,No Match","","null","","","","","","<div class='trialBorder'><div class='vertical-center'><img src='img/fixation2_sml.jpg'</img></div></div>","null","DELAY","","","","","","","","","","",""
"html-keyboard-response","103","248360","0.0-7.0-4.13","5783d80d275be60001358349","bdp_wmem","Tue Mar 14 2023 20:48:16 GMT-0500 (Central Daylight Time)","553425","Match,No Match","","1148","","","","","","<div class='trialBorder'><div class='targDiv'><div class='tc'><img class='introPic' src='trustrating_stim/white_mw042.bmp'><br><font color='red'><strong>Keep</strong></font></div></div><div class='respDiv'><div class='respDivL'>Match<br>(e)</div><div class='respDivR'>No Match<br>(i)</div></div></div>","i","TARGET","2","trustrating_stim/white_mw042.bmp,trustrating_stim/white_mw038.bmp","0,1","Match","e","3000","trustrating_stim/white_mw042.bmp","red","Keep","REAL","0"
"html-keyboard-response","104","248862","0.0-7.0-5.13","5783d80d275be60001358349","bdp_wmem","Tue Mar 14 2023 20:48:16 GMT-0500 (Central Daylight Time)","553425","Match,No Match","","null","","","","","","<div class='trialBorder'><div class='vertical-center'><img src='img/error.jpg'></div><div class='respDiv'><div class='respDivL'>Match<br>(e)</div><div class='respDivR'><font style='color:orange'>No Match<br>(i)</font></div></div></div>","null","FEEDBACK","","","","","","","","","","",""
"html-keyboard-response","105","249364","0.0-7.0-1.14","5783d80d275be60001358349","bdp_wmem","Tue Mar 14 2023 20:48:16 GMT-0500 (Central Daylight Time)","553425","Match,No Match","","null","","","","","","<div class='trialBorder'><div class='vertical-center'><img src='img/fixation2_sml.jpg'</img></div></div>","null","FIX","","","","","","","","","","",""
"html-keyboard-response","106","250867","0.0-7.0-2.14","5783d80d275be60001358349","bdp_wmem","Tue Mar 14 2023 20:48:16 GMT-0500 (Central Daylight Time)","553425","Match,No Match","","null","","","","","","<div class='trialBorder'><div class='vertical-center'><img style='vertical-align:center; align:center' src='img/fixation2_sml.jpg'></div><div class='arrayDiv1'><div class='tc'><img class='introPic' src='trustrating_stim/white_mw040.bmp'><br><font color='green'><strong>Share</strong></font></div></div></div>","null","ARRAY","1","trustrating_stim/white_mw040.bmp","1","noMatchOutcome","i","1500","","","","",""
"html-keyboard-response","107","254869","0.0-7.0-3.14","5783d80d275be60001358349","bdp_wmem","Tue Mar 14 2023 20:48:16 GMT-0500 (Central Daylight Time)","553425","Match,No Match","","null","","","","","","<div class='trialBorder'><div class='vertical-center'><img src='img/fixation2_sml.jpg'</img></div></div>","null","DELAY","","","","","","","","","","",""
"html-keyboard-response","108","255546","0.0-7.0-4.14","5783d80d275be60001358349","bdp_wmem","Tue Mar 14 2023 20:48:16 GMT-0500 (Central Daylight Time)","553425","Match,No Match","","674","","","","","","<div class='trialBorder'><div class='targDiv'><div class='tc'><img class='introPic' src='trustrating_stim/white_mw040.bmp'><br><font color='red'><strong>Keep</strong></font></div></div><div class='respDiv'><div class='respDivL'>Match<br>(e)</div><div class='respDivR'>No Match<br>(i)</div></div></div>","i","TARGET","1","trustrating_stim/white_mw040.bmp","1","noMatchOutcome","i","1500","trustrating_stim/white_mw040.bmp","red","Keep","REAL","1"
"html-keyboard-response","109","256050","0.0-7.0-5.14","5783d80d275be60001358349","bdp_wmem","Tue Mar 14 2023 20:48:16 GMT-0500 (Central Daylight Time)","553425","Match,No Match","","null","","","","","","<div class='trialBorder'><div class='vertical-center'><img src='img/correct.jpg'></div><div class='respDiv'><div class='respDivL'>Match<br>(e)</div><div class='respDivR'><font style='color:orange'>No Match<br>(i)</font></div></div></div>","null","FEEDBACK","","","","","","","","","","",""
"html-keyboard-response","110","256551","0.0-7.0-1.15","5783d80d275be60001358349","bdp_wmem","Tue Mar 14 2023 20:48:16 GMT-0500 (Central Daylight Time)","553425","Match,No Match","","null","","","","","","<div class='trialBorder'><div class='vertical-center'><img src='img/fixation2_sml.jpg'</img></div></div>","null","FIX","","","","","","","","","","",""
"html-keyboard-response","111","258053","0.0-7.0-2.15","5783d80d275be60001358349","bdp_wmem","Tue Mar 14 2023 20:48:16 GMT-0500 (Central Daylight Time)","553425","Match,No Match","","null","","","","","","<div class='trialBorder'><div class='vertical-center'><img style='vertical-align:center; align:center' src='img/fixation2_sml.jpg'></div><div class='arrayDiv1'><div class='tc'><img class='introPic' src='trustrating_stim/white_mw012.bmp'><br><font color='red'><strong>Keep</strong></font></div></div></div>","null","ARRAY","1","trustrating_stim/white_mw012.bmp","0","Match","e","1500","","","","",""
"html-keyboard-response","112","262057","0.0-7.0-3.15","5783d80d275be60001358349","bdp_wmem","Tue Mar 14 2023 20:48:16 GMT-0500 (Central Daylight Time)","553425","Match,No Match","","null","","","","","","<div class='trialBorder'><div class='vertical-center'><img src='img/fixation2_sml.jpg'</img></div></div>","null","DELAY","","","","","","","","","","",""
"html-keyboard-response","113","262705","0.0-7.0-4.15","5783d80d275be60001358349","bdp_wmem","Tue Mar 14 2023 20:48:16 GMT-0500 (Central Daylight Time)","553425","Match,No Match","","645","","","","","","<div class='trialBorder'><div class='targDiv'><div class='tc'><img class='introPic' src='trustrating_stim/white_mw012.bmp'><br><font color='red'><strong>Keep</strong></font></div></div><div class='respDiv'><div class='respDivL'>Match<br>(e)</div><div class='respDivR'>No Match<br>(i)</div></div></div>","e","TARGET","1","trustrating_stim/white_mw012.bmp","0","Match","e","1500","trustrating_stim/white_mw012.bmp","red","Keep","REAL","1"
"html-keyboard-response","114","263207","0.0-7.0-5.15","5783d80d275be60001358349","bdp_wmem","Tue Mar 14 2023 20:48:16 GMT-0500 (Central Daylight Time)","553425","Match,No Match","","null","","","","","","<div class='trialBorder'><div class='vertical-center'><img src='img/correct.jpg'></div><div class='respDiv'><div class='respDivL'><font style='color:orange'>Match<br>(e)</font></div><div class='respDivR'>No Match<br>(i)</div></div></div>","null","FEEDBACK","","","","","","","","","","",""
"html-keyboard-response","115","263709","0.0-7.0-1.16","5783d80d275be60001358349","bdp_wmem","Tue Mar 14 2023 20:48:16 GMT-0500 (Central Daylight Time)","553425","Match,No Match","","null","","","","","","<div class='trialBorder'><div class='vertical-center'><img src='img/fixation2_sml.jpg'</img></div></div>","null","FIX","","","","","","","","","","",""
"html-keyboard-response","116","268212","0.0-7.0-2.16","5783d80d275be60001358349","bdp_wmem","Tue Mar 14 2023 20:48:16 GMT-0500 (Central Daylight Time)","553425","Match,No Match","","null","","","","","","<div class='trialBorder'><div class='vertical-center'><img style='vertical-align:center; align:center' src='img/fixation2_sml.jpg'></div><div class='arrayDiv3'><div class='tl'><img class='introPic' src='trustrating_stim/white_mw038.bmp'><br><font color='red'><strong>Keep</strong></font></div><div class='tc'><img class='introPic' src='trustrating_stim/white_mw010.bmp'><br><font color='red'><strong>Keep</strong></font></div><div class='tr'><img class='introPic' src='trustrating_stim/white_mw078.bmp'><br><font color='green'><strong>Share</strong></font></div></div></div>","null","ARRAY","3","trustrating_stim/white_mw038.bmp,trustrating_stim/white_mw010.bmp,trustrating_stim/white_mw078.bmp","0,0,1","noMatchFace","i","4500","","","","",""
"html-keyboard-response","117","272214","0.0-7.0-3.16","5783d80d275be60001358349","bdp_wmem","Tue Mar 14 2023 20:48:16 GMT-0500 (Central Daylight Time)","553425","Match,No Match","","null","","","","","","<div class='trialBorder'><div class='vertical-center'><img src='img/fixation2_sml.jpg'</img></div></div>","null","DELAY","","","","","","","","","","",""
"html-keyboard-response","118","273008","0.0-7.0-4.16","5783d80d275be60001358349","bdp_wmem","Tue Mar 14 2023 20:48:16 GMT-0500 (Central Daylight Time)","553425","Match,No Match","","791","","","","","","<div class='trialBorder'><div class='targDiv'><div class='tc'><img class='introPic' src='trustrating_stim/white_mw013.bmp'><br><font color='red'><strong>Keep</strong></font></div></div><div class='respDiv'><div class='respDivL'>Match<br>(e)</div><div class='respDivR'>No Match<br>(i)</div></div></div>","i","TARGET","3","trustrating_stim/white_mw038.bmp,trustrating_stim/white_mw010.bmp,trustrating_stim/white_mw078.bmp","0,0,1","noMatchFace","i","4500","trustrating_stim/white_mw013.bmp","red","Keep","REAL","1"
"html-keyboard-response","119","273510","0.0-7.0-5.16","5783d80d275be60001358349","bdp_wmem","Tue Mar 14 2023 20:48:16 GMT-0500 (Central Daylight Time)","553425","Match,No Match","","null","","","","","","<div class='trialBorder'><div class='vertical-center'><img src='img/correct.jpg'></div><div class='respDiv'><div class='respDivL'>Match<br>(e)</div><div class='respDivR'><font style='color:orange'>No Match<br>(i)</font></div></div></div>","null","FEEDBACK","","","","","","","","","","",""
"html-keyboard-response","120","274013","0.0-7.0-1.17","5783d80d275be60001358349","bdp_wmem","Tue Mar 14 2023 20:48:16 GMT-0500 (Central Daylight Time)","553425","Match,No Match","","null","","","","","","<div class='trialBorder'><div class='vertical-center'><img src='img/fixation2_sml.jpg'</img></div></div>","null","FIX","","","","","","","","","","",""
"html-keyboard-response","121","278516","0.0-7.0-2.17","5783d80d275be60001358349","bdp_wmem","Tue Mar 14 2023 20:48:16 GMT-0500 (Central Daylight Time)","553425","Match,No Match","","null","","","","","","<div class='trialBorder'><div class='vertical-center'><img style='vertical-align:center; align:center' src='img/fixation2_sml.jpg'></div><div class='arrayDiv3'><div class='tl'><img class='introPic' src='trustrating_stim/white_mw070.bmp'><br><font color='green'><strong>Share</strong></font></div><div class='tc'><img class='introPic' src='trustrating_stim/white_mw078.bmp'><br><font color='green'><strong>Share</strong></font></div><div class='tr'><img class='introPic' src='trustrating_stim/white_mw013.bmp'><br><font color='red'><strong>Keep</strong></font></div></div></div>","null","ARRAY","3","trustrating_stim/white_mw070.bmp,trustrating_stim/white_mw078.bmp,trustrating_stim/white_mw013.bmp","1,1,0","Match","e","4500","","","","",""
"html-keyboard-response","122","282518","0.0-7.0-3.17","5783d80d275be60001358349","bdp_wmem","Tue Mar 14 2023 20:48:16 GMT-0500 (Central Daylight Time)","553425","Match,No Match","","null","","","","","","<div class='trialBorder'><div class='vertical-center'><img src='img/fixation2_sml.jpg'</img></div></div>","null","DELAY","","","","","","","","","","",""
"html-keyboard-response","123","284432","0.0-7.0-4.17","5783d80d275be60001358349","bdp_wmem","Tue Mar 14 2023 20:48:16 GMT-0500 (Central Daylight Time)","553425","Match,No Match","","1910","","","","","","<div class='trialBorder'><div class='targDiv'><div class='tc'><img class='introPic' src='trustrating_stim/white_mw013.bmp'><br><font color='red'><strong>Keep</strong></font></div></div><div class='respDiv'><div class='respDivL'>Match<br>(e)</div><div class='respDivR'>No Match<br>(i)</div></div></div>","e","TARGET","3","trustrating_stim/white_mw070.bmp,trustrating_stim/white_mw078.bmp,trustrating_stim/white_mw013.bmp","1,1,0","Match","e","4500","trustrating_stim/white_mw013.bmp","red","Keep","REAL","1"
"html-keyboard-response","124","284935","0.0-7.0-5.17","5783d80d275be60001358349","bdp_wmem","Tue Mar 14 2023 20:48:16 GMT-0500 (Central Daylight Time)","553425","Match,No Match","","null","","","","","","<div class='trialBorder'><div class='vertical-center'><img src='img/correct.jpg'></div><div class='respDiv'><div class='respDivL'><font style='color:orange'>Match<br>(e)</font></div><div class='respDivR'>No Match<br>(i)</div></div></div>","null","FEEDBACK","","","","","","","","","","",""
"html-keyboard-response","125","285437","0.0-7.0-1.18","5783d80d275be60001358349","bdp_wmem","Tue Mar 14 2023 20:48:16 GMT-0500 (Central Daylight Time)","553425","Match,No Match","","null","","","","","","<div class='trialBorder'><div class='vertical-center'><img src='img/fixation2_sml.jpg'</img></div></div>","null","FIX","","","","","","","","","","",""
"html-keyboard-response","126","286939","0.0-7.0-2.18","5783d80d275be60001358349","bdp_wmem","Tue Mar 14 2023 20:48:16 GMT-0500 (Central Daylight Time)","553425","Match,No Match","","null","","","","","","<div class='trialBorder'><div class='vertical-center'><img style='vertical-align:center; align:center' src='img/fixation2_sml.jpg'></div><div class='arrayDiv1'><div class='tc'><img class='introPic' src='trustrating_stim/white_mw085.bmp'><br><font color='green'><strong>Share</strong></font></div></div></div>","null","ARRAY","1","trustrating_stim/white_mw085.bmp","1","noMatchOutcome","i","1500","","","","",""
"html-keyboard-response","127","290942","0.0-7.0-3.18","5783d80d275be60001358349","bdp_wmem","Tue Mar 14 2023 20:48:16 GMT-0500 (Central Daylight Time)","553425","Match,No Match","","null","","","","","","<div class='trialBorder'><div class='vertical-center'><img src='img/fixation2_sml.jpg'</img></div></div>","null","DELAY","","","","","","","","","","",""
"html-keyboard-response","128","291564","0.0-7.0-4.18","5783d80d275be60001358349","bdp_wmem","Tue Mar 14 2023 20:48:16 GMT-0500 (Central Daylight Time)","553425","Match,No Match","","620","","","","","","<div class='trialBorder'><div class='targDiv'><div class='tc'><img class='introPic' src='trustrating_stim/white_mw085.bmp'><br><font color='red'><strong>Keep</strong></font></div></div><div class='respDiv'><div class='respDivL'>Match<br>(e)</div><div class='respDivR'>No Match<br>(i)</div></div></div>","i","TARGET","1","trustrating_stim/white_mw085.bmp","1","noMatchOutcome","i","1500","trustrating_stim/white_mw085.bmp","red","Keep","REAL","1"
"html-keyboard-response","129","292067","0.0-7.0-5.18","5783d80d275be60001358349","bdp_wmem","Tue Mar 14 2023 20:48:16 GMT-0500 (Central Daylight Time)","553425","Match,No Match","","null","","","","","","<div class='trialBorder'><div class='vertical-center'><img src='img/correct.jpg'></div><div class='respDiv'><div class='respDivL'>Match<br>(e)</div><div class='respDivR'><font style='color:orange'>No Match<br>(i)</font></div></div></div>","null","FEEDBACK","","","","","","","","","","",""
"html-keyboard-response","130","292569","0.0-7.0-1.19","5783d80d275be60001358349","bdp_wmem","Tue Mar 14 2023 20:48:16 GMT-0500 (Central Daylight Time)","553425","Match,No Match","","null","","","","","","<div class='trialBorder'><div class='vertical-center'><img src='img/fixation2_sml.jpg'</img></div></div>","null","FIX","","","","","","","","","","",""
"html-keyboard-response","131","294072","0.0-7.0-2.19","5783d80d275be60001358349","bdp_wmem","Tue Mar 14 2023 20:48:16 GMT-0500 (Central Daylight Time)","553425","Match,No Match","","null","","","","","","<div class='trialBorder'><div class='vertical-center'><img style='vertical-align:center; align:center' src='img/fixation2_sml.jpg'></div><div class='arrayDiv1'><div class='tc'><img class='introPic' src='trustrating_stim/white_mw040.bmp'><br><font color='red'><strong>Keep</strong></font></div></div></div>","null","ARRAY","1","trustrating_stim/white_mw040.bmp","0","noMatchFace","i","1500","","","","",""
"html-keyboard-response","132","298074","0.0-7.0-3.19","5783d80d275be60001358349","bdp_wmem","Tue Mar 14 2023 20:48:16 GMT-0500 (Central Daylight Time)","553425","Match,No Match","","null","","","","","","<div class='trialBorder'><div class='vertical-center'><img src='img/fixation2_sml.jpg'</img></div></div>","null","DELAY","","","","","","","","","","",""
"html-keyboard-response","133","298856","0.0-7.0-4.19","5783d80d275be60001358349","bdp_wmem","Tue Mar 14 2023 20:48:16 GMT-0500 (Central Daylight Time)","553425","Match,No Match","","778","","","","","","<div class='trialBorder'><div class='targDiv'><div class='tc'><img class='introPic' src='trustrating_stim/white_mw003.bmp'><br><font color='red'><strong>Keep</strong></font></div></div><div class='respDiv'><div class='respDivL'>Match<br>(e)</div><div class='respDivR'>No Match<br>(i)</div></div></div>","i","TARGET","1","trustrating_stim/white_mw040.bmp","0","noMatchFace","i","1500","trustrating_stim/white_mw003.bmp","red","Keep","REAL","1"
"html-keyboard-response","134","299359","0.0-7.0-5.19","5783d80d275be60001358349","bdp_wmem","Tue Mar 14 2023 20:48:16 GMT-0500 (Central Daylight Time)","553425","Match,No Match","","null","","","","","","<div class='trialBorder'><div class='vertical-center'><img src='img/correct.jpg'></div><div class='respDiv'><div class='respDivL'>Match<br>(e)</div><div class='respDivR'><font style='color:orange'>No Match<br>(i)</font></div></div></div>","null","FEEDBACK","","","","","","","","","","",""
"html-keyboard-response","135","299863","0.0-7.0-1.20","5783d80d275be60001358349","bdp_wmem","Tue Mar 14 2023 20:48:16 GMT-0500 (Central Daylight Time)","553425","Match,No Match","","null","","","","","","<div class='trialBorder'><div class='vertical-center'><img src='img/fixation2_sml.jpg'</img></div></div>","null","FIX","","","","","","","","","","",""
"html-keyboard-response","136","304368","0.0-7.0-2.20","5783d80d275be60001358349","bdp_wmem","Tue Mar 14 2023 20:48:16 GMT-0500 (Central Daylight Time)","553425","Match,No Match","","null","","","","","","<div class='trialBorder'><div class='vertical-center'><img style='vertical-align:center; align:center' src='img/fixation2_sml.jpg'></div><div class='arrayDiv3'><div class='tl'><img class='introPic' src='trustrating_stim/white_mw042.bmp'><br><font color='green'><strong>Share</strong></font></div><div class='tc'><img class='introPic' src='trustrating_stim/white_mw038.bmp'><br><font color='red'><strong>Keep</strong></font></div><div class='tr'><img class='introPic' src='trustrating_stim/white_mw078.bmp'><br><font color='red'><strong>Keep</strong></font></div></div></div>","null","ARRAY","3","trustrating_stim/white_mw042.bmp,trustrating_stim/white_mw038.bmp,trustrating_stim/white_mw078.bmp","1,0,0","Match","e","4500","","","","",""
"html-keyboard-response","137","308372","0.0-7.0-3.20","5783d80d275be60001358349","bdp_wmem","Tue Mar 14 2023 20:48:16 GMT-0500 (Central Daylight Time)","553425","Match,No Match","","null","","","","","","<div class='trialBorder'><div class='vertical-center'><img src='img/fixation2_sml.jpg'</img></div></div>","null","DELAY","","","","","","","","","","",""
"html-keyboard-response","138","309331","0.0-7.0-4.20","5783d80d275be60001358349","bdp_wmem","Tue Mar 14 2023 20:48:16 GMT-0500 (Central Daylight Time)","553425","Match,No Match","","955","","","","","","<div class='trialBorder'><div class='targDiv'><div class='tc'><img class='introPic' src='trustrating_stim/white_mw042.bmp'><br><font color='green'><strong>Share</strong></font></div></div><div class='respDiv'><div class='respDivL'>Match<br>(e)</div><div class='respDivR'>No Match<br>(i)</div></div></div>","i","TARGET","3","trustrating_stim/white_mw042.bmp,trustrating_stim/white_mw038.bmp,trustrating_stim/white_mw078.bmp","1,0,0","Match","e","4500","trustrating_stim/white_mw042.bmp","green","Share","REAL","0"
"html-keyboard-response","139","309833","0.0-7.0-5.20","5783d80d275be60001358349","bdp_wmem","Tue Mar 14 2023 20:48:16 GMT-0500 (Central Daylight Time)","553425","Match,No Match","","null","","","","","","<div class='trialBorder'><div class='vertical-center'><img src='img/error.jpg'></div><div class='respDiv'><div class='respDivL'>Match<br>(e)</div><div class='respDivR'><font style='color:orange'>No Match<br>(i)</font></div></div></div>","null","FEEDBACK","","","","","","","","","","",""
"html-keyboard-response","140","310335","0.0-7.0-1.21","5783d80d275be60001358349","bdp_wmem","Tue Mar 14 2023 20:48:16 GMT-0500 (Central Daylight Time)","553425","Match,No Match","","null","","","","","","<div class='trialBorder'><div class='vertical-center'><img src='img/fixation2_sml.jpg'</img></div></div>","null","FIX","","","","","","","","","","",""
"html-keyboard-response","141","314839","0.0-7.0-2.21","5783d80d275be60001358349","bdp_wmem","Tue Mar 14 2023 20:48:16 GMT-0500 (Central Daylight Time)","553425","Match,No Match","","null","","","","","","<div class='trialBorder'><div class='vertical-center'><img style='vertical-align:center; align:center' src='img/fixation2_sml.jpg'></div><div class='arrayDiv3'><div class='tl'><img class='introPic' src='trustrating_stim/white_mw085.bmp'><br><font color='red'><strong>Keep</strong></font></div><div class='tc'><img class='introPic' src='trustrating_stim/white_mw038.bmp'><br><font color='green'><strong>Share</strong></font></div><div class='tr'><img class='introPic' src='trustrating_stim/white_mw012.bmp'><br><font color='red'><strong>Keep</strong></font></div></div></div>","null","ARRAY","3","trustrating_stim/white_mw085.bmp,trustrating_stim/white_mw038.bmp,trustrating_stim/white_mw012.bmp","0,1,0","noMatchOutcome","i","4500","","","","",""
"html-keyboard-response","142","318841","0.0-7.0-3.21","5783d80d275be60001358349","bdp_wmem","Tue Mar 14 2023 20:48:16 GMT-0500 (Central Daylight Time)","553425","Match,No Match","","null","","","","","","<div class='trialBorder'><div class='vertical-center'><img src='img/fixation2_sml.jpg'</img></div></div>","null","DELAY","","","","","","","","","","",""
"html-keyboard-response","143","319682","0.0-7.0-4.21","5783d80d275be60001358349","bdp_wmem","Tue Mar 14 2023 20:48:16 GMT-0500 (Central Daylight Time)","553425","Match,No Match","","839","","","","","","<div class='trialBorder'><div class='targDiv'><div class='tc'><img class='introPic' src='trustrating_stim/white_mw038.bmp'><br><font color='red'><strong>Keep</strong></font></div></div><div class='respDiv'><div class='respDivL'>Match<br>(e)</div><div class='respDivR'>No Match<br>(i)</div></div></div>","i","TARGET","3","trustrating_stim/white_mw085.bmp,trustrating_stim/white_mw038.bmp,trustrating_stim/white_mw012.bmp","0,1,0","noMatchOutcome","i","4500","trustrating_stim/white_mw038.bmp","red","Keep","REAL","1"
"html-keyboard-response","144","320184","0.0-7.0-5.21","5783d80d275be60001358349","bdp_wmem","Tue Mar 14 2023 20:48:16 GMT-0500 (Central Daylight Time)","553425","Match,No Match","","null","","","","","","<div class='trialBorder'><div class='vertical-center'><img src='img/correct.jpg'></div><div class='respDiv'><div class='respDivL'>Match<br>(e)</div><div class='respDivR'><font style='color:orange'>No Match<br>(i)</font></div></div></div>","null","FEEDBACK","","","","","","","","","","",""
"html-keyboard-response","145","320686","0.0-7.0-1.22","5783d80d275be60001358349","bdp_wmem","Tue Mar 14 2023 20:48:16 GMT-0500 (Central Daylight Time)","553425","Match,No Match","","null","","","","","","<div class='trialBorder'><div class='vertical-center'><img src='img/fixation2_sml.jpg'</img></div></div>","null","FIX","","","","","","","","","","",""
"html-keyboard-response","146","322188","0.0-7.0-2.22","5783d80d275be60001358349","bdp_wmem","Tue Mar 14 2023 20:48:16 GMT-0500 (Central Daylight Time)","553425","Match,No Match","","null","","","","","","<div class='trialBorder'><div class='vertical-center'><img style='vertical-align:center; align:center' src='img/fixation2_sml.jpg'></div><div class='arrayDiv1'><div class='tc'><img class='introPic' src='trustrating_stim/white_mw040.bmp'><br><font color='red'><strong>Keep</strong></font></div></div></div>","null","ARRAY","1","trustrating_stim/white_mw040.bmp","0","noMatchOutcome","i","1500","","","","",""
"html-keyboard-response","147","326190","0.0-7.0-3.22","5783d80d275be60001358349","bdp_wmem","Tue Mar 14 2023 20:48:16 GMT-0500 (Central Daylight Time)","553425","Match,No Match","","null","","","","","","<div class='trialBorder'><div class='vertical-center'><img src='img/fixation2_sml.jpg'</img></div></div>","null","DELAY","","","","","","","","","","",""
"html-keyboard-response","148","327162","0.0-7.0-4.22","5783d80d275be60001358349","bdp_wmem","Tue Mar 14 2023 20:48:16 GMT-0500 (Central Daylight Time)","553425","Match,No Match","","970","","","","","","<div class='trialBorder'><div class='targDiv'><div class='tc'><img class='introPic' src='trustrating_stim/white_mw040.bmp'><br><font color='green'><strong>Share</strong></font></div></div><div class='respDiv'><div class='respDivL'>Match<br>(e)</div><div class='respDivR'>No Match<br>(i)</div></div></div>","i","TARGET","1","trustrating_stim/white_mw040.bmp","0","noMatchOutcome","i","1500","trustrating_stim/white_mw040.bmp","green","Share","REAL","1"
"html-keyboard-response","149","327665","0.0-7.0-5.22","5783d80d275be60001358349","bdp_wmem","Tue Mar 14 2023 20:48:16 GMT-0500 (Central Daylight Time)","553425","Match,No Match","","null","","","","","","<div class='trialBorder'><div class='vertical-center'><img src='img/correct.jpg'></div><div class='respDiv'><div class='respDivL'>Match<br>(e)</div><div class='respDivR'><font style='color:orange'>No Match<br>(i)</font></div></div></div>","null","FEEDBACK","","","","","","","","","","",""
"html-keyboard-response","150","328167","0.0-7.0-1.23","5783d80d275be60001358349","bdp_wmem","Tue Mar 14 2023 20:48:16 GMT-0500 (Central Daylight Time)","553425","Match,No Match","","null","","","","","","<div class='trialBorder'><div class='vertical-center'><img src='img/fixation2_sml.jpg'</img></div></div>","null","FIX","","","","","","","","","","",""
"html-keyboard-response","151","329669","0.0-7.0-2.23","5783d80d275be60001358349","bdp_wmem","Tue Mar 14 2023 20:48:16 GMT-0500 (Central Daylight Time)","553425","Match,No Match","","null","","","","","","<div class='trialBorder'><div class='vertical-center'><img style='vertical-align:center; align:center' src='img/fixation2_sml.jpg'></div><div class='arrayDiv1'><div class='tc'><img class='introPic' src='trustrating_stim/white_mw038.bmp'><br><font color='red'><strong>Keep</strong></font></div></div></div>","null","ARRAY","1","trustrating_stim/white_mw038.bmp","0","Match","e","1500","","","","",""
"html-keyboard-response","152","333671","0.0-7.0-3.23","5783d80d275be60001358349","bdp_wmem","Tue Mar 14 2023 20:48:16 GMT-0500 (Central Daylight Time)","553425","Match,No Match","","null","","","","","","<div class='trialBorder'><div class='vertical-center'><img src='img/fixation2_sml.jpg'</img></div></div>","null","DELAY","","","","","","","","","","",""
"html-keyboard-response","153","334398","0.0-7.0-4.23","5783d80d275be60001358349","bdp_wmem","Tue Mar 14 2023 20:48:16 GMT-0500 (Central Daylight Time)","553425","Match,No Match","","724","","","","","","<div class='trialBorder'><div class='targDiv'><div class='tc'><img class='introPic' src='trustrating_stim/white_mw038.bmp'><br><font color='red'><strong>Keep</strong></font></div></div><div class='respDiv'><div class='respDivL'>Match<br>(e)</div><div class='respDivR'>No Match<br>(i)</div></div></div>","e","TARGET","1","trustrating_stim/white_mw038.bmp","0","Match","e","1500","trustrating_stim/white_mw038.bmp","red","Keep","REAL","1"
"html-keyboard-response","154","334900","0.0-7.0-5.23","5783d80d275be60001358349","bdp_wmem","Tue Mar 14 2023 20:48:16 GMT-0500 (Central Daylight Time)","553425","Match,No Match","","null","","","","","","<div class='trialBorder'><div class='vertical-center'><img src='img/correct.jpg'></div><div class='respDiv'><div class='respDivL'><font style='color:orange'>Match<br>(e)</font></div><div class='respDivR'>No Match<br>(i)</div></div></div>","null","FEEDBACK","","","","","","","","","","",""
"html-keyboard-response","155","335402","0.0-7.0-1.24","5783d80d275be60001358349","bdp_wmem","Tue Mar 14 2023 20:48:16 GMT-0500 (Central Daylight Time)","553425","Match,No Match","","null","","","","","","<div class='trialBorder'><div class='vertical-center'><img src='img/fixation2_sml.jpg'</img></div></div>","null","FIX","","","","","","","","","","",""
"html-keyboard-response","156","339905","0.0-7.0-2.24","5783d80d275be60001358349","bdp_wmem","Tue Mar 14 2023 20:48:16 GMT-0500 (Central Daylight Time)","553425","Match,No Match","","null","","","","","","<div class='trialBorder'><div class='vertical-center'><img style='vertical-align:center; align:center' src='img/fixation2_sml.jpg'></div><div class='arrayDiv3'><div class='tl'><img class='introPic' src='trustrating_stim/white_mw040.bmp'><br><font color='green'><strong>Share</strong></font></div><div class='tc'><img class='introPic' src='trustrating_stim/white_mw085.bmp'><br><font color='red'><strong>Keep</strong></font></div><div class='tr'><img class='introPic' src='trustrating_stim/white_mw092.bmp'><br><font color='green'><strong>Share</strong></font></div></div></div>","null","ARRAY","3","trustrating_stim/white_mw040.bmp,trustrating_stim/white_mw085.bmp,trustrating_stim/white_mw092.bmp","1,0,1","Match","e","4500","","","","",""
"html-keyboard-response","157","343908","0.0-7.0-3.24","5783d80d275be60001358349","bdp_wmem","Tue Mar 14 2023 20:48:16 GMT-0500 (Central Daylight Time)","553425","Match,No Match","","null","","","","","","<div class='trialBorder'><div class='vertical-center'><img src='img/fixation2_sml.jpg'</img></div></div>","null","DELAY","","","","","","","","","","",""
"html-keyboard-response","158","344879","0.0-7.0-4.24","5783d80d275be60001358349","bdp_wmem","Tue Mar 14 2023 20:48:16 GMT-0500 (Central Daylight Time)","553425","Match,No Match","","970","","","","","","<div class='trialBorder'><div class='targDiv'><div class='tc'><img class='introPic' src='trustrating_stim/white_mw040.bmp'><br><font color='green'><strong>Share</strong></font></div></div><div class='respDiv'><div class='respDivL'>Match<br>(e)</div><div class='respDivR'>No Match<br>(i)</div></div></div>","e","TARGET","3","trustrating_stim/white_mw040.bmp,trustrating_stim/white_mw085.bmp,trustrating_stim/white_mw092.bmp","1,0,1","Match","e","4500","trustrating_stim/white_mw040.bmp","green","Share","REAL","1"
"html-keyboard-response","159","345381","0.0-7.0-5.24","5783d80d275be60001358349","bdp_wmem","Tue Mar 14 2023 20:48:16 GMT-0500 (Central Daylight Time)","553425","Match,No Match","","null","","","","","","<div class='trialBorder'><div class='vertical-center'><img src='img/correct.jpg'></div><div class='respDiv'><div class='respDivL'><font style='color:orange'>Match<br>(e)</font></div><div class='respDivR'>No Match<br>(i)</div></div></div>","null","FEEDBACK","","","","","","","","","","",""
"html-keyboard-response","160","345882","0.0-7.0-1.25","5783d80d275be60001358349","bdp_wmem","Tue Mar 14 2023 20:48:16 GMT-0500 (Central Daylight Time)","553425","Match,No Match","","null","","","","","","<div class='trialBorder'><div class='vertical-center'><img src='img/fixation2_sml.jpg'</img></div></div>","null","FIX","","","","","","","","","","",""
"html-keyboard-response","161","347385","0.0-7.0-2.25","5783d80d275be60001358349","bdp_wmem","Tue Mar 14 2023 20:48:16 GMT-0500 (Central Daylight Time)","553425","Match,No Match","","null","","","","","","<div class='trialBorder'><div class='vertical-center'><img style='vertical-align:center; align:center' src='img/fixation2_sml.jpg'></div><div class='arrayDiv1'><div class='tc'><img class='introPic' src='trustrating_stim/white_mw040.bmp'><br><font color='red'><strong>Keep</strong></font></div></div></div>","null","ARRAY","1","trustrating_stim/white_mw040.bmp","0","Match","e","1500","","","","",""
"html-keyboard-response","162","351387","0.0-7.0-3.25","5783d80d275be60001358349","bdp_wmem","Tue Mar 14 2023 20:48:16 GMT-0500 (Central Daylight Time)","553425","Match,No Match","","null","","","","","","<div class='trialBorder'><div class='vertical-center'><img src='img/fixation2_sml.jpg'</img></div></div>","null","DELAY","","","","","","","","","","",""
"html-keyboard-response","163","351859","0.0-7.0-4.25","5783d80d275be60001358349","bdp_wmem","Tue Mar 14 2023 20:48:16 GMT-0500 (Central Daylight Time)","553425","Match,No Match","","469","","","","","","<div class='trialBorder'><div class='targDiv'><div class='tc'><img class='introPic' src='trustrating_stim/white_mw040.bmp'><br><font color='red'><strong>Keep</strong></font></div></div><div class='respDiv'><div class='respDivL'>Match<br>(e)</div><div class='respDivR'>No Match<br>(i)</div></div></div>","e","TARGET","1","trustrating_stim/white_mw040.bmp","0","Match","e","1500","trustrating_stim/white_mw040.bmp","red","Keep","REAL","1"
"html-keyboard-response","164","352361","0.0-7.0-5.25","5783d80d275be60001358349","bdp_wmem","Tue Mar 14 2023 20:48:16 GMT-0500 (Central Daylight Time)","553425","Match,No Match","","null","","","","","","<div class='trialBorder'><div class='vertical-center'><img src='img/correct.jpg'></div><div class='respDiv'><div class='respDivL'><font style='color:orange'>Match<br>(e)</font></div><div class='respDivR'>No Match<br>(i)</div></div></div>","null","FEEDBACK","","","","","","","","","","",""
"html-keyboard-response","165","352864","0.0-7.0-1.26","5783d80d275be60001358349","bdp_wmem","Tue Mar 14 2023 20:48:16 GMT-0500 (Central Daylight Time)","553425","Match,No Match","","null","","","","","","<div class='trialBorder'><div class='vertical-center'><img src='img/fixation2_sml.jpg'</img></div></div>","null","FIX","","","","","","","","","","",""
"html-keyboard-response","166","355870","0.0-7.0-2.26","5783d80d275be60001358349","bdp_wmem","Tue Mar 14 2023 20:48:16 GMT-0500 (Central Daylight Time)","553425","Match,No Match","","null","","","","","","<div class='trialBorder'><div class='vertical-center'><img style='vertical-align:center; align:center' src='img/fixation2_sml.jpg'></div><div class='arrayDiv2'><div class='tl'><img class='introPic' src='trustrating_stim/white_mw070.bmp'><br><font color='green'><strong>Share</strong></font></div><div class='tr'><img class='introPic' src='trustrating_stim/white_mw013.bmp'><br><font color='red'><strong>Keep</strong></font></div></div></div>","null","ARRAY","2","trustrating_stim/white_mw070.bmp,trustrating_stim/white_mw013.bmp","1,0","noMatchOutcome","i","3000","","","","",""
"html-keyboard-response","167","359872","0.0-7.0-3.26","5783d80d275be60001358349","bdp_wmem","Tue Mar 14 2023 20:48:16 GMT-0500 (Central Daylight Time)","553425","Match,No Match","","null","","","","","","<div class='trialBorder'><div class='vertical-center'><img src='img/fixation2_sml.jpg'</img></div></div>","null","DELAY","","","","","","","","","","",""
"html-keyboard-response","168","360845","0.0-7.0-4.26","5783d80d275be60001358349","bdp_wmem","Tue Mar 14 2023 20:48:16 GMT-0500 (Central Daylight Time)","553425","Match,No Match","","970","","","","","","<div class='trialBorder'><div class='targDiv'><div class='tc'><img class='introPic' src='trustrating_stim/white_mw070.bmp'><br><font color='red'><strong>Keep</strong></font></div></div><div class='respDiv'><div class='respDivL'>Match<br>(e)</div><div class='respDivR'>No Match<br>(i)</div></div></div>","i","TARGET","2","trustrating_stim/white_mw070.bmp,trustrating_stim/white_mw013.bmp","1,0","noMatchOutcome","i","3000","trustrating_stim/white_mw070.bmp","red","Keep","REAL","1"
"html-keyboard-response","169","361347","0.0-7.0-5.26","5783d80d275be60001358349","bdp_wmem","Tue Mar 14 2023 20:48:16 GMT-0500 (Central Daylight Time)","553425","Match,No Match","","null","","","","","","<div class='trialBorder'><div class='vertical-center'><img src='img/correct.jpg'></div><div class='respDiv'><div class='respDivL'>Match<br>(e)</div><div class='respDivR'><font style='color:orange'>No Match<br>(i)</font></div></div></div>","null","FEEDBACK","","","","","","","","","","",""
"html-keyboard-response","170","361850","0.0-7.0-1.27","5783d80d275be60001358349","bdp_wmem","Tue Mar 14 2023 20:48:16 GMT-0500 (Central Daylight Time)","553425","Match,No Match","","null","","","","","","<div class='trialBorder'><div class='vertical-center'><img src='img/fixation2_sml.jpg'</img></div></div>","null","FIX","","","","","","","","","","",""
"html-keyboard-response","171","364854","0.0-7.0-2.27","5783d80d275be60001358349","bdp_wmem","Tue Mar 14 2023 20:48:16 GMT-0500 (Central Daylight Time)","553425","Match,No Match","","null","","","","","","<div class='trialBorder'><div class='vertical-center'><img style='vertical-align:center; align:center' src='img/fixation2_sml.jpg'></div><div class='arrayDiv2'><div class='tl'><img class='introPic' src='trustrating_stim/white_mw085.bmp'><br><font color='red'><strong>Keep</strong></font></div><div class='tr'><img class='introPic' src='trustrating_stim/white_mw070.bmp'><br><font color='green'><strong>Share</strong></font></div></div></div>","null","ARRAY","2","trustrating_stim/white_mw085.bmp,trustrating_stim/white_mw070.bmp","0,1","Match","e","3000","","","","",""
"html-keyboard-response","172","368857","0.0-7.0-3.27","5783d80d275be60001358349","bdp_wmem","Tue Mar 14 2023 20:48:16 GMT-0500 (Central Daylight Time)","553425","Match,No Match","","null","","","","","","<div class='trialBorder'><div class='vertical-center'><img src='img/fixation2_sml.jpg'</img></div></div>","null","DELAY","","","","","","","","","","",""
"html-keyboard-response","173","369753","0.0-7.0-4.27","5783d80d275be60001358349","bdp_wmem","Tue Mar 14 2023 20:48:16 GMT-0500 (Central Daylight Time)","553425","Match,No Match","","894","","","","","","<div class='trialBorder'><div class='targDiv'><div class='tc'><img class='introPic' src='trustrating_stim/white_mw070.bmp'><br><font color='green'><strong>Share</strong></font></div></div><div class='respDiv'><div class='respDivL'>Match<br>(e)</div><div class='respDivR'>No Match<br>(i)</div></div></div>","e","TARGET","2","trustrating_stim/white_mw085.bmp,trustrating_stim/white_mw070.bmp","0,1","Match","e","3000","trustrating_stim/white_mw070.bmp","green","Share","REAL","1"
"html-keyboard-response","174","370255","0.0-7.0-5.27","5783d80d275be60001358349","bdp_wmem","Tue Mar 14 2023 20:48:16 GMT-0500 (Central Daylight Time)","553425","Match,No Match","","null","","","","","","<div class='trialBorder'><div class='vertical-center'><img src='img/correct.jpg'></div><div class='respDiv'><div class='respDivL'><font style='color:orange'>Match<br>(e)</font></div><div class='respDivR'>No Match<br>(i)</div></div></div>","null","FEEDBACK","","","","","","","","","","",""
"html-keyboard-response","175","370757","0.0-7.0-1.28","5783d80d275be60001358349","bdp_wmem","Tue Mar 14 2023 20:48:16 GMT-0500 (Central Daylight Time)","553425","Match,No Match","","null","","","","","","<div class='trialBorder'><div class='vertical-center'><img src='img/fixation2_sml.jpg'</img></div></div>","null","FIX","","","","","","","","","","",""
"html-keyboard-response","176","373761","0.0-7.0-2.28","5783d80d275be60001358349","bdp_wmem","Tue Mar 14 2023 20:48:16 GMT-0500 (Central Daylight Time)","553425","Match,No Match","","null","","","","","","<div class='trialBorder'><div class='vertical-center'><img style='vertical-align:center; align:center' src='img/fixation2_sml.jpg'></div><div class='arrayDiv2'><div class='tl'><img class='introPic' src='trustrating_stim/white_mw013.bmp'><br><font color='red'><strong>Keep</strong></font></div><div class='tr'><img class='introPic' src='trustrating_stim/white_mw010.bmp'><br><font color='green'><strong>Share</strong></font></div></div></div>","null","ARRAY","2","trustrating_stim/white_mw013.bmp,trustrating_stim/white_mw010.bmp","0,1","Match","e","3000","","","","",""
"html-keyboard-response","177","377763","0.0-7.0-3.28","5783d80d275be60001358349","bdp_wmem","Tue Mar 14 2023 20:48:16 GMT-0500 (Central Daylight Time)","553425","Match,No Match","","null","","","","","","<div class='trialBorder'><div class='vertical-center'><img src='img/fixation2_sml.jpg'</img></div></div>","null","DELAY","","","","","","","","","","",""
"html-keyboard-response","178","378625","0.0-7.0-4.28","5783d80d275be60001358349","bdp_wmem","Tue Mar 14 2023 20:48:16 GMT-0500 (Central Daylight Time)","553425","Match,No Match","","859","","","","","","<div class='trialBorder'><div class='targDiv'><div class='tc'><img class='introPic' src='trustrating_stim/white_mw010.bmp'><br><font color='green'><strong>Share</strong></font></div></div><div class='respDiv'><div class='respDivL'>Match<br>(e)</div><div class='respDivR'>No Match<br>(i)</div></div></div>","e","TARGET","2","trustrating_stim/white_mw013.bmp,trustrating_stim/white_mw010.bmp","0,1","Match","e","3000","trustrating_stim/white_mw010.bmp","green","Share","REAL","1"
"html-keyboard-response","179","379128","0.0-7.0-5.28","5783d80d275be60001358349","bdp_wmem","Tue Mar 14 2023 20:48:16 GMT-0500 (Central Daylight Time)","553425","Match,No Match","","null","","","","","","<div class='trialBorder'><div class='vertical-center'><img src='img/correct.jpg'></div><div class='respDiv'><div class='respDivL'><font style='color:orange'>Match<br>(e)</font></div><div class='respDivR'>No Match<br>(i)</div></div></div>","null","FEEDBACK","","","","","","","","","","",""
"html-keyboard-response","180","379629","0.0-7.0-1.29","5783d80d275be60001358349","bdp_wmem","Tue Mar 14 2023 20:48:16 GMT-0500 (Central Daylight Time)","553425","Match,No Match","","null","","","","","","<div class='trialBorder'><div class='vertical-center'><img src='img/fixation2_sml.jpg'</img></div></div>","null","FIX","","","","","","","","","","",""
"html-keyboard-response","181","384133","0.0-7.0-2.29","5783d80d275be60001358349","bdp_wmem","Tue Mar 14 2023 20:48:16 GMT-0500 (Central Daylight Time)","553425","Match,No Match","","null","","","","","","<div class='trialBorder'><div class='vertical-center'><img style='vertical-align:center; align:center' src='img/fixation2_sml.jpg'></div><div class='arrayDiv3'><div class='tl'><img class='introPic' src='trustrating_stim/white_mw070.bmp'><br><font color='red'><strong>Keep</strong></font></div><div class='tc'><img class='introPic' src='trustrating_stim/white_mw040.bmp'><br><font color='green'><strong>Share</strong></font></div><div class='tr'><img class='introPic' src='trustrating_stim/white_mw042.bmp'><br><font color='red'><strong>Keep</strong></font></div></div></div>","null","ARRAY","3","trustrating_stim/white_mw070.bmp,trustrating_stim/white_mw040.bmp,trustrating_stim/white_mw042.bmp","0,1,0","noMatchFace","i","4500","","","","",""
"html-keyboard-response","182","388136","0.0-7.0-3.29","5783d80d275be60001358349","bdp_wmem","Tue Mar 14 2023 20:48:16 GMT-0500 (Central Daylight Time)","553425","Match,No Match","","null","","","","","","<div class='trialBorder'><div class='vertical-center'><img src='img/fixation2_sml.jpg'</img></div></div>","null","DELAY","","","","","","","","","","",""
"html-keyboard-response","183","389075","0.0-7.0-4.29","5783d80d275be60001358349","bdp_wmem","Tue Mar 14 2023 20:48:16 GMT-0500 (Central Daylight Time)","553425","Match,No Match","","937","","","","","","<div class='trialBorder'><div class='targDiv'><div class='tc'><img class='introPic' src='trustrating_stim/white_mw085.bmp'><br><font color='red'><strong>Keep</strong></font></div></div><div class='respDiv'><div class='respDivL'>Match<br>(e)</div><div class='respDivR'>No Match<br>(i)</div></div></div>","i","TARGET","3","trustrating_stim/white_mw070.bmp,trustrating_stim/white_mw040.bmp,trustrating_stim/white_mw042.bmp","0,1,0","noMatchFace","i","4500","trustrating_stim/white_mw085.bmp","red","Keep","REAL","1"
"html-keyboard-response","184","389578","0.0-7.0-5.29","5783d80d275be60001358349","bdp_wmem","Tue Mar 14 2023 20:48:16 GMT-0500 (Central Daylight Time)","553425","Match,No Match","","null","","","","","","<div class='trialBorder'><div class='vertical-center'><img src='img/correct.jpg'></div><div class='respDiv'><div class='respDivL'>Match<br>(e)</div><div class='respDivR'><font style='color:orange'>No Match<br>(i)</font></div></div></div>","null","FEEDBACK","","","","","","","","","","",""
"html-keyboard-response","185","390080","0.0-7.0-1.30","5783d80d275be60001358349","bdp_wmem","Tue Mar 14 2023 20:48:16 GMT-0500 (Central Daylight Time)","553425","Match,No Match","","null","","","","","","<div class='trialBorder'><div class='vertical-center'><img src='img/fixation2_sml.jpg'</img></div></div>","null","FIX","","","","","","","","","","",""
"html-keyboard-response","186","393083","0.0-7.0-2.30","5783d80d275be60001358349","bdp_wmem","Tue Mar 14 2023 20:48:16 GMT-0500 (Central Daylight Time)","553425","Match,No Match","","null","","","","","","<div class='trialBorder'><div class='vertical-center'><img style='vertical-align:center; align:center' src='img/fixation2_sml.jpg'></div><div class='arrayDiv2'><div class='tl'><img class='introPic' src='trustrating_stim/white_mw070.bmp'><br><font color='red'><strong>Keep</strong></font></div><div class='tr'><img class='introPic' src='trustrating_stim/white_mw042.bmp'><br><font color='green'><strong>Share</strong></font></div></div></div>","null","ARRAY","2","trustrating_stim/white_mw070.bmp,trustrating_stim/white_mw042.bmp","0,1","Match","e","3000","","","","",""
"html-keyboard-response","187","397087","0.0-7.0-3.30","5783d80d275be60001358349","bdp_wmem","Tue Mar 14 2023 20:48:16 GMT-0500 (Central Daylight Time)","553425","Match,No Match","","null","","","","","","<div class='trialBorder'><div class='vertical-center'><img src='img/fixation2_sml.jpg'</img></div></div>","null","DELAY","","","","","","","","","","",""
