"trial_type","trial_index","time_elapsed","internal_node_id","subject_id","task","startTime","totalTime","labels","view_history","rt","event","trial","time","trialtype","success","stimulus","key_press","stimType","arraySize","arrayFaces","arrayOutcomes","matchType","corrResp","arrayDur","targFace","targCol","targOutcome","trialType","corr"
"pavlovia","0","5","0.0-0.0","60ce8efd3dc93c8607362691","bdp_wmem","Wed Mar 15 2023 23:28:45 GMT-0400 (Eastern Daylight Time)","760785","Match,No Match","","","","","","","","","","","","","","","","","","","","",""
"instructions","1","17952","0.0-1.0","60ce8efd3dc93c8607362691","bdp_wmem","Wed Mar 15 2023 23:28:45 GMT-0400 (Eastern Daylight Time)","760785","Match,No Match","[{""page_index"":0,""viewing_time"":17946}]","17946","","","","","","","","","","","","","","","","","","",""
"","","","","60ce8efd3dc93c8607362691","bdp_wmem","Wed Mar 15 2023 23:28:45 GMT-0400 (Eastern Daylight Time)","760785","Match,No Match","","","fullscreenenter","2","20337","fullscreenenter","","","","","","","","","","","","","","",""
"fullscreen","2","21322","0.0-2.0","60ce8efd3dc93c8607362691","bdp_wmem","Wed Mar 15 2023 23:28:45 GMT-0400 (Eastern Daylight Time)","760785","Match,No Match","","","","","","","true","","","","","","","","","","","","","",""
"instructions","3","208779","0.0-4.0","60ce8efd3dc93c8607362691","bdp_wmem","Wed Mar 15 2023 23:28:45 GMT-0400 (Eastern Daylight Time)","760785","Match,No Match","[{""page_index"":0,""viewing_time"":31724},{""page_index"":1,""viewing_time"":77975},{""page_index"":2,""viewing_time"":47055},{""page_index"":3,""viewing_time"":16488},{""page_index"":4,""viewing_time"":14215}]","187457","","","","","","","","","","","","","","","","","","",""
"html-keyboard-response","4","209284","0.0-5.0-1.0","60ce8efd3dc93c8607362691","bdp_wmem","Wed Mar 15 2023 23:28:45 GMT-0400 (Eastern Daylight Time)","760785","Match,No Match","","null","","","","","","<div class='trialBorder'><div class='vertical-center'><img src='img/fixation2_sml.jpg'</img></div></div>","null","FIX","","","","","","","","","","",""
"html-keyboard-response","5","212286","0.0-5.0-2.0","60ce8efd3dc93c8607362691","bdp_wmem","Wed Mar 15 2023 23:28:45 GMT-0400 (Eastern Daylight Time)","760785","Match,No Match","","null","","","","","","<div class='trialBorder'><div class='vertical-center'><img style='vertical-align:center; align:center' src='img/fixation2_sml.jpg'></div><div class='arrayDiv2'><div class='tl'><img class='introPic' src='trustrating_stim/white_mw091.bmp'><br><font color='red'><strong>Keep</strong></font></div><div class='tr'><img class='introPic' src='trustrating_stim/white_mw070.bmp'><br><font color='green'><strong>Share</strong></font></div></div></div>","null","ARRAY","2","trustrating_stim/white_mw091.bmp,trustrating_stim/white_mw070.bmp","0,1","noMatchFace","i","3000","","","","",""
"html-keyboard-response","6","216290","0.0-5.0-3.0","60ce8efd3dc93c8607362691","bdp_wmem","Wed Mar 15 2023 23:28:45 GMT-0400 (Eastern Daylight Time)","760785","Match,No Match","","null","","","","","","<div class='trialBorder'><div class='vertical-center'><img src='img/fixation2_sml.jpg'</img></div></div>","null","DELAY","","","","","","","","","","",""
"html-keyboard-response","7","218243","0.0-5.0-4.0","60ce8efd3dc93c8607362691","bdp_wmem","Wed Mar 15 2023 23:28:45 GMT-0400 (Eastern Daylight Time)","760785","Match,No Match","","1952","","","","","","<div class='trialBorder'><div class='targDiv'><div class='tc'><img class='introPic' src='trustrating_stim/white_mw038.bmp'><br><font color='green'><strong>Share</strong></font></div></div><div class='respDiv'><div class='respDivL'>Match<br>(e)</div><div class='respDivR'>No Match<br>(i)</div></div></div>","i","TARGET","2","trustrating_stim/white_mw091.bmp,trustrating_stim/white_mw070.bmp","0,1","noMatchFace","i","3000","trustrating_stim/white_mw038.bmp","green","Share","PRACTICE","1"
"html-keyboard-response","8","218747","0.0-5.0-5.0","60ce8efd3dc93c8607362691","bdp_wmem","Wed Mar 15 2023 23:28:45 GMT-0400 (Eastern Daylight Time)","760785","Match,No Match","","null","","","","","","<div class='trialBorder'><div class='vertical-center'><img src='img/correct.jpg'></div><div class='respDiv'><div class='respDivL'>Match<br>(e)</div><div class='respDivR'><font style='color:orange'>No Match<br>(i)</font></div></div></div>","null","FEEDBACK","","","","","","","","","","",""
"html-keyboard-response","9","219251","0.0-5.0-1.1","60ce8efd3dc93c8607362691","bdp_wmem","Wed Mar 15 2023 23:28:45 GMT-0400 (Eastern Daylight Time)","760785","Match,No Match","","null","","","","","","<div class='trialBorder'><div class='vertical-center'><img src='img/fixation2_sml.jpg'</img></div></div>","null","FIX","","","","","","","","","","",""
"html-keyboard-response","10","223752","0.0-5.0-2.1","60ce8efd3dc93c8607362691","bdp_wmem","Wed Mar 15 2023 23:28:45 GMT-0400 (Eastern Daylight Time)","760785","Match,No Match","","null","","","","","","<div class='trialBorder'><div class='vertical-center'><img style='vertical-align:center; align:center' src='img/fixation2_sml.jpg'></div><div class='arrayDiv3'><div class='tl'><img class='introPic' src='trustrating_stim/white_mw038.bmp'><br><font color='red'><strong>Keep</strong></font></div><div class='tc'><img class='introPic' src='trustrating_stim/white_mw085.bmp'><br><font color='green'><strong>Share</strong></font></div><div class='tr'><img class='introPic' src='trustrating_stim/white_mw013.bmp'><br><font color='red'><strong>Keep</strong></font></div></div></div>","null","ARRAY","3","trustrating_stim/white_mw038.bmp,trustrating_stim/white_mw085.bmp,trustrating_stim/white_mw013.bmp","0,1,0","noMatchOutcome","i","4500","","","","",""
"html-keyboard-response","11","227756","0.0-5.0-3.1","60ce8efd3dc93c8607362691","bdp_wmem","Wed Mar 15 2023 23:28:45 GMT-0400 (Eastern Daylight Time)","760785","Match,No Match","","null","","","","","","<div class='trialBorder'><div class='vertical-center'><img src='img/fixation2_sml.jpg'</img></div></div>","null","DELAY","","","","","","","","","","",""
"html-keyboard-response","12","229379","0.0-5.0-4.1","60ce8efd3dc93c8607362691","bdp_wmem","Wed Mar 15 2023 23:28:45 GMT-0400 (Eastern Daylight Time)","760785","Match,No Match","","1622","","","","","","<div class='trialBorder'><div class='targDiv'><div class='tc'><img class='introPic' src='trustrating_stim/white_mw085.bmp'><br><font color='red'><strong>Keep</strong></font></div></div><div class='respDiv'><div class='respDivL'>Match<br>(e)</div><div class='respDivR'>No Match<br>(i)</div></div></div>","i","TARGET","3","trustrating_stim/white_mw038.bmp,trustrating_stim/white_mw085.bmp,trustrating_stim/white_mw013.bmp","0,1,0","noMatchOutcome","i","4500","trustrating_stim/white_mw085.bmp","red","Keep","PRACTICE","1"
"html-keyboard-response","13","229881","0.0-5.0-5.1","60ce8efd3dc93c8607362691","bdp_wmem","Wed Mar 15 2023 23:28:45 GMT-0400 (Eastern Daylight Time)","760785","Match,No Match","","null","","","","","","<div class='trialBorder'><div class='vertical-center'><img src='img/correct.jpg'></div><div class='respDiv'><div class='respDivL'>Match<br>(e)</div><div class='respDivR'><font style='color:orange'>No Match<br>(i)</font></div></div></div>","null","FEEDBACK","","","","","","","","","","",""
"html-keyboard-response","14","230384","0.0-5.0-1.2","60ce8efd3dc93c8607362691","bdp_wmem","Wed Mar 15 2023 23:28:45 GMT-0400 (Eastern Daylight Time)","760785","Match,No Match","","null","","","","","","<div class='trialBorder'><div class='vertical-center'><img src='img/fixation2_sml.jpg'</img></div></div>","null","FIX","","","","","","","","","","",""
"html-keyboard-response","15","233387","0.0-5.0-2.2","60ce8efd3dc93c8607362691","bdp_wmem","Wed Mar 15 2023 23:28:45 GMT-0400 (Eastern Daylight Time)","760785","Match,No Match","","null","","","","","","<div class='trialBorder'><div class='vertical-center'><img style='vertical-align:center; align:center' src='img/fixation2_sml.jpg'></div><div class='arrayDiv2'><div class='tl'><img class='introPic' src='trustrating_stim/white_mw010.bmp'><br><font color='green'><strong>Share</strong></font></div><div class='tr'><img class='introPic' src='trustrating_stim/white_mw085.bmp'><br><font color='red'><strong>Keep</strong></font></div></div></div>","null","ARRAY","2","trustrating_stim/white_mw010.bmp,trustrating_stim/white_mw085.bmp","1,0","Match","e","3000","","","","",""
"html-keyboard-response","16","237391","0.0-5.0-3.2","60ce8efd3dc93c8607362691","bdp_wmem","Wed Mar 15 2023 23:28:45 GMT-0400 (Eastern Daylight Time)","760785","Match,No Match","","null","","","","","","<div class='trialBorder'><div class='vertical-center'><img src='img/fixation2_sml.jpg'</img></div></div>","null","DELAY","","","","","","","","","","",""
"html-keyboard-response","17","238970","0.0-5.0-4.2","60ce8efd3dc93c8607362691","bdp_wmem","Wed Mar 15 2023 23:28:45 GMT-0400 (Eastern Daylight Time)","760785","Match,No Match","","1578","","","","","","<div class='trialBorder'><div class='targDiv'><div class='tc'><img class='introPic' src='trustrating_stim/white_mw085.bmp'><br><font color='red'><strong>Keep</strong></font></div></div><div class='respDiv'><div class='respDivL'>Match<br>(e)</div><div class='respDivR'>No Match<br>(i)</div></div></div>","e","TARGET","2","trustrating_stim/white_mw010.bmp,trustrating_stim/white_mw085.bmp","1,0","Match","e","3000","trustrating_stim/white_mw085.bmp","red","Keep","PRACTICE","1"
"html-keyboard-response","18","239472","0.0-5.0-5.2","60ce8efd3dc93c8607362691","bdp_wmem","Wed Mar 15 2023 23:28:45 GMT-0400 (Eastern Daylight Time)","760785","Match,No Match","","null","","","","","","<div class='trialBorder'><div class='vertical-center'><img src='img/correct.jpg'></div><div class='respDiv'><div class='respDivL'><font style='color:orange'>Match<br>(e)</font></div><div class='respDivR'>No Match<br>(i)</div></div></div>","null","FEEDBACK","","","","","","","","","","",""
"html-keyboard-response","19","239974","0.0-5.0-1.3","60ce8efd3dc93c8607362691","bdp_wmem","Wed Mar 15 2023 23:28:45 GMT-0400 (Eastern Daylight Time)","760785","Match,No Match","","null","","","","","","<div class='trialBorder'><div class='vertical-center'><img src='img/fixation2_sml.jpg'</img></div></div>","null","FIX","","","","","","","","","","",""
"html-keyboard-response","20","241477","0.0-5.0-2.3","60ce8efd3dc93c8607362691","bdp_wmem","Wed Mar 15 2023 23:28:45 GMT-0400 (Eastern Daylight Time)","760785","Match,No Match","","null","","","","","","<div class='trialBorder'><div class='vertical-center'><img style='vertical-align:center; align:center' src='img/fixation2_sml.jpg'></div><div class='arrayDiv1'><div class='tc'><img class='introPic' src='trustrating_stim/white_mw038.bmp'><br><font color='red'><strong>Keep</strong></font></div></div></div>","null","ARRAY","1","trustrating_stim/white_mw038.bmp","0","noMatchFace","i","1500","","","","",""
"html-keyboard-response","21","245478","0.0-5.0-3.3","60ce8efd3dc93c8607362691","bdp_wmem","Wed Mar 15 2023 23:28:45 GMT-0400 (Eastern Daylight Time)","760785","Match,No Match","","null","","","","","","<div class='trialBorder'><div class='vertical-center'><img src='img/fixation2_sml.jpg'</img></div></div>","null","DELAY","","","","","","","","","","",""
"html-keyboard-response","22","247219","0.0-5.0-4.3","60ce8efd3dc93c8607362691","bdp_wmem","Wed Mar 15 2023 23:28:45 GMT-0400 (Eastern Daylight Time)","760785","Match,No Match","","1740","","","","","","<div class='trialBorder'><div class='targDiv'><div class='tc'><img class='introPic' src='trustrating_stim/white_mw078.bmp'><br><font color='red'><strong>Keep</strong></font></div></div><div class='respDiv'><div class='respDivL'>Match<br>(e)</div><div class='respDivR'>No Match<br>(i)</div></div></div>","i","TARGET","1","trustrating_stim/white_mw038.bmp","0","noMatchFace","i","1500","trustrating_stim/white_mw078.bmp","red","Keep","PRACTICE","1"
"html-keyboard-response","23","247720","0.0-5.0-5.3","60ce8efd3dc93c8607362691","bdp_wmem","Wed Mar 15 2023 23:28:45 GMT-0400 (Eastern Daylight Time)","760785","Match,No Match","","null","","","","","","<div class='trialBorder'><div class='vertical-center'><img src='img/correct.jpg'></div><div class='respDiv'><div class='respDivL'>Match<br>(e)</div><div class='respDivR'><font style='color:orange'>No Match<br>(i)</font></div></div></div>","null","FEEDBACK","","","","","","","","","","",""
"html-keyboard-response","24","248223","0.0-5.0-1.4","60ce8efd3dc93c8607362691","bdp_wmem","Wed Mar 15 2023 23:28:45 GMT-0400 (Eastern Daylight Time)","760785","Match,No Match","","null","","","","","","<div class='trialBorder'><div class='vertical-center'><img src='img/fixation2_sml.jpg'</img></div></div>","null","FIX","","","","","","","","","","",""
"html-keyboard-response","25","249726","0.0-5.0-2.4","60ce8efd3dc93c8607362691","bdp_wmem","Wed Mar 15 2023 23:28:45 GMT-0400 (Eastern Daylight Time)","760785","Match,No Match","","null","","","","","","<div class='trialBorder'><div class='vertical-center'><img style='vertical-align:center; align:center' src='img/fixation2_sml.jpg'></div><div class='arrayDiv1'><div class='tc'><img class='introPic' src='trustrating_stim/white_mw042.bmp'><br><font color='green'><strong>Share</strong></font></div></div></div>","null","ARRAY","1","trustrating_stim/white_mw042.bmp","1","Match","e","1500","","","","",""
"html-keyboard-response","26","253728","0.0-5.0-3.4","60ce8efd3dc93c8607362691","bdp_wmem","Wed Mar 15 2023 23:28:45 GMT-0400 (Eastern Daylight Time)","760785","Match,No Match","","null","","","","","","<div class='trialBorder'><div class='vertical-center'><img src='img/fixation2_sml.jpg'</img></div></div>","null","DELAY","","","","","","","","","","",""
"html-keyboard-response","27","255418","0.0-5.0-4.4","60ce8efd3dc93c8607362691","bdp_wmem","Wed Mar 15 2023 23:28:45 GMT-0400 (Eastern Daylight Time)","760785","Match,No Match","","1689","","","","","","<div class='trialBorder'><div class='targDiv'><div class='tc'><img class='introPic' src='trustrating_stim/white_mw042.bmp'><br><font color='green'><strong>Share</strong></font></div></div><div class='respDiv'><div class='respDivL'>Match<br>(e)</div><div class='respDivR'>No Match<br>(i)</div></div></div>","e","TARGET","1","trustrating_stim/white_mw042.bmp","1","Match","e","1500","trustrating_stim/white_mw042.bmp","green","Share","PRACTICE","1"
"html-keyboard-response","28","255923","0.0-5.0-5.4","60ce8efd3dc93c8607362691","bdp_wmem","Wed Mar 15 2023 23:28:45 GMT-0400 (Eastern Daylight Time)","760785","Match,No Match","","null","","","","","","<div class='trialBorder'><div class='vertical-center'><img src='img/correct.jpg'></div><div class='respDiv'><div class='respDivL'><font style='color:orange'>Match<br>(e)</font></div><div class='respDivR'>No Match<br>(i)</div></div></div>","null","FEEDBACK","","","","","","","","","","",""
"html-keyboard-response","29","256428","0.0-5.0-1.5","60ce8efd3dc93c8607362691","bdp_wmem","Wed Mar 15 2023 23:28:45 GMT-0400 (Eastern Daylight Time)","760785","Match,No Match","","null","","","","","","<div class='trialBorder'><div class='vertical-center'><img src='img/fixation2_sml.jpg'</img></div></div>","null","FIX","","","","","","","","","","",""
"html-keyboard-response","30","260930","0.0-5.0-2.5","60ce8efd3dc93c8607362691","bdp_wmem","Wed Mar 15 2023 23:28:45 GMT-0400 (Eastern Daylight Time)","760785","Match,No Match","","null","","","","","","<div class='trialBorder'><div class='vertical-center'><img style='vertical-align:center; align:center' src='img/fixation2_sml.jpg'></div><div class='arrayDiv3'><div class='tl'><img class='introPic' src='trustrating_stim/white_mw092.bmp'><br><font color='green'><strong>Share</strong></font></div><div class='tc'><img class='introPic' src='trustrating_stim/white_mw003.bmp'><br><font color='red'><strong>Keep</strong></font></div><div class='tr'><img class='introPic' src='trustrating_stim/white_mw091.bmp'><br><font color='green'><strong>Share</strong></font></div></div></div>","null","ARRAY","3","trustrating_stim/white_mw092.bmp,trustrating_stim/white_mw003.bmp,trustrating_stim/white_mw091.bmp","1,0,1","Match","e","4500","","","","",""
"html-keyboard-response","31","264931","0.0-5.0-3.5","60ce8efd3dc93c8607362691","bdp_wmem","Wed Mar 15 2023 23:28:45 GMT-0400 (Eastern Daylight Time)","760785","Match,No Match","","null","","","","","","<div class='trialBorder'><div class='vertical-center'><img src='img/fixation2_sml.jpg'</img></div></div>","null","DELAY","","","","","","","","","","",""
"html-keyboard-response","32","267306","0.0-5.0-4.5","60ce8efd3dc93c8607362691","bdp_wmem","Wed Mar 15 2023 23:28:45 GMT-0400 (Eastern Daylight Time)","760785","Match,No Match","","2374","","","","","","<div class='trialBorder'><div class='targDiv'><div class='tc'><img class='introPic' src='trustrating_stim/white_mw091.bmp'><br><font color='green'><strong>Share</strong></font></div></div><div class='respDiv'><div class='respDivL'>Match<br>(e)</div><div class='respDivR'>No Match<br>(i)</div></div></div>","i","TARGET","3","trustrating_stim/white_mw092.bmp,trustrating_stim/white_mw003.bmp,trustrating_stim/white_mw091.bmp","1,0,1","Match","e","4500","trustrating_stim/white_mw091.bmp","green","Share","PRACTICE","0"
"html-keyboard-response","33","267808","0.0-5.0-5.5","60ce8efd3dc93c8607362691","bdp_wmem","Wed Mar 15 2023 23:28:45 GMT-0400 (Eastern Daylight Time)","760785","Match,No Match","","null","","","","","","<div class='trialBorder'><div class='vertical-center'><img src='img/error.jpg'></div><div class='respDiv'><div class='respDivL'>Match<br>(e)</div><div class='respDivR'><font style='color:orange'>No Match<br>(i)</font></div></div></div>","null","FEEDBACK","","","","","","","","","","",""
"instructions","34","271570","0.0-6.0","60ce8efd3dc93c8607362691","bdp_wmem","Wed Mar 15 2023 23:28:45 GMT-0400 (Eastern Daylight Time)","760785","Match,No Match","[{""page_index"":0,""viewing_time"":3761}]","3761","","","","","","","","","","","","","","","","","","",""
"html-keyboard-response","35","272070","0.0-7.0-1.0","60ce8efd3dc93c8607362691","bdp_wmem","Wed Mar 15 2023 23:28:45 GMT-0400 (Eastern Daylight Time)","760785","Match,No Match","","null","","","","","","<div class='trialBorder'><div class='vertical-center'><img src='img/fixation2_sml.jpg'</img></div></div>","null","FIX","","","","","","","","","","",""
"html-keyboard-response","36","275073","0.0-7.0-2.0","60ce8efd3dc93c8607362691","bdp_wmem","Wed Mar 15 2023 23:28:45 GMT-0400 (Eastern Daylight Time)","760785","Match,No Match","","null","","","","","","<div class='trialBorder'><div class='vertical-center'><img style='vertical-align:center; align:center' src='img/fixation2_sml.jpg'></div><div class='arrayDiv2'><div class='tl'><img class='introPic' src='trustrating_stim/white_mw092.bmp'><br><font color='green'><strong>Share</strong></font></div><div class='tr'><img class='introPic' src='trustrating_stim/white_mw040.bmp'><br><font color='red'><strong>Keep</strong></font></div></div></div>","null","ARRAY","2","trustrating_stim/white_mw092.bmp,trustrating_stim/white_mw040.bmp","1,0","Match","e","3000","","","","",""
"html-keyboard-response","37","279076","0.0-7.0-3.0","60ce8efd3dc93c8607362691","bdp_wmem","Wed Mar 15 2023 23:28:45 GMT-0400 (Eastern Daylight Time)","760785","Match,No Match","","null","","","","","","<div class='trialBorder'><div class='vertical-center'><img src='img/fixation2_sml.jpg'</img></div></div>","null","DELAY","","","","","","","","","","",""
"html-keyboard-response","38","280594","0.0-7.0-4.0","60ce8efd3dc93c8607362691","bdp_wmem","Wed Mar 15 2023 23:28:45 GMT-0400 (Eastern Daylight Time)","760785","Match,No Match","","1517","","","","","","<div class='trialBorder'><div class='targDiv'><div class='tc'><img class='introPic' src='trustrating_stim/white_mw092.bmp'><br><font color='green'><strong>Share</strong></font></div></div><div class='respDiv'><div class='respDivL'>Match<br>(e)</div><div class='respDivR'>No Match<br>(i)</div></div></div>","e","TARGET","2","trustrating_stim/white_mw092.bmp,trustrating_stim/white_mw040.bmp","1,0","Match","e","3000","trustrating_stim/white_mw092.bmp","green","Share","REAL","1"
"html-keyboard-response","39","281096","0.0-7.0-5.0","60ce8efd3dc93c8607362691","bdp_wmem","Wed Mar 15 2023 23:28:45 GMT-0400 (Eastern Daylight Time)","760785","Match,No Match","","null","","","","","","<div class='trialBorder'><div class='vertical-center'><img src='img/correct.jpg'></div><div class='respDiv'><div class='respDivL'><font style='color:orange'>Match<br>(e)</font></div><div class='respDivR'>No Match<br>(i)</div></div></div>","null","FEEDBACK","","","","","","","","","","",""
"html-keyboard-response","40","281598","0.0-7.0-1.1","60ce8efd3dc93c8607362691","bdp_wmem","Wed Mar 15 2023 23:28:45 GMT-0400 (Eastern Daylight Time)","760785","Match,No Match","","null","","","","","","<div class='trialBorder'><div class='vertical-center'><img src='img/fixation2_sml.jpg'</img></div></div>","null","FIX","","","","","","","","","","",""
"html-keyboard-response","41","284599","0.0-7.0-2.1","60ce8efd3dc93c8607362691","bdp_wmem","Wed Mar 15 2023 23:28:45 GMT-0400 (Eastern Daylight Time)","760785","Match,No Match","","null","","","","","","<div class='trialBorder'><div class='vertical-center'><img style='vertical-align:center; align:center' src='img/fixation2_sml.jpg'></div><div class='arrayDiv2'><div class='tl'><img class='introPic' src='trustrating_stim/white_mw040.bmp'><br><font color='red'><strong>Keep</strong></font></div><div class='tr'><img class='introPic' src='trustrating_stim/white_mw010.bmp'><br><font color='green'><strong>Share</strong></font></div></div></div>","null","ARRAY","2","trustrating_stim/white_mw040.bmp,trustrating_stim/white_mw010.bmp","0,1","Match","e","3000","","","","",""
"html-keyboard-response","42","288601","0.0-7.0-3.1","60ce8efd3dc93c8607362691","bdp_wmem","Wed Mar 15 2023 23:28:45 GMT-0400 (Eastern Daylight Time)","760785","Match,No Match","","null","","","","","","<div class='trialBorder'><div class='vertical-center'><img src='img/fixation2_sml.jpg'</img></div></div>","null","DELAY","","","","","","","","","","",""
"html-keyboard-response","43","290106","0.0-7.0-4.1","60ce8efd3dc93c8607362691","bdp_wmem","Wed Mar 15 2023 23:28:45 GMT-0400 (Eastern Daylight Time)","760785","Match,No Match","","1504","","","","","","<div class='trialBorder'><div class='targDiv'><div class='tc'><img class='introPic' src='trustrating_stim/white_mw010.bmp'><br><font color='green'><strong>Share</strong></font></div></div><div class='respDiv'><div class='respDivL'>Match<br>(e)</div><div class='respDivR'>No Match<br>(i)</div></div></div>","e","TARGET","2","trustrating_stim/white_mw040.bmp,trustrating_stim/white_mw010.bmp","0,1","Match","e","3000","trustrating_stim/white_mw010.bmp","green","Share","REAL","1"
"html-keyboard-response","44","290607","0.0-7.0-5.1","60ce8efd3dc93c8607362691","bdp_wmem","Wed Mar 15 2023 23:28:45 GMT-0400 (Eastern Daylight Time)","760785","Match,No Match","","null","","","","","","<div class='trialBorder'><div class='vertical-center'><img src='img/correct.jpg'></div><div class='respDiv'><div class='respDivL'><font style='color:orange'>Match<br>(e)</font></div><div class='respDivR'>No Match<br>(i)</div></div></div>","null","FEEDBACK","","","","","","","","","","",""
"html-keyboard-response","45","291109","0.0-7.0-1.2","60ce8efd3dc93c8607362691","bdp_wmem","Wed Mar 15 2023 23:28:45 GMT-0400 (Eastern Daylight Time)","760785","Match,No Match","","null","","","","","","<div class='trialBorder'><div class='vertical-center'><img src='img/fixation2_sml.jpg'</img></div></div>","null","FIX","","","","","","","","","","",""
"html-keyboard-response","46","292610","0.0-7.0-2.2","60ce8efd3dc93c8607362691","bdp_wmem","Wed Mar 15 2023 23:28:45 GMT-0400 (Eastern Daylight Time)","760785","Match,No Match","","null","","","","","","<div class='trialBorder'><div class='vertical-center'><img style='vertical-align:center; align:center' src='img/fixation2_sml.jpg'></div><div class='arrayDiv1'><div class='tc'><img class='introPic' src='trustrating_stim/white_mw085.bmp'><br><font color='red'><strong>Keep</strong></font></div></div></div>","null","ARRAY","1","trustrating_stim/white_mw085.bmp","0","Match","e","1500","","","","",""
"html-keyboard-response","47","296613","0.0-7.0-3.2","60ce8efd3dc93c8607362691","bdp_wmem","Wed Mar 15 2023 23:28:45 GMT-0400 (Eastern Daylight Time)","760785","Match,No Match","","null","","","","","","<div class='trialBorder'><div class='vertical-center'><img src='img/fixation2_sml.jpg'</img></div></div>","null","DELAY","","","","","","","","","","",""
"html-keyboard-response","48","297929","0.0-7.0-4.2","60ce8efd3dc93c8607362691","bdp_wmem","Wed Mar 15 2023 23:28:45 GMT-0400 (Eastern Daylight Time)","760785","Match,No Match","","1315","","","","","","<div class='trialBorder'><div class='targDiv'><div class='tc'><img class='introPic' src='trustrating_stim/white_mw085.bmp'><br><font color='red'><strong>Keep</strong></font></div></div><div class='respDiv'><div class='respDivL'>Match<br>(e)</div><div class='respDivR'>No Match<br>(i)</div></div></div>","e","TARGET","1","trustrating_stim/white_mw085.bmp","0","Match","e","1500","trustrating_stim/white_mw085.bmp","red","Keep","REAL","1"
"html-keyboard-response","49","298430","0.0-7.0-5.2","60ce8efd3dc93c8607362691","bdp_wmem","Wed Mar 15 2023 23:28:45 GMT-0400 (Eastern Daylight Time)","760785","Match,No Match","","null","","","","","","<div class='trialBorder'><div class='vertical-center'><img src='img/correct.jpg'></div><div class='respDiv'><div class='respDivL'><font style='color:orange'>Match<br>(e)</font></div><div class='respDivR'>No Match<br>(i)</div></div></div>","null","FEEDBACK","","","","","","","","","","",""
"html-keyboard-response","50","298934","0.0-7.0-1.3","60ce8efd3dc93c8607362691","bdp_wmem","Wed Mar 15 2023 23:28:45 GMT-0400 (Eastern Daylight Time)","760785","Match,No Match","","null","","","","","","<div class='trialBorder'><div class='vertical-center'><img src='img/fixation2_sml.jpg'</img></div></div>","null","FIX","","","","","","","","","","",""
"html-keyboard-response","51","300438","0.0-7.0-2.3","60ce8efd3dc93c8607362691","bdp_wmem","Wed Mar 15 2023 23:28:45 GMT-0400 (Eastern Daylight Time)","760785","Match,No Match","","null","","","","","","<div class='trialBorder'><div class='vertical-center'><img style='vertical-align:center; align:center' src='img/fixation2_sml.jpg'></div><div class='arrayDiv1'><div class='tc'><img class='introPic' src='trustrating_stim/white_mw078.bmp'><br><font color='green'><strong>Share</strong></font></div></div></div>","null","ARRAY","1","trustrating_stim/white_mw078.bmp","1","noMatchOutcome","i","1500","","","","",""
"html-keyboard-response","52","304440","0.0-7.0-3.3","60ce8efd3dc93c8607362691","bdp_wmem","Wed Mar 15 2023 23:28:45 GMT-0400 (Eastern Daylight Time)","760785","Match,No Match","","null","","","","","","<div class='trialBorder'><div class='vertical-center'><img src='img/fixation2_sml.jpg'</img></div></div>","null","DELAY","","","","","","","","","","",""
"html-keyboard-response","53","305556","0.0-7.0-4.3","60ce8efd3dc93c8607362691","bdp_wmem","Wed Mar 15 2023 23:28:45 GMT-0400 (Eastern Daylight Time)","760785","Match,No Match","","1115","","","","","","<div class='trialBorder'><div class='targDiv'><div class='tc'><img class='introPic' src='trustrating_stim/white_mw078.bmp'><br><font color='red'><strong>Keep</strong></font></div></div><div class='respDiv'><div class='respDivL'>Match<br>(e)</div><div class='respDivR'>No Match<br>(i)</div></div></div>","i","TARGET","1","trustrating_stim/white_mw078.bmp","1","noMatchOutcome","i","1500","trustrating_stim/white_mw078.bmp","red","Keep","REAL","1"
"html-keyboard-response","54","306057","0.0-7.0-5.3","60ce8efd3dc93c8607362691","bdp_wmem","Wed Mar 15 2023 23:28:45 GMT-0400 (Eastern Daylight Time)","760785","Match,No Match","","null","","","","","","<div class='trialBorder'><div class='vertical-center'><img src='img/correct.jpg'></div><div class='respDiv'><div class='respDivL'>Match<br>(e)</div><div class='respDivR'><font style='color:orange'>No Match<br>(i)</font></div></div></div>","null","FEEDBACK","","","","","","","","","","",""
"html-keyboard-response","55","306559","0.0-7.0-1.4","60ce8efd3dc93c8607362691","bdp_wmem","Wed Mar 15 2023 23:28:45 GMT-0400 (Eastern Daylight Time)","760785","Match,No Match","","null","","","","","","<div class='trialBorder'><div class='vertical-center'><img src='img/fixation2_sml.jpg'</img></div></div>","null","FIX","","","","","","","","","","",""
"html-keyboard-response","56","308065","0.0-7.0-2.4","60ce8efd3dc93c8607362691","bdp_wmem","Wed Mar 15 2023 23:28:45 GMT-0400 (Eastern Daylight Time)","760785","Match,No Match","","null","","","","","","<div class='trialBorder'><div class='vertical-center'><img style='vertical-align:center; align:center' src='img/fixation2_sml.jpg'></div><div class='arrayDiv1'><div class='tc'><img class='introPic' src='trustrating_stim/white_mw038.bmp'><br><font color='green'><strong>Share</strong></font></div></div></div>","null","ARRAY","1","trustrating_stim/white_mw038.bmp","1","noMatchFace","i","1500","","","","",""
"html-keyboard-response","57","312066","0.0-7.0-3.4","60ce8efd3dc93c8607362691","bdp_wmem","Wed Mar 15 2023 23:28:45 GMT-0400 (Eastern Daylight Time)","760785","Match,No Match","","null","","","","","","<div class='trialBorder'><div class='vertical-center'><img src='img/fixation2_sml.jpg'</img></div></div>","null","DELAY","","","","","","","","","","",""
"html-keyboard-response","58","313757","0.0-7.0-4.4","60ce8efd3dc93c8607362691","bdp_wmem","Wed Mar 15 2023 23:28:45 GMT-0400 (Eastern Daylight Time)","760785","Match,No Match","","1689","","","","","","<div class='trialBorder'><div class='targDiv'><div class='tc'><img class='introPic' src='trustrating_stim/white_mw092.bmp'><br><font color='green'><strong>Share</strong></font></div></div><div class='respDiv'><div class='respDivL'>Match<br>(e)</div><div class='respDivR'>No Match<br>(i)</div></div></div>","e","TARGET","1","trustrating_stim/white_mw038.bmp","1","noMatchFace","i","1500","trustrating_stim/white_mw092.bmp","green","Share","REAL","0"
"html-keyboard-response","59","314259","0.0-7.0-5.4","60ce8efd3dc93c8607362691","bdp_wmem","Wed Mar 15 2023 23:28:45 GMT-0400 (Eastern Daylight Time)","760785","Match,No Match","","null","","","","","","<div class='trialBorder'><div class='vertical-center'><img src='img/error.jpg'></div><div class='respDiv'><div class='respDivL'><font style='color:orange'>Match<br>(e)</font></div><div class='respDivR'>No Match<br>(i)</div></div></div>","null","FEEDBACK","","","","","","","","","","",""
"html-keyboard-response","60","314764","0.0-7.0-1.5","60ce8efd3dc93c8607362691","bdp_wmem","Wed Mar 15 2023 23:28:45 GMT-0400 (Eastern Daylight Time)","760785","Match,No Match","","null","","","","","","<div class='trialBorder'><div class='vertical-center'><img src='img/fixation2_sml.jpg'</img></div></div>","null","FIX","","","","","","","","","","",""
"html-keyboard-response","61","319265","0.0-7.0-2.5","60ce8efd3dc93c8607362691","bdp_wmem","Wed Mar 15 2023 23:28:45 GMT-0400 (Eastern Daylight Time)","760785","Match,No Match","","null","","","","","","<div class='trialBorder'><div class='vertical-center'><img style='vertical-align:center; align:center' src='img/fixation2_sml.jpg'></div><div class='arrayDiv3'><div class='tl'><img class='introPic' src='trustrating_stim/white_mw078.bmp'><br><font color='red'><strong>Keep</strong></font></div><div class='tc'><img class='introPic' src='trustrating_stim/white_mw012.bmp'><br><font color='green'><strong>Share</strong></font></div><div class='tr'><img class='introPic' src='trustrating_stim/white_mw042.bmp'><br><font color='red'><strong>Keep</strong></font></div></div></div>","null","ARRAY","3","trustrating_stim/white_mw078.bmp,trustrating_stim/white_mw012.bmp,trustrating_stim/white_mw042.bmp","0,1,0","noMatchFace","i","4500","","","","",""
"html-keyboard-response","62","323268","0.0-7.0-3.5","60ce8efd3dc93c8607362691","bdp_wmem","Wed Mar 15 2023 23:28:45 GMT-0400 (Eastern Daylight Time)","760785","Match,No Match","","null","","","","","","<div class='trialBorder'><div class='vertical-center'><img src='img/fixation2_sml.jpg'</img></div></div>","null","DELAY","","","","","","","","","","",""
"html-keyboard-response","63","324802","0.0-7.0-4.5","60ce8efd3dc93c8607362691","bdp_wmem","Wed Mar 15 2023 23:28:45 GMT-0400 (Eastern Daylight Time)","760785","Match,No Match","","1533","","","","","","<div class='trialBorder'><div class='targDiv'><div class='tc'><img class='introPic' src='trustrating_stim/white_mw038.bmp'><br><font color='green'><strong>Share</strong></font></div></div><div class='respDiv'><div class='respDivL'>Match<br>(e)</div><div class='respDivR'>No Match<br>(i)</div></div></div>","i","TARGET","3","trustrating_stim/white_mw078.bmp,trustrating_stim/white_mw012.bmp,trustrating_stim/white_mw042.bmp","0,1,0","noMatchFace","i","4500","trustrating_stim/white_mw038.bmp","green","Share","REAL","1"
"html-keyboard-response","64","325303","0.0-7.0-5.5","60ce8efd3dc93c8607362691","bdp_wmem","Wed Mar 15 2023 23:28:45 GMT-0400 (Eastern Daylight Time)","760785","Match,No Match","","null","","","","","","<div class='trialBorder'><div class='vertical-center'><img src='img/correct.jpg'></div><div class='respDiv'><div class='respDivL'>Match<br>(e)</div><div class='respDivR'><font style='color:orange'>No Match<br>(i)</font></div></div></div>","null","FEEDBACK","","","","","","","","","","",""
"html-keyboard-response","65","325805","0.0-7.0-1.6","60ce8efd3dc93c8607362691","bdp_wmem","Wed Mar 15 2023 23:28:45 GMT-0400 (Eastern Daylight Time)","760785","Match,No Match","","null","","","","","","<div class='trialBorder'><div class='vertical-center'><img src='img/fixation2_sml.jpg'</img></div></div>","null","FIX","","","","","","","","","","",""
"html-keyboard-response","66","330306","0.0-7.0-2.6","60ce8efd3dc93c8607362691","bdp_wmem","Wed Mar 15 2023 23:28:45 GMT-0400 (Eastern Daylight Time)","760785","Match,No Match","","null","","","","","","<div class='trialBorder'><div class='vertical-center'><img style='vertical-align:center; align:center' src='img/fixation2_sml.jpg'></div><div class='arrayDiv3'><div class='tl'><img class='introPic' src='trustrating_stim/white_mw042.bmp'><br><font color='red'><strong>Keep</strong></font></div><div class='tc'><img class='introPic' src='trustrating_stim/white_mw091.bmp'><br><font color='green'><strong>Share</strong></font></div><div class='tr'><img class='introPic' src='trustrating_stim/white_mw038.bmp'><br><font color='green'><strong>Share</strong></font></div></div></div>","null","ARRAY","3","trustrating_stim/white_mw042.bmp,trustrating_stim/white_mw091.bmp,trustrating_stim/white_mw038.bmp","0,1,1","Match","e","4500","","","","",""
"html-keyboard-response","67","334309","0.0-7.0-3.6","60ce8efd3dc93c8607362691","bdp_wmem","Wed Mar 15 2023 23:28:45 GMT-0400 (Eastern Daylight Time)","760785","Match,No Match","","null","","","","","","<div class='trialBorder'><div class='vertical-center'><img src='img/fixation2_sml.jpg'</img></div></div>","null","DELAY","","","","","","","","","","",""
"html-keyboard-response","68","336386","0.0-7.0-4.6","60ce8efd3dc93c8607362691","bdp_wmem","Wed Mar 15 2023 23:28:45 GMT-0400 (Eastern Daylight Time)","760785","Match,No Match","","2075","","","","","","<div class='trialBorder'><div class='targDiv'><div class='tc'><img class='introPic' src='trustrating_stim/white_mw042.bmp'><br><font color='red'><strong>Keep</strong></font></div></div><div class='respDiv'><div class='respDivL'>Match<br>(e)</div><div class='respDivR'>No Match<br>(i)</div></div></div>","e","TARGET","3","trustrating_stim/white_mw042.bmp,trustrating_stim/white_mw091.bmp,trustrating_stim/white_mw038.bmp","0,1,1","Match","e","4500","trustrating_stim/white_mw042.bmp","red","Keep","REAL","1"
"html-keyboard-response","69","336887","0.0-7.0-5.6","60ce8efd3dc93c8607362691","bdp_wmem","Wed Mar 15 2023 23:28:45 GMT-0400 (Eastern Daylight Time)","760785","Match,No Match","","null","","","","","","<div class='trialBorder'><div class='vertical-center'><img src='img/correct.jpg'></div><div class='respDiv'><div class='respDivL'><font style='color:orange'>Match<br>(e)</font></div><div class='respDivR'>No Match<br>(i)</div></div></div>","null","FEEDBACK","","","","","","","","","","",""
"html-keyboard-response","70","337388","0.0-7.0-1.7","60ce8efd3dc93c8607362691","bdp_wmem","Wed Mar 15 2023 23:28:45 GMT-0400 (Eastern Daylight Time)","760785","Match,No Match","","null","","","","","","<div class='trialBorder'><div class='vertical-center'><img src='img/fixation2_sml.jpg'</img></div></div>","null","FIX","","","","","","","","","","",""
"html-keyboard-response","71","341891","0.0-7.0-2.7","60ce8efd3dc93c8607362691","bdp_wmem","Wed Mar 15 2023 23:28:45 GMT-0400 (Eastern Daylight Time)","760785","Match,No Match","","null","","","","","","<div class='trialBorder'><div class='vertical-center'><img style='vertical-align:center; align:center' src='img/fixation2_sml.jpg'></div><div class='arrayDiv3'><div class='tl'><img class='introPic' src='trustrating_stim/white_mw078.bmp'><br><font color='red'><strong>Keep</strong></font></div><div class='tc'><img class='introPic' src='trustrating_stim/white_mw040.bmp'><br><font color='red'><strong>Keep</strong></font></div><div class='tr'><img class='introPic' src='trustrating_stim/white_mw010.bmp'><br><font color='green'><strong>Share</strong></font></div></div></div>","null","ARRAY","3","trustrating_stim/white_mw078.bmp,trustrating_stim/white_mw040.bmp,trustrating_stim/white_mw010.bmp","0,0,1","noMatchOutcome","i","4500","","","","",""
"html-keyboard-response","72","345892","0.0-7.0-3.7","60ce8efd3dc93c8607362691","bdp_wmem","Wed Mar 15 2023 23:28:45 GMT-0400 (Eastern Daylight Time)","760785","Match,No Match","","null","","","","","","<div class='trialBorder'><div class='vertical-center'><img src='img/fixation2_sml.jpg'</img></div></div>","null","DELAY","","","","","","","","","","",""
"html-keyboard-response","73","347305","0.0-7.0-4.7","60ce8efd3dc93c8607362691","bdp_wmem","Wed Mar 15 2023 23:28:45 GMT-0400 (Eastern Daylight Time)","760785","Match,No Match","","1411","","","","","","<div class='trialBorder'><div class='targDiv'><div class='tc'><img class='introPic' src='trustrating_stim/white_mw010.bmp'><br><font color='red'><strong>Keep</strong></font></div></div><div class='respDiv'><div class='respDivL'>Match<br>(e)</div><div class='respDivR'>No Match<br>(i)</div></div></div>","i","TARGET","3","trustrating_stim/white_mw078.bmp,trustrating_stim/white_mw040.bmp,trustrating_stim/white_mw010.bmp","0,0,1","noMatchOutcome","i","4500","trustrating_stim/white_mw010.bmp","red","Keep","REAL","1"
"html-keyboard-response","74","347806","0.0-7.0-5.7","60ce8efd3dc93c8607362691","bdp_wmem","Wed Mar 15 2023 23:28:45 GMT-0400 (Eastern Daylight Time)","760785","Match,No Match","","null","","","","","","<div class='trialBorder'><div class='vertical-center'><img src='img/correct.jpg'></div><div class='respDiv'><div class='respDivL'>Match<br>(e)</div><div class='respDivR'><font style='color:orange'>No Match<br>(i)</font></div></div></div>","null","FEEDBACK","","","","","","","","","","",""
"html-keyboard-response","75","348307","0.0-7.0-1.8","60ce8efd3dc93c8607362691","bdp_wmem","Wed Mar 15 2023 23:28:45 GMT-0400 (Eastern Daylight Time)","760785","Match,No Match","","null","","","","","","<div class='trialBorder'><div class='vertical-center'><img src='img/fixation2_sml.jpg'</img></div></div>","null","FIX","","","","","","","","","","",""
"html-keyboard-response","76","352809","0.0-7.0-2.8","60ce8efd3dc93c8607362691","bdp_wmem","Wed Mar 15 2023 23:28:45 GMT-0400 (Eastern Daylight Time)","760785","Match,No Match","","null","","","","","","<div class='trialBorder'><div class='vertical-center'><img style='vertical-align:center; align:center' src='img/fixation2_sml.jpg'></div><div class='arrayDiv3'><div class='tl'><img class='introPic' src='trustrating_stim/white_mw003.bmp'><br><font color='red'><strong>Keep</strong></font></div><div class='tc'><img class='introPic' src='trustrating_stim/white_mw092.bmp'><br><font color='red'><strong>Keep</strong></font></div><div class='tr'><img class='introPic' src='trustrating_stim/white_mw038.bmp'><br><font color='green'><strong>Share</strong></font></div></div></div>","null","ARRAY","3","trustrating_stim/white_mw003.bmp,trustrating_stim/white_mw092.bmp,trustrating_stim/white_mw038.bmp","0,0,1","noMatchFace","i","4500","","","","",""
"html-keyboard-response","77","356810","0.0-7.0-3.8","60ce8efd3dc93c8607362691","bdp_wmem","Wed Mar 15 2023 23:28:45 GMT-0400 (Eastern Daylight Time)","760785","Match,No Match","","null","","","","","","<div class='trialBorder'><div class='vertical-center'><img src='img/fixation2_sml.jpg'</img></div></div>","null","DELAY","","","","","","","","","","",""
"html-keyboard-response","78","358584","0.0-7.0-4.8","60ce8efd3dc93c8607362691","bdp_wmem","Wed Mar 15 2023 23:28:45 GMT-0400 (Eastern Daylight Time)","760785","Match,No Match","","1773","","","","","","<div class='trialBorder'><div class='targDiv'><div class='tc'><img class='introPic' src='trustrating_stim/white_mw085.bmp'><br><font color='green'><strong>Share</strong></font></div></div><div class='respDiv'><div class='respDivL'>Match<br>(e)</div><div class='respDivR'>No Match<br>(i)</div></div></div>","i","TARGET","3","trustrating_stim/white_mw003.bmp,trustrating_stim/white_mw092.bmp,trustrating_stim/white_mw038.bmp","0,0,1","noMatchFace","i","4500","trustrating_stim/white_mw085.bmp","green","Share","REAL","1"
"html-keyboard-response","79","359086","0.0-7.0-5.8","60ce8efd3dc93c8607362691","bdp_wmem","Wed Mar 15 2023 23:28:45 GMT-0400 (Eastern Daylight Time)","760785","Match,No Match","","null","","","","","","<div class='trialBorder'><div class='vertical-center'><img src='img/correct.jpg'></div><div class='respDiv'><div class='respDivL'>Match<br>(e)</div><div class='respDivR'><font style='color:orange'>No Match<br>(i)</font></div></div></div>","null","FEEDBACK","","","","","","","","","","",""
"html-keyboard-response","80","359589","0.0-7.0-1.9","60ce8efd3dc93c8607362691","bdp_wmem","Wed Mar 15 2023 23:28:45 GMT-0400 (Eastern Daylight Time)","760785","Match,No Match","","null","","","","","","<div class='trialBorder'><div class='vertical-center'><img src='img/fixation2_sml.jpg'</img></div></div>","null","FIX","","","","","","","","","","",""
"html-keyboard-response","81","362591","0.0-7.0-2.9","60ce8efd3dc93c8607362691","bdp_wmem","Wed Mar 15 2023 23:28:45 GMT-0400 (Eastern Daylight Time)","760785","Match,No Match","","null","","","","","","<div class='trialBorder'><div class='vertical-center'><img style='vertical-align:center; align:center' src='img/fixation2_sml.jpg'></div><div class='arrayDiv2'><div class='tl'><img class='introPic' src='trustrating_stim/white_mw003.bmp'><br><font color='red'><strong>Keep</strong></font></div><div class='tr'><img class='introPic' src='trustrating_stim/white_mw038.bmp'><br><font color='green'><strong>Share</strong></font></div></div></div>","null","ARRAY","2","trustrating_stim/white_mw003.bmp,trustrating_stim/white_mw038.bmp","0,1","noMatchOutcome","i","3000","","","","",""
"html-keyboard-response","82","366591","0.0-7.0-3.9","60ce8efd3dc93c8607362691","bdp_wmem","Wed Mar 15 2023 23:28:45 GMT-0400 (Eastern Daylight Time)","760785","Match,No Match","","null","","","","","","<div class='trialBorder'><div class='vertical-center'><img src='img/fixation2_sml.jpg'</img></div></div>","null","DELAY","","","","","","","","","","",""
"html-keyboard-response","83","367744","0.0-7.0-4.9","60ce8efd3dc93c8607362691","bdp_wmem","Wed Mar 15 2023 23:28:45 GMT-0400 (Eastern Daylight Time)","760785","Match,No Match","","1152","","","","","","<div class='trialBorder'><div class='targDiv'><div class='tc'><img class='introPic' src='trustrating_stim/white_mw003.bmp'><br><font color='green'><strong>Share</strong></font></div></div><div class='respDiv'><div class='respDivL'>Match<br>(e)</div><div class='respDivR'>No Match<br>(i)</div></div></div>","i","TARGET","2","trustrating_stim/white_mw003.bmp,trustrating_stim/white_mw038.bmp","0,1","noMatchOutcome","i","3000","trustrating_stim/white_mw003.bmp","green","Share","REAL","1"
"html-keyboard-response","84","368245","0.0-7.0-5.9","60ce8efd3dc93c8607362691","bdp_wmem","Wed Mar 15 2023 23:28:45 GMT-0400 (Eastern Daylight Time)","760785","Match,No Match","","null","","","","","","<div class='trialBorder'><div class='vertical-center'><img src='img/correct.jpg'></div><div class='respDiv'><div class='respDivL'>Match<br>(e)</div><div class='respDivR'><font style='color:orange'>No Match<br>(i)</font></div></div></div>","null","FEEDBACK","","","","","","","","","","",""
"html-keyboard-response","85","368746","0.0-7.0-1.10","60ce8efd3dc93c8607362691","bdp_wmem","Wed Mar 15 2023 23:28:45 GMT-0400 (Eastern Daylight Time)","760785","Match,No Match","","null","","","","","","<div class='trialBorder'><div class='vertical-center'><img src='img/fixation2_sml.jpg'</img></div></div>","null","FIX","","","","","","","","","","",""
"html-keyboard-response","86","371751","0.0-7.0-2.10","60ce8efd3dc93c8607362691","bdp_wmem","Wed Mar 15 2023 23:28:45 GMT-0400 (Eastern Daylight Time)","760785","Match,No Match","","null","","","","","","<div class='trialBorder'><div class='vertical-center'><img style='vertical-align:center; align:center' src='img/fixation2_sml.jpg'></div><div class='arrayDiv2'><div class='tl'><img class='introPic' src='trustrating_stim/white_mw012.bmp'><br><font color='red'><strong>Keep</strong></font></div><div class='tr'><img class='introPic' src='trustrating_stim/white_mw013.bmp'><br><font color='green'><strong>Share</strong></font></div></div></div>","null","ARRAY","2","trustrating_stim/white_mw012.bmp,trustrating_stim/white_mw013.bmp","0,1","noMatchFace","i","3000","","","","",""
"html-keyboard-response","87","375752","0.0-7.0-3.10","60ce8efd3dc93c8607362691","bdp_wmem","Wed Mar 15 2023 23:28:45 GMT-0400 (Eastern Daylight Time)","760785","Match,No Match","","null","","","","","","<div class='trialBorder'><div class='vertical-center'><img src='img/fixation2_sml.jpg'</img></div></div>","null","DELAY","","","","","","","","","","",""
"html-keyboard-response","88","378960","0.0-7.0-4.10","60ce8efd3dc93c8607362691","bdp_wmem","Wed Mar 15 2023 23:28:45 GMT-0400 (Eastern Daylight Time)","760785","Match,No Match","","3207","","","","","","<div class='trialBorder'><div class='targDiv'><div class='tc'><img class='introPic' src='trustrating_stim/white_mw078.bmp'><br><font color='green'><strong>Share</strong></font></div></div><div class='respDiv'><div class='respDivL'>Match<br>(e)</div><div class='respDivR'>No Match<br>(i)</div></div></div>","i","TARGET","2","trustrating_stim/white_mw012.bmp,trustrating_stim/white_mw013.bmp","0,1","noMatchFace","i","3000","trustrating_stim/white_mw078.bmp","green","Share","REAL","1"
"html-keyboard-response","89","379461","0.0-7.0-5.10","60ce8efd3dc93c8607362691","bdp_wmem","Wed Mar 15 2023 23:28:45 GMT-0400 (Eastern Daylight Time)","760785","Match,No Match","","null","","","","","","<div class='trialBorder'><div class='vertical-center'><img src='img/correct.jpg'></div><div class='respDiv'><div class='respDivL'>Match<br>(e)</div><div class='respDivR'><font style='color:orange'>No Match<br>(i)</font></div></div></div>","null","FEEDBACK","","","","","","","","","","",""
"html-keyboard-response","90","379965","0.0-7.0-1.11","60ce8efd3dc93c8607362691","bdp_wmem","Wed Mar 15 2023 23:28:45 GMT-0400 (Eastern Daylight Time)","760785","Match,No Match","","null","","","","","","<div class='trialBorder'><div class='vertical-center'><img src='img/fixation2_sml.jpg'</img></div></div>","null","FIX","","","","","","","","","","",""
"html-keyboard-response","91","381468","0.0-7.0-2.11","60ce8efd3dc93c8607362691","bdp_wmem","Wed Mar 15 2023 23:28:45 GMT-0400 (Eastern Daylight Time)","760785","Match,No Match","","null","","","","","","<div class='trialBorder'><div class='vertical-center'><img style='vertical-align:center; align:center' src='img/fixation2_sml.jpg'></div><div class='arrayDiv1'><div class='tc'><img class='introPic' src='trustrating_stim/white_mw092.bmp'><br><font color='red'><strong>Keep</strong></font></div></div></div>","null","ARRAY","1","trustrating_stim/white_mw092.bmp","0","noMatchOutcome","i","1500","","","","",""
"html-keyboard-response","92","385470","0.0-7.0-3.11","60ce8efd3dc93c8607362691","bdp_wmem","Wed Mar 15 2023 23:28:45 GMT-0400 (Eastern Daylight Time)","760785","Match,No Match","","null","","","","","","<div class='trialBorder'><div class='vertical-center'><img src='img/fixation2_sml.jpg'</img></div></div>","null","DELAY","","","","","","","","","","",""
"html-keyboard-response","93","388144","0.0-7.0-4.11","60ce8efd3dc93c8607362691","bdp_wmem","Wed Mar 15 2023 23:28:45 GMT-0400 (Eastern Daylight Time)","760785","Match,No Match","","2673","","","","","","<div class='trialBorder'><div class='targDiv'><div class='tc'><img class='introPic' src='trustrating_stim/white_mw092.bmp'><br><font color='green'><strong>Share</strong></font></div></div><div class='respDiv'><div class='respDivL'>Match<br>(e)</div><div class='respDivR'>No Match<br>(i)</div></div></div>","i","TARGET","1","trustrating_stim/white_mw092.bmp","0","noMatchOutcome","i","1500","trustrating_stim/white_mw092.bmp","green","Share","REAL","1"
"html-keyboard-response","94","388645","0.0-7.0-5.11","60ce8efd3dc93c8607362691","bdp_wmem","Wed Mar 15 2023 23:28:45 GMT-0400 (Eastern Daylight Time)","760785","Match,No Match","","null","","","","","","<div class='trialBorder'><div class='vertical-center'><img src='img/correct.jpg'></div><div class='respDiv'><div class='respDivL'>Match<br>(e)</div><div class='respDivR'><font style='color:orange'>No Match<br>(i)</font></div></div></div>","null","FEEDBACK","","","","","","","","","","",""
"html-keyboard-response","95","389148","0.0-7.0-1.12","60ce8efd3dc93c8607362691","bdp_wmem","Wed Mar 15 2023 23:28:45 GMT-0400 (Eastern Daylight Time)","760785","Match,No Match","","null","","","","","","<div class='trialBorder'><div class='vertical-center'><img src='img/fixation2_sml.jpg'</img></div></div>","null","FIX","","","","","","","","","","",""
"html-keyboard-response","96","390651","0.0-7.0-2.12","60ce8efd3dc93c8607362691","bdp_wmem","Wed Mar 15 2023 23:28:45 GMT-0400 (Eastern Daylight Time)","760785","Match,No Match","","null","","","","","","<div class='trialBorder'><div class='vertical-center'><img style='vertical-align:center; align:center' src='img/fixation2_sml.jpg'></div><div class='arrayDiv1'><div class='tc'><img class='introPic' src='trustrating_stim/white_mw091.bmp'><br><font color='red'><strong>Keep</strong></font></div></div></div>","null","ARRAY","1","trustrating_stim/white_mw091.bmp","0","Match","e","1500","","","","",""
"html-keyboard-response","97","394652","0.0-7.0-3.12","60ce8efd3dc93c8607362691","bdp_wmem","Wed Mar 15 2023 23:28:45 GMT-0400 (Eastern Daylight Time)","760785","Match,No Match","","null","","","","","","<div class='trialBorder'><div class='vertical-center'><img src='img/fixation2_sml.jpg'</img></div></div>","null","DELAY","","","","","","","","","","",""
"html-keyboard-response","98","395400","0.0-7.0-4.12","60ce8efd3dc93c8607362691","bdp_wmem","Wed Mar 15 2023 23:28:45 GMT-0400 (Eastern Daylight Time)","760785","Match,No Match","","747","","","","","","<div class='trialBorder'><div class='targDiv'><div class='tc'><img class='introPic' src='trustrating_stim/white_mw091.bmp'><br><font color='red'><strong>Keep</strong></font></div></div><div class='respDiv'><div class='respDivL'>Match<br>(e)</div><div class='respDivR'>No Match<br>(i)</div></div></div>","i","TARGET","1","trustrating_stim/white_mw091.bmp","0","Match","e","1500","trustrating_stim/white_mw091.bmp","red","Keep","REAL","0"
"html-keyboard-response","99","395902","0.0-7.0-5.12","60ce8efd3dc93c8607362691","bdp_wmem","Wed Mar 15 2023 23:28:45 GMT-0400 (Eastern Daylight Time)","760785","Match,No Match","","null","","","","","","<div class='trialBorder'><div class='vertical-center'><img src='img/error.jpg'></div><div class='respDiv'><div class='respDivL'>Match<br>(e)</div><div class='respDivR'><font style='color:orange'>No Match<br>(i)</font></div></div></div>","null","FEEDBACK","","","","","","","","","","",""
"html-keyboard-response","100","396404","0.0-7.0-1.13","60ce8efd3dc93c8607362691","bdp_wmem","Wed Mar 15 2023 23:28:45 GMT-0400 (Eastern Daylight Time)","760785","Match,No Match","","null","","","","","","<div class='trialBorder'><div class='vertical-center'><img src='img/fixation2_sml.jpg'</img></div></div>","null","FIX","","","","","","","","","","",""
"html-keyboard-response","101","397908","0.0-7.0-2.13","60ce8efd3dc93c8607362691","bdp_wmem","Wed Mar 15 2023 23:28:45 GMT-0400 (Eastern Daylight Time)","760785","Match,No Match","","null","","","","","","<div class='trialBorder'><div class='vertical-center'><img style='vertical-align:center; align:center' src='img/fixation2_sml.jpg'></div><div class='arrayDiv1'><div class='tc'><img class='introPic' src='trustrating_stim/white_mw078.bmp'><br><font color='green'><strong>Share</strong></font></div></div></div>","null","ARRAY","1","trustrating_stim/white_mw078.bmp","1","Match","e","1500","","","","",""
"html-keyboard-response","102","401910","0.0-7.0-3.13","60ce8efd3dc93c8607362691","bdp_wmem","Wed Mar 15 2023 23:28:45 GMT-0400 (Eastern Daylight Time)","760785","Match,No Match","","null","","","","","","<div class='trialBorder'><div class='vertical-center'><img src='img/fixation2_sml.jpg'</img></div></div>","null","DELAY","","","","","","","","","","",""
"html-keyboard-response","103","405112","0.0-7.0-4.13","60ce8efd3dc93c8607362691","bdp_wmem","Wed Mar 15 2023 23:28:45 GMT-0400 (Eastern Daylight Time)","760785","Match,No Match","","3201","","","","","","<div class='trialBorder'><div class='targDiv'><div class='tc'><img class='introPic' src='trustrating_stim/white_mw078.bmp'><br><font color='green'><strong>Share</strong></font></div></div><div class='respDiv'><div class='respDivL'>Match<br>(e)</div><div class='respDivR'>No Match<br>(i)</div></div></div>","e","TARGET","1","trustrating_stim/white_mw078.bmp","1","Match","e","1500","trustrating_stim/white_mw078.bmp","green","Share","REAL","1"
"html-keyboard-response","104","405613","0.0-7.0-5.13","60ce8efd3dc93c8607362691","bdp_wmem","Wed Mar 15 2023 23:28:45 GMT-0400 (Eastern Daylight Time)","760785","Match,No Match","","null","","","","","","<div class='trialBorder'><div class='vertical-center'><img src='img/correct.jpg'></div><div class='respDiv'><div class='respDivL'><font style='color:orange'>Match<br>(e)</font></div><div class='respDivR'>No Match<br>(i)</div></div></div>","null","FEEDBACK","","","","","","","","","","",""
"html-keyboard-response","105","406116","0.0-7.0-1.14","60ce8efd3dc93c8607362691","bdp_wmem","Wed Mar 15 2023 23:28:45 GMT-0400 (Eastern Daylight Time)","760785","Match,No Match","","null","","","","","","<div class='trialBorder'><div class='vertical-center'><img src='img/fixation2_sml.jpg'</img></div></div>","null","FIX","","","","","","","","","","",""
"html-keyboard-response","106","410620","0.0-7.0-2.14","60ce8efd3dc93c8607362691","bdp_wmem","Wed Mar 15 2023 23:28:45 GMT-0400 (Eastern Daylight Time)","760785","Match,No Match","","null","","","","","","<div class='trialBorder'><div class='vertical-center'><img style='vertical-align:center; align:center' src='img/fixation2_sml.jpg'></div><div class='arrayDiv3'><div class='tl'><img class='introPic' src='trustrating_stim/white_mw078.bmp'><br><font color='red'><strong>Keep</strong></font></div><div class='tc'><img class='introPic' src='trustrating_stim/white_mw012.bmp'><br><font color='green'><strong>Share</strong></font></div><div class='tr'><img class='introPic' src='trustrating_stim/white_mw040.bmp'><br><font color='red'><strong>Keep</strong></font></div></div></div>","null","ARRAY","3","trustrating_stim/white_mw078.bmp,trustrating_stim/white_mw012.bmp,trustrating_stim/white_mw040.bmp","0,1,0","noMatchOutcome","i","4500","","","","",""
"html-keyboard-response","107","414621","0.0-7.0-3.14","60ce8efd3dc93c8607362691","bdp_wmem","Wed Mar 15 2023 23:28:45 GMT-0400 (Eastern Daylight Time)","760785","Match,No Match","","null","","","","","","<div class='trialBorder'><div class='vertical-center'><img src='img/fixation2_sml.jpg'</img></div></div>","null","DELAY","","","","","","","","","","",""
"html-keyboard-response","108","416608","0.0-7.0-4.14","60ce8efd3dc93c8607362691","bdp_wmem","Wed Mar 15 2023 23:28:45 GMT-0400 (Eastern Daylight Time)","760785","Match,No Match","","1986","","","","","","<div class='trialBorder'><div class='targDiv'><div class='tc'><img class='introPic' src='trustrating_stim/white_mw012.bmp'><br><font color='red'><strong>Keep</strong></font></div></div><div class='respDiv'><div class='respDivL'>Match<br>(e)</div><div class='respDivR'>No Match<br>(i)</div></div></div>","i","TARGET","3","trustrating_stim/white_mw078.bmp,trustrating_stim/white_mw012.bmp,trustrating_stim/white_mw040.bmp","0,1,0","noMatchOutcome","i","4500","trustrating_stim/white_mw012.bmp","red","Keep","REAL","1"
"html-keyboard-response","109","417110","0.0-7.0-5.14","60ce8efd3dc93c8607362691","bdp_wmem","Wed Mar 15 2023 23:28:45 GMT-0400 (Eastern Daylight Time)","760785","Match,No Match","","null","","","","","","<div class='trialBorder'><div class='vertical-center'><img src='img/correct.jpg'></div><div class='respDiv'><div class='respDivL'>Match<br>(e)</div><div class='respDivR'><font style='color:orange'>No Match<br>(i)</font></div></div></div>","null","FEEDBACK","","","","","","","","","","",""
"html-keyboard-response","110","417612","0.0-7.0-1.15","60ce8efd3dc93c8607362691","bdp_wmem","Wed Mar 15 2023 23:28:45 GMT-0400 (Eastern Daylight Time)","760785","Match,No Match","","null","","","","","","<div class='trialBorder'><div class='vertical-center'><img src='img/fixation2_sml.jpg'</img></div></div>","null","FIX","","","","","","","","","","",""
"html-keyboard-response","111","420616","0.0-7.0-2.15","60ce8efd3dc93c8607362691","bdp_wmem","Wed Mar 15 2023 23:28:45 GMT-0400 (Eastern Daylight Time)","760785","Match,No Match","","null","","","","","","<div class='trialBorder'><div class='vertical-center'><img style='vertical-align:center; align:center' src='img/fixation2_sml.jpg'></div><div class='arrayDiv2'><div class='tl'><img class='introPic' src='trustrating_stim/white_mw078.bmp'><br><font color='red'><strong>Keep</strong></font></div><div class='tr'><img class='introPic' src='trustrating_stim/white_mw040.bmp'><br><font color='green'><strong>Share</strong></font></div></div></div>","null","ARRAY","2","trustrating_stim/white_mw078.bmp,trustrating_stim/white_mw040.bmp","0,1","noMatchFace","i","3000","","","","",""
"html-keyboard-response","112","424618","0.0-7.0-3.15","60ce8efd3dc93c8607362691","bdp_wmem","Wed Mar 15 2023 23:28:45 GMT-0400 (Eastern Daylight Time)","760785","Match,No Match","","null","","","","","","<div class='trialBorder'><div class='vertical-center'><img src='img/fixation2_sml.jpg'</img></div></div>","null","DELAY","","","","","","","","","","",""
"html-keyboard-response","113","426191","0.0-7.0-4.15","60ce8efd3dc93c8607362691","bdp_wmem","Wed Mar 15 2023 23:28:45 GMT-0400 (Eastern Daylight Time)","760785","Match,No Match","","1572","","","","","","<div class='trialBorder'><div class='targDiv'><div class='tc'><img class='introPic' src='trustrating_stim/white_mw012.bmp'><br><font color='red'><strong>Keep</strong></font></div></div><div class='respDiv'><div class='respDivL'>Match<br>(e)</div><div class='respDivR'>No Match<br>(i)</div></div></div>","i","TARGET","2","trustrating_stim/white_mw078.bmp,trustrating_stim/white_mw040.bmp","0,1","noMatchFace","i","3000","trustrating_stim/white_mw012.bmp","red","Keep","REAL","1"
"html-keyboard-response","114","426694","0.0-7.0-5.15","60ce8efd3dc93c8607362691","bdp_wmem","Wed Mar 15 2023 23:28:45 GMT-0400 (Eastern Daylight Time)","760785","Match,No Match","","null","","","","","","<div class='trialBorder'><div class='vertical-center'><img src='img/correct.jpg'></div><div class='respDiv'><div class='respDivL'>Match<br>(e)</div><div class='respDivR'><font style='color:orange'>No Match<br>(i)</font></div></div></div>","null","FEEDBACK","","","","","","","","","","",""
"html-keyboard-response","115","427196","0.0-7.0-1.16","60ce8efd3dc93c8607362691","bdp_wmem","Wed Mar 15 2023 23:28:45 GMT-0400 (Eastern Daylight Time)","760785","Match,No Match","","null","","","","","","<div class='trialBorder'><div class='vertical-center'><img src='img/fixation2_sml.jpg'</img></div></div>","null","FIX","","","","","","","","","","",""
"html-keyboard-response","116","431697","0.0-7.0-2.16","60ce8efd3dc93c8607362691","bdp_wmem","Wed Mar 15 2023 23:28:45 GMT-0400 (Eastern Daylight Time)","760785","Match,No Match","","null","","","","","","<div class='trialBorder'><div class='vertical-center'><img style='vertical-align:center; align:center' src='img/fixation2_sml.jpg'></div><div class='arrayDiv3'><div class='tl'><img class='introPic' src='trustrating_stim/white_mw010.bmp'><br><font color='red'><strong>Keep</strong></font></div><div class='tc'><img class='introPic' src='trustrating_stim/white_mw042.bmp'><br><font color='red'><strong>Keep</strong></font></div><div class='tr'><img class='introPic' src='trustrating_stim/white_mw085.bmp'><br><font color='green'><strong>Share</strong></font></div></div></div>","null","ARRAY","3","trustrating_stim/white_mw010.bmp,trustrating_stim/white_mw042.bmp,trustrating_stim/white_mw085.bmp","0,0,1","Match","e","4500","","","","",""
"html-keyboard-response","117","435699","0.0-7.0-3.16","60ce8efd3dc93c8607362691","bdp_wmem","Wed Mar 15 2023 23:28:45 GMT-0400 (Eastern Daylight Time)","760785","Match,No Match","","null","","","","","","<div class='trialBorder'><div class='vertical-center'><img src='img/fixation2_sml.jpg'</img></div></div>","null","DELAY","","","","","","","","","","",""
"html-keyboard-response","118","438119","0.0-7.0-4.16","60ce8efd3dc93c8607362691","bdp_wmem","Wed Mar 15 2023 23:28:45 GMT-0400 (Eastern Daylight Time)","760785","Match,No Match","","2420","","","","","","<div class='trialBorder'><div class='targDiv'><div class='tc'><img class='introPic' src='trustrating_stim/white_mw042.bmp'><br><font color='red'><strong>Keep</strong></font></div></div><div class='respDiv'><div class='respDivL'>Match<br>(e)</div><div class='respDivR'>No Match<br>(i)</div></div></div>","e","TARGET","3","trustrating_stim/white_mw010.bmp,trustrating_stim/white_mw042.bmp,trustrating_stim/white_mw085.bmp","0,0,1","Match","e","4500","trustrating_stim/white_mw042.bmp","red","Keep","REAL","1"
"html-keyboard-response","119","438620","0.0-7.0-5.16","60ce8efd3dc93c8607362691","bdp_wmem","Wed Mar 15 2023 23:28:45 GMT-0400 (Eastern Daylight Time)","760785","Match,No Match","","null","","","","","","<div class='trialBorder'><div class='vertical-center'><img src='img/correct.jpg'></div><div class='respDiv'><div class='respDivL'><font style='color:orange'>Match<br>(e)</font></div><div class='respDivR'>No Match<br>(i)</div></div></div>","null","FEEDBACK","","","","","","","","","","",""
"html-keyboard-response","120","439122","0.0-7.0-1.17","60ce8efd3dc93c8607362691","bdp_wmem","Wed Mar 15 2023 23:28:45 GMT-0400 (Eastern Daylight Time)","760785","Match,No Match","","null","","","","","","<div class='trialBorder'><div class='vertical-center'><img src='img/fixation2_sml.jpg'</img></div></div>","null","FIX","","","","","","","","","","",""
"html-keyboard-response","121","443627","0.0-7.0-2.17","60ce8efd3dc93c8607362691","bdp_wmem","Wed Mar 15 2023 23:28:45 GMT-0400 (Eastern Daylight Time)","760785","Match,No Match","","null","","","","","","<div class='trialBorder'><div class='vertical-center'><img style='vertical-align:center; align:center' src='img/fixation2_sml.jpg'></div><div class='arrayDiv3'><div class='tl'><img class='introPic' src='trustrating_stim/white_mw010.bmp'><br><font color='green'><strong>Share</strong></font></div><div class='tc'><img class='introPic' src='trustrating_stim/white_mw042.bmp'><br><font color='red'><strong>Keep</strong></font></div><div class='tr'><img class='introPic' src='trustrating_stim/white_mw092.bmp'><br><font color='green'><strong>Share</strong></font></div></div></div>","null","ARRAY","3","trustrating_stim/white_mw010.bmp,trustrating_stim/white_mw042.bmp,trustrating_stim/white_mw092.bmp","1,0,1","noMatchFace","i","4500","","","","",""
"html-keyboard-response","122","447629","0.0-7.0-3.17","60ce8efd3dc93c8607362691","bdp_wmem","Wed Mar 15 2023 23:28:45 GMT-0400 (Eastern Daylight Time)","760785","Match,No Match","","null","","","","","","<div class='trialBorder'><div class='vertical-center'><img src='img/fixation2_sml.jpg'</img></div></div>","null","DELAY","","","","","","","","","","",""
"html-keyboard-response","123","451191","0.0-7.0-4.17","60ce8efd3dc93c8607362691","bdp_wmem","Wed Mar 15 2023 23:28:45 GMT-0400 (Eastern Daylight Time)","760785","Match,No Match","","3561","","","","","","<div class='trialBorder'><div class='targDiv'><div class='tc'><img class='introPic' src='trustrating_stim/white_mw038.bmp'><br><font color='green'><strong>Share</strong></font></div></div><div class='respDiv'><div class='respDivL'>Match<br>(e)</div><div class='respDivR'>No Match<br>(i)</div></div></div>","e","TARGET","3","trustrating_stim/white_mw010.bmp,trustrating_stim/white_mw042.bmp,trustrating_stim/white_mw092.bmp","1,0,1","noMatchFace","i","4500","trustrating_stim/white_mw038.bmp","green","Share","REAL","0"
"html-keyboard-response","124","451692","0.0-7.0-5.17","60ce8efd3dc93c8607362691","bdp_wmem","Wed Mar 15 2023 23:28:45 GMT-0400 (Eastern Daylight Time)","760785","Match,No Match","","null","","","","","","<div class='trialBorder'><div class='vertical-center'><img src='img/error.jpg'></div><div class='respDiv'><div class='respDivL'><font style='color:orange'>Match<br>(e)</font></div><div class='respDivR'>No Match<br>(i)</div></div></div>","null","FEEDBACK","","","","","","","","","","",""
"html-keyboard-response","125","452195","0.0-7.0-1.18","60ce8efd3dc93c8607362691","bdp_wmem","Wed Mar 15 2023 23:28:45 GMT-0400 (Eastern Daylight Time)","760785","Match,No Match","","null","","","","","","<div class='trialBorder'><div class='vertical-center'><img src='img/fixation2_sml.jpg'</img></div></div>","null","FIX","","","","","","","","","","",""
"html-keyboard-response","126","453698","0.0-7.0-2.18","60ce8efd3dc93c8607362691","bdp_wmem","Wed Mar 15 2023 23:28:45 GMT-0400 (Eastern Daylight Time)","760785","Match,No Match","","null","","","","","","<div class='trialBorder'><div class='vertical-center'><img style='vertical-align:center; align:center' src='img/fixation2_sml.jpg'></div><div class='arrayDiv1'><div class='tc'><img class='introPic' src='trustrating_stim/white_mw091.bmp'><br><font color='green'><strong>Share</strong></font></div></div></div>","null","ARRAY","1","trustrating_stim/white_mw091.bmp","1","Match","e","1500","","","","",""
"html-keyboard-response","127","457699","0.0-7.0-3.18","60ce8efd3dc93c8607362691","bdp_wmem","Wed Mar 15 2023 23:28:45 GMT-0400 (Eastern Daylight Time)","760785","Match,No Match","","null","","","","","","<div class='trialBorder'><div class='vertical-center'><img src='img/fixation2_sml.jpg'</img></div></div>","null","DELAY","","","","","","","","","","",""
"html-keyboard-response","128","459094","0.0-7.0-4.18","60ce8efd3dc93c8607362691","bdp_wmem","Wed Mar 15 2023 23:28:45 GMT-0400 (Eastern Daylight Time)","760785","Match,No Match","","1394","","","","","","<div class='trialBorder'><div class='targDiv'><div class='tc'><img class='introPic' src='trustrating_stim/white_mw091.bmp'><br><font color='green'><strong>Share</strong></font></div></div><div class='respDiv'><div class='respDivL'>Match<br>(e)</div><div class='respDivR'>No Match<br>(i)</div></div></div>","e","TARGET","1","trustrating_stim/white_mw091.bmp","1","Match","e","1500","trustrating_stim/white_mw091.bmp","green","Share","REAL","1"
"html-keyboard-response","129","459596","0.0-7.0-5.18","60ce8efd3dc93c8607362691","bdp_wmem","Wed Mar 15 2023 23:28:45 GMT-0400 (Eastern Daylight Time)","760785","Match,No Match","","null","","","","","","<div class='trialBorder'><div class='vertical-center'><img src='img/correct.jpg'></div><div class='respDiv'><div class='respDivL'><font style='color:orange'>Match<br>(e)</font></div><div class='respDivR'>No Match<br>(i)</div></div></div>","null","FEEDBACK","","","","","","","","","","",""
"html-keyboard-response","130","460098","0.0-7.0-1.19","60ce8efd3dc93c8607362691","bdp_wmem","Wed Mar 15 2023 23:28:45 GMT-0400 (Eastern Daylight Time)","760785","Match,No Match","","null","","","","","","<div class='trialBorder'><div class='vertical-center'><img src='img/fixation2_sml.jpg'</img></div></div>","null","FIX","","","","","","","","","","",""
"html-keyboard-response","131","464599","0.0-7.0-2.19","60ce8efd3dc93c8607362691","bdp_wmem","Wed Mar 15 2023 23:28:45 GMT-0400 (Eastern Daylight Time)","760785","Match,No Match","","null","","","","","","<div class='trialBorder'><div class='vertical-center'><img style='vertical-align:center; align:center' src='img/fixation2_sml.jpg'></div><div class='arrayDiv3'><div class='tl'><img class='introPic' src='trustrating_stim/white_mw040.bmp'><br><font color='red'><strong>Keep</strong></font></div><div class='tc'><img class='introPic' src='trustrating_stim/white_mw042.bmp'><br><font color='red'><strong>Keep</strong></font></div><div class='tr'><img class='introPic' src='trustrating_stim/white_mw003.bmp'><br><font color='green'><strong>Share</strong></font></div></div></div>","null","ARRAY","3","trustrating_stim/white_mw040.bmp,trustrating_stim/white_mw042.bmp,trustrating_stim/white_mw003.bmp","0,0,1","Match","e","4500","","","","",""
"html-keyboard-response","132","468601","0.0-7.0-3.19","60ce8efd3dc93c8607362691","bdp_wmem","Wed Mar 15 2023 23:28:45 GMT-0400 (Eastern Daylight Time)","760785","Match,No Match","","null","","","","","","<div class='trialBorder'><div class='vertical-center'><img src='img/fixation2_sml.jpg'</img></div></div>","null","DELAY","","","","","","","","","","",""
"html-keyboard-response","133","472183","0.0-7.0-4.19","60ce8efd3dc93c8607362691","bdp_wmem","Wed Mar 15 2023 23:28:45 GMT-0400 (Eastern Daylight Time)","760785","Match,No Match","","3581","","","","","","<div class='trialBorder'><div class='targDiv'><div class='tc'><img class='introPic' src='trustrating_stim/white_mw042.bmp'><br><font color='red'><strong>Keep</strong></font></div></div><div class='respDiv'><div class='respDivL'>Match<br>(e)</div><div class='respDivR'>No Match<br>(i)</div></div></div>","e","TARGET","3","trustrating_stim/white_mw040.bmp,trustrating_stim/white_mw042.bmp,trustrating_stim/white_mw003.bmp","0,0,1","Match","e","4500","trustrating_stim/white_mw042.bmp","red","Keep","REAL","1"
"html-keyboard-response","134","472686","0.0-7.0-5.19","60ce8efd3dc93c8607362691","bdp_wmem","Wed Mar 15 2023 23:28:45 GMT-0400 (Eastern Daylight Time)","760785","Match,No Match","","null","","","","","","<div class='trialBorder'><div class='vertical-center'><img src='img/correct.jpg'></div><div class='respDiv'><div class='respDivL'><font style='color:orange'>Match<br>(e)</font></div><div class='respDivR'>No Match<br>(i)</div></div></div>","null","FEEDBACK","","","","","","","","","","",""
"html-keyboard-response","135","473187","0.0-7.0-1.20","60ce8efd3dc93c8607362691","bdp_wmem","Wed Mar 15 2023 23:28:45 GMT-0400 (Eastern Daylight Time)","760785","Match,No Match","","null","","","","","","<div class='trialBorder'><div class='vertical-center'><img src='img/fixation2_sml.jpg'</img></div></div>","null","FIX","","","","","","","","","","",""
"html-keyboard-response","136","474689","0.0-7.0-2.20","60ce8efd3dc93c8607362691","bdp_wmem","Wed Mar 15 2023 23:28:45 GMT-0400 (Eastern Daylight Time)","760785","Match,No Match","","null","","","","","","<div class='trialBorder'><div class='vertical-center'><img style='vertical-align:center; align:center' src='img/fixation2_sml.jpg'></div><div class='arrayDiv1'><div class='tc'><img class='introPic' src='trustrating_stim/white_mw078.bmp'><br><font color='red'><strong>Keep</strong></font></div></div></div>","null","ARRAY","1","trustrating_stim/white_mw078.bmp","0","noMatchFace","i","1500","","","","",""
"html-keyboard-response","137","478694","0.0-7.0-3.20","60ce8efd3dc93c8607362691","bdp_wmem","Wed Mar 15 2023 23:28:45 GMT-0400 (Eastern Daylight Time)","760785","Match,No Match","","null","","","","","","<div class='trialBorder'><div class='vertical-center'><img src='img/fixation2_sml.jpg'</img></div></div>","null","DELAY","","","","","","","","","","",""
"html-keyboard-response","138","480518","0.0-7.0-4.20","60ce8efd3dc93c8607362691","bdp_wmem","Wed Mar 15 2023 23:28:45 GMT-0400 (Eastern Daylight Time)","760785","Match,No Match","","1823","","","","","","<div class='trialBorder'><div class='targDiv'><div class='tc'><img class='introPic' src='trustrating_stim/white_mw042.bmp'><br><font color='red'><strong>Keep</strong></font></div></div><div class='respDiv'><div class='respDivL'>Match<br>(e)</div><div class='respDivR'>No Match<br>(i)</div></div></div>","i","TARGET","1","trustrating_stim/white_mw078.bmp","0","noMatchFace","i","1500","trustrating_stim/white_mw042.bmp","red","Keep","REAL","1"
"html-keyboard-response","139","481019","0.0-7.0-5.20","60ce8efd3dc93c8607362691","bdp_wmem","Wed Mar 15 2023 23:28:45 GMT-0400 (Eastern Daylight Time)","760785","Match,No Match","","null","","","","","","<div class='trialBorder'><div class='vertical-center'><img src='img/correct.jpg'></div><div class='respDiv'><div class='respDivL'>Match<br>(e)</div><div class='respDivR'><font style='color:orange'>No Match<br>(i)</font></div></div></div>","null","FEEDBACK","","","","","","","","","","",""
"html-keyboard-response","140","481521","0.0-7.0-1.21","60ce8efd3dc93c8607362691","bdp_wmem","Wed Mar 15 2023 23:28:45 GMT-0400 (Eastern Daylight Time)","760785","Match,No Match","","null","","","","","","<div class='trialBorder'><div class='vertical-center'><img src='img/fixation2_sml.jpg'</img></div></div>","null","FIX","","","","","","","","","","",""
"html-keyboard-response","141","484523","0.0-7.0-2.21","60ce8efd3dc93c8607362691","bdp_wmem","Wed Mar 15 2023 23:28:45 GMT-0400 (Eastern Daylight Time)","760785","Match,No Match","","null","","","","","","<div class='trialBorder'><div class='vertical-center'><img style='vertical-align:center; align:center' src='img/fixation2_sml.jpg'></div><div class='arrayDiv2'><div class='tl'><img class='introPic' src='trustrating_stim/white_mw038.bmp'><br><font color='red'><strong>Keep</strong></font></div><div class='tr'><img class='introPic' src='trustrating_stim/white_mw010.bmp'><br><font color='green'><strong>Share</strong></font></div></div></div>","null","ARRAY","2","trustrating_stim/white_mw038.bmp,trustrating_stim/white_mw010.bmp","0,1","noMatchOutcome","i","3000","","","","",""
"html-keyboard-response","142","488527","0.0-7.0-3.21","60ce8efd3dc93c8607362691","bdp_wmem","Wed Mar 15 2023 23:28:45 GMT-0400 (Eastern Daylight Time)","760785","Match,No Match","","null","","","","","","<div class='trialBorder'><div class='vertical-center'><img src='img/fixation2_sml.jpg'</img></div></div>","null","DELAY","","","","","","","","","","",""
"html-keyboard-response","143","490478","0.0-7.0-4.21","60ce8efd3dc93c8607362691","bdp_wmem","Wed Mar 15 2023 23:28:45 GMT-0400 (Eastern Daylight Time)","760785","Match,No Match","","1950","","","","","","<div class='trialBorder'><div class='targDiv'><div class='tc'><img class='introPic' src='trustrating_stim/white_mw010.bmp'><br><font color='red'><strong>Keep</strong></font></div></div><div class='respDiv'><div class='respDivL'>Match<br>(e)</div><div class='respDivR'>No Match<br>(i)</div></div></div>","i","TARGET","2","trustrating_stim/white_mw038.bmp,trustrating_stim/white_mw010.bmp","0,1","noMatchOutcome","i","3000","trustrating_stim/white_mw010.bmp","red","Keep","REAL","1"
"html-keyboard-response","144","490979","0.0-7.0-5.21","60ce8efd3dc93c8607362691","bdp_wmem","Wed Mar 15 2023 23:28:45 GMT-0400 (Eastern Daylight Time)","760785","Match,No Match","","null","","","","","","<div class='trialBorder'><div class='vertical-center'><img src='img/correct.jpg'></div><div class='respDiv'><div class='respDivL'>Match<br>(e)</div><div class='respDivR'><font style='color:orange'>No Match<br>(i)</font></div></div></div>","null","FEEDBACK","","","","","","","","","","",""
"html-keyboard-response","145","491482","0.0-7.0-1.22","60ce8efd3dc93c8607362691","bdp_wmem","Wed Mar 15 2023 23:28:45 GMT-0400 (Eastern Daylight Time)","760785","Match,No Match","","null","","","","","","<div class='trialBorder'><div class='vertical-center'><img src='img/fixation2_sml.jpg'</img></div></div>","null","FIX","","","","","","","","","","",""
"html-keyboard-response","146","494485","0.0-7.0-2.22","60ce8efd3dc93c8607362691","bdp_wmem","Wed Mar 15 2023 23:28:45 GMT-0400 (Eastern Daylight Time)","760785","Match,No Match","","null","","","","","","<div class='trialBorder'><div class='vertical-center'><img style='vertical-align:center; align:center' src='img/fixation2_sml.jpg'></div><div class='arrayDiv2'><div class='tl'><img class='introPic' src='trustrating_stim/white_mw078.bmp'><br><font color='green'><strong>Share</strong></font></div><div class='tr'><img class='introPic' src='trustrating_stim/white_mw092.bmp'><br><font color='red'><strong>Keep</strong></font></div></div></div>","null","ARRAY","2","trustrating_stim/white_mw078.bmp,trustrating_stim/white_mw092.bmp","1,0","Match","e","3000","","","","",""
"html-keyboard-response","147","498489","0.0-7.0-3.22","60ce8efd3dc93c8607362691","bdp_wmem","Wed Mar 15 2023 23:28:45 GMT-0400 (Eastern Daylight Time)","760785","Match,No Match","","null","","","","","","<div class='trialBorder'><div class='vertical-center'><img src='img/fixation2_sml.jpg'</img></div></div>","null","DELAY","","","","","","","","","","",""
"html-keyboard-response","148","499822","0.0-7.0-4.22","60ce8efd3dc93c8607362691","bdp_wmem","Wed Mar 15 2023 23:28:45 GMT-0400 (Eastern Daylight Time)","760785","Match,No Match","","1332","","","","","","<div class='trialBorder'><div class='targDiv'><div class='tc'><img class='introPic' src='trustrating_stim/white_mw078.bmp'><br><font color='green'><strong>Share</strong></font></div></div><div class='respDiv'><div class='respDivL'>Match<br>(e)</div><div class='respDivR'>No Match<br>(i)</div></div></div>","e","TARGET","2","trustrating_stim/white_mw078.bmp,trustrating_stim/white_mw092.bmp","1,0","Match","e","3000","trustrating_stim/white_mw078.bmp","green","Share","REAL","1"
"html-keyboard-response","149","500326","0.0-7.0-5.22","60ce8efd3dc93c8607362691","bdp_wmem","Wed Mar 15 2023 23:28:45 GMT-0400 (Eastern Daylight Time)","760785","Match,No Match","","null","","","","","","<div class='trialBorder'><div class='vertical-center'><img src='img/correct.jpg'></div><div class='respDiv'><div class='respDivL'><font style='color:orange'>Match<br>(e)</font></div><div class='respDivR'>No Match<br>(i)</div></div></div>","null","FEEDBACK","","","","","","","","","","",""
"html-keyboard-response","150","500831","0.0-7.0-1.23","60ce8efd3dc93c8607362691","bdp_wmem","Wed Mar 15 2023 23:28:45 GMT-0400 (Eastern Daylight Time)","760785","Match,No Match","","null","","","","","","<div class='trialBorder'><div class='vertical-center'><img src='img/fixation2_sml.jpg'</img></div></div>","null","FIX","","","","","","","","","","",""
"html-keyboard-response","151","503835","0.0-7.0-2.23","60ce8efd3dc93c8607362691","bdp_wmem","Wed Mar 15 2023 23:28:45 GMT-0400 (Eastern Daylight Time)","760785","Match,No Match","","null","","","","","","<div class='trialBorder'><div class='vertical-center'><img style='vertical-align:center; align:center' src='img/fixation2_sml.jpg'></div><div class='arrayDiv2'><div class='tl'><img class='introPic' src='trustrating_stim/white_mw012.bmp'><br><font color='green'><strong>Share</strong></font></div><div class='tr'><img class='introPic' src='trustrating_stim/white_mw013.bmp'><br><font color='red'><strong>Keep</strong></font></div></div></div>","null","ARRAY","2","trustrating_stim/white_mw012.bmp,trustrating_stim/white_mw013.bmp","1,0","Match","e","3000","","","","",""
"html-keyboard-response","152","507836","0.0-7.0-3.23","60ce8efd3dc93c8607362691","bdp_wmem","Wed Mar 15 2023 23:28:45 GMT-0400 (Eastern Daylight Time)","760785","Match,No Match","","null","","","","","","<div class='trialBorder'><div class='vertical-center'><img src='img/fixation2_sml.jpg'</img></div></div>","null","DELAY","","","","","","","","","","",""
"html-keyboard-response","153","510270","0.0-7.0-4.23","60ce8efd3dc93c8607362691","bdp_wmem","Wed Mar 15 2023 23:28:45 GMT-0400 (Eastern Daylight Time)","760785","Match,No Match","","2433","","","","","","<div class='trialBorder'><div class='targDiv'><div class='tc'><img class='introPic' src='trustrating_stim/white_mw013.bmp'><br><font color='red'><strong>Keep</strong></font></div></div><div class='respDiv'><div class='respDivL'>Match<br>(e)</div><div class='respDivR'>No Match<br>(i)</div></div></div>","e","TARGET","2","trustrating_stim/white_mw012.bmp,trustrating_stim/white_mw013.bmp","1,0","Match","e","3000","trustrating_stim/white_mw013.bmp","red","Keep","REAL","1"
"html-keyboard-response","154","510772","0.0-7.0-5.23","60ce8efd3dc93c8607362691","bdp_wmem","Wed Mar 15 2023 23:28:45 GMT-0400 (Eastern Daylight Time)","760785","Match,No Match","","null","","","","","","<div class='trialBorder'><div class='vertical-center'><img src='img/correct.jpg'></div><div class='respDiv'><div class='respDivL'><font style='color:orange'>Match<br>(e)</font></div><div class='respDivR'>No Match<br>(i)</div></div></div>","null","FEEDBACK","","","","","","","","","","",""
"html-keyboard-response","155","511274","0.0-7.0-1.24","60ce8efd3dc93c8607362691","bdp_wmem","Wed Mar 15 2023 23:28:45 GMT-0400 (Eastern Daylight Time)","760785","Match,No Match","","null","","","","","","<div class='trialBorder'><div class='vertical-center'><img src='img/fixation2_sml.jpg'</img></div></div>","null","FIX","","","","","","","","","","",""
"html-keyboard-response","156","514278","0.0-7.0-2.24","60ce8efd3dc93c8607362691","bdp_wmem","Wed Mar 15 2023 23:28:45 GMT-0400 (Eastern Daylight Time)","760785","Match,No Match","","null","","","","","","<div class='trialBorder'><div class='vertical-center'><img style='vertical-align:center; align:center' src='img/fixation2_sml.jpg'></div><div class='arrayDiv2'><div class='tl'><img class='introPic' src='trustrating_stim/white_mw013.bmp'><br><font color='red'><strong>Keep</strong></font></div><div class='tr'><img class='introPic' src='trustrating_stim/white_mw085.bmp'><br><font color='green'><strong>Share</strong></font></div></div></div>","null","ARRAY","2","trustrating_stim/white_mw013.bmp,trustrating_stim/white_mw085.bmp","0,1","noMatchFace","i","3000","","","","",""
"html-keyboard-response","157","518279","0.0-7.0-3.24","60ce8efd3dc93c8607362691","bdp_wmem","Wed Mar 15 2023 23:28:45 GMT-0400 (Eastern Daylight Time)","760785","Match,No Match","","null","","","","","","<div class='trialBorder'><div class='vertical-center'><img src='img/fixation2_sml.jpg'</img></div></div>","null","DELAY","","","","","","","","","","",""
"html-keyboard-response","158","520374","0.0-7.0-4.24","60ce8efd3dc93c8607362691","bdp_wmem","Wed Mar 15 2023 23:28:45 GMT-0400 (Eastern Daylight Time)","760785","Match,No Match","","2093","","","","","","<div class='trialBorder'><div class='targDiv'><div class='tc'><img class='introPic' src='trustrating_stim/white_mw038.bmp'><br><font color='green'><strong>Share</strong></font></div></div><div class='respDiv'><div class='respDivL'>Match<br>(e)</div><div class='respDivR'>No Match<br>(i)</div></div></div>","i","TARGET","2","trustrating_stim/white_mw013.bmp,trustrating_stim/white_mw085.bmp","0,1","noMatchFace","i","3000","trustrating_stim/white_mw038.bmp","green","Share","REAL","1"
"html-keyboard-response","159","520875","0.0-7.0-5.24","60ce8efd3dc93c8607362691","bdp_wmem","Wed Mar 15 2023 23:28:45 GMT-0400 (Eastern Daylight Time)","760785","Match,No Match","","null","","","","","","<div class='trialBorder'><div class='vertical-center'><img src='img/correct.jpg'></div><div class='respDiv'><div class='respDivL'>Match<br>(e)</div><div class='respDivR'><font style='color:orange'>No Match<br>(i)</font></div></div></div>","null","FEEDBACK","","","","","","","","","","",""
"html-keyboard-response","160","521377","0.0-7.0-1.25","60ce8efd3dc93c8607362691","bdp_wmem","Wed Mar 15 2023 23:28:45 GMT-0400 (Eastern Daylight Time)","760785","Match,No Match","","null","","","","","","<div class='trialBorder'><div class='vertical-center'><img src='img/fixation2_sml.jpg'</img></div></div>","null","FIX","","","","","","","","","","",""
"html-keyboard-response","161","522881","0.0-7.0-2.25","60ce8efd3dc93c8607362691","bdp_wmem","Wed Mar 15 2023 23:28:45 GMT-0400 (Eastern Daylight Time)","760785","Match,No Match","","null","","","","","","<div class='trialBorder'><div class='vertical-center'><img style='vertical-align:center; align:center' src='img/fixation2_sml.jpg'></div><div class='arrayDiv1'><div class='tc'><img class='introPic' src='trustrating_stim/white_mw078.bmp'><br><font color='red'><strong>Keep</strong></font></div></div></div>","null","ARRAY","1","trustrating_stim/white_mw078.bmp","0","noMatchFace","i","1500","","","","",""
"html-keyboard-response","162","526883","0.0-7.0-3.25","60ce8efd3dc93c8607362691","bdp_wmem","Wed Mar 15 2023 23:28:45 GMT-0400 (Eastern Daylight Time)","760785","Match,No Match","","null","","","","","","<div class='trialBorder'><div class='vertical-center'><img src='img/fixation2_sml.jpg'</img></div></div>","null","DELAY","","","","","","","","","","",""
"html-keyboard-response","163","528069","0.0-7.0-4.25","60ce8efd3dc93c8607362691","bdp_wmem","Wed Mar 15 2023 23:28:45 GMT-0400 (Eastern Daylight Time)","760785","Match,No Match","","1185","","","","","","<div class='trialBorder'><div class='targDiv'><div class='tc'><img class='introPic' src='trustrating_stim/white_mw010.bmp'><br><font color='red'><strong>Keep</strong></font></div></div><div class='respDiv'><div class='respDivL'>Match<br>(e)</div><div class='respDivR'>No Match<br>(i)</div></div></div>","i","TARGET","1","trustrating_stim/white_mw078.bmp","0","noMatchFace","i","1500","trustrating_stim/white_mw010.bmp","red","Keep","REAL","1"
"html-keyboard-response","164","528570","0.0-7.0-5.25","60ce8efd3dc93c8607362691","bdp_wmem","Wed Mar 15 2023 23:28:45 GMT-0400 (Eastern Daylight Time)","760785","Match,No Match","","null","","","","","","<div class='trialBorder'><div class='vertical-center'><img src='img/correct.jpg'></div><div class='respDiv'><div class='respDivL'>Match<br>(e)</div><div class='respDivR'><font style='color:orange'>No Match<br>(i)</font></div></div></div>","null","FEEDBACK","","","","","","","","","","",""
"html-keyboard-response","165","529071","0.0-7.0-1.26","60ce8efd3dc93c8607362691","bdp_wmem","Wed Mar 15 2023 23:28:45 GMT-0400 (Eastern Daylight Time)","760785","Match,No Match","","null","","","","","","<div class='trialBorder'><div class='vertical-center'><img src='img/fixation2_sml.jpg'</img></div></div>","null","FIX","","","","","","","","","","",""
"html-keyboard-response","166","530574","0.0-7.0-2.26","60ce8efd3dc93c8607362691","bdp_wmem","Wed Mar 15 2023 23:28:45 GMT-0400 (Eastern Daylight Time)","760785","Match,No Match","","null","","","","","","<div class='trialBorder'><div class='vertical-center'><img style='vertical-align:center; align:center' src='img/fixation2_sml.jpg'></div><div class='arrayDiv1'><div class='tc'><img class='introPic' src='trustrating_stim/white_mw038.bmp'><br><font color='red'><strong>Keep</strong></font></div></div></div>","null","ARRAY","1","trustrating_stim/white_mw038.bmp","0","Match","e","1500","","","","",""
"html-keyboard-response","167","534578","0.0-7.0-3.26","60ce8efd3dc93c8607362691","bdp_wmem","Wed Mar 15 2023 23:28:45 GMT-0400 (Eastern Daylight Time)","760785","Match,No Match","","null","","","","","","<div class='trialBorder'><div class='vertical-center'><img src='img/fixation2_sml.jpg'</img></div></div>","null","DELAY","","","","","","","","","","",""
"html-keyboard-response","168","536230","0.0-7.0-4.26","60ce8efd3dc93c8607362691","bdp_wmem","Wed Mar 15 2023 23:28:45 GMT-0400 (Eastern Daylight Time)","760785","Match,No Match","","1651","","","","","","<div class='trialBorder'><div class='targDiv'><div class='tc'><img class='introPic' src='trustrating_stim/white_mw038.bmp'><br><font color='red'><strong>Keep</strong></font></div></div><div class='respDiv'><div class='respDivL'>Match<br>(e)</div><div class='respDivR'>No Match<br>(i)</div></div></div>","e","TARGET","1","trustrating_stim/white_mw038.bmp","0","Match","e","1500","trustrating_stim/white_mw038.bmp","red","Keep","REAL","1"
"html-keyboard-response","169","536731","0.0-7.0-5.26","60ce8efd3dc93c8607362691","bdp_wmem","Wed Mar 15 2023 23:28:45 GMT-0400 (Eastern Daylight Time)","760785","Match,No Match","","null","","","","","","<div class='trialBorder'><div class='vertical-center'><img src='img/correct.jpg'></div><div class='respDiv'><div class='respDivL'><font style='color:orange'>Match<br>(e)</font></div><div class='respDivR'>No Match<br>(i)</div></div></div>","null","FEEDBACK","","","","","","","","","","",""
"html-keyboard-response","170","537233","0.0-7.0-1.27","60ce8efd3dc93c8607362691","bdp_wmem","Wed Mar 15 2023 23:28:45 GMT-0400 (Eastern Daylight Time)","760785","Match,No Match","","null","","","","","","<div class='trialBorder'><div class='vertical-center'><img src='img/fixation2_sml.jpg'</img></div></div>","null","FIX","","","","","","","","","","",""
"html-keyboard-response","171","541735","0.0-7.0-2.27","60ce8efd3dc93c8607362691","bdp_wmem","Wed Mar 15 2023 23:28:45 GMT-0400 (Eastern Daylight Time)","760785","Match,No Match","","null","","","","","","<div class='trialBorder'><div class='vertical-center'><img style='vertical-align:center; align:center' src='img/fixation2_sml.jpg'></div><div class='arrayDiv3'><div class='tl'><img class='introPic' src='trustrating_stim/white_mw070.bmp'><br><font color='green'><strong>Share</strong></font></div><div class='tc'><img class='introPic' src='trustrating_stim/white_mw013.bmp'><br><font color='green'><strong>Share</strong></font></div><div class='tr'><img class='introPic' src='trustrating_stim/white_mw091.bmp'><br><font color='red'><strong>Keep</strong></font></div></div></div>","null","ARRAY","3","trustrating_stim/white_mw070.bmp,trustrating_stim/white_mw013.bmp,trustrating_stim/white_mw091.bmp","1,1,0","Match","e","4500","","","","",""
"html-keyboard-response","172","545736","0.0-7.0-3.27","60ce8efd3dc93c8607362691","bdp_wmem","Wed Mar 15 2023 23:28:45 GMT-0400 (Eastern Daylight Time)","760785","Match,No Match","","null","","","","","","<div class='trialBorder'><div class='vertical-center'><img src='img/fixation2_sml.jpg'</img></div></div>","null","DELAY","","","","","","","","","","",""
"html-keyboard-response","173","548062","0.0-7.0-4.27","60ce8efd3dc93c8607362691","bdp_wmem","Wed Mar 15 2023 23:28:45 GMT-0400 (Eastern Daylight Time)","760785","Match,No Match","","2324","","","","","","<div class='trialBorder'><div class='targDiv'><div class='tc'><img class='introPic' src='trustrating_stim/white_mw013.bmp'><br><font color='green'><strong>Share</strong></font></div></div><div class='respDiv'><div class='respDivL'>Match<br>(e)</div><div class='respDivR'>No Match<br>(i)</div></div></div>","e","TARGET","3","trustrating_stim/white_mw070.bmp,trustrating_stim/white_mw013.bmp,trustrating_stim/white_mw091.bmp","1,1,0","Match","e","4500","trustrating_stim/white_mw013.bmp","green","Share","REAL","1"
"html-keyboard-response","174","548563","0.0-7.0-5.27","60ce8efd3dc93c8607362691","bdp_wmem","Wed Mar 15 2023 23:28:45 GMT-0400 (Eastern Daylight Time)","760785","Match,No Match","","null","","","","","","<div class='trialBorder'><div class='vertical-center'><img src='img/correct.jpg'></div><div class='respDiv'><div class='respDivL'><font style='color:orange'>Match<br>(e)</font></div><div class='respDivR'>No Match<br>(i)</div></div></div>","null","FEEDBACK","","","","","","","","","","",""
"html-keyboard-response","175","549065","0.0-7.0-1.28","60ce8efd3dc93c8607362691","bdp_wmem","Wed Mar 15 2023 23:28:45 GMT-0400 (Eastern Daylight Time)","760785","Match,No Match","","null","","","","","","<div class='trialBorder'><div class='vertical-center'><img src='img/fixation2_sml.jpg'</img></div></div>","null","FIX","","","","","","","","","","",""
"html-keyboard-response","176","553567","0.0-7.0-2.28","60ce8efd3dc93c8607362691","bdp_wmem","Wed Mar 15 2023 23:28:45 GMT-0400 (Eastern Daylight Time)","760785","Match,No Match","","null","","","","","","<div class='trialBorder'><div class='vertical-center'><img style='vertical-align:center; align:center' src='img/fixation2_sml.jpg'></div><div class='arrayDiv3'><div class='tl'><img class='introPic' src='trustrating_stim/white_mw085.bmp'><br><font color='green'><strong>Share</strong></font></div><div class='tc'><img class='introPic' src='trustrating_stim/white_mw070.bmp'><br><font color='green'><strong>Share</strong></font></div><div class='tr'><img class='introPic' src='trustrating_stim/white_mw040.bmp'><br><font color='red'><strong>Keep</strong></font></div></div></div>","null","ARRAY","3","trustrating_stim/white_mw085.bmp,trustrating_stim/white_mw070.bmp,trustrating_stim/white_mw040.bmp","1,1,0","noMatchOutcome","i","4500","","","","",""
"html-keyboard-response","177","557571","0.0-7.0-3.28","60ce8efd3dc93c8607362691","bdp_wmem","Wed Mar 15 2023 23:28:45 GMT-0400 (Eastern Daylight Time)","760785","Match,No Match","","null","","","","","","<div class='trialBorder'><div class='vertical-center'><img src='img/fixation2_sml.jpg'</img></div></div>","null","DELAY","","","","","","","","","","",""
"html-keyboard-response","178","560765","0.0-7.0-4.28","60ce8efd3dc93c8607362691","bdp_wmem","Wed Mar 15 2023 23:28:45 GMT-0400 (Eastern Daylight Time)","760785","Match,No Match","","3193","","","","","","<div class='trialBorder'><div class='targDiv'><div class='tc'><img class='introPic' src='trustrating_stim/white_mw040.bmp'><br><font color='green'><strong>Share</strong></font></div></div><div class='respDiv'><div class='respDivL'>Match<br>(e)</div><div class='respDivR'>No Match<br>(i)</div></div></div>","i","TARGET","3","trustrating_stim/white_mw085.bmp,trustrating_stim/white_mw070.bmp,trustrating_stim/white_mw040.bmp","1,1,0","noMatchOutcome","i","4500","trustrating_stim/white_mw040.bmp","green","Share","REAL","1"
"html-keyboard-response","179","561266","0.0-7.0-5.28","60ce8efd3dc93c8607362691","bdp_wmem","Wed Mar 15 2023 23:28:45 GMT-0400 (Eastern Daylight Time)","760785","Match,No Match","","null","","","","","","<div class='trialBorder'><div class='vertical-center'><img src='img/correct.jpg'></div><div class='respDiv'><div class='respDivL'>Match<br>(e)</div><div class='respDivR'><font style='color:orange'>No Match<br>(i)</font></div></div></div>","null","FEEDBACK","","","","","","","","","","",""
"html-keyboard-response","180","561768","0.0-7.0-1.29","60ce8efd3dc93c8607362691","bdp_wmem","Wed Mar 15 2023 23:28:45 GMT-0400 (Eastern Daylight Time)","760785","Match,No Match","","null","","","","","","<div class='trialBorder'><div class='vertical-center'><img src='img/fixation2_sml.jpg'</img></div></div>","null","FIX","","","","","","","","","","",""
"html-keyboard-response","181","566272","0.0-7.0-2.29","60ce8efd3dc93c8607362691","bdp_wmem","Wed Mar 15 2023 23:28:45 GMT-0400 (Eastern Daylight Time)","760785","Match,No Match","","null","","","","","","<div class='trialBorder'><div class='vertical-center'><img style='vertical-align:center; align:center' src='img/fixation2_sml.jpg'></div><div class='arrayDiv3'><div class='tl'><img class='introPic' src='trustrating_stim/white_mw010.bmp'><br><font color='green'><strong>Share</strong></font></div><div class='tc'><img class='introPic' src='trustrating_stim/white_mw013.bmp'><br><font color='green'><strong>Share</strong></font></div><div class='tr'><img class='introPic' src='trustrating_stim/white_mw091.bmp'><br><font color='red'><strong>Keep</strong></font></div></div></div>","null","ARRAY","3","trustrating_stim/white_mw010.bmp,trustrating_stim/white_mw013.bmp,trustrating_stim/white_mw091.bmp","1,1,0","Match","e","4500","","","","",""
"html-keyboard-response","182","570274","0.0-7.0-3.29","60ce8efd3dc93c8607362691","bdp_wmem","Wed Mar 15 2023 23:28:45 GMT-0400 (Eastern Daylight Time)","760785","Match,No Match","","null","","","","","","<div class='trialBorder'><div class='vertical-center'><img src='img/fixation2_sml.jpg'</img></div></div>","null","DELAY","","","","","","","","","","",""
"html-keyboard-response","183","573013","0.0-7.0-4.29","60ce8efd3dc93c8607362691","bdp_wmem","Wed Mar 15 2023 23:28:45 GMT-0400 (Eastern Daylight Time)","760785","Match,No Match","","2737","","","","","","<div class='trialBorder'><div class='targDiv'><div class='tc'><img class='introPic' src='trustrating_stim/white_mw010.bmp'><br><font color='green'><strong>Share</strong></font></div></div><div class='respDiv'><div class='respDivL'>Match<br>(e)</div><div class='respDivR'>No Match<br>(i)</div></div></div>","e","TARGET","3","trustrating_stim/white_mw010.bmp,trustrating_stim/white_mw013.bmp,trustrating_stim/white_mw091.bmp","1,1,0","Match","e","4500","trustrating_stim/white_mw010.bmp","green","Share","REAL","1"
"html-keyboard-response","184","573514","0.0-7.0-5.29","60ce8efd3dc93c8607362691","bdp_wmem","Wed Mar 15 2023 23:28:45 GMT-0400 (Eastern Daylight Time)","760785","Match,No Match","","null","","","","","","<div class='trialBorder'><div class='vertical-center'><img src='img/correct.jpg'></div><div class='respDiv'><div class='respDivL'><font style='color:orange'>Match<br>(e)</font></div><div class='respDivR'>No Match<br>(i)</div></div></div>","null","FEEDBACK","","","","","","","","","","",""
"html-keyboard-response","185","574016","0.0-7.0-1.30","60ce8efd3dc93c8607362691","bdp_wmem","Wed Mar 15 2023 23:28:45 GMT-0400 (Eastern Daylight Time)","760785","Match,No Match","","null","","","","","","<div class='trialBorder'><div class='vertical-center'><img src='img/fixation2_sml.jpg'</img></div></div>","null","FIX","","","","","","","","","","",""
"html-keyboard-response","186","578521","0.0-7.0-2.30","60ce8efd3dc93c8607362691","bdp_wmem","Wed Mar 15 2023 23:28:45 GMT-0400 (Eastern Daylight Time)","760785","Match,No Match","","null","","","","","","<div class='trialBorder'><div class='vertical-center'><img style='vertical-align:center; align:center' src='img/fixation2_sml.jpg'></div><div class='arrayDiv3'><div class='tl'><img class='introPic' src='trustrating_stim/white_mw078.bmp'><br><font color='red'><strong>Keep</strong></font></div><div class='tc'><img class='introPic' src='trustrating_stim/white_mw070.bmp'><br><font color='green'><strong>Share</strong></font></div><div class='tr'><img class='introPic' src='trustrating_stim/white_mw091.bmp'><br><font color='red'><strong>Keep</strong></font></div></div></div>","null","ARRAY","3","trustrating_stim/white_mw078.bmp,trustrating_stim/white_mw070.bmp,trustrating_stim/white_mw091.bmp","0,1,0","noMatchOutcome","i","4500","","","","",""
"html-keyboard-response","187","582523","0.0-7.0-3.30","60ce8efd3dc93c8607362691","bdp_wmem","Wed Mar 15 2023 23:28:45 GMT-0400 (Eastern Daylight Time)","760785","Match,No Match","","null","","","","","","<div class='trialBorder'><div class='vertical-center'><img src='img/fixation2_sml.jpg'</img></div></div>","null","DELAY","","","","","","","","","","",""
