"trial_type","trial_index","time_elapsed","internal_node_id","subject_id","task","startTime","totalTime","labels","view_history","rt","event","trial","time","trialtype","success","stimulus","key_press","stimType","arraySize","arrayFaces","arrayOutcomes","matchType","corrResp","arrayDur","targFace","targCol","targOutcome","trialType","corr"
"pavlovia","0","1","0.0-0.0","560ce65601c38a0012769e20","bdp_wmem","Mon Mar 13 2023 14:57:30 GMT-0400 (Eastern Daylight Time)","803116","Match,No Match","","","","","","","","","","","","","","","","","","","","",""
"instructions","1","1969","0.0-1.0","560ce65601c38a0012769e20","bdp_wmem","Mon Mar 13 2023 14:57:30 GMT-0400 (Eastern Daylight Time)","803116","Match,No Match","[{""page_index"":0,""viewing_time"":1968}]","1968","","","","","","","","","","","","","","","","","","",""
"","","","","560ce65601c38a0012769e20","bdp_wmem","Mon Mar 13 2023 14:57:30 GMT-0400 (Eastern Daylight Time)","803116","Match,No Match","","","fullscreenenter","2","4061","fullscreenenter","","","","","","","","","","","","","","",""
"fullscreen","2","5038","0.0-2.0","560ce65601c38a0012769e20","bdp_wmem","Mon Mar 13 2023 14:57:30 GMT-0400 (Eastern Daylight Time)","803116","Match,No Match","","","","","","","true","","","","","","","","","","","","","",""
"instructions","3","211888","0.0-4.0","560ce65601c38a0012769e20","bdp_wmem","Mon Mar 13 2023 14:57:30 GMT-0400 (Eastern Daylight Time)","803116","Match,No Match","[{""page_index"":0,""viewing_time"":79434},{""page_index"":1,""viewing_time"":51025},{""page_index"":2,""viewing_time"":46482},{""page_index"":3,""viewing_time"":17790},{""page_index"":4,""viewing_time"":12119}]","206850","","","","","","","","","","","","","","","","","","",""
"html-keyboard-response","4","212397","0.0-5.0-1.0","560ce65601c38a0012769e20","bdp_wmem","Mon Mar 13 2023 14:57:30 GMT-0400 (Eastern Daylight Time)","803116","Match,No Match","","null","","","","","","<div class='trialBorder'><div class='vertical-center'><img src='img/fixation2_sml.jpg'</img></div></div>","null","FIX","","","","","","","","","","",""
"html-keyboard-response","5","213904","0.0-5.0-2.0","560ce65601c38a0012769e20","bdp_wmem","Mon Mar 13 2023 14:57:30 GMT-0400 (Eastern Daylight Time)","803116","Match,No Match","","null","","","","","","<div class='trialBorder'><div class='vertical-center'><img style='vertical-align:center; align:center' src='img/fixation2_sml.jpg'></div><div class='arrayDiv1'><div class='tc'><img class='introPic' src='trustrating_stim/white_mw003.bmp'><br><font color='green'><strong>Share</strong></font></div></div></div>","null","ARRAY","1","trustrating_stim/white_mw003.bmp","1","Match","e","1500","","","","",""
"html-keyboard-response","6","218631","0.0-5.0-3.0","560ce65601c38a0012769e20","bdp_wmem","Mon Mar 13 2023 14:57:30 GMT-0400 (Eastern Daylight Time)","803116","Match,No Match","","null","","","","","","<div class='trialBorder'><div class='vertical-center'><img src='img/fixation2_sml.jpg'</img></div></div>","null","DELAY","","","","","","","","","","",""
"html-keyboard-response","7","220233","0.0-5.0-4.0","560ce65601c38a0012769e20","bdp_wmem","Mon Mar 13 2023 14:57:30 GMT-0400 (Eastern Daylight Time)","803116","Match,No Match","","1600","","","","","","<div class='trialBorder'><div class='targDiv'><div class='tc'><img class='introPic' src='trustrating_stim/white_mw003.bmp'><br><font color='green'><strong>Share</strong></font></div></div><div class='respDiv'><div class='respDivL'>Match<br>(e)</div><div class='respDivR'>No Match<br>(i)</div></div></div>","e","TARGET","1","trustrating_stim/white_mw003.bmp","1","Match","e","1500","trustrating_stim/white_mw003.bmp","green","Share","PRACTICE","1"
"html-keyboard-response","8","220736","0.0-5.0-5.0","560ce65601c38a0012769e20","bdp_wmem","Mon Mar 13 2023 14:57:30 GMT-0400 (Eastern Daylight Time)","803116","Match,No Match","","null","","","","","","<div class='trialBorder'><div class='vertical-center'><img src='img/correct.jpg'></div><div class='respDiv'><div class='respDivL'><font style='color:orange'>Match<br>(e)</font></div><div class='respDivR'>No Match<br>(i)</div></div></div>","null","FEEDBACK","","","","","","","","","","",""
"html-keyboard-response","9","221239","0.0-5.0-1.1","560ce65601c38a0012769e20","bdp_wmem","Mon Mar 13 2023 14:57:30 GMT-0400 (Eastern Daylight Time)","803116","Match,No Match","","null","","","","","","<div class='trialBorder'><div class='vertical-center'><img src='img/fixation2_sml.jpg'</img></div></div>","null","FIX","","","","","","","","","","",""
"html-keyboard-response","10","226626","0.0-5.0-2.1","560ce65601c38a0012769e20","bdp_wmem","Mon Mar 13 2023 14:57:30 GMT-0400 (Eastern Daylight Time)","803116","Match,No Match","","null","","","","","","<div class='trialBorder'><div class='vertical-center'><img style='vertical-align:center; align:center' src='img/fixation2_sml.jpg'></div><div class='arrayDiv3'><div class='tl'><img class='introPic' src='trustrating_stim/white_mw010.bmp'><br><font color='green'><strong>Share</strong></font></div><div class='tc'><img class='introPic' src='trustrating_stim/white_mw091.bmp'><br><font color='red'><strong>Keep</strong></font></div><div class='tr'><img class='introPic' src='trustrating_stim/white_mw038.bmp'><br><font color='green'><strong>Share</strong></font></div></div></div>","null","ARRAY","3","trustrating_stim/white_mw010.bmp,trustrating_stim/white_mw091.bmp,trustrating_stim/white_mw038.bmp","1,0,1","Match","e","4500","","","","",""
"html-keyboard-response","11","231619","0.0-5.0-3.1","560ce65601c38a0012769e20","bdp_wmem","Mon Mar 13 2023 14:57:30 GMT-0400 (Eastern Daylight Time)","803116","Match,No Match","","null","","","","","","<div class='trialBorder'><div class='vertical-center'><img src='img/fixation2_sml.jpg'</img></div></div>","null","DELAY","","","","","","","","","","",""
"html-keyboard-response","12","233409","0.0-5.0-4.1","560ce65601c38a0012769e20","bdp_wmem","Mon Mar 13 2023 14:57:30 GMT-0400 (Eastern Daylight Time)","803116","Match,No Match","","1788","","","","","","<div class='trialBorder'><div class='targDiv'><div class='tc'><img class='introPic' src='trustrating_stim/white_mw010.bmp'><br><font color='green'><strong>Share</strong></font></div></div><div class='respDiv'><div class='respDivL'>Match<br>(e)</div><div class='respDivR'>No Match<br>(i)</div></div></div>","i","TARGET","3","trustrating_stim/white_mw010.bmp,trustrating_stim/white_mw091.bmp,trustrating_stim/white_mw038.bmp","1,0,1","Match","e","4500","trustrating_stim/white_mw010.bmp","green","Share","PRACTICE","0"
"html-keyboard-response","13","233912","0.0-5.0-5.1","560ce65601c38a0012769e20","bdp_wmem","Mon Mar 13 2023 14:57:30 GMT-0400 (Eastern Daylight Time)","803116","Match,No Match","","null","","","","","","<div class='trialBorder'><div class='vertical-center'><img src='img/error.jpg'></div><div class='respDiv'><div class='respDivL'>Match<br>(e)</div><div class='respDivR'><font style='color:orange'>No Match<br>(i)</font></div></div></div>","null","FEEDBACK","","","","","","","","","","",""
"html-keyboard-response","14","234414","0.0-5.0-1.2","560ce65601c38a0012769e20","bdp_wmem","Mon Mar 13 2023 14:57:30 GMT-0400 (Eastern Daylight Time)","803116","Match,No Match","","null","","","","","","<div class='trialBorder'><div class='vertical-center'><img src='img/fixation2_sml.jpg'</img></div></div>","null","FIX","","","","","","","","","","",""
"html-keyboard-response","15","235921","0.0-5.0-2.2","560ce65601c38a0012769e20","bdp_wmem","Mon Mar 13 2023 14:57:30 GMT-0400 (Eastern Daylight Time)","803116","Match,No Match","","null","","","","","","<div class='trialBorder'><div class='vertical-center'><img style='vertical-align:center; align:center' src='img/fixation2_sml.jpg'></div><div class='arrayDiv1'><div class='tc'><img class='introPic' src='trustrating_stim/white_mw010.bmp'><br><font color='red'><strong>Keep</strong></font></div></div></div>","null","ARRAY","1","trustrating_stim/white_mw010.bmp","0","noMatchFace","i","1500","","","","",""
"html-keyboard-response","16","240632","0.0-5.0-3.2","560ce65601c38a0012769e20","bdp_wmem","Mon Mar 13 2023 14:57:30 GMT-0400 (Eastern Daylight Time)","803116","Match,No Match","","null","","","","","","<div class='trialBorder'><div class='vertical-center'><img src='img/fixation2_sml.jpg'</img></div></div>","null","DELAY","","","","","","","","","","",""
"html-keyboard-response","17","244356","0.0-5.0-4.2","560ce65601c38a0012769e20","bdp_wmem","Mon Mar 13 2023 14:57:30 GMT-0400 (Eastern Daylight Time)","803116","Match,No Match","","3721","","","","","","<div class='trialBorder'><div class='targDiv'><div class='tc'><img class='introPic' src='trustrating_stim/white_mw085.bmp'><br><font color='red'><strong>Keep</strong></font></div></div><div class='respDiv'><div class='respDivL'>Match<br>(e)</div><div class='respDivR'>No Match<br>(i)</div></div></div>","i","TARGET","1","trustrating_stim/white_mw010.bmp","0","noMatchFace","i","1500","trustrating_stim/white_mw085.bmp","red","Keep","PRACTICE","1"
"html-keyboard-response","18","244857","0.0-5.0-5.2","560ce65601c38a0012769e20","bdp_wmem","Mon Mar 13 2023 14:57:30 GMT-0400 (Eastern Daylight Time)","803116","Match,No Match","","null","","","","","","<div class='trialBorder'><div class='vertical-center'><img src='img/correct.jpg'></div><div class='respDiv'><div class='respDivL'>Match<br>(e)</div><div class='respDivR'><font style='color:orange'>No Match<br>(i)</font></div></div></div>","null","FEEDBACK","","","","","","","","","","",""
"html-keyboard-response","19","245360","0.0-5.0-1.3","560ce65601c38a0012769e20","bdp_wmem","Mon Mar 13 2023 14:57:30 GMT-0400 (Eastern Daylight Time)","803116","Match,No Match","","null","","","","","","<div class='trialBorder'><div class='vertical-center'><img src='img/fixation2_sml.jpg'</img></div></div>","null","FIX","","","","","","","","","","",""
"html-keyboard-response","20","248375","0.0-5.0-2.3","560ce65601c38a0012769e20","bdp_wmem","Mon Mar 13 2023 14:57:30 GMT-0400 (Eastern Daylight Time)","803116","Match,No Match","","null","","","","","","<div class='trialBorder'><div class='vertical-center'><img style='vertical-align:center; align:center' src='img/fixation2_sml.jpg'></div><div class='arrayDiv2'><div class='tl'><img class='introPic' src='trustrating_stim/white_mw085.bmp'><br><font color='red'><strong>Keep</strong></font></div><div class='tr'><img class='introPic' src='trustrating_stim/white_mw003.bmp'><br><font color='green'><strong>Share</strong></font></div></div></div>","null","ARRAY","2","trustrating_stim/white_mw085.bmp,trustrating_stim/white_mw003.bmp","0,1","noMatchFace","i","3000","","","","",""
"html-keyboard-response","21","252631","0.0-5.0-3.3","560ce65601c38a0012769e20","bdp_wmem","Mon Mar 13 2023 14:57:30 GMT-0400 (Eastern Daylight Time)","803116","Match,No Match","","null","","","","","","<div class='trialBorder'><div class='vertical-center'><img src='img/fixation2_sml.jpg'</img></div></div>","null","DELAY","","","","","","","","","","",""
"html-keyboard-response","22","253626","0.0-5.0-4.3","560ce65601c38a0012769e20","bdp_wmem","Mon Mar 13 2023 14:57:30 GMT-0400 (Eastern Daylight Time)","803116","Match,No Match","","994","","","","","","<div class='trialBorder'><div class='targDiv'><div class='tc'><img class='introPic' src='trustrating_stim/white_mw042.bmp'><br><font color='green'><strong>Share</strong></font></div></div><div class='respDiv'><div class='respDivL'>Match<br>(e)</div><div class='respDivR'>No Match<br>(i)</div></div></div>","i","TARGET","2","trustrating_stim/white_mw085.bmp,trustrating_stim/white_mw003.bmp","0,1","noMatchFace","i","3000","trustrating_stim/white_mw042.bmp","green","Share","PRACTICE","1"
"html-keyboard-response","23","254140","0.0-5.0-5.3","560ce65601c38a0012769e20","bdp_wmem","Mon Mar 13 2023 14:57:30 GMT-0400 (Eastern Daylight Time)","803116","Match,No Match","","null","","","","","","<div class='trialBorder'><div class='vertical-center'><img src='img/correct.jpg'></div><div class='respDiv'><div class='respDivL'>Match<br>(e)</div><div class='respDivR'><font style='color:orange'>No Match<br>(i)</font></div></div></div>","null","FEEDBACK","","","","","","","","","","",""
"html-keyboard-response","24","254642","0.0-5.0-1.4","560ce65601c38a0012769e20","bdp_wmem","Mon Mar 13 2023 14:57:30 GMT-0400 (Eastern Daylight Time)","803116","Match,No Match","","null","","","","","","<div class='trialBorder'><div class='vertical-center'><img src='img/fixation2_sml.jpg'</img></div></div>","null","FIX","","","","","","","","","","",""
"html-keyboard-response","25","259619","0.0-5.0-2.4","560ce65601c38a0012769e20","bdp_wmem","Mon Mar 13 2023 14:57:30 GMT-0400 (Eastern Daylight Time)","803116","Match,No Match","","null","","","","","","<div class='trialBorder'><div class='vertical-center'><img style='vertical-align:center; align:center' src='img/fixation2_sml.jpg'></div><div class='arrayDiv3'><div class='tl'><img class='introPic' src='trustrating_stim/white_mw038.bmp'><br><font color='green'><strong>Share</strong></font></div><div class='tc'><img class='introPic' src='trustrating_stim/white_mw091.bmp'><br><font color='red'><strong>Keep</strong></font></div><div class='tr'><img class='introPic' src='trustrating_stim/white_mw078.bmp'><br><font color='red'><strong>Keep</strong></font></div></div></div>","null","ARRAY","3","trustrating_stim/white_mw038.bmp,trustrating_stim/white_mw091.bmp,trustrating_stim/white_mw078.bmp","1,0,0","noMatchOutcome","i","4500","","","","",""
"html-keyboard-response","26","264629","0.0-5.0-3.4","560ce65601c38a0012769e20","bdp_wmem","Mon Mar 13 2023 14:57:30 GMT-0400 (Eastern Daylight Time)","803116","Match,No Match","","null","","","","","","<div class='trialBorder'><div class='vertical-center'><img src='img/fixation2_sml.jpg'</img></div></div>","null","DELAY","","","","","","","","","","",""
"html-keyboard-response","27","268593","0.0-5.0-4.4","560ce65601c38a0012769e20","bdp_wmem","Mon Mar 13 2023 14:57:30 GMT-0400 (Eastern Daylight Time)","803116","Match,No Match","","3963","","","","","","<div class='trialBorder'><div class='targDiv'><div class='tc'><img class='introPic' src='trustrating_stim/white_mw038.bmp'><br><font color='red'><strong>Keep</strong></font></div></div><div class='respDiv'><div class='respDivL'>Match<br>(e)</div><div class='respDivR'>No Match<br>(i)</div></div></div>","e","TARGET","3","trustrating_stim/white_mw038.bmp,trustrating_stim/white_mw091.bmp,trustrating_stim/white_mw078.bmp","1,0,0","noMatchOutcome","i","4500","trustrating_stim/white_mw038.bmp","red","Keep","PRACTICE","0"
"html-keyboard-response","28","269104","0.0-5.0-5.4","560ce65601c38a0012769e20","bdp_wmem","Mon Mar 13 2023 14:57:30 GMT-0400 (Eastern Daylight Time)","803116","Match,No Match","","null","","","","","","<div class='trialBorder'><div class='vertical-center'><img src='img/error.jpg'></div><div class='respDiv'><div class='respDivL'><font style='color:orange'>Match<br>(e)</font></div><div class='respDivR'>No Match<br>(i)</div></div></div>","null","FEEDBACK","","","","","","","","","","",""
"html-keyboard-response","29","269606","0.0-5.0-1.5","560ce65601c38a0012769e20","bdp_wmem","Mon Mar 13 2023 14:57:30 GMT-0400 (Eastern Daylight Time)","803116","Match,No Match","","null","","","","","","<div class='trialBorder'><div class='vertical-center'><img src='img/fixation2_sml.jpg'</img></div></div>","null","FIX","","","","","","","","","","",""
"html-keyboard-response","30","272622","0.0-5.0-2.5","560ce65601c38a0012769e20","bdp_wmem","Mon Mar 13 2023 14:57:30 GMT-0400 (Eastern Daylight Time)","803116","Match,No Match","","null","","","","","","<div class='trialBorder'><div class='vertical-center'><img style='vertical-align:center; align:center' src='img/fixation2_sml.jpg'></div><div class='arrayDiv2'><div class='tl'><img class='introPic' src='trustrating_stim/white_mw010.bmp'><br><font color='red'><strong>Keep</strong></font></div><div class='tr'><img class='introPic' src='trustrating_stim/white_mw040.bmp'><br><font color='green'><strong>Share</strong></font></div></div></div>","null","ARRAY","2","trustrating_stim/white_mw010.bmp,trustrating_stim/white_mw040.bmp","0,1","Match","e","3000","","","","",""
"html-keyboard-response","31","277632","0.0-5.0-3.5","560ce65601c38a0012769e20","bdp_wmem","Mon Mar 13 2023 14:57:30 GMT-0400 (Eastern Daylight Time)","803116","Match,No Match","","null","","","","","","<div class='trialBorder'><div class='vertical-center'><img src='img/fixation2_sml.jpg'</img></div></div>","null","DELAY","","","","","","","","","","",""
"html-keyboard-response","32","281009","0.0-5.0-4.5","560ce65601c38a0012769e20","bdp_wmem","Mon Mar 13 2023 14:57:30 GMT-0400 (Eastern Daylight Time)","803116","Match,No Match","","3375","","","","","","<div class='trialBorder'><div class='targDiv'><div class='tc'><img class='introPic' src='trustrating_stim/white_mw040.bmp'><br><font color='green'><strong>Share</strong></font></div></div><div class='respDiv'><div class='respDivL'>Match<br>(e)</div><div class='respDivR'>No Match<br>(i)</div></div></div>","e","TARGET","2","trustrating_stim/white_mw010.bmp,trustrating_stim/white_mw040.bmp","0,1","Match","e","3000","trustrating_stim/white_mw040.bmp","green","Share","PRACTICE","1"
"html-keyboard-response","33","281525","0.0-5.0-5.5","560ce65601c38a0012769e20","bdp_wmem","Mon Mar 13 2023 14:57:30 GMT-0400 (Eastern Daylight Time)","803116","Match,No Match","","null","","","","","","<div class='trialBorder'><div class='vertical-center'><img src='img/correct.jpg'></div><div class='respDiv'><div class='respDivL'><font style='color:orange'>Match<br>(e)</font></div><div class='respDivR'>No Match<br>(i)</div></div></div>","null","FEEDBACK","","","","","","","","","","",""
"instructions","34","284239","0.0-6.0","560ce65601c38a0012769e20","bdp_wmem","Mon Mar 13 2023 14:57:30 GMT-0400 (Eastern Daylight Time)","803116","Match,No Match","[{""page_index"":0,""viewing_time"":2714}]","2714","","","","","","","","","","","","","","","","","","",""
"html-keyboard-response","35","284745","0.0-7.0-1.0","560ce65601c38a0012769e20","bdp_wmem","Mon Mar 13 2023 14:57:30 GMT-0400 (Eastern Daylight Time)","803116","Match,No Match","","null","","","","","","<div class='trialBorder'><div class='vertical-center'><img src='img/fixation2_sml.jpg'</img></div></div>","null","FIX","","","","","","","","","","",""
"html-keyboard-response","36","286629","0.0-7.0-2.0","560ce65601c38a0012769e20","bdp_wmem","Mon Mar 13 2023 14:57:30 GMT-0400 (Eastern Daylight Time)","803116","Match,No Match","","null","","","","","","<div class='trialBorder'><div class='vertical-center'><img style='vertical-align:center; align:center' src='img/fixation2_sml.jpg'></div><div class='arrayDiv1'><div class='tc'><img class='introPic' src='trustrating_stim/white_mw091.bmp'><br><font color='red'><strong>Keep</strong></font></div></div></div>","null","ARRAY","1","trustrating_stim/white_mw091.bmp","0","Match","e","1500","","","","",""
"html-keyboard-response","37","291623","0.0-7.0-3.0","560ce65601c38a0012769e20","bdp_wmem","Mon Mar 13 2023 14:57:30 GMT-0400 (Eastern Daylight Time)","803116","Match,No Match","","null","","","","","","<div class='trialBorder'><div class='vertical-center'><img src='img/fixation2_sml.jpg'</img></div></div>","null","DELAY","","","","","","","","","","",""
"html-keyboard-response","38","293771","0.0-7.0-4.0","560ce65601c38a0012769e20","bdp_wmem","Mon Mar 13 2023 14:57:30 GMT-0400 (Eastern Daylight Time)","803116","Match,No Match","","2147","","","","","","<div class='trialBorder'><div class='targDiv'><div class='tc'><img class='introPic' src='trustrating_stim/white_mw091.bmp'><br><font color='red'><strong>Keep</strong></font></div></div><div class='respDiv'><div class='respDivL'>Match<br>(e)</div><div class='respDivR'>No Match<br>(i)</div></div></div>","e","TARGET","1","trustrating_stim/white_mw091.bmp","0","Match","e","1500","trustrating_stim/white_mw091.bmp","red","Keep","REAL","1"
"html-keyboard-response","39","294277","0.0-7.0-5.0","560ce65601c38a0012769e20","bdp_wmem","Mon Mar 13 2023 14:57:30 GMT-0400 (Eastern Daylight Time)","803116","Match,No Match","","null","","","","","","<div class='trialBorder'><div class='vertical-center'><img src='img/correct.jpg'></div><div class='respDiv'><div class='respDivL'><font style='color:orange'>Match<br>(e)</font></div><div class='respDivR'>No Match<br>(i)</div></div></div>","null","FEEDBACK","","","","","","","","","","",""
"html-keyboard-response","40","294780","0.0-7.0-1.1","560ce65601c38a0012769e20","bdp_wmem","Mon Mar 13 2023 14:57:30 GMT-0400 (Eastern Daylight Time)","803116","Match,No Match","","null","","","","","","<div class='trialBorder'><div class='vertical-center'><img src='img/fixation2_sml.jpg'</img></div></div>","null","FIX","","","","","","","","","","",""
"html-keyboard-response","41","299617","0.0-7.0-2.1","560ce65601c38a0012769e20","bdp_wmem","Mon Mar 13 2023 14:57:30 GMT-0400 (Eastern Daylight Time)","803116","Match,No Match","","null","","","","","","<div class='trialBorder'><div class='vertical-center'><img style='vertical-align:center; align:center' src='img/fixation2_sml.jpg'></div><div class='arrayDiv3'><div class='tl'><img class='introPic' src='trustrating_stim/white_mw038.bmp'><br><font color='green'><strong>Share</strong></font></div><div class='tc'><img class='introPic' src='trustrating_stim/white_mw010.bmp'><br><font color='green'><strong>Share</strong></font></div><div class='tr'><img class='introPic' src='trustrating_stim/white_mw003.bmp'><br><font color='red'><strong>Keep</strong></font></div></div></div>","null","ARRAY","3","trustrating_stim/white_mw038.bmp,trustrating_stim/white_mw010.bmp,trustrating_stim/white_mw003.bmp","1,1,0","Match","e","4500","","","","",""
"html-keyboard-response","42","304627","0.0-7.0-3.1","560ce65601c38a0012769e20","bdp_wmem","Mon Mar 13 2023 14:57:30 GMT-0400 (Eastern Daylight Time)","803116","Match,No Match","","null","","","","","","<div class='trialBorder'><div class='vertical-center'><img src='img/fixation2_sml.jpg'</img></div></div>","null","DELAY","","","","","","","","","","",""
"html-keyboard-response","43","311832","0.0-7.0-4.1","560ce65601c38a0012769e20","bdp_wmem","Mon Mar 13 2023 14:57:30 GMT-0400 (Eastern Daylight Time)","803116","Match,No Match","","7204","","","","","","<div class='trialBorder'><div class='targDiv'><div class='tc'><img class='introPic' src='trustrating_stim/white_mw010.bmp'><br><font color='green'><strong>Share</strong></font></div></div><div class='respDiv'><div class='respDivL'>Match<br>(e)</div><div class='respDivR'>No Match<br>(i)</div></div></div>","e","TARGET","3","trustrating_stim/white_mw038.bmp,trustrating_stim/white_mw010.bmp,trustrating_stim/white_mw003.bmp","1,1,0","Match","e","4500","trustrating_stim/white_mw010.bmp","green","Share","REAL","1"
"html-keyboard-response","44","312338","0.0-7.0-5.1","560ce65601c38a0012769e20","bdp_wmem","Mon Mar 13 2023 14:57:30 GMT-0400 (Eastern Daylight Time)","803116","Match,No Match","","null","","","","","","<div class='trialBorder'><div class='vertical-center'><img src='img/correct.jpg'></div><div class='respDiv'><div class='respDivL'><font style='color:orange'>Match<br>(e)</font></div><div class='respDivR'>No Match<br>(i)</div></div></div>","null","FEEDBACK","","","","","","","","","","",""
"html-keyboard-response","45","312841","0.0-7.0-1.2","560ce65601c38a0012769e20","bdp_wmem","Mon Mar 13 2023 14:57:30 GMT-0400 (Eastern Daylight Time)","803116","Match,No Match","","null","","","","","","<div class='trialBorder'><div class='vertical-center'><img src='img/fixation2_sml.jpg'</img></div></div>","null","FIX","","","","","","","","","","",""
"html-keyboard-response","46","314348","0.0-7.0-2.2","560ce65601c38a0012769e20","bdp_wmem","Mon Mar 13 2023 14:57:30 GMT-0400 (Eastern Daylight Time)","803116","Match,No Match","","null","","","","","","<div class='trialBorder'><div class='vertical-center'><img style='vertical-align:center; align:center' src='img/fixation2_sml.jpg'></div><div class='arrayDiv1'><div class='tc'><img class='introPic' src='trustrating_stim/white_mw003.bmp'><br><font color='green'><strong>Share</strong></font></div></div></div>","null","ARRAY","1","trustrating_stim/white_mw003.bmp","1","Match","e","1500","","","","",""
"html-keyboard-response","47","318618","0.0-7.0-3.2","560ce65601c38a0012769e20","bdp_wmem","Mon Mar 13 2023 14:57:30 GMT-0400 (Eastern Daylight Time)","803116","Match,No Match","","null","","","","","","<div class='trialBorder'><div class='vertical-center'><img src='img/fixation2_sml.jpg'</img></div></div>","null","DELAY","","","","","","","","","","",""
"html-keyboard-response","48","320130","0.0-7.0-4.2","560ce65601c38a0012769e20","bdp_wmem","Mon Mar 13 2023 14:57:30 GMT-0400 (Eastern Daylight Time)","803116","Match,No Match","","1511","","","","","","<div class='trialBorder'><div class='targDiv'><div class='tc'><img class='introPic' src='trustrating_stim/white_mw003.bmp'><br><font color='green'><strong>Share</strong></font></div></div><div class='respDiv'><div class='respDivL'>Match<br>(e)</div><div class='respDivR'>No Match<br>(i)</div></div></div>","e","TARGET","1","trustrating_stim/white_mw003.bmp","1","Match","e","1500","trustrating_stim/white_mw003.bmp","green","Share","REAL","1"
"html-keyboard-response","49","320644","0.0-7.0-5.2","560ce65601c38a0012769e20","bdp_wmem","Mon Mar 13 2023 14:57:30 GMT-0400 (Eastern Daylight Time)","803116","Match,No Match","","null","","","","","","<div class='trialBorder'><div class='vertical-center'><img src='img/correct.jpg'></div><div class='respDiv'><div class='respDivL'><font style='color:orange'>Match<br>(e)</font></div><div class='respDivR'>No Match<br>(i)</div></div></div>","null","FEEDBACK","","","","","","","","","","",""
"html-keyboard-response","50","321147","0.0-7.0-1.3","560ce65601c38a0012769e20","bdp_wmem","Mon Mar 13 2023 14:57:30 GMT-0400 (Eastern Daylight Time)","803116","Match,No Match","","null","","","","","","<div class='trialBorder'><div class='vertical-center'><img src='img/fixation2_sml.jpg'</img></div></div>","null","FIX","","","","","","","","","","",""
"html-keyboard-response","51","322654","0.0-7.0-2.3","560ce65601c38a0012769e20","bdp_wmem","Mon Mar 13 2023 14:57:30 GMT-0400 (Eastern Daylight Time)","803116","Match,No Match","","null","","","","","","<div class='trialBorder'><div class='vertical-center'><img style='vertical-align:center; align:center' src='img/fixation2_sml.jpg'></div><div class='arrayDiv1'><div class='tc'><img class='introPic' src='trustrating_stim/white_mw085.bmp'><br><font color='red'><strong>Keep</strong></font></div></div></div>","null","ARRAY","1","trustrating_stim/white_mw085.bmp","0","Match","e","1500","","","","",""
"html-keyboard-response","52","327617","0.0-7.0-3.3","560ce65601c38a0012769e20","bdp_wmem","Mon Mar 13 2023 14:57:30 GMT-0400 (Eastern Daylight Time)","803116","Match,No Match","","null","","","","","","<div class='trialBorder'><div class='vertical-center'><img src='img/fixation2_sml.jpg'</img></div></div>","null","DELAY","","","","","","","","","","",""
"html-keyboard-response","53","328721","0.0-7.0-4.3","560ce65601c38a0012769e20","bdp_wmem","Mon Mar 13 2023 14:57:30 GMT-0400 (Eastern Daylight Time)","803116","Match,No Match","","1102","","","","","","<div class='trialBorder'><div class='targDiv'><div class='tc'><img class='introPic' src='trustrating_stim/white_mw085.bmp'><br><font color='red'><strong>Keep</strong></font></div></div><div class='respDiv'><div class='respDivL'>Match<br>(e)</div><div class='respDivR'>No Match<br>(i)</div></div></div>","e","TARGET","1","trustrating_stim/white_mw085.bmp","0","Match","e","1500","trustrating_stim/white_mw085.bmp","red","Keep","REAL","1"
"html-keyboard-response","54","329235","0.0-7.0-5.3","560ce65601c38a0012769e20","bdp_wmem","Mon Mar 13 2023 14:57:30 GMT-0400 (Eastern Daylight Time)","803116","Match,No Match","","null","","","","","","<div class='trialBorder'><div class='vertical-center'><img src='img/correct.jpg'></div><div class='respDiv'><div class='respDivL'><font style='color:orange'>Match<br>(e)</font></div><div class='respDivR'>No Match<br>(i)</div></div></div>","null","FEEDBACK","","","","","","","","","","",""
"html-keyboard-response","55","329738","0.0-7.0-1.4","560ce65601c38a0012769e20","bdp_wmem","Mon Mar 13 2023 14:57:30 GMT-0400 (Eastern Daylight Time)","803116","Match,No Match","","null","","","","","","<div class='trialBorder'><div class='vertical-center'><img src='img/fixation2_sml.jpg'</img></div></div>","null","FIX","","","","","","","","","","",""
"html-keyboard-response","56","334621","0.0-7.0-2.4","560ce65601c38a0012769e20","bdp_wmem","Mon Mar 13 2023 14:57:30 GMT-0400 (Eastern Daylight Time)","803116","Match,No Match","","null","","","","","","<div class='trialBorder'><div class='vertical-center'><img style='vertical-align:center; align:center' src='img/fixation2_sml.jpg'></div><div class='arrayDiv3'><div class='tl'><img class='introPic' src='trustrating_stim/white_mw010.bmp'><br><font color='red'><strong>Keep</strong></font></div><div class='tc'><img class='introPic' src='trustrating_stim/white_mw013.bmp'><br><font color='red'><strong>Keep</strong></font></div><div class='tr'><img class='introPic' src='trustrating_stim/white_mw042.bmp'><br><font color='green'><strong>Share</strong></font></div></div></div>","null","ARRAY","3","trustrating_stim/white_mw010.bmp,trustrating_stim/white_mw013.bmp,trustrating_stim/white_mw042.bmp","0,0,1","Match","e","4500","","","","",""
"html-keyboard-response","57","339631","0.0-7.0-3.4","560ce65601c38a0012769e20","bdp_wmem","Mon Mar 13 2023 14:57:30 GMT-0400 (Eastern Daylight Time)","803116","Match,No Match","","null","","","","","","<div class='trialBorder'><div class='vertical-center'><img src='img/fixation2_sml.jpg'</img></div></div>","null","DELAY","","","","","","","","","","",""
"html-keyboard-response","58","342284","0.0-7.0-4.4","560ce65601c38a0012769e20","bdp_wmem","Mon Mar 13 2023 14:57:30 GMT-0400 (Eastern Daylight Time)","803116","Match,No Match","","2651","","","","","","<div class='trialBorder'><div class='targDiv'><div class='tc'><img class='introPic' src='trustrating_stim/white_mw010.bmp'><br><font color='red'><strong>Keep</strong></font></div></div><div class='respDiv'><div class='respDivL'>Match<br>(e)</div><div class='respDivR'>No Match<br>(i)</div></div></div>","e","TARGET","3","trustrating_stim/white_mw010.bmp,trustrating_stim/white_mw013.bmp,trustrating_stim/white_mw042.bmp","0,0,1","Match","e","4500","trustrating_stim/white_mw010.bmp","red","Keep","REAL","1"
"html-keyboard-response","59","342786","0.0-7.0-5.4","560ce65601c38a0012769e20","bdp_wmem","Mon Mar 13 2023 14:57:30 GMT-0400 (Eastern Daylight Time)","803116","Match,No Match","","null","","","","","","<div class='trialBorder'><div class='vertical-center'><img src='img/correct.jpg'></div><div class='respDiv'><div class='respDivL'><font style='color:orange'>Match<br>(e)</font></div><div class='respDivR'>No Match<br>(i)</div></div></div>","null","FEEDBACK","","","","","","","","","","",""
"html-keyboard-response","60","343288","0.0-7.0-1.5","560ce65601c38a0012769e20","bdp_wmem","Mon Mar 13 2023 14:57:30 GMT-0400 (Eastern Daylight Time)","803116","Match,No Match","","null","","","","","","<div class='trialBorder'><div class='vertical-center'><img src='img/fixation2_sml.jpg'</img></div></div>","null","FIX","","","","","","","","","","",""
"html-keyboard-response","61","344796","0.0-7.0-2.5","560ce65601c38a0012769e20","bdp_wmem","Mon Mar 13 2023 14:57:30 GMT-0400 (Eastern Daylight Time)","803116","Match,No Match","","null","","","","","","<div class='trialBorder'><div class='vertical-center'><img style='vertical-align:center; align:center' src='img/fixation2_sml.jpg'></div><div class='arrayDiv1'><div class='tc'><img class='introPic' src='trustrating_stim/white_mw070.bmp'><br><font color='green'><strong>Share</strong></font></div></div></div>","null","ARRAY","1","trustrating_stim/white_mw070.bmp","1","Match","e","1500","","","","",""
"html-keyboard-response","62","349619","0.0-7.0-3.5","560ce65601c38a0012769e20","bdp_wmem","Mon Mar 13 2023 14:57:30 GMT-0400 (Eastern Daylight Time)","803116","Match,No Match","","null","","","","","","<div class='trialBorder'><div class='vertical-center'><img src='img/fixation2_sml.jpg'</img></div></div>","null","DELAY","","","","","","","","","","",""
"html-keyboard-response","63","351097","0.0-7.0-4.5","560ce65601c38a0012769e20","bdp_wmem","Mon Mar 13 2023 14:57:30 GMT-0400 (Eastern Daylight Time)","803116","Match,No Match","","1477","","","","","","<div class='trialBorder'><div class='targDiv'><div class='tc'><img class='introPic' src='trustrating_stim/white_mw070.bmp'><br><font color='green'><strong>Share</strong></font></div></div><div class='respDiv'><div class='respDivL'>Match<br>(e)</div><div class='respDivR'>No Match<br>(i)</div></div></div>","e","TARGET","1","trustrating_stim/white_mw070.bmp","1","Match","e","1500","trustrating_stim/white_mw070.bmp","green","Share","REAL","1"
"html-keyboard-response","64","351612","0.0-7.0-5.5","560ce65601c38a0012769e20","bdp_wmem","Mon Mar 13 2023 14:57:30 GMT-0400 (Eastern Daylight Time)","803116","Match,No Match","","null","","","","","","<div class='trialBorder'><div class='vertical-center'><img src='img/correct.jpg'></div><div class='respDiv'><div class='respDivL'><font style='color:orange'>Match<br>(e)</font></div><div class='respDivR'>No Match<br>(i)</div></div></div>","null","FEEDBACK","","","","","","","","","","",""
"html-keyboard-response","65","352116","0.0-7.0-1.6","560ce65601c38a0012769e20","bdp_wmem","Mon Mar 13 2023 14:57:30 GMT-0400 (Eastern Daylight Time)","803116","Match,No Match","","null","","","","","","<div class='trialBorder'><div class='vertical-center'><img src='img/fixation2_sml.jpg'</img></div></div>","null","FIX","","","","","","","","","","",""
"html-keyboard-response","66","353622","0.0-7.0-2.6","560ce65601c38a0012769e20","bdp_wmem","Mon Mar 13 2023 14:57:30 GMT-0400 (Eastern Daylight Time)","803116","Match,No Match","","null","","","","","","<div class='trialBorder'><div class='vertical-center'><img style='vertical-align:center; align:center' src='img/fixation2_sml.jpg'></div><div class='arrayDiv1'><div class='tc'><img class='introPic' src='trustrating_stim/white_mw085.bmp'><br><font color='red'><strong>Keep</strong></font></div></div></div>","null","ARRAY","1","trustrating_stim/white_mw085.bmp","0","noMatchOutcome","i","1500","","","","",""
"html-keyboard-response","67","358617","0.0-7.0-3.6","560ce65601c38a0012769e20","bdp_wmem","Mon Mar 13 2023 14:57:30 GMT-0400 (Eastern Daylight Time)","803116","Match,No Match","","null","","","","","","<div class='trialBorder'><div class='vertical-center'><img src='img/fixation2_sml.jpg'</img></div></div>","null","DELAY","","","","","","","","","","",""
"html-keyboard-response","68","361146","0.0-7.0-4.6","560ce65601c38a0012769e20","bdp_wmem","Mon Mar 13 2023 14:57:30 GMT-0400 (Eastern Daylight Time)","803116","Match,No Match","","2528","","","","","","<div class='trialBorder'><div class='targDiv'><div class='tc'><img class='introPic' src='trustrating_stim/white_mw085.bmp'><br><font color='green'><strong>Share</strong></font></div></div><div class='respDiv'><div class='respDivL'>Match<br>(e)</div><div class='respDivR'>No Match<br>(i)</div></div></div>","e","TARGET","1","trustrating_stim/white_mw085.bmp","0","noMatchOutcome","i","1500","trustrating_stim/white_mw085.bmp","green","Share","REAL","0"
"html-keyboard-response","69","361647","0.0-7.0-5.6","560ce65601c38a0012769e20","bdp_wmem","Mon Mar 13 2023 14:57:30 GMT-0400 (Eastern Daylight Time)","803116","Match,No Match","","null","","","","","","<div class='trialBorder'><div class='vertical-center'><img src='img/error.jpg'></div><div class='respDiv'><div class='respDivL'><font style='color:orange'>Match<br>(e)</font></div><div class='respDivR'>No Match<br>(i)</div></div></div>","null","FEEDBACK","","","","","","","","","","",""
"html-keyboard-response","70","362151","0.0-7.0-1.7","560ce65601c38a0012769e20","bdp_wmem","Mon Mar 13 2023 14:57:30 GMT-0400 (Eastern Daylight Time)","803116","Match,No Match","","null","","","","","","<div class='trialBorder'><div class='vertical-center'><img src='img/fixation2_sml.jpg'</img></div></div>","null","FIX","","","","","","","","","","",""
"html-keyboard-response","71","363659","0.0-7.0-2.7","560ce65601c38a0012769e20","bdp_wmem","Mon Mar 13 2023 14:57:30 GMT-0400 (Eastern Daylight Time)","803116","Match,No Match","","null","","","","","","<div class='trialBorder'><div class='vertical-center'><img style='vertical-align:center; align:center' src='img/fixation2_sml.jpg'></div><div class='arrayDiv1'><div class='tc'><img class='introPic' src='trustrating_stim/white_mw003.bmp'><br><font color='green'><strong>Share</strong></font></div></div></div>","null","ARRAY","1","trustrating_stim/white_mw003.bmp","1","noMatchOutcome","i","1500","","","","",""
"html-keyboard-response","72","368621","0.0-7.0-3.7","560ce65601c38a0012769e20","bdp_wmem","Mon Mar 13 2023 14:57:30 GMT-0400 (Eastern Daylight Time)","803116","Match,No Match","","null","","","","","","<div class='trialBorder'><div class='vertical-center'><img src='img/fixation2_sml.jpg'</img></div></div>","null","DELAY","","","","","","","","","","",""
"html-keyboard-response","73","370074","0.0-7.0-4.7","560ce65601c38a0012769e20","bdp_wmem","Mon Mar 13 2023 14:57:30 GMT-0400 (Eastern Daylight Time)","803116","Match,No Match","","1451","","","","","","<div class='trialBorder'><div class='targDiv'><div class='tc'><img class='introPic' src='trustrating_stim/white_mw003.bmp'><br><font color='red'><strong>Keep</strong></font></div></div><div class='respDiv'><div class='respDivL'>Match<br>(e)</div><div class='respDivR'>No Match<br>(i)</div></div></div>","i","TARGET","1","trustrating_stim/white_mw003.bmp","1","noMatchOutcome","i","1500","trustrating_stim/white_mw003.bmp","red","Keep","REAL","1"
"html-keyboard-response","74","370585","0.0-7.0-5.7","560ce65601c38a0012769e20","bdp_wmem","Mon Mar 13 2023 14:57:30 GMT-0400 (Eastern Daylight Time)","803116","Match,No Match","","null","","","","","","<div class='trialBorder'><div class='vertical-center'><img src='img/correct.jpg'></div><div class='respDiv'><div class='respDivL'>Match<br>(e)</div><div class='respDivR'><font style='color:orange'>No Match<br>(i)</font></div></div></div>","null","FEEDBACK","","","","","","","","","","",""
"html-keyboard-response","75","371086","0.0-7.0-1.8","560ce65601c38a0012769e20","bdp_wmem","Mon Mar 13 2023 14:57:30 GMT-0400 (Eastern Daylight Time)","803116","Match,No Match","","null","","","","","","<div class='trialBorder'><div class='vertical-center'><img src='img/fixation2_sml.jpg'</img></div></div>","null","FIX","","","","","","","","","","",""
"html-keyboard-response","76","374101","0.0-7.0-2.8","560ce65601c38a0012769e20","bdp_wmem","Mon Mar 13 2023 14:57:30 GMT-0400 (Eastern Daylight Time)","803116","Match,No Match","","null","","","","","","<div class='trialBorder'><div class='vertical-center'><img style='vertical-align:center; align:center' src='img/fixation2_sml.jpg'></div><div class='arrayDiv2'><div class='tl'><img class='introPic' src='trustrating_stim/white_mw012.bmp'><br><font color='red'><strong>Keep</strong></font></div><div class='tr'><img class='introPic' src='trustrating_stim/white_mw070.bmp'><br><font color='green'><strong>Share</strong></font></div></div></div>","null","ARRAY","2","trustrating_stim/white_mw012.bmp,trustrating_stim/white_mw070.bmp","0,1","Match","e","3000","","","","",""
"html-keyboard-response","77","378624","0.0-7.0-3.8","560ce65601c38a0012769e20","bdp_wmem","Mon Mar 13 2023 14:57:30 GMT-0400 (Eastern Daylight Time)","803116","Match,No Match","","null","","","","","","<div class='trialBorder'><div class='vertical-center'><img src='img/fixation2_sml.jpg'</img></div></div>","null","DELAY","","","","","","","","","","",""
"html-keyboard-response","78","380035","0.0-7.0-4.8","560ce65601c38a0012769e20","bdp_wmem","Mon Mar 13 2023 14:57:30 GMT-0400 (Eastern Daylight Time)","803116","Match,No Match","","1410","","","","","","<div class='trialBorder'><div class='targDiv'><div class='tc'><img class='introPic' src='trustrating_stim/white_mw012.bmp'><br><font color='red'><strong>Keep</strong></font></div></div><div class='respDiv'><div class='respDivL'>Match<br>(e)</div><div class='respDivR'>No Match<br>(i)</div></div></div>","e","TARGET","2","trustrating_stim/white_mw012.bmp,trustrating_stim/white_mw070.bmp","0,1","Match","e","3000","trustrating_stim/white_mw012.bmp","red","Keep","REAL","1"
"html-keyboard-response","79","380540","0.0-7.0-5.8","560ce65601c38a0012769e20","bdp_wmem","Mon Mar 13 2023 14:57:30 GMT-0400 (Eastern Daylight Time)","803116","Match,No Match","","null","","","","","","<div class='trialBorder'><div class='vertical-center'><img src='img/correct.jpg'></div><div class='respDiv'><div class='respDivL'><font style='color:orange'>Match<br>(e)</font></div><div class='respDivR'>No Match<br>(i)</div></div></div>","null","FEEDBACK","","","","","","","","","","",""
"html-keyboard-response","80","381042","0.0-7.0-1.9","560ce65601c38a0012769e20","bdp_wmem","Mon Mar 13 2023 14:57:30 GMT-0400 (Eastern Daylight Time)","803116","Match,No Match","","null","","","","","","<div class='trialBorder'><div class='vertical-center'><img src='img/fixation2_sml.jpg'</img></div></div>","null","FIX","","","","","","","","","","",""
"html-keyboard-response","81","384058","0.0-7.0-2.9","560ce65601c38a0012769e20","bdp_wmem","Mon Mar 13 2023 14:57:30 GMT-0400 (Eastern Daylight Time)","803116","Match,No Match","","null","","","","","","<div class='trialBorder'><div class='vertical-center'><img style='vertical-align:center; align:center' src='img/fixation2_sml.jpg'></div><div class='arrayDiv2'><div class='tl'><img class='introPic' src='trustrating_stim/white_mw092.bmp'><br><font color='green'><strong>Share</strong></font></div><div class='tr'><img class='introPic' src='trustrating_stim/white_mw012.bmp'><br><font color='red'><strong>Keep</strong></font></div></div></div>","null","ARRAY","2","trustrating_stim/white_mw092.bmp,trustrating_stim/white_mw012.bmp","1,0","noMatchFace","i","3000","","","","",""
"html-keyboard-response","82","388629","0.0-7.0-3.9","560ce65601c38a0012769e20","bdp_wmem","Mon Mar 13 2023 14:57:30 GMT-0400 (Eastern Daylight Time)","803116","Match,No Match","","null","","","","","","<div class='trialBorder'><div class='vertical-center'><img src='img/fixation2_sml.jpg'</img></div></div>","null","DELAY","","","","","","","","","","",""
"html-keyboard-response","83","391050","0.0-7.0-4.9","560ce65601c38a0012769e20","bdp_wmem","Mon Mar 13 2023 14:57:30 GMT-0400 (Eastern Daylight Time)","803116","Match,No Match","","2420","","","","","","<div class='trialBorder'><div class='targDiv'><div class='tc'><img class='introPic' src='trustrating_stim/white_mw042.bmp'><br><font color='green'><strong>Share</strong></font></div></div><div class='respDiv'><div class='respDivL'>Match<br>(e)</div><div class='respDivR'>No Match<br>(i)</div></div></div>","i","TARGET","2","trustrating_stim/white_mw092.bmp,trustrating_stim/white_mw012.bmp","1,0","noMatchFace","i","3000","trustrating_stim/white_mw042.bmp","green","Share","REAL","1"
"html-keyboard-response","84","391565","0.0-7.0-5.9","560ce65601c38a0012769e20","bdp_wmem","Mon Mar 13 2023 14:57:30 GMT-0400 (Eastern Daylight Time)","803116","Match,No Match","","null","","","","","","<div class='trialBorder'><div class='vertical-center'><img src='img/correct.jpg'></div><div class='respDiv'><div class='respDivL'>Match<br>(e)</div><div class='respDivR'><font style='color:orange'>No Match<br>(i)</font></div></div></div>","null","FEEDBACK","","","","","","","","","","",""
"html-keyboard-response","85","392068","0.0-7.0-1.10","560ce65601c38a0012769e20","bdp_wmem","Mon Mar 13 2023 14:57:30 GMT-0400 (Eastern Daylight Time)","803116","Match,No Match","","null","","","","","","<div class='trialBorder'><div class='vertical-center'><img src='img/fixation2_sml.jpg'</img></div></div>","null","FIX","","","","","","","","","","",""
"html-keyboard-response","86","395083","0.0-7.0-2.10","560ce65601c38a0012769e20","bdp_wmem","Mon Mar 13 2023 14:57:30 GMT-0400 (Eastern Daylight Time)","803116","Match,No Match","","null","","","","","","<div class='trialBorder'><div class='vertical-center'><img style='vertical-align:center; align:center' src='img/fixation2_sml.jpg'></div><div class='arrayDiv2'><div class='tl'><img class='introPic' src='trustrating_stim/white_mw078.bmp'><br><font color='red'><strong>Keep</strong></font></div><div class='tr'><img class='introPic' src='trustrating_stim/white_mw040.bmp'><br><font color='green'><strong>Share</strong></font></div></div></div>","null","ARRAY","2","trustrating_stim/white_mw078.bmp,trustrating_stim/white_mw040.bmp","0,1","Match","e","3000","","","","",""
"html-keyboard-response","87","399622","0.0-7.0-3.10","560ce65601c38a0012769e20","bdp_wmem","Mon Mar 13 2023 14:57:30 GMT-0400 (Eastern Daylight Time)","803116","Match,No Match","","null","","","","","","<div class='trialBorder'><div class='vertical-center'><img src='img/fixation2_sml.jpg'</img></div></div>","null","DELAY","","","","","","","","","","",""
"html-keyboard-response","88","401432","0.0-7.0-4.10","560ce65601c38a0012769e20","bdp_wmem","Mon Mar 13 2023 14:57:30 GMT-0400 (Eastern Daylight Time)","803116","Match,No Match","","1809","","","","","","<div class='trialBorder'><div class='targDiv'><div class='tc'><img class='introPic' src='trustrating_stim/white_mw040.bmp'><br><font color='green'><strong>Share</strong></font></div></div><div class='respDiv'><div class='respDivL'>Match<br>(e)</div><div class='respDivR'>No Match<br>(i)</div></div></div>","e","TARGET","2","trustrating_stim/white_mw078.bmp,trustrating_stim/white_mw040.bmp","0,1","Match","e","3000","trustrating_stim/white_mw040.bmp","green","Share","REAL","1"
"html-keyboard-response","89","401947","0.0-7.0-5.10","560ce65601c38a0012769e20","bdp_wmem","Mon Mar 13 2023 14:57:30 GMT-0400 (Eastern Daylight Time)","803116","Match,No Match","","null","","","","","","<div class='trialBorder'><div class='vertical-center'><img src='img/correct.jpg'></div><div class='respDiv'><div class='respDivL'><font style='color:orange'>Match<br>(e)</font></div><div class='respDivR'>No Match<br>(i)</div></div></div>","null","FEEDBACK","","","","","","","","","","",""
"html-keyboard-response","90","402449","0.0-7.0-1.11","560ce65601c38a0012769e20","bdp_wmem","Mon Mar 13 2023 14:57:30 GMT-0400 (Eastern Daylight Time)","803116","Match,No Match","","null","","","","","","<div class='trialBorder'><div class='vertical-center'><img src='img/fixation2_sml.jpg'</img></div></div>","null","FIX","","","","","","","","","","",""
"html-keyboard-response","91","405464","0.0-7.0-2.11","560ce65601c38a0012769e20","bdp_wmem","Mon Mar 13 2023 14:57:30 GMT-0400 (Eastern Daylight Time)","803116","Match,No Match","","null","","","","","","<div class='trialBorder'><div class='vertical-center'><img style='vertical-align:center; align:center' src='img/fixation2_sml.jpg'></div><div class='arrayDiv2'><div class='tl'><img class='introPic' src='trustrating_stim/white_mw092.bmp'><br><font color='green'><strong>Share</strong></font></div><div class='tr'><img class='introPic' src='trustrating_stim/white_mw091.bmp'><br><font color='red'><strong>Keep</strong></font></div></div></div>","null","ARRAY","2","trustrating_stim/white_mw092.bmp,trustrating_stim/white_mw091.bmp","1,0","Match","e","3000","","","","",""
"html-keyboard-response","92","409623","0.0-7.0-3.11","560ce65601c38a0012769e20","bdp_wmem","Mon Mar 13 2023 14:57:30 GMT-0400 (Eastern Daylight Time)","803116","Match,No Match","","null","","","","","","<div class='trialBorder'><div class='vertical-center'><img src='img/fixation2_sml.jpg'</img></div></div>","null","DELAY","","","","","","","","","","",""
"html-keyboard-response","93","413403","0.0-7.0-4.11","560ce65601c38a0012769e20","bdp_wmem","Mon Mar 13 2023 14:57:30 GMT-0400 (Eastern Daylight Time)","803116","Match,No Match","","3778","","","","","","<div class='trialBorder'><div class='targDiv'><div class='tc'><img class='introPic' src='trustrating_stim/white_mw091.bmp'><br><font color='red'><strong>Keep</strong></font></div></div><div class='respDiv'><div class='respDivL'>Match<br>(e)</div><div class='respDivR'>No Match<br>(i)</div></div></div>","e","TARGET","2","trustrating_stim/white_mw092.bmp,trustrating_stim/white_mw091.bmp","1,0","Match","e","3000","trustrating_stim/white_mw091.bmp","red","Keep","REAL","1"
"html-keyboard-response","94","413912","0.0-7.0-5.11","560ce65601c38a0012769e20","bdp_wmem","Mon Mar 13 2023 14:57:30 GMT-0400 (Eastern Daylight Time)","803116","Match,No Match","","null","","","","","","<div class='trialBorder'><div class='vertical-center'><img src='img/correct.jpg'></div><div class='respDiv'><div class='respDivL'><font style='color:orange'>Match<br>(e)</font></div><div class='respDivR'>No Match<br>(i)</div></div></div>","null","FEEDBACK","","","","","","","","","","",""
"html-keyboard-response","95","414414","0.0-7.0-1.12","560ce65601c38a0012769e20","bdp_wmem","Mon Mar 13 2023 14:57:30 GMT-0400 (Eastern Daylight Time)","803116","Match,No Match","","null","","","","","","<div class='trialBorder'><div class='vertical-center'><img src='img/fixation2_sml.jpg'</img></div></div>","null","FIX","","","","","","","","","","",""
"html-keyboard-response","96","419628","0.0-7.0-2.12","560ce65601c38a0012769e20","bdp_wmem","Mon Mar 13 2023 14:57:30 GMT-0400 (Eastern Daylight Time)","803116","Match,No Match","","null","","","","","","<div class='trialBorder'><div class='vertical-center'><img style='vertical-align:center; align:center' src='img/fixation2_sml.jpg'></div><div class='arrayDiv3'><div class='tl'><img class='introPic' src='trustrating_stim/white_mw013.bmp'><br><font color='red'><strong>Keep</strong></font></div><div class='tc'><img class='introPic' src='trustrating_stim/white_mw085.bmp'><br><font color='green'><strong>Share</strong></font></div><div class='tr'><img class='introPic' src='trustrating_stim/white_mw091.bmp'><br><font color='green'><strong>Share</strong></font></div></div></div>","null","ARRAY","3","trustrating_stim/white_mw013.bmp,trustrating_stim/white_mw085.bmp,trustrating_stim/white_mw091.bmp","0,1,1","noMatchFace","i","4500","","","","",""
"html-keyboard-response","97","424623","0.0-7.0-3.12","560ce65601c38a0012769e20","bdp_wmem","Mon Mar 13 2023 14:57:30 GMT-0400 (Eastern Daylight Time)","803116","Match,No Match","","null","","","","","","<div class='trialBorder'><div class='vertical-center'><img src='img/fixation2_sml.jpg'</img></div></div>","null","DELAY","","","","","","","","","","",""
"html-keyboard-response","98","428852","0.0-7.0-4.12","560ce65601c38a0012769e20","bdp_wmem","Mon Mar 13 2023 14:57:30 GMT-0400 (Eastern Daylight Time)","803116","Match,No Match","","4228","","","","","","<div class='trialBorder'><div class='targDiv'><div class='tc'><img class='introPic' src='trustrating_stim/white_mw078.bmp'><br><font color='green'><strong>Share</strong></font></div></div><div class='respDiv'><div class='respDivL'>Match<br>(e)</div><div class='respDivR'>No Match<br>(i)</div></div></div>","i","TARGET","3","trustrating_stim/white_mw013.bmp,trustrating_stim/white_mw085.bmp,trustrating_stim/white_mw091.bmp","0,1,1","noMatchFace","i","4500","trustrating_stim/white_mw078.bmp","green","Share","REAL","1"
"html-keyboard-response","99","429364","0.0-7.0-5.12","560ce65601c38a0012769e20","bdp_wmem","Mon Mar 13 2023 14:57:30 GMT-0400 (Eastern Daylight Time)","803116","Match,No Match","","null","","","","","","<div class='trialBorder'><div class='vertical-center'><img src='img/correct.jpg'></div><div class='respDiv'><div class='respDivL'>Match<br>(e)</div><div class='respDivR'><font style='color:orange'>No Match<br>(i)</font></div></div></div>","null","FEEDBACK","","","","","","","","","","",""
"html-keyboard-response","100","429866","0.0-7.0-1.13","560ce65601c38a0012769e20","bdp_wmem","Mon Mar 13 2023 14:57:30 GMT-0400 (Eastern Daylight Time)","803116","Match,No Match","","null","","","","","","<div class='trialBorder'><div class='vertical-center'><img src='img/fixation2_sml.jpg'</img></div></div>","null","FIX","","","","","","","","","","",""
"html-keyboard-response","101","431374","0.0-7.0-2.13","560ce65601c38a0012769e20","bdp_wmem","Mon Mar 13 2023 14:57:30 GMT-0400 (Eastern Daylight Time)","803116","Match,No Match","","null","","","","","","<div class='trialBorder'><div class='vertical-center'><img style='vertical-align:center; align:center' src='img/fixation2_sml.jpg'></div><div class='arrayDiv1'><div class='tc'><img class='introPic' src='trustrating_stim/white_mw070.bmp'><br><font color='red'><strong>Keep</strong></font></div></div></div>","null","ARRAY","1","trustrating_stim/white_mw070.bmp","0","noMatchOutcome","i","1500","","","","",""
"html-keyboard-response","102","435628","0.0-7.0-3.13","560ce65601c38a0012769e20","bdp_wmem","Mon Mar 13 2023 14:57:30 GMT-0400 (Eastern Daylight Time)","803116","Match,No Match","","null","","","","","","<div class='trialBorder'><div class='vertical-center'><img src='img/fixation2_sml.jpg'</img></div></div>","null","DELAY","","","","","","","","","","",""
"html-keyboard-response","103","438456","0.0-7.0-4.13","560ce65601c38a0012769e20","bdp_wmem","Mon Mar 13 2023 14:57:30 GMT-0400 (Eastern Daylight Time)","803116","Match,No Match","","2827","","","","","","<div class='trialBorder'><div class='targDiv'><div class='tc'><img class='introPic' src='trustrating_stim/white_mw070.bmp'><br><font color='green'><strong>Share</strong></font></div></div><div class='respDiv'><div class='respDivL'>Match<br>(e)</div><div class='respDivR'>No Match<br>(i)</div></div></div>","i","TARGET","1","trustrating_stim/white_mw070.bmp","0","noMatchOutcome","i","1500","trustrating_stim/white_mw070.bmp","green","Share","REAL","1"
"html-keyboard-response","104","438958","0.0-7.0-5.13","560ce65601c38a0012769e20","bdp_wmem","Mon Mar 13 2023 14:57:30 GMT-0400 (Eastern Daylight Time)","803116","Match,No Match","","null","","","","","","<div class='trialBorder'><div class='vertical-center'><img src='img/correct.jpg'></div><div class='respDiv'><div class='respDivL'>Match<br>(e)</div><div class='respDivR'><font style='color:orange'>No Match<br>(i)</font></div></div></div>","null","FEEDBACK","","","","","","","","","","",""
"html-keyboard-response","105","439461","0.0-7.0-1.14","560ce65601c38a0012769e20","bdp_wmem","Mon Mar 13 2023 14:57:30 GMT-0400 (Eastern Daylight Time)","803116","Match,No Match","","null","","","","","","<div class='trialBorder'><div class='vertical-center'><img src='img/fixation2_sml.jpg'</img></div></div>","null","FIX","","","","","","","","","","",""
"html-keyboard-response","106","440968","0.0-7.0-2.14","560ce65601c38a0012769e20","bdp_wmem","Mon Mar 13 2023 14:57:30 GMT-0400 (Eastern Daylight Time)","803116","Match,No Match","","null","","","","","","<div class='trialBorder'><div class='vertical-center'><img style='vertical-align:center; align:center' src='img/fixation2_sml.jpg'></div><div class='arrayDiv1'><div class='tc'><img class='introPic' src='trustrating_stim/white_mw078.bmp'><br><font color='red'><strong>Keep</strong></font></div></div></div>","null","ARRAY","1","trustrating_stim/white_mw078.bmp","0","Match","e","1500","","","","",""
"html-keyboard-response","107","445616","0.0-7.0-3.14","560ce65601c38a0012769e20","bdp_wmem","Mon Mar 13 2023 14:57:30 GMT-0400 (Eastern Daylight Time)","803116","Match,No Match","","null","","","","","","<div class='trialBorder'><div class='vertical-center'><img src='img/fixation2_sml.jpg'</img></div></div>","null","DELAY","","","","","","","","","","",""
"html-keyboard-response","108","446955","0.0-7.0-4.14","560ce65601c38a0012769e20","bdp_wmem","Mon Mar 13 2023 14:57:30 GMT-0400 (Eastern Daylight Time)","803116","Match,No Match","","1337","","","","","","<div class='trialBorder'><div class='targDiv'><div class='tc'><img class='introPic' src='trustrating_stim/white_mw078.bmp'><br><font color='red'><strong>Keep</strong></font></div></div><div class='respDiv'><div class='respDivL'>Match<br>(e)</div><div class='respDivR'>No Match<br>(i)</div></div></div>","e","TARGET","1","trustrating_stim/white_mw078.bmp","0","Match","e","1500","trustrating_stim/white_mw078.bmp","red","Keep","REAL","1"
"html-keyboard-response","109","447469","0.0-7.0-5.14","560ce65601c38a0012769e20","bdp_wmem","Mon Mar 13 2023 14:57:30 GMT-0400 (Eastern Daylight Time)","803116","Match,No Match","","null","","","","","","<div class='trialBorder'><div class='vertical-center'><img src='img/correct.jpg'></div><div class='respDiv'><div class='respDivL'><font style='color:orange'>Match<br>(e)</font></div><div class='respDivR'>No Match<br>(i)</div></div></div>","null","FEEDBACK","","","","","","","","","","",""
"html-keyboard-response","110","447972","0.0-7.0-1.15","560ce65601c38a0012769e20","bdp_wmem","Mon Mar 13 2023 14:57:30 GMT-0400 (Eastern Daylight Time)","803116","Match,No Match","","null","","","","","","<div class='trialBorder'><div class='vertical-center'><img src='img/fixation2_sml.jpg'</img></div></div>","null","FIX","","","","","","","","","","",""
"html-keyboard-response","111","452620","0.0-7.0-2.15","560ce65601c38a0012769e20","bdp_wmem","Mon Mar 13 2023 14:57:30 GMT-0400 (Eastern Daylight Time)","803116","Match,No Match","","null","","","","","","<div class='trialBorder'><div class='vertical-center'><img style='vertical-align:center; align:center' src='img/fixation2_sml.jpg'></div><div class='arrayDiv3'><div class='tl'><img class='introPic' src='trustrating_stim/white_mw070.bmp'><br><font color='green'><strong>Share</strong></font></div><div class='tc'><img class='introPic' src='trustrating_stim/white_mw012.bmp'><br><font color='red'><strong>Keep</strong></font></div><div class='tr'><img class='introPic' src='trustrating_stim/white_mw091.bmp'><br><font color='red'><strong>Keep</strong></font></div></div></div>","null","ARRAY","3","trustrating_stim/white_mw070.bmp,trustrating_stim/white_mw012.bmp,trustrating_stim/white_mw091.bmp","1,0,0","Match","e","4500","","","","",""
"html-keyboard-response","112","457631","0.0-7.0-3.15","560ce65601c38a0012769e20","bdp_wmem","Mon Mar 13 2023 14:57:30 GMT-0400 (Eastern Daylight Time)","803116","Match,No Match","","null","","","","","","<div class='trialBorder'><div class='vertical-center'><img src='img/fixation2_sml.jpg'</img></div></div>","null","DELAY","","","","","","","","","","",""
"html-keyboard-response","113","459059","0.0-7.0-4.15","560ce65601c38a0012769e20","bdp_wmem","Mon Mar 13 2023 14:57:30 GMT-0400 (Eastern Daylight Time)","803116","Match,No Match","","1428","","","","","","<div class='trialBorder'><div class='targDiv'><div class='tc'><img class='introPic' src='trustrating_stim/white_mw070.bmp'><br><font color='green'><strong>Share</strong></font></div></div><div class='respDiv'><div class='respDivL'>Match<br>(e)</div><div class='respDivR'>No Match<br>(i)</div></div></div>","e","TARGET","3","trustrating_stim/white_mw070.bmp,trustrating_stim/white_mw012.bmp,trustrating_stim/white_mw091.bmp","1,0,0","Match","e","4500","trustrating_stim/white_mw070.bmp","green","Share","REAL","1"
"html-keyboard-response","114","459562","0.0-7.0-5.15","560ce65601c38a0012769e20","bdp_wmem","Mon Mar 13 2023 14:57:30 GMT-0400 (Eastern Daylight Time)","803116","Match,No Match","","null","","","","","","<div class='trialBorder'><div class='vertical-center'><img src='img/correct.jpg'></div><div class='respDiv'><div class='respDivL'><font style='color:orange'>Match<br>(e)</font></div><div class='respDivR'>No Match<br>(i)</div></div></div>","null","FEEDBACK","","","","","","","","","","",""
"html-keyboard-response","115","460064","0.0-7.0-1.16","560ce65601c38a0012769e20","bdp_wmem","Mon Mar 13 2023 14:57:30 GMT-0400 (Eastern Daylight Time)","803116","Match,No Match","","null","","","","","","<div class='trialBorder'><div class='vertical-center'><img src='img/fixation2_sml.jpg'</img></div></div>","null","FIX","","","","","","","","","","",""
"html-keyboard-response","116","463066","0.0-7.0-2.16","560ce65601c38a0012769e20","bdp_wmem","Mon Mar 13 2023 14:57:30 GMT-0400 (Eastern Daylight Time)","803116","Match,No Match","","null","","","","","","<div class='trialBorder'><div class='vertical-center'><img style='vertical-align:center; align:center' src='img/fixation2_sml.jpg'></div><div class='arrayDiv2'><div class='tl'><img class='introPic' src='trustrating_stim/white_mw040.bmp'><br><font color='green'><strong>Share</strong></font></div><div class='tr'><img class='introPic' src='trustrating_stim/white_mw085.bmp'><br><font color='red'><strong>Keep</strong></font></div></div></div>","null","ARRAY","2","trustrating_stim/white_mw040.bmp,trustrating_stim/white_mw085.bmp","1,0","noMatchOutcome","i","3000","","","","",""
"html-keyboard-response","117","467621","0.0-7.0-3.16","560ce65601c38a0012769e20","bdp_wmem","Mon Mar 13 2023 14:57:30 GMT-0400 (Eastern Daylight Time)","803116","Match,No Match","","null","","","","","","<div class='trialBorder'><div class='vertical-center'><img src='img/fixation2_sml.jpg'</img></div></div>","null","DELAY","","","","","","","","","","",""
"html-keyboard-response","118","469411","0.0-7.0-4.16","560ce65601c38a0012769e20","bdp_wmem","Mon Mar 13 2023 14:57:30 GMT-0400 (Eastern Daylight Time)","803116","Match,No Match","","1789","","","","","","<div class='trialBorder'><div class='targDiv'><div class='tc'><img class='introPic' src='trustrating_stim/white_mw085.bmp'><br><font color='green'><strong>Share</strong></font></div></div><div class='respDiv'><div class='respDivL'>Match<br>(e)</div><div class='respDivR'>No Match<br>(i)</div></div></div>","i","TARGET","2","trustrating_stim/white_mw040.bmp,trustrating_stim/white_mw085.bmp","1,0","noMatchOutcome","i","3000","trustrating_stim/white_mw085.bmp","green","Share","REAL","1"
"html-keyboard-response","119","469913","0.0-7.0-5.16","560ce65601c38a0012769e20","bdp_wmem","Mon Mar 13 2023 14:57:30 GMT-0400 (Eastern Daylight Time)","803116","Match,No Match","","null","","","","","","<div class='trialBorder'><div class='vertical-center'><img src='img/correct.jpg'></div><div class='respDiv'><div class='respDivL'>Match<br>(e)</div><div class='respDivR'><font style='color:orange'>No Match<br>(i)</font></div></div></div>","null","FEEDBACK","","","","","","","","","","",""
"html-keyboard-response","120","470416","0.0-7.0-1.17","560ce65601c38a0012769e20","bdp_wmem","Mon Mar 13 2023 14:57:30 GMT-0400 (Eastern Daylight Time)","803116","Match,No Match","","null","","","","","","<div class='trialBorder'><div class='vertical-center'><img src='img/fixation2_sml.jpg'</img></div></div>","null","FIX","","","","","","","","","","",""
"html-keyboard-response","121","475630","0.0-7.0-2.17","560ce65601c38a0012769e20","bdp_wmem","Mon Mar 13 2023 14:57:30 GMT-0400 (Eastern Daylight Time)","803116","Match,No Match","","null","","","","","","<div class='trialBorder'><div class='vertical-center'><img style='vertical-align:center; align:center' src='img/fixation2_sml.jpg'></div><div class='arrayDiv3'><div class='tl'><img class='introPic' src='trustrating_stim/white_mw012.bmp'><br><font color='green'><strong>Share</strong></font></div><div class='tc'><img class='introPic' src='trustrating_stim/white_mw003.bmp'><br><font color='green'><strong>Share</strong></font></div><div class='tr'><img class='introPic' src='trustrating_stim/white_mw038.bmp'><br><font color='red'><strong>Keep</strong></font></div></div></div>","null","ARRAY","3","trustrating_stim/white_mw012.bmp,trustrating_stim/white_mw003.bmp,trustrating_stim/white_mw038.bmp","1,1,0","noMatchFace","i","4500","","","","",""
"html-keyboard-response","122","480624","0.0-7.0-3.17","560ce65601c38a0012769e20","bdp_wmem","Mon Mar 13 2023 14:57:30 GMT-0400 (Eastern Daylight Time)","803116","Match,No Match","","null","","","","","","<div class='trialBorder'><div class='vertical-center'><img src='img/fixation2_sml.jpg'</img></div></div>","null","DELAY","","","","","","","","","","",""
"html-keyboard-response","123","482410","0.0-7.0-4.17","560ce65601c38a0012769e20","bdp_wmem","Mon Mar 13 2023 14:57:30 GMT-0400 (Eastern Daylight Time)","803116","Match,No Match","","1786","","","","","","<div class='trialBorder'><div class='targDiv'><div class='tc'><img class='introPic' src='trustrating_stim/white_mw042.bmp'><br><font color='red'><strong>Keep</strong></font></div></div><div class='respDiv'><div class='respDivL'>Match<br>(e)</div><div class='respDivR'>No Match<br>(i)</div></div></div>","i","TARGET","3","trustrating_stim/white_mw012.bmp,trustrating_stim/white_mw003.bmp,trustrating_stim/white_mw038.bmp","1,1,0","noMatchFace","i","4500","trustrating_stim/white_mw042.bmp","red","Keep","REAL","1"
"html-keyboard-response","124","482918","0.0-7.0-5.17","560ce65601c38a0012769e20","bdp_wmem","Mon Mar 13 2023 14:57:30 GMT-0400 (Eastern Daylight Time)","803116","Match,No Match","","null","","","","","","<div class='trialBorder'><div class='vertical-center'><img src='img/correct.jpg'></div><div class='respDiv'><div class='respDivL'>Match<br>(e)</div><div class='respDivR'><font style='color:orange'>No Match<br>(i)</font></div></div></div>","null","FEEDBACK","","","","","","","","","","",""
"html-keyboard-response","125","483420","0.0-7.0-1.18","560ce65601c38a0012769e20","bdp_wmem","Mon Mar 13 2023 14:57:30 GMT-0400 (Eastern Daylight Time)","803116","Match,No Match","","null","","","","","","<div class='trialBorder'><div class='vertical-center'><img src='img/fixation2_sml.jpg'</img></div></div>","null","FIX","","","","","","","","","","",""
"html-keyboard-response","126","486435","0.0-7.0-2.18","560ce65601c38a0012769e20","bdp_wmem","Mon Mar 13 2023 14:57:30 GMT-0400 (Eastern Daylight Time)","803116","Match,No Match","","null","","","","","","<div class='trialBorder'><div class='vertical-center'><img style='vertical-align:center; align:center' src='img/fixation2_sml.jpg'></div><div class='arrayDiv2'><div class='tl'><img class='introPic' src='trustrating_stim/white_mw092.bmp'><br><font color='green'><strong>Share</strong></font></div><div class='tr'><img class='introPic' src='trustrating_stim/white_mw013.bmp'><br><font color='red'><strong>Keep</strong></font></div></div></div>","null","ARRAY","2","trustrating_stim/white_mw092.bmp,trustrating_stim/white_mw013.bmp","1,0","Match","e","3000","","","","",""
"html-keyboard-response","127","490629","0.0-7.0-3.18","560ce65601c38a0012769e20","bdp_wmem","Mon Mar 13 2023 14:57:30 GMT-0400 (Eastern Daylight Time)","803116","Match,No Match","","null","","","","","","<div class='trialBorder'><div class='vertical-center'><img src='img/fixation2_sml.jpg'</img></div></div>","null","DELAY","","","","","","","","","","",""
"html-keyboard-response","128","491509","0.0-7.0-4.18","560ce65601c38a0012769e20","bdp_wmem","Mon Mar 13 2023 14:57:30 GMT-0400 (Eastern Daylight Time)","803116","Match,No Match","","878","","","","","","<div class='trialBorder'><div class='targDiv'><div class='tc'><img class='introPic' src='trustrating_stim/white_mw013.bmp'><br><font color='red'><strong>Keep</strong></font></div></div><div class='respDiv'><div class='respDivL'>Match<br>(e)</div><div class='respDivR'>No Match<br>(i)</div></div></div>","e","TARGET","2","trustrating_stim/white_mw092.bmp,trustrating_stim/white_mw013.bmp","1,0","Match","e","3000","trustrating_stim/white_mw013.bmp","red","Keep","REAL","1"
"html-keyboard-response","129","492012","0.0-7.0-5.18","560ce65601c38a0012769e20","bdp_wmem","Mon Mar 13 2023 14:57:30 GMT-0400 (Eastern Daylight Time)","803116","Match,No Match","","null","","","","","","<div class='trialBorder'><div class='vertical-center'><img src='img/correct.jpg'></div><div class='respDiv'><div class='respDivL'><font style='color:orange'>Match<br>(e)</font></div><div class='respDivR'>No Match<br>(i)</div></div></div>","null","FEEDBACK","","","","","","","","","","",""
"html-keyboard-response","130","492514","0.0-7.0-1.19","560ce65601c38a0012769e20","bdp_wmem","Mon Mar 13 2023 14:57:30 GMT-0400 (Eastern Daylight Time)","803116","Match,No Match","","null","","","","","","<div class='trialBorder'><div class='vertical-center'><img src='img/fixation2_sml.jpg'</img></div></div>","null","FIX","","","","","","","","","","",""
"html-keyboard-response","131","494022","0.0-7.0-2.19","560ce65601c38a0012769e20","bdp_wmem","Mon Mar 13 2023 14:57:30 GMT-0400 (Eastern Daylight Time)","803116","Match,No Match","","null","","","","","","<div class='trialBorder'><div class='vertical-center'><img style='vertical-align:center; align:center' src='img/fixation2_sml.jpg'></div><div class='arrayDiv1'><div class='tc'><img class='introPic' src='trustrating_stim/white_mw012.bmp'><br><font color='red'><strong>Keep</strong></font></div></div></div>","null","ARRAY","1","trustrating_stim/white_mw012.bmp","0","Match","e","1500","","","","",""
"html-keyboard-response","132","498624","0.0-7.0-3.19","560ce65601c38a0012769e20","bdp_wmem","Mon Mar 13 2023 14:57:30 GMT-0400 (Eastern Daylight Time)","803116","Match,No Match","","null","","","","","","<div class='trialBorder'><div class='vertical-center'><img src='img/fixation2_sml.jpg'</img></div></div>","null","DELAY","","","","","","","","","","",""
"html-keyboard-response","133","499457","0.0-7.0-4.19","560ce65601c38a0012769e20","bdp_wmem","Mon Mar 13 2023 14:57:30 GMT-0400 (Eastern Daylight Time)","803116","Match,No Match","","830","","","","","","<div class='trialBorder'><div class='targDiv'><div class='tc'><img class='introPic' src='trustrating_stim/white_mw012.bmp'><br><font color='red'><strong>Keep</strong></font></div></div><div class='respDiv'><div class='respDivL'>Match<br>(e)</div><div class='respDivR'>No Match<br>(i)</div></div></div>","e","TARGET","1","trustrating_stim/white_mw012.bmp","0","Match","e","1500","trustrating_stim/white_mw012.bmp","red","Keep","REAL","1"
"html-keyboard-response","134","499959","0.0-7.0-5.19","560ce65601c38a0012769e20","bdp_wmem","Mon Mar 13 2023 14:57:30 GMT-0400 (Eastern Daylight Time)","803116","Match,No Match","","null","","","","","","<div class='trialBorder'><div class='vertical-center'><img src='img/correct.jpg'></div><div class='respDiv'><div class='respDivL'><font style='color:orange'>Match<br>(e)</font></div><div class='respDivR'>No Match<br>(i)</div></div></div>","null","FEEDBACK","","","","","","","","","","",""
"html-keyboard-response","135","500461","0.0-7.0-1.20","560ce65601c38a0012769e20","bdp_wmem","Mon Mar 13 2023 14:57:30 GMT-0400 (Eastern Daylight Time)","803116","Match,No Match","","null","","","","","","<div class='trialBorder'><div class='vertical-center'><img src='img/fixation2_sml.jpg'</img></div></div>","null","FIX","","","","","","","","","","",""
"html-keyboard-response","136","505627","0.0-7.0-2.20","560ce65601c38a0012769e20","bdp_wmem","Mon Mar 13 2023 14:57:30 GMT-0400 (Eastern Daylight Time)","803116","Match,No Match","","null","","","","","","<div class='trialBorder'><div class='vertical-center'><img style='vertical-align:center; align:center' src='img/fixation2_sml.jpg'></div><div class='arrayDiv3'><div class='tl'><img class='introPic' src='trustrating_stim/white_mw091.bmp'><br><font color='red'><strong>Keep</strong></font></div><div class='tc'><img class='introPic' src='trustrating_stim/white_mw012.bmp'><br><font color='green'><strong>Share</strong></font></div><div class='tr'><img class='introPic' src='trustrating_stim/white_mw013.bmp'><br><font color='red'><strong>Keep</strong></font></div></div></div>","null","ARRAY","3","trustrating_stim/white_mw091.bmp,trustrating_stim/white_mw012.bmp,trustrating_stim/white_mw013.bmp","0,1,0","noMatchOutcome","i","4500","","","","",""
"html-keyboard-response","137","510620","0.0-7.0-3.20","560ce65601c38a0012769e20","bdp_wmem","Mon Mar 13 2023 14:57:30 GMT-0400 (Eastern Daylight Time)","803116","Match,No Match","","null","","","","","","<div class='trialBorder'><div class='vertical-center'><img src='img/fixation2_sml.jpg'</img></div></div>","null","DELAY","","","","","","","","","","",""
"html-keyboard-response","138","513074","0.0-7.0-4.20","560ce65601c38a0012769e20","bdp_wmem","Mon Mar 13 2023 14:57:30 GMT-0400 (Eastern Daylight Time)","803116","Match,No Match","","2453","","","","","","<div class='trialBorder'><div class='targDiv'><div class='tc'><img class='introPic' src='trustrating_stim/white_mw012.bmp'><br><font color='red'><strong>Keep</strong></font></div></div><div class='respDiv'><div class='respDivL'>Match<br>(e)</div><div class='respDivR'>No Match<br>(i)</div></div></div>","i","TARGET","3","trustrating_stim/white_mw091.bmp,trustrating_stim/white_mw012.bmp,trustrating_stim/white_mw013.bmp","0,1,0","noMatchOutcome","i","4500","trustrating_stim/white_mw012.bmp","red","Keep","REAL","1"
"html-keyboard-response","139","513588","0.0-7.0-5.20","560ce65601c38a0012769e20","bdp_wmem","Mon Mar 13 2023 14:57:30 GMT-0400 (Eastern Daylight Time)","803116","Match,No Match","","null","","","","","","<div class='trialBorder'><div class='vertical-center'><img src='img/correct.jpg'></div><div class='respDiv'><div class='respDivL'>Match<br>(e)</div><div class='respDivR'><font style='color:orange'>No Match<br>(i)</font></div></div></div>","null","FEEDBACK","","","","","","","","","","",""
"html-keyboard-response","140","514090","0.0-7.0-1.21","560ce65601c38a0012769e20","bdp_wmem","Mon Mar 13 2023 14:57:30 GMT-0400 (Eastern Daylight Time)","803116","Match,No Match","","null","","","","","","<div class='trialBorder'><div class='vertical-center'><img src='img/fixation2_sml.jpg'</img></div></div>","null","FIX","","","","","","","","","","",""
"html-keyboard-response","141","518629","0.0-7.0-2.21","560ce65601c38a0012769e20","bdp_wmem","Mon Mar 13 2023 14:57:30 GMT-0400 (Eastern Daylight Time)","803116","Match,No Match","","null","","","","","","<div class='trialBorder'><div class='vertical-center'><img style='vertical-align:center; align:center' src='img/fixation2_sml.jpg'></div><div class='arrayDiv3'><div class='tl'><img class='introPic' src='trustrating_stim/white_mw012.bmp'><br><font color='red'><strong>Keep</strong></font></div><div class='tc'><img class='introPic' src='trustrating_stim/white_mw078.bmp'><br><font color='green'><strong>Share</strong></font></div><div class='tr'><img class='introPic' src='trustrating_stim/white_mw038.bmp'><br><font color='green'><strong>Share</strong></font></div></div></div>","null","ARRAY","3","trustrating_stim/white_mw012.bmp,trustrating_stim/white_mw078.bmp,trustrating_stim/white_mw038.bmp","0,1,1","Match","e","4500","","","","",""
"html-keyboard-response","142","523623","0.0-7.0-3.21","560ce65601c38a0012769e20","bdp_wmem","Mon Mar 13 2023 14:57:30 GMT-0400 (Eastern Daylight Time)","803116","Match,No Match","","null","","","","","","<div class='trialBorder'><div class='vertical-center'><img src='img/fixation2_sml.jpg'</img></div></div>","null","DELAY","","","","","","","","","","",""
"html-keyboard-response","143","525946","0.0-7.0-4.21","560ce65601c38a0012769e20","bdp_wmem","Mon Mar 13 2023 14:57:30 GMT-0400 (Eastern Daylight Time)","803116","Match,No Match","","2321","","","","","","<div class='trialBorder'><div class='targDiv'><div class='tc'><img class='introPic' src='trustrating_stim/white_mw078.bmp'><br><font color='green'><strong>Share</strong></font></div></div><div class='respDiv'><div class='respDivL'>Match<br>(e)</div><div class='respDivR'>No Match<br>(i)</div></div></div>","e","TARGET","3","trustrating_stim/white_mw012.bmp,trustrating_stim/white_mw078.bmp,trustrating_stim/white_mw038.bmp","0,1,1","Match","e","4500","trustrating_stim/white_mw078.bmp","green","Share","REAL","1"
"html-keyboard-response","144","526448","0.0-7.0-5.21","560ce65601c38a0012769e20","bdp_wmem","Mon Mar 13 2023 14:57:30 GMT-0400 (Eastern Daylight Time)","803116","Match,No Match","","null","","","","","","<div class='trialBorder'><div class='vertical-center'><img src='img/correct.jpg'></div><div class='respDiv'><div class='respDivL'><font style='color:orange'>Match<br>(e)</font></div><div class='respDivR'>No Match<br>(i)</div></div></div>","null","FEEDBACK","","","","","","","","","","",""
"html-keyboard-response","145","526951","0.0-7.0-1.22","560ce65601c38a0012769e20","bdp_wmem","Mon Mar 13 2023 14:57:30 GMT-0400 (Eastern Daylight Time)","803116","Match,No Match","","null","","","","","","<div class='trialBorder'><div class='vertical-center'><img src='img/fixation2_sml.jpg'</img></div></div>","null","FIX","","","","","","","","","","",""
"html-keyboard-response","146","528459","0.0-7.0-2.22","560ce65601c38a0012769e20","bdp_wmem","Mon Mar 13 2023 14:57:30 GMT-0400 (Eastern Daylight Time)","803116","Match,No Match","","null","","","","","","<div class='trialBorder'><div class='vertical-center'><img style='vertical-align:center; align:center' src='img/fixation2_sml.jpg'></div><div class='arrayDiv1'><div class='tc'><img class='introPic' src='trustrating_stim/white_mw078.bmp'><br><font color='green'><strong>Share</strong></font></div></div></div>","null","ARRAY","1","trustrating_stim/white_mw078.bmp","1","noMatchFace","i","1500","","","","",""
"html-keyboard-response","147","532620","0.0-7.0-3.22","560ce65601c38a0012769e20","bdp_wmem","Mon Mar 13 2023 14:57:30 GMT-0400 (Eastern Daylight Time)","803116","Match,No Match","","null","","","","","","<div class='trialBorder'><div class='vertical-center'><img src='img/fixation2_sml.jpg'</img></div></div>","null","DELAY","","","","","","","","","","",""
"html-keyboard-response","148","533969","0.0-7.0-4.22","560ce65601c38a0012769e20","bdp_wmem","Mon Mar 13 2023 14:57:30 GMT-0400 (Eastern Daylight Time)","803116","Match,No Match","","1348","","","","","","<div class='trialBorder'><div class='targDiv'><div class='tc'><img class='introPic' src='trustrating_stim/white_mw010.bmp'><br><font color='green'><strong>Share</strong></font></div></div><div class='respDiv'><div class='respDivL'>Match<br>(e)</div><div class='respDivR'>No Match<br>(i)</div></div></div>","i","TARGET","1","trustrating_stim/white_mw078.bmp","1","noMatchFace","i","1500","trustrating_stim/white_mw010.bmp","green","Share","REAL","1"
"html-keyboard-response","149","534473","0.0-7.0-5.22","560ce65601c38a0012769e20","bdp_wmem","Mon Mar 13 2023 14:57:30 GMT-0400 (Eastern Daylight Time)","803116","Match,No Match","","null","","","","","","<div class='trialBorder'><div class='vertical-center'><img src='img/correct.jpg'></div><div class='respDiv'><div class='respDivL'>Match<br>(e)</div><div class='respDivR'><font style='color:orange'>No Match<br>(i)</font></div></div></div>","null","FEEDBACK","","","","","","","","","","",""
"html-keyboard-response","150","534975","0.0-7.0-1.23","560ce65601c38a0012769e20","bdp_wmem","Mon Mar 13 2023 14:57:30 GMT-0400 (Eastern Daylight Time)","803116","Match,No Match","","null","","","","","","<div class='trialBorder'><div class='vertical-center'><img src='img/fixation2_sml.jpg'</img></div></div>","null","FIX","","","","","","","","","","",""
"html-keyboard-response","151","539625","0.0-7.0-2.23","560ce65601c38a0012769e20","bdp_wmem","Mon Mar 13 2023 14:57:30 GMT-0400 (Eastern Daylight Time)","803116","Match,No Match","","null","","","","","","<div class='trialBorder'><div class='vertical-center'><img style='vertical-align:center; align:center' src='img/fixation2_sml.jpg'></div><div class='arrayDiv3'><div class='tl'><img class='introPic' src='trustrating_stim/white_mw040.bmp'><br><font color='red'><strong>Keep</strong></font></div><div class='tc'><img class='introPic' src='trustrating_stim/white_mw042.bmp'><br><font color='red'><strong>Keep</strong></font></div><div class='tr'><img class='introPic' src='trustrating_stim/white_mw013.bmp'><br><font color='green'><strong>Share</strong></font></div></div></div>","null","ARRAY","3","trustrating_stim/white_mw040.bmp,trustrating_stim/white_mw042.bmp,trustrating_stim/white_mw013.bmp","0,0,1","noMatchOutcome","i","4500","","","","",""
"html-keyboard-response","152","544620","0.0-7.0-3.23","560ce65601c38a0012769e20","bdp_wmem","Mon Mar 13 2023 14:57:30 GMT-0400 (Eastern Daylight Time)","803116","Match,No Match","","null","","","","","","<div class='trialBorder'><div class='vertical-center'><img src='img/fixation2_sml.jpg'</img></div></div>","null","DELAY","","","","","","","","","","",""
"html-keyboard-response","153","547043","0.0-7.0-4.23","560ce65601c38a0012769e20","bdp_wmem","Mon Mar 13 2023 14:57:30 GMT-0400 (Eastern Daylight Time)","803116","Match,No Match","","2422","","","","","","<div class='trialBorder'><div class='targDiv'><div class='tc'><img class='introPic' src='trustrating_stim/white_mw040.bmp'><br><font color='green'><strong>Share</strong></font></div></div><div class='respDiv'><div class='respDivL'>Match<br>(e)</div><div class='respDivR'>No Match<br>(i)</div></div></div>","i","TARGET","3","trustrating_stim/white_mw040.bmp,trustrating_stim/white_mw042.bmp,trustrating_stim/white_mw013.bmp","0,0,1","noMatchOutcome","i","4500","trustrating_stim/white_mw040.bmp","green","Share","REAL","1"
"html-keyboard-response","154","547557","0.0-7.0-5.23","560ce65601c38a0012769e20","bdp_wmem","Mon Mar 13 2023 14:57:30 GMT-0400 (Eastern Daylight Time)","803116","Match,No Match","","null","","","","","","<div class='trialBorder'><div class='vertical-center'><img src='img/correct.jpg'></div><div class='respDiv'><div class='respDivL'>Match<br>(e)</div><div class='respDivR'><font style='color:orange'>No Match<br>(i)</font></div></div></div>","null","FEEDBACK","","","","","","","","","","",""
"html-keyboard-response","155","548058","0.0-7.0-1.24","560ce65601c38a0012769e20","bdp_wmem","Mon Mar 13 2023 14:57:30 GMT-0400 (Eastern Daylight Time)","803116","Match,No Match","","null","","","","","","<div class='trialBorder'><div class='vertical-center'><img src='img/fixation2_sml.jpg'</img></div></div>","null","FIX","","","","","","","","","","",""
"html-keyboard-response","156","551074","0.0-7.0-2.24","560ce65601c38a0012769e20","bdp_wmem","Mon Mar 13 2023 14:57:30 GMT-0400 (Eastern Daylight Time)","803116","Match,No Match","","null","","","","","","<div class='trialBorder'><div class='vertical-center'><img style='vertical-align:center; align:center' src='img/fixation2_sml.jpg'></div><div class='arrayDiv2'><div class='tl'><img class='introPic' src='trustrating_stim/white_mw091.bmp'><br><font color='red'><strong>Keep</strong></font></div><div class='tr'><img class='introPic' src='trustrating_stim/white_mw003.bmp'><br><font color='green'><strong>Share</strong></font></div></div></div>","null","ARRAY","2","trustrating_stim/white_mw091.bmp,trustrating_stim/white_mw003.bmp","0,1","noMatchOutcome","i","3000","","","","",""
"html-keyboard-response","157","555628","0.0-7.0-3.24","560ce65601c38a0012769e20","bdp_wmem","Mon Mar 13 2023 14:57:30 GMT-0400 (Eastern Daylight Time)","803116","Match,No Match","","null","","","","","","<div class='trialBorder'><div class='vertical-center'><img src='img/fixation2_sml.jpg'</img></div></div>","null","DELAY","","","","","","","","","","",""
"html-keyboard-response","158","557730","0.0-7.0-4.24","560ce65601c38a0012769e20","bdp_wmem","Mon Mar 13 2023 14:57:30 GMT-0400 (Eastern Daylight Time)","803116","Match,No Match","","2100","","","","","","<div class='trialBorder'><div class='targDiv'><div class='tc'><img class='introPic' src='trustrating_stim/white_mw091.bmp'><br><font color='green'><strong>Share</strong></font></div></div><div class='respDiv'><div class='respDivL'>Match<br>(e)</div><div class='respDivR'>No Match<br>(i)</div></div></div>","i","TARGET","2","trustrating_stim/white_mw091.bmp,trustrating_stim/white_mw003.bmp","0,1","noMatchOutcome","i","3000","trustrating_stim/white_mw091.bmp","green","Share","REAL","1"
"html-keyboard-response","159","558235","0.0-7.0-5.24","560ce65601c38a0012769e20","bdp_wmem","Mon Mar 13 2023 14:57:30 GMT-0400 (Eastern Daylight Time)","803116","Match,No Match","","null","","","","","","<div class='trialBorder'><div class='vertical-center'><img src='img/correct.jpg'></div><div class='respDiv'><div class='respDivL'>Match<br>(e)</div><div class='respDivR'><font style='color:orange'>No Match<br>(i)</font></div></div></div>","null","FEEDBACK","","","","","","","","","","",""
"html-keyboard-response","160","558738","0.0-7.0-1.25","560ce65601c38a0012769e20","bdp_wmem","Mon Mar 13 2023 14:57:30 GMT-0400 (Eastern Daylight Time)","803116","Match,No Match","","null","","","","","","<div class='trialBorder'><div class='vertical-center'><img src='img/fixation2_sml.jpg'</img></div></div>","null","FIX","","","","","","","","","","",""
"html-keyboard-response","161","561754","0.0-7.0-2.25","560ce65601c38a0012769e20","bdp_wmem","Mon Mar 13 2023 14:57:30 GMT-0400 (Eastern Daylight Time)","803116","Match,No Match","","null","","","","","","<div class='trialBorder'><div class='vertical-center'><img style='vertical-align:center; align:center' src='img/fixation2_sml.jpg'></div><div class='arrayDiv2'><div class='tl'><img class='introPic' src='trustrating_stim/white_mw092.bmp'><br><font color='red'><strong>Keep</strong></font></div><div class='tr'><img class='introPic' src='trustrating_stim/white_mw003.bmp'><br><font color='green'><strong>Share</strong></font></div></div></div>","null","ARRAY","2","trustrating_stim/white_mw092.bmp,trustrating_stim/white_mw003.bmp","0,1","noMatchFace","i","3000","","","","",""
"html-keyboard-response","162","566621","0.0-7.0-3.25","560ce65601c38a0012769e20","bdp_wmem","Mon Mar 13 2023 14:57:30 GMT-0400 (Eastern Daylight Time)","803116","Match,No Match","","null","","","","","","<div class='trialBorder'><div class='vertical-center'><img src='img/fixation2_sml.jpg'</img></div></div>","null","DELAY","","","","","","","","","","",""
"html-keyboard-response","163","567640","0.0-7.0-4.25","560ce65601c38a0012769e20","bdp_wmem","Mon Mar 13 2023 14:57:30 GMT-0400 (Eastern Daylight Time)","803116","Match,No Match","","1016","","","","","","<div class='trialBorder'><div class='targDiv'><div class='tc'><img class='introPic' src='trustrating_stim/white_mw010.bmp'><br><font color='green'><strong>Share</strong></font></div></div><div class='respDiv'><div class='respDivL'>Match<br>(e)</div><div class='respDivR'>No Match<br>(i)</div></div></div>","i","TARGET","2","trustrating_stim/white_mw092.bmp,trustrating_stim/white_mw003.bmp","0,1","noMatchFace","i","3000","trustrating_stim/white_mw010.bmp","green","Share","REAL","1"
"html-keyboard-response","164","568144","0.0-7.0-5.25","560ce65601c38a0012769e20","bdp_wmem","Mon Mar 13 2023 14:57:30 GMT-0400 (Eastern Daylight Time)","803116","Match,No Match","","null","","","","","","<div class='trialBorder'><div class='vertical-center'><img src='img/correct.jpg'></div><div class='respDiv'><div class='respDivL'>Match<br>(e)</div><div class='respDivR'><font style='color:orange'>No Match<br>(i)</font></div></div></div>","null","FEEDBACK","","","","","","","","","","",""
"html-keyboard-response","165","568647","0.0-7.0-1.26","560ce65601c38a0012769e20","bdp_wmem","Mon Mar 13 2023 14:57:30 GMT-0400 (Eastern Daylight Time)","803116","Match,No Match","","null","","","","","","<div class='trialBorder'><div class='vertical-center'><img src='img/fixation2_sml.jpg'</img></div></div>","null","FIX","","","","","","","","","","",""
"html-keyboard-response","166","571662","0.0-7.0-2.26","560ce65601c38a0012769e20","bdp_wmem","Mon Mar 13 2023 14:57:30 GMT-0400 (Eastern Daylight Time)","803116","Match,No Match","","null","","","","","","<div class='trialBorder'><div class='vertical-center'><img style='vertical-align:center; align:center' src='img/fixation2_sml.jpg'></div><div class='arrayDiv2'><div class='tl'><img class='introPic' src='trustrating_stim/white_mw085.bmp'><br><font color='red'><strong>Keep</strong></font></div><div class='tr'><img class='introPic' src='trustrating_stim/white_mw070.bmp'><br><font color='green'><strong>Share</strong></font></div></div></div>","null","ARRAY","2","trustrating_stim/white_mw085.bmp,trustrating_stim/white_mw070.bmp","0,1","Match","e","3000","","","","",""
"html-keyboard-response","167","576625","0.0-7.0-3.26","560ce65601c38a0012769e20","bdp_wmem","Mon Mar 13 2023 14:57:30 GMT-0400 (Eastern Daylight Time)","803116","Match,No Match","","null","","","","","","<div class='trialBorder'><div class='vertical-center'><img src='img/fixation2_sml.jpg'</img></div></div>","null","DELAY","","","","","","","","","","",""
"html-keyboard-response","168","577611","0.0-7.0-4.26","560ce65601c38a0012769e20","bdp_wmem","Mon Mar 13 2023 14:57:30 GMT-0400 (Eastern Daylight Time)","803116","Match,No Match","","986","","","","","","<div class='trialBorder'><div class='targDiv'><div class='tc'><img class='introPic' src='trustrating_stim/white_mw085.bmp'><br><font color='red'><strong>Keep</strong></font></div></div><div class='respDiv'><div class='respDivL'>Match<br>(e)</div><div class='respDivR'>No Match<br>(i)</div></div></div>","e","TARGET","2","trustrating_stim/white_mw085.bmp,trustrating_stim/white_mw070.bmp","0,1","Match","e","3000","trustrating_stim/white_mw085.bmp","red","Keep","REAL","1"
"html-keyboard-response","169","578118","0.0-7.0-5.26","560ce65601c38a0012769e20","bdp_wmem","Mon Mar 13 2023 14:57:30 GMT-0400 (Eastern Daylight Time)","803116","Match,No Match","","null","","","","","","<div class='trialBorder'><div class='vertical-center'><img src='img/correct.jpg'></div><div class='respDiv'><div class='respDivL'><font style='color:orange'>Match<br>(e)</font></div><div class='respDivR'>No Match<br>(i)</div></div></div>","null","FEEDBACK","","","","","","","","","","",""
"html-keyboard-response","170","578621","0.0-7.0-1.27","560ce65601c38a0012769e20","bdp_wmem","Mon Mar 13 2023 14:57:30 GMT-0400 (Eastern Daylight Time)","803116","Match,No Match","","null","","","","","","<div class='trialBorder'><div class='vertical-center'><img src='img/fixation2_sml.jpg'</img></div></div>","null","FIX","","","","","","","","","","",""
"html-keyboard-response","171","583630","0.0-7.0-2.27","560ce65601c38a0012769e20","bdp_wmem","Mon Mar 13 2023 14:57:30 GMT-0400 (Eastern Daylight Time)","803116","Match,No Match","","null","","","","","","<div class='trialBorder'><div class='vertical-center'><img style='vertical-align:center; align:center' src='img/fixation2_sml.jpg'></div><div class='arrayDiv3'><div class='tl'><img class='introPic' src='trustrating_stim/white_mw003.bmp'><br><font color='green'><strong>Share</strong></font></div><div class='tc'><img class='introPic' src='trustrating_stim/white_mw070.bmp'><br><font color='green'><strong>Share</strong></font></div><div class='tr'><img class='introPic' src='trustrating_stim/white_mw013.bmp'><br><font color='red'><strong>Keep</strong></font></div></div></div>","null","ARRAY","3","trustrating_stim/white_mw003.bmp,trustrating_stim/white_mw070.bmp,trustrating_stim/white_mw013.bmp","1,1,0","Match","e","4500","","","","",""
"html-keyboard-response","172","588624","0.0-7.0-3.27","560ce65601c38a0012769e20","bdp_wmem","Mon Mar 13 2023 14:57:30 GMT-0400 (Eastern Daylight Time)","803116","Match,No Match","","null","","","","","","<div class='trialBorder'><div class='vertical-center'><img src='img/fixation2_sml.jpg'</img></div></div>","null","DELAY","","","","","","","","","","",""
"html-keyboard-response","173","590066","0.0-7.0-4.27","560ce65601c38a0012769e20","bdp_wmem","Mon Mar 13 2023 14:57:30 GMT-0400 (Eastern Daylight Time)","803116","Match,No Match","","1441","","","","","","<div class='trialBorder'><div class='targDiv'><div class='tc'><img class='introPic' src='trustrating_stim/white_mw013.bmp'><br><font color='red'><strong>Keep</strong></font></div></div><div class='respDiv'><div class='respDivL'>Match<br>(e)</div><div class='respDivR'>No Match<br>(i)</div></div></div>","e","TARGET","3","trustrating_stim/white_mw003.bmp,trustrating_stim/white_mw070.bmp,trustrating_stim/white_mw013.bmp","1,1,0","Match","e","4500","trustrating_stim/white_mw013.bmp","red","Keep","REAL","1"
"html-keyboard-response","174","590572","0.0-7.0-5.27","560ce65601c38a0012769e20","bdp_wmem","Mon Mar 13 2023 14:57:30 GMT-0400 (Eastern Daylight Time)","803116","Match,No Match","","null","","","","","","<div class='trialBorder'><div class='vertical-center'><img src='img/correct.jpg'></div><div class='respDiv'><div class='respDivL'><font style='color:orange'>Match<br>(e)</font></div><div class='respDivR'>No Match<br>(i)</div></div></div>","null","FEEDBACK","","","","","","","","","","",""
"html-keyboard-response","175","591074","0.0-7.0-1.28","560ce65601c38a0012769e20","bdp_wmem","Mon Mar 13 2023 14:57:30 GMT-0400 (Eastern Daylight Time)","803116","Match,No Match","","null","","","","","","<div class='trialBorder'><div class='vertical-center'><img src='img/fixation2_sml.jpg'</img></div></div>","null","FIX","","","","","","","","","","",""
"html-keyboard-response","176","592582","0.0-7.0-2.28","560ce65601c38a0012769e20","bdp_wmem","Mon Mar 13 2023 14:57:30 GMT-0400 (Eastern Daylight Time)","803116","Match,No Match","","null","","","","","","<div class='trialBorder'><div class='vertical-center'><img style='vertical-align:center; align:center' src='img/fixation2_sml.jpg'></div><div class='arrayDiv1'><div class='tc'><img class='introPic' src='trustrating_stim/white_mw003.bmp'><br><font color='red'><strong>Keep</strong></font></div></div></div>","null","ARRAY","1","trustrating_stim/white_mw003.bmp","0","Match","e","1500","","","","",""
"html-keyboard-response","177","596617","0.0-7.0-3.28","560ce65601c38a0012769e20","bdp_wmem","Mon Mar 13 2023 14:57:30 GMT-0400 (Eastern Daylight Time)","803116","Match,No Match","","null","","","","","","<div class='trialBorder'><div class='vertical-center'><img src='img/fixation2_sml.jpg'</img></div></div>","null","DELAY","","","","","","","","","","",""
"html-keyboard-response","178","600491","0.0-7.0-4.28","560ce65601c38a0012769e20","bdp_wmem","Mon Mar 13 2023 14:57:30 GMT-0400 (Eastern Daylight Time)","803116","Match,No Match","","3871","","","","","","<div class='trialBorder'><div class='targDiv'><div class='tc'><img class='introPic' src='trustrating_stim/white_mw003.bmp'><br><font color='red'><strong>Keep</strong></font></div></div><div class='respDiv'><div class='respDivL'>Match<br>(e)</div><div class='respDivR'>No Match<br>(i)</div></div></div>","i","TARGET","1","trustrating_stim/white_mw003.bmp","0","Match","e","1500","trustrating_stim/white_mw003.bmp","red","Keep","REAL","0"
"html-keyboard-response","179","600997","0.0-7.0-5.28","560ce65601c38a0012769e20","bdp_wmem","Mon Mar 13 2023 14:57:30 GMT-0400 (Eastern Daylight Time)","803116","Match,No Match","","null","","","","","","<div class='trialBorder'><div class='vertical-center'><img src='img/error.jpg'></div><div class='respDiv'><div class='respDivL'>Match<br>(e)</div><div class='respDivR'><font style='color:orange'>No Match<br>(i)</font></div></div></div>","null","FEEDBACK","","","","","","","","","","",""
"html-keyboard-response","180","601499","0.0-7.0-1.29","560ce65601c38a0012769e20","bdp_wmem","Mon Mar 13 2023 14:57:30 GMT-0400 (Eastern Daylight Time)","803116","Match,No Match","","null","","","","","","<div class='trialBorder'><div class='vertical-center'><img src='img/fixation2_sml.jpg'</img></div></div>","null","FIX","","","","","","","","","","",""
"html-keyboard-response","181","606619","0.0-7.0-2.29","560ce65601c38a0012769e20","bdp_wmem","Mon Mar 13 2023 14:57:30 GMT-0400 (Eastern Daylight Time)","803116","Match,No Match","","null","","","","","","<div class='trialBorder'><div class='vertical-center'><img style='vertical-align:center; align:center' src='img/fixation2_sml.jpg'></div><div class='arrayDiv3'><div class='tl'><img class='introPic' src='trustrating_stim/white_mw085.bmp'><br><font color='green'><strong>Share</strong></font></div><div class='tc'><img class='introPic' src='trustrating_stim/white_mw092.bmp'><br><font color='green'><strong>Share</strong></font></div><div class='tr'><img class='introPic' src='trustrating_stim/white_mw010.bmp'><br><font color='red'><strong>Keep</strong></font></div></div></div>","null","ARRAY","3","trustrating_stim/white_mw085.bmp,trustrating_stim/white_mw092.bmp,trustrating_stim/white_mw010.bmp","1,1,0","noMatchFace","i","4500","","","","",""
"html-keyboard-response","182","611628","0.0-7.0-3.29","560ce65601c38a0012769e20","bdp_wmem","Mon Mar 13 2023 14:57:30 GMT-0400 (Eastern Daylight Time)","803116","Match,No Match","","null","","","","","","<div class='trialBorder'><div class='vertical-center'><img src='img/fixation2_sml.jpg'</img></div></div>","null","DELAY","","","","","","","","","","",""
"html-keyboard-response","183","612604","0.0-7.0-4.29","560ce65601c38a0012769e20","bdp_wmem","Mon Mar 13 2023 14:57:30 GMT-0400 (Eastern Daylight Time)","803116","Match,No Match","","976","","","","","","<div class='trialBorder'><div class='targDiv'><div class='tc'><img class='introPic' src='trustrating_stim/white_mw038.bmp'><br><font color='green'><strong>Share</strong></font></div></div><div class='respDiv'><div class='respDivL'>Match<br>(e)</div><div class='respDivR'>No Match<br>(i)</div></div></div>","i","TARGET","3","trustrating_stim/white_mw085.bmp,trustrating_stim/white_mw092.bmp,trustrating_stim/white_mw010.bmp","1,1,0","noMatchFace","i","4500","trustrating_stim/white_mw038.bmp","green","Share","REAL","1"
"html-keyboard-response","184","613120","0.0-7.0-5.29","560ce65601c38a0012769e20","bdp_wmem","Mon Mar 13 2023 14:57:30 GMT-0400 (Eastern Daylight Time)","803116","Match,No Match","","null","","","","","","<div class='trialBorder'><div class='vertical-center'><img src='img/correct.jpg'></div><div class='respDiv'><div class='respDivL'>Match<br>(e)</div><div class='respDivR'><font style='color:orange'>No Match<br>(i)</font></div></div></div>","null","FEEDBACK","","","","","","","","","","",""
"html-keyboard-response","185","613622","0.0-7.0-1.30","560ce65601c38a0012769e20","bdp_wmem","Mon Mar 13 2023 14:57:30 GMT-0400 (Eastern Daylight Time)","803116","Match,No Match","","null","","","","","","<div class='trialBorder'><div class='vertical-center'><img src='img/fixation2_sml.jpg'</img></div></div>","null","FIX","","","","","","","","","","",""
"html-keyboard-response","186","616639","0.0-7.0-2.30","560ce65601c38a0012769e20","bdp_wmem","Mon Mar 13 2023 14:57:30 GMT-0400 (Eastern Daylight Time)","803116","Match,No Match","","null","","","","","","<div class='trialBorder'><div class='vertical-center'><img style='vertical-align:center; align:center' src='img/fixation2_sml.jpg'></div><div class='arrayDiv2'><div class='tl'><img class='introPic' src='trustrating_stim/white_mw038.bmp'><br><font color='green'><strong>Share</strong></font></div><div class='tr'><img class='introPic' src='trustrating_stim/white_mw070.bmp'><br><font color='red'><strong>Keep</strong></font></div></div></div>","null","ARRAY","2","trustrating_stim/white_mw038.bmp,trustrating_stim/white_mw070.bmp","1,0","noMatchOutcome","i","3000","","","","",""
"html-keyboard-response","187","621617","0.0-7.0-3.30","560ce65601c38a0012769e20","bdp_wmem","Mon Mar 13 2023 14:57:30 GMT-0400 (Eastern Daylight Time)","803116","Match,No Match","","null","","","","","","<div class='trialBorder'><div class='vertical-center'><img src='img/fixation2_sml.jpg'</img></div></div>","null","DELAY","","","","","","","","","","",""
