"trial_type","trial_index","time_elapsed","internal_node_id","subject_id","task","startTime","totalTime","labels","view_history","rt","event","trial","time","trialtype","success","stimulus","key_press","stimType","arraySize","arrayFaces","arrayOutcomes","matchType","corrResp","arrayDur","targFace","targCol","targOutcome","trialType","corr"
"pavlovia","0","2","0.0-0.0","62c5e680e4a4b4648606d756","bdp_wmem","Tue Mar 14 2023 13:11:50 GMT-0500 (Central Daylight Time)","618023","Match,No Match","","","","","","","","","","","","","","","","","","","","",""
"instructions","1","2524","0.0-1.0","62c5e680e4a4b4648606d756","bdp_wmem","Tue Mar 14 2023 13:11:50 GMT-0500 (Central Daylight Time)","618023","Match,No Match","[{""page_index"":0,""viewing_time"":2522}]","2522","","","","","","","","","","","","","","","","","","",""
"","","","","62c5e680e4a4b4648606d756","bdp_wmem","Tue Mar 14 2023 13:11:50 GMT-0500 (Central Daylight Time)","618023","Match,No Match","","","fullscreenenter","2","7071","fullscreenenter","","","","","","","","","","","","","","",""
"fullscreen","2","8068","0.0-2.0","62c5e680e4a4b4648606d756","bdp_wmem","Tue Mar 14 2023 13:11:50 GMT-0500 (Central Daylight Time)","618023","Match,No Match","","","","","","","true","","","","","","","","","","","","","",""
"instructions","3","117938","0.0-4.0","62c5e680e4a4b4648606d756","bdp_wmem","Tue Mar 14 2023 13:11:50 GMT-0500 (Central Daylight Time)","618023","Match,No Match","[{""page_index"":0,""viewing_time"":31129},{""page_index"":1,""viewing_time"":54555},{""page_index"":2,""viewing_time"":11141},{""page_index"":3,""viewing_time"":5088},{""page_index"":4,""viewing_time"":7957}]","109870","","","","","","","","","","","","","","","","","","",""
"html-keyboard-response","4","118439","0.0-5.0-1.0","62c5e680e4a4b4648606d756","bdp_wmem","Tue Mar 14 2023 13:11:50 GMT-0500 (Central Daylight Time)","618023","Match,No Match","","null","","","","","","<div class='trialBorder'><div class='vertical-center'><img src='img/fixation2_sml.jpg'</img></div></div>","null","FIX","","","","","","","","","","",""
"html-keyboard-response","5","121441","0.0-5.0-2.0","62c5e680e4a4b4648606d756","bdp_wmem","Tue Mar 14 2023 13:11:50 GMT-0500 (Central Daylight Time)","618023","Match,No Match","","null","","","","","","<div class='trialBorder'><div class='vertical-center'><img style='vertical-align:center; align:center' src='img/fixation2_sml.jpg'></div><div class='arrayDiv2'><div class='tl'><img class='introPic' src='trustrating_stim/white_mw070.bmp'><br><font color='red'><strong>Keep</strong></font></div><div class='tr'><img class='introPic' src='trustrating_stim/white_mw003.bmp'><br><font color='green'><strong>Share</strong></font></div></div></div>","null","ARRAY","2","trustrating_stim/white_mw070.bmp,trustrating_stim/white_mw003.bmp","0,1","Match","e","3000","","","","",""
"html-keyboard-response","6","125443","0.0-5.0-3.0","62c5e680e4a4b4648606d756","bdp_wmem","Tue Mar 14 2023 13:11:50 GMT-0500 (Central Daylight Time)","618023","Match,No Match","","null","","","","","","<div class='trialBorder'><div class='vertical-center'><img src='img/fixation2_sml.jpg'</img></div></div>","null","DELAY","","","","","","","","","","",""
"html-keyboard-response","7","128110","0.0-5.0-4.0","62c5e680e4a4b4648606d756","bdp_wmem","Tue Mar 14 2023 13:11:50 GMT-0500 (Central Daylight Time)","618023","Match,No Match","","2666","","","","","","<div class='trialBorder'><div class='targDiv'><div class='tc'><img class='introPic' src='trustrating_stim/white_mw003.bmp'><br><font color='green'><strong>Share</strong></font></div></div><div class='respDiv'><div class='respDivL'>Match<br>(e)</div><div class='respDivR'>No Match<br>(i)</div></div></div>","e","TARGET","2","trustrating_stim/white_mw070.bmp,trustrating_stim/white_mw003.bmp","0,1","Match","e","3000","trustrating_stim/white_mw003.bmp","green","Share","PRACTICE","1"
"html-keyboard-response","8","128611","0.0-5.0-5.0","62c5e680e4a4b4648606d756","bdp_wmem","Tue Mar 14 2023 13:11:50 GMT-0500 (Central Daylight Time)","618023","Match,No Match","","null","","","","","","<div class='trialBorder'><div class='vertical-center'><img src='img/correct.jpg'></div><div class='respDiv'><div class='respDivL'><font style='color:orange'>Match<br>(e)</font></div><div class='respDivR'>No Match<br>(i)</div></div></div>","null","FEEDBACK","","","","","","","","","","",""
"html-keyboard-response","9","129113","0.0-5.0-1.1","62c5e680e4a4b4648606d756","bdp_wmem","Tue Mar 14 2023 13:11:50 GMT-0500 (Central Daylight Time)","618023","Match,No Match","","null","","","","","","<div class='trialBorder'><div class='vertical-center'><img src='img/fixation2_sml.jpg'</img></div></div>","null","FIX","","","","","","","","","","",""
"html-keyboard-response","10","130614","0.0-5.0-2.1","62c5e680e4a4b4648606d756","bdp_wmem","Tue Mar 14 2023 13:11:50 GMT-0500 (Central Daylight Time)","618023","Match,No Match","","null","","","","","","<div class='trialBorder'><div class='vertical-center'><img style='vertical-align:center; align:center' src='img/fixation2_sml.jpg'></div><div class='arrayDiv1'><div class='tc'><img class='introPic' src='trustrating_stim/white_mw070.bmp'><br><font color='red'><strong>Keep</strong></font></div></div></div>","null","ARRAY","1","trustrating_stim/white_mw070.bmp","0","noMatchFace","i","1500","","","","",""
"html-keyboard-response","11","134615","0.0-5.0-3.1","62c5e680e4a4b4648606d756","bdp_wmem","Tue Mar 14 2023 13:11:50 GMT-0500 (Central Daylight Time)","618023","Match,No Match","","null","","","","","","<div class='trialBorder'><div class='vertical-center'><img src='img/fixation2_sml.jpg'</img></div></div>","null","DELAY","","","","","","","","","","",""
"html-keyboard-response","12","135309","0.0-5.0-4.1","62c5e680e4a4b4648606d756","bdp_wmem","Tue Mar 14 2023 13:11:50 GMT-0500 (Central Daylight Time)","618023","Match,No Match","","694","","","","","","<div class='trialBorder'><div class='targDiv'><div class='tc'><img class='introPic' src='trustrating_stim/white_mw013.bmp'><br><font color='red'><strong>Keep</strong></font></div></div><div class='respDiv'><div class='respDivL'>Match<br>(e)</div><div class='respDivR'>No Match<br>(i)</div></div></div>","i","TARGET","1","trustrating_stim/white_mw070.bmp","0","noMatchFace","i","1500","trustrating_stim/white_mw013.bmp","red","Keep","PRACTICE","1"
"html-keyboard-response","13","135811","0.0-5.0-5.1","62c5e680e4a4b4648606d756","bdp_wmem","Tue Mar 14 2023 13:11:50 GMT-0500 (Central Daylight Time)","618023","Match,No Match","","null","","","","","","<div class='trialBorder'><div class='vertical-center'><img src='img/correct.jpg'></div><div class='respDiv'><div class='respDivL'>Match<br>(e)</div><div class='respDivR'><font style='color:orange'>No Match<br>(i)</font></div></div></div>","null","FEEDBACK","","","","","","","","","","",""
"html-keyboard-response","14","136311","0.0-5.0-1.2","62c5e680e4a4b4648606d756","bdp_wmem","Tue Mar 14 2023 13:11:50 GMT-0500 (Central Daylight Time)","618023","Match,No Match","","null","","","","","","<div class='trialBorder'><div class='vertical-center'><img src='img/fixation2_sml.jpg'</img></div></div>","null","FIX","","","","","","","","","","",""
"html-keyboard-response","15","140813","0.0-5.0-2.2","62c5e680e4a4b4648606d756","bdp_wmem","Tue Mar 14 2023 13:11:50 GMT-0500 (Central Daylight Time)","618023","Match,No Match","","null","","","","","","<div class='trialBorder'><div class='vertical-center'><img style='vertical-align:center; align:center' src='img/fixation2_sml.jpg'></div><div class='arrayDiv3'><div class='tl'><img class='introPic' src='trustrating_stim/white_mw010.bmp'><br><font color='red'><strong>Keep</strong></font></div><div class='tc'><img class='introPic' src='trustrating_stim/white_mw013.bmp'><br><font color='red'><strong>Keep</strong></font></div><div class='tr'><img class='introPic' src='trustrating_stim/white_mw042.bmp'><br><font color='green'><strong>Share</strong></font></div></div></div>","null","ARRAY","3","trustrating_stim/white_mw010.bmp,trustrating_stim/white_mw013.bmp,trustrating_stim/white_mw042.bmp","0,0,1","noMatchOutcome","i","4500","","","","",""
"html-keyboard-response","16","144815","0.0-5.0-3.2","62c5e680e4a4b4648606d756","bdp_wmem","Tue Mar 14 2023 13:11:50 GMT-0500 (Central Daylight Time)","618023","Match,No Match","","null","","","","","","<div class='trialBorder'><div class='vertical-center'><img src='img/fixation2_sml.jpg'</img></div></div>","null","DELAY","","","","","","","","","","",""
"html-keyboard-response","17","146318","0.0-5.0-4.2","62c5e680e4a4b4648606d756","bdp_wmem","Tue Mar 14 2023 13:11:50 GMT-0500 (Central Daylight Time)","618023","Match,No Match","","1503","","","","","","<div class='trialBorder'><div class='targDiv'><div class='tc'><img class='introPic' src='trustrating_stim/white_mw010.bmp'><br><font color='green'><strong>Share</strong></font></div></div><div class='respDiv'><div class='respDivL'>Match<br>(e)</div><div class='respDivR'>No Match<br>(i)</div></div></div>","i","TARGET","3","trustrating_stim/white_mw010.bmp,trustrating_stim/white_mw013.bmp,trustrating_stim/white_mw042.bmp","0,0,1","noMatchOutcome","i","4500","trustrating_stim/white_mw010.bmp","green","Share","PRACTICE","1"
"html-keyboard-response","18","146819","0.0-5.0-5.2","62c5e680e4a4b4648606d756","bdp_wmem","Tue Mar 14 2023 13:11:50 GMT-0500 (Central Daylight Time)","618023","Match,No Match","","null","","","","","","<div class='trialBorder'><div class='vertical-center'><img src='img/correct.jpg'></div><div class='respDiv'><div class='respDivL'>Match<br>(e)</div><div class='respDivR'><font style='color:orange'>No Match<br>(i)</font></div></div></div>","null","FEEDBACK","","","","","","","","","","",""
"html-keyboard-response","19","147321","0.0-5.0-1.3","62c5e680e4a4b4648606d756","bdp_wmem","Tue Mar 14 2023 13:11:50 GMT-0500 (Central Daylight Time)","618023","Match,No Match","","null","","","","","","<div class='trialBorder'><div class='vertical-center'><img src='img/fixation2_sml.jpg'</img></div></div>","null","FIX","","","","","","","","","","",""
"html-keyboard-response","20","148823","0.0-5.0-2.3","62c5e680e4a4b4648606d756","bdp_wmem","Tue Mar 14 2023 13:11:50 GMT-0500 (Central Daylight Time)","618023","Match,No Match","","null","","","","","","<div class='trialBorder'><div class='vertical-center'><img style='vertical-align:center; align:center' src='img/fixation2_sml.jpg'></div><div class='arrayDiv1'><div class='tc'><img class='introPic' src='trustrating_stim/white_mw091.bmp'><br><font color='green'><strong>Share</strong></font></div></div></div>","null","ARRAY","1","trustrating_stim/white_mw091.bmp","1","Match","e","1500","","","","",""
"html-keyboard-response","21","152824","0.0-5.0-3.3","62c5e680e4a4b4648606d756","bdp_wmem","Tue Mar 14 2023 13:11:50 GMT-0500 (Central Daylight Time)","618023","Match,No Match","","null","","","","","","<div class='trialBorder'><div class='vertical-center'><img src='img/fixation2_sml.jpg'</img></div></div>","null","DELAY","","","","","","","","","","",""
"html-keyboard-response","22","154084","0.0-5.0-4.3","62c5e680e4a4b4648606d756","bdp_wmem","Tue Mar 14 2023 13:11:50 GMT-0500 (Central Daylight Time)","618023","Match,No Match","","1259","","","","","","<div class='trialBorder'><div class='targDiv'><div class='tc'><img class='introPic' src='trustrating_stim/white_mw091.bmp'><br><font color='green'><strong>Share</strong></font></div></div><div class='respDiv'><div class='respDivL'>Match<br>(e)</div><div class='respDivR'>No Match<br>(i)</div></div></div>","e","TARGET","1","trustrating_stim/white_mw091.bmp","1","Match","e","1500","trustrating_stim/white_mw091.bmp","green","Share","PRACTICE","1"
"html-keyboard-response","23","154584","0.0-5.0-5.3","62c5e680e4a4b4648606d756","bdp_wmem","Tue Mar 14 2023 13:11:50 GMT-0500 (Central Daylight Time)","618023","Match,No Match","","null","","","","","","<div class='trialBorder'><div class='vertical-center'><img src='img/correct.jpg'></div><div class='respDiv'><div class='respDivL'><font style='color:orange'>Match<br>(e)</font></div><div class='respDivR'>No Match<br>(i)</div></div></div>","null","FEEDBACK","","","","","","","","","","",""
"html-keyboard-response","24","155086","0.0-5.0-1.4","62c5e680e4a4b4648606d756","bdp_wmem","Tue Mar 14 2023 13:11:50 GMT-0500 (Central Daylight Time)","618023","Match,No Match","","null","","","","","","<div class='trialBorder'><div class='vertical-center'><img src='img/fixation2_sml.jpg'</img></div></div>","null","FIX","","","","","","","","","","",""
"html-keyboard-response","25","158088","0.0-5.0-2.4","62c5e680e4a4b4648606d756","bdp_wmem","Tue Mar 14 2023 13:11:50 GMT-0500 (Central Daylight Time)","618023","Match,No Match","","null","","","","","","<div class='trialBorder'><div class='vertical-center'><img style='vertical-align:center; align:center' src='img/fixation2_sml.jpg'></div><div class='arrayDiv2'><div class='tl'><img class='introPic' src='trustrating_stim/white_mw042.bmp'><br><font color='red'><strong>Keep</strong></font></div><div class='tr'><img class='introPic' src='trustrating_stim/white_mw010.bmp'><br><font color='green'><strong>Share</strong></font></div></div></div>","null","ARRAY","2","trustrating_stim/white_mw042.bmp,trustrating_stim/white_mw010.bmp","0,1","noMatchFace","i","3000","","","","",""
"html-keyboard-response","26","162089","0.0-5.0-3.4","62c5e680e4a4b4648606d756","bdp_wmem","Tue Mar 14 2023 13:11:50 GMT-0500 (Central Daylight Time)","618023","Match,No Match","","null","","","","","","<div class='trialBorder'><div class='vertical-center'><img src='img/fixation2_sml.jpg'</img></div></div>","null","DELAY","","","","","","","","","","",""
"html-keyboard-response","27","163112","0.0-5.0-4.4","62c5e680e4a4b4648606d756","bdp_wmem","Tue Mar 14 2023 13:11:50 GMT-0500 (Central Daylight Time)","618023","Match,No Match","","1022","","","","","","<div class='trialBorder'><div class='targDiv'><div class='tc'><img class='introPic' src='trustrating_stim/white_mw092.bmp'><br><font color='red'><strong>Keep</strong></font></div></div><div class='respDiv'><div class='respDivL'>Match<br>(e)</div><div class='respDivR'>No Match<br>(i)</div></div></div>","i","TARGET","2","trustrating_stim/white_mw042.bmp,trustrating_stim/white_mw010.bmp","0,1","noMatchFace","i","3000","trustrating_stim/white_mw092.bmp","red","Keep","PRACTICE","1"
"html-keyboard-response","28","163613","0.0-5.0-5.4","62c5e680e4a4b4648606d756","bdp_wmem","Tue Mar 14 2023 13:11:50 GMT-0500 (Central Daylight Time)","618023","Match,No Match","","null","","","","","","<div class='trialBorder'><div class='vertical-center'><img src='img/correct.jpg'></div><div class='respDiv'><div class='respDivL'>Match<br>(e)</div><div class='respDivR'><font style='color:orange'>No Match<br>(i)</font></div></div></div>","null","FEEDBACK","","","","","","","","","","",""
"html-keyboard-response","29","164115","0.0-5.0-1.5","62c5e680e4a4b4648606d756","bdp_wmem","Tue Mar 14 2023 13:11:50 GMT-0500 (Central Daylight Time)","618023","Match,No Match","","null","","","","","","<div class='trialBorder'><div class='vertical-center'><img src='img/fixation2_sml.jpg'</img></div></div>","null","FIX","","","","","","","","","","",""
"html-keyboard-response","30","168616","0.0-5.0-2.5","62c5e680e4a4b4648606d756","bdp_wmem","Tue Mar 14 2023 13:11:50 GMT-0500 (Central Daylight Time)","618023","Match,No Match","","null","","","","","","<div class='trialBorder'><div class='vertical-center'><img style='vertical-align:center; align:center' src='img/fixation2_sml.jpg'></div><div class='arrayDiv3'><div class='tl'><img class='introPic' src='trustrating_stim/white_mw070.bmp'><br><font color='green'><strong>Share</strong></font></div><div class='tc'><img class='introPic' src='trustrating_stim/white_mw042.bmp'><br><font color='red'><strong>Keep</strong></font></div><div class='tr'><img class='introPic' src='trustrating_stim/white_mw040.bmp'><br><font color='green'><strong>Share</strong></font></div></div></div>","null","ARRAY","3","trustrating_stim/white_mw070.bmp,trustrating_stim/white_mw042.bmp,trustrating_stim/white_mw040.bmp","1,0,1","Match","e","4500","","","","",""
"html-keyboard-response","31","172617","0.0-5.0-3.5","62c5e680e4a4b4648606d756","bdp_wmem","Tue Mar 14 2023 13:11:50 GMT-0500 (Central Daylight Time)","618023","Match,No Match","","null","","","","","","<div class='trialBorder'><div class='vertical-center'><img src='img/fixation2_sml.jpg'</img></div></div>","null","DELAY","","","","","","","","","","",""
"html-keyboard-response","32","174345","0.0-5.0-4.5","62c5e680e4a4b4648606d756","bdp_wmem","Tue Mar 14 2023 13:11:50 GMT-0500 (Central Daylight Time)","618023","Match,No Match","","1727","","","","","","<div class='trialBorder'><div class='targDiv'><div class='tc'><img class='introPic' src='trustrating_stim/white_mw040.bmp'><br><font color='green'><strong>Share</strong></font></div></div><div class='respDiv'><div class='respDivL'>Match<br>(e)</div><div class='respDivR'>No Match<br>(i)</div></div></div>","e","TARGET","3","trustrating_stim/white_mw070.bmp,trustrating_stim/white_mw042.bmp,trustrating_stim/white_mw040.bmp","1,0,1","Match","e","4500","trustrating_stim/white_mw040.bmp","green","Share","PRACTICE","1"
"html-keyboard-response","33","174847","0.0-5.0-5.5","62c5e680e4a4b4648606d756","bdp_wmem","Tue Mar 14 2023 13:11:50 GMT-0500 (Central Daylight Time)","618023","Match,No Match","","null","","","","","","<div class='trialBorder'><div class='vertical-center'><img src='img/correct.jpg'></div><div class='respDiv'><div class='respDivL'><font style='color:orange'>Match<br>(e)</font></div><div class='respDivR'>No Match<br>(i)</div></div></div>","null","FEEDBACK","","","","","","","","","","",""
"instructions","34","179233","0.0-6.0","62c5e680e4a4b4648606d756","bdp_wmem","Tue Mar 14 2023 13:11:50 GMT-0500 (Central Daylight Time)","618023","Match,No Match","[{""page_index"":0,""viewing_time"":4386}]","4386","","","","","","","","","","","","","","","","","","",""
"html-keyboard-response","35","179735","0.0-7.0-1.0","62c5e680e4a4b4648606d756","bdp_wmem","Tue Mar 14 2023 13:11:50 GMT-0500 (Central Daylight Time)","618023","Match,No Match","","null","","","","","","<div class='trialBorder'><div class='vertical-center'><img src='img/fixation2_sml.jpg'</img></div></div>","null","FIX","","","","","","","","","","",""
"html-keyboard-response","36","181237","0.0-7.0-2.0","62c5e680e4a4b4648606d756","bdp_wmem","Tue Mar 14 2023 13:11:50 GMT-0500 (Central Daylight Time)","618023","Match,No Match","","null","","","","","","<div class='trialBorder'><div class='vertical-center'><img style='vertical-align:center; align:center' src='img/fixation2_sml.jpg'></div><div class='arrayDiv1'><div class='tc'><img class='introPic' src='trustrating_stim/white_mw003.bmp'><br><font color='green'><strong>Share</strong></font></div></div></div>","null","ARRAY","1","trustrating_stim/white_mw003.bmp","1","noMatchFace","i","1500","","","","",""
"html-keyboard-response","37","185238","0.0-7.0-3.0","62c5e680e4a4b4648606d756","bdp_wmem","Tue Mar 14 2023 13:11:50 GMT-0500 (Central Daylight Time)","618023","Match,No Match","","null","","","","","","<div class='trialBorder'><div class='vertical-center'><img src='img/fixation2_sml.jpg'</img></div></div>","null","DELAY","","","","","","","","","","",""
"html-keyboard-response","38","185899","0.0-7.0-4.0","62c5e680e4a4b4648606d756","bdp_wmem","Tue Mar 14 2023 13:11:50 GMT-0500 (Central Daylight Time)","618023","Match,No Match","","660","","","","","","<div class='trialBorder'><div class='targDiv'><div class='tc'><img class='introPic' src='trustrating_stim/white_mw078.bmp'><br><font color='green'><strong>Share</strong></font></div></div><div class='respDiv'><div class='respDivL'>Match<br>(e)</div><div class='respDivR'>No Match<br>(i)</div></div></div>","i","TARGET","1","trustrating_stim/white_mw003.bmp","1","noMatchFace","i","1500","trustrating_stim/white_mw078.bmp","green","Share","REAL","1"
"html-keyboard-response","39","186400","0.0-7.0-5.0","62c5e680e4a4b4648606d756","bdp_wmem","Tue Mar 14 2023 13:11:50 GMT-0500 (Central Daylight Time)","618023","Match,No Match","","null","","","","","","<div class='trialBorder'><div class='vertical-center'><img src='img/correct.jpg'></div><div class='respDiv'><div class='respDivL'>Match<br>(e)</div><div class='respDivR'><font style='color:orange'>No Match<br>(i)</font></div></div></div>","null","FEEDBACK","","","","","","","","","","",""
"html-keyboard-response","40","186902","0.0-7.0-1.1","62c5e680e4a4b4648606d756","bdp_wmem","Tue Mar 14 2023 13:11:50 GMT-0500 (Central Daylight Time)","618023","Match,No Match","","null","","","","","","<div class='trialBorder'><div class='vertical-center'><img src='img/fixation2_sml.jpg'</img></div></div>","null","FIX","","","","","","","","","","",""
"html-keyboard-response","41","188404","0.0-7.0-2.1","62c5e680e4a4b4648606d756","bdp_wmem","Tue Mar 14 2023 13:11:50 GMT-0500 (Central Daylight Time)","618023","Match,No Match","","null","","","","","","<div class='trialBorder'><div class='vertical-center'><img style='vertical-align:center; align:center' src='img/fixation2_sml.jpg'></div><div class='arrayDiv1'><div class='tc'><img class='introPic' src='trustrating_stim/white_mw078.bmp'><br><font color='green'><strong>Share</strong></font></div></div></div>","null","ARRAY","1","trustrating_stim/white_mw078.bmp","1","noMatchOutcome","i","1500","","","","",""
"html-keyboard-response","42","192405","0.0-7.0-3.1","62c5e680e4a4b4648606d756","bdp_wmem","Tue Mar 14 2023 13:11:50 GMT-0500 (Central Daylight Time)","618023","Match,No Match","","null","","","","","","<div class='trialBorder'><div class='vertical-center'><img src='img/fixation2_sml.jpg'</img></div></div>","null","DELAY","","","","","","","","","","",""
"html-keyboard-response","43","193208","0.0-7.0-4.1","62c5e680e4a4b4648606d756","bdp_wmem","Tue Mar 14 2023 13:11:50 GMT-0500 (Central Daylight Time)","618023","Match,No Match","","802","","","","","","<div class='trialBorder'><div class='targDiv'><div class='tc'><img class='introPic' src='trustrating_stim/white_mw078.bmp'><br><font color='red'><strong>Keep</strong></font></div></div><div class='respDiv'><div class='respDivL'>Match<br>(e)</div><div class='respDivR'>No Match<br>(i)</div></div></div>","i","TARGET","1","trustrating_stim/white_mw078.bmp","1","noMatchOutcome","i","1500","trustrating_stim/white_mw078.bmp","red","Keep","REAL","1"
"html-keyboard-response","44","193709","0.0-7.0-5.1","62c5e680e4a4b4648606d756","bdp_wmem","Tue Mar 14 2023 13:11:50 GMT-0500 (Central Daylight Time)","618023","Match,No Match","","null","","","","","","<div class='trialBorder'><div class='vertical-center'><img src='img/correct.jpg'></div><div class='respDiv'><div class='respDivL'>Match<br>(e)</div><div class='respDivR'><font style='color:orange'>No Match<br>(i)</font></div></div></div>","null","FEEDBACK","","","","","","","","","","",""
"html-keyboard-response","45","194210","0.0-7.0-1.2","62c5e680e4a4b4648606d756","bdp_wmem","Tue Mar 14 2023 13:11:50 GMT-0500 (Central Daylight Time)","618023","Match,No Match","","null","","","","","","<div class='trialBorder'><div class='vertical-center'><img src='img/fixation2_sml.jpg'</img></div></div>","null","FIX","","","","","","","","","","",""
"html-keyboard-response","46","197212","0.0-7.0-2.2","62c5e680e4a4b4648606d756","bdp_wmem","Tue Mar 14 2023 13:11:50 GMT-0500 (Central Daylight Time)","618023","Match,No Match","","null","","","","","","<div class='trialBorder'><div class='vertical-center'><img style='vertical-align:center; align:center' src='img/fixation2_sml.jpg'></div><div class='arrayDiv2'><div class='tl'><img class='introPic' src='trustrating_stim/white_mw078.bmp'><br><font color='green'><strong>Share</strong></font></div><div class='tr'><img class='introPic' src='trustrating_stim/white_mw091.bmp'><br><font color='red'><strong>Keep</strong></font></div></div></div>","null","ARRAY","2","trustrating_stim/white_mw078.bmp,trustrating_stim/white_mw091.bmp","1,0","noMatchOutcome","i","3000","","","","",""
"html-keyboard-response","47","201214","0.0-7.0-3.2","62c5e680e4a4b4648606d756","bdp_wmem","Tue Mar 14 2023 13:11:50 GMT-0500 (Central Daylight Time)","618023","Match,No Match","","null","","","","","","<div class='trialBorder'><div class='vertical-center'><img src='img/fixation2_sml.jpg'</img></div></div>","null","DELAY","","","","","","","","","","",""
"html-keyboard-response","48","203015","0.0-7.0-4.2","62c5e680e4a4b4648606d756","bdp_wmem","Tue Mar 14 2023 13:11:50 GMT-0500 (Central Daylight Time)","618023","Match,No Match","","1801","","","","","","<div class='trialBorder'><div class='targDiv'><div class='tc'><img class='introPic' src='trustrating_stim/white_mw091.bmp'><br><font color='green'><strong>Share</strong></font></div></div><div class='respDiv'><div class='respDivL'>Match<br>(e)</div><div class='respDivR'>No Match<br>(i)</div></div></div>","i","TARGET","2","trustrating_stim/white_mw078.bmp,trustrating_stim/white_mw091.bmp","1,0","noMatchOutcome","i","3000","trustrating_stim/white_mw091.bmp","green","Share","REAL","1"
"html-keyboard-response","49","203515","0.0-7.0-5.2","62c5e680e4a4b4648606d756","bdp_wmem","Tue Mar 14 2023 13:11:50 GMT-0500 (Central Daylight Time)","618023","Match,No Match","","null","","","","","","<div class='trialBorder'><div class='vertical-center'><img src='img/correct.jpg'></div><div class='respDiv'><div class='respDivL'>Match<br>(e)</div><div class='respDivR'><font style='color:orange'>No Match<br>(i)</font></div></div></div>","null","FEEDBACK","","","","","","","","","","",""
"html-keyboard-response","50","204017","0.0-7.0-1.3","62c5e680e4a4b4648606d756","bdp_wmem","Tue Mar 14 2023 13:11:50 GMT-0500 (Central Daylight Time)","618023","Match,No Match","","null","","","","","","<div class='trialBorder'><div class='vertical-center'><img src='img/fixation2_sml.jpg'</img></div></div>","null","FIX","","","","","","","","","","",""
"html-keyboard-response","51","205518","0.0-7.0-2.3","62c5e680e4a4b4648606d756","bdp_wmem","Tue Mar 14 2023 13:11:50 GMT-0500 (Central Daylight Time)","618023","Match,No Match","","null","","","","","","<div class='trialBorder'><div class='vertical-center'><img style='vertical-align:center; align:center' src='img/fixation2_sml.jpg'></div><div class='arrayDiv1'><div class='tc'><img class='introPic' src='trustrating_stim/white_mw078.bmp'><br><font color='red'><strong>Keep</strong></font></div></div></div>","null","ARRAY","1","trustrating_stim/white_mw078.bmp","0","Match","e","1500","","","","",""
"html-keyboard-response","52","209519","0.0-7.0-3.3","62c5e680e4a4b4648606d756","bdp_wmem","Tue Mar 14 2023 13:11:50 GMT-0500 (Central Daylight Time)","618023","Match,No Match","","null","","","","","","<div class='trialBorder'><div class='vertical-center'><img src='img/fixation2_sml.jpg'</img></div></div>","null","DELAY","","","","","","","","","","",""
"html-keyboard-response","53","211428","0.0-7.0-4.3","62c5e680e4a4b4648606d756","bdp_wmem","Tue Mar 14 2023 13:11:50 GMT-0500 (Central Daylight Time)","618023","Match,No Match","","1908","","","","","","<div class='trialBorder'><div class='targDiv'><div class='tc'><img class='introPic' src='trustrating_stim/white_mw078.bmp'><br><font color='red'><strong>Keep</strong></font></div></div><div class='respDiv'><div class='respDivL'>Match<br>(e)</div><div class='respDivR'>No Match<br>(i)</div></div></div>","e","TARGET","1","trustrating_stim/white_mw078.bmp","0","Match","e","1500","trustrating_stim/white_mw078.bmp","red","Keep","REAL","1"
"html-keyboard-response","54","211929","0.0-7.0-5.3","62c5e680e4a4b4648606d756","bdp_wmem","Tue Mar 14 2023 13:11:50 GMT-0500 (Central Daylight Time)","618023","Match,No Match","","null","","","","","","<div class='trialBorder'><div class='vertical-center'><img src='img/correct.jpg'></div><div class='respDiv'><div class='respDivL'><font style='color:orange'>Match<br>(e)</font></div><div class='respDivR'>No Match<br>(i)</div></div></div>","null","FEEDBACK","","","","","","","","","","",""
"html-keyboard-response","55","212431","0.0-7.0-1.4","62c5e680e4a4b4648606d756","bdp_wmem","Tue Mar 14 2023 13:11:50 GMT-0500 (Central Daylight Time)","618023","Match,No Match","","null","","","","","","<div class='trialBorder'><div class='vertical-center'><img src='img/fixation2_sml.jpg'</img></div></div>","null","FIX","","","","","","","","","","",""
"html-keyboard-response","56","215432","0.0-7.0-2.4","62c5e680e4a4b4648606d756","bdp_wmem","Tue Mar 14 2023 13:11:50 GMT-0500 (Central Daylight Time)","618023","Match,No Match","","null","","","","","","<div class='trialBorder'><div class='vertical-center'><img style='vertical-align:center; align:center' src='img/fixation2_sml.jpg'></div><div class='arrayDiv2'><div class='tl'><img class='introPic' src='trustrating_stim/white_mw012.bmp'><br><font color='green'><strong>Share</strong></font></div><div class='tr'><img class='introPic' src='trustrating_stim/white_mw013.bmp'><br><font color='red'><strong>Keep</strong></font></div></div></div>","null","ARRAY","2","trustrating_stim/white_mw012.bmp,trustrating_stim/white_mw013.bmp","1,0","Match","e","3000","","","","",""
"html-keyboard-response","57","219433","0.0-7.0-3.4","62c5e680e4a4b4648606d756","bdp_wmem","Tue Mar 14 2023 13:11:50 GMT-0500 (Central Daylight Time)","618023","Match,No Match","","null","","","","","","<div class='trialBorder'><div class='vertical-center'><img src='img/fixation2_sml.jpg'</img></div></div>","null","DELAY","","","","","","","","","","",""
"html-keyboard-response","58","220866","0.0-7.0-4.4","62c5e680e4a4b4648606d756","bdp_wmem","Tue Mar 14 2023 13:11:50 GMT-0500 (Central Daylight Time)","618023","Match,No Match","","1433","","","","","","<div class='trialBorder'><div class='targDiv'><div class='tc'><img class='introPic' src='trustrating_stim/white_mw013.bmp'><br><font color='red'><strong>Keep</strong></font></div></div><div class='respDiv'><div class='respDivL'>Match<br>(e)</div><div class='respDivR'>No Match<br>(i)</div></div></div>","e","TARGET","2","trustrating_stim/white_mw012.bmp,trustrating_stim/white_mw013.bmp","1,0","Match","e","3000","trustrating_stim/white_mw013.bmp","red","Keep","REAL","1"
"html-keyboard-response","59","221368","0.0-7.0-5.4","62c5e680e4a4b4648606d756","bdp_wmem","Tue Mar 14 2023 13:11:50 GMT-0500 (Central Daylight Time)","618023","Match,No Match","","null","","","","","","<div class='trialBorder'><div class='vertical-center'><img src='img/correct.jpg'></div><div class='respDiv'><div class='respDivL'><font style='color:orange'>Match<br>(e)</font></div><div class='respDivR'>No Match<br>(i)</div></div></div>","null","FEEDBACK","","","","","","","","","","",""
"html-keyboard-response","60","221869","0.0-7.0-1.5","62c5e680e4a4b4648606d756","bdp_wmem","Tue Mar 14 2023 13:11:50 GMT-0500 (Central Daylight Time)","618023","Match,No Match","","null","","","","","","<div class='trialBorder'><div class='vertical-center'><img src='img/fixation2_sml.jpg'</img></div></div>","null","FIX","","","","","","","","","","",""
"html-keyboard-response","61","223370","0.0-7.0-2.5","62c5e680e4a4b4648606d756","bdp_wmem","Tue Mar 14 2023 13:11:50 GMT-0500 (Central Daylight Time)","618023","Match,No Match","","null","","","","","","<div class='trialBorder'><div class='vertical-center'><img style='vertical-align:center; align:center' src='img/fixation2_sml.jpg'></div><div class='arrayDiv1'><div class='tc'><img class='introPic' src='trustrating_stim/white_mw040.bmp'><br><font color='green'><strong>Share</strong></font></div></div></div>","null","ARRAY","1","trustrating_stim/white_mw040.bmp","1","noMatchOutcome","i","1500","","","","",""
"html-keyboard-response","62","227372","0.0-7.0-3.5","62c5e680e4a4b4648606d756","bdp_wmem","Tue Mar 14 2023 13:11:50 GMT-0500 (Central Daylight Time)","618023","Match,No Match","","null","","","","","","<div class='trialBorder'><div class='vertical-center'><img src='img/fixation2_sml.jpg'</img></div></div>","null","DELAY","","","","","","","","","","",""
"html-keyboard-response","63","229018","0.0-7.0-4.5","62c5e680e4a4b4648606d756","bdp_wmem","Tue Mar 14 2023 13:11:50 GMT-0500 (Central Daylight Time)","618023","Match,No Match","","1646","","","","","","<div class='trialBorder'><div class='targDiv'><div class='tc'><img class='introPic' src='trustrating_stim/white_mw040.bmp'><br><font color='red'><strong>Keep</strong></font></div></div><div class='respDiv'><div class='respDivL'>Match<br>(e)</div><div class='respDivR'>No Match<br>(i)</div></div></div>","i","TARGET","1","trustrating_stim/white_mw040.bmp","1","noMatchOutcome","i","1500","trustrating_stim/white_mw040.bmp","red","Keep","REAL","1"
"html-keyboard-response","64","229519","0.0-7.0-5.5","62c5e680e4a4b4648606d756","bdp_wmem","Tue Mar 14 2023 13:11:50 GMT-0500 (Central Daylight Time)","618023","Match,No Match","","null","","","","","","<div class='trialBorder'><div class='vertical-center'><img src='img/correct.jpg'></div><div class='respDiv'><div class='respDivL'>Match<br>(e)</div><div class='respDivR'><font style='color:orange'>No Match<br>(i)</font></div></div></div>","null","FEEDBACK","","","","","","","","","","",""
"html-keyboard-response","65","230021","0.0-7.0-1.6","62c5e680e4a4b4648606d756","bdp_wmem","Tue Mar 14 2023 13:11:50 GMT-0500 (Central Daylight Time)","618023","Match,No Match","","null","","","","","","<div class='trialBorder'><div class='vertical-center'><img src='img/fixation2_sml.jpg'</img></div></div>","null","FIX","","","","","","","","","","",""
"html-keyboard-response","66","234523","0.0-7.0-2.6","62c5e680e4a4b4648606d756","bdp_wmem","Tue Mar 14 2023 13:11:50 GMT-0500 (Central Daylight Time)","618023","Match,No Match","","null","","","","","","<div class='trialBorder'><div class='vertical-center'><img style='vertical-align:center; align:center' src='img/fixation2_sml.jpg'></div><div class='arrayDiv3'><div class='tl'><img class='introPic' src='trustrating_stim/white_mw012.bmp'><br><font color='red'><strong>Keep</strong></font></div><div class='tc'><img class='introPic' src='trustrating_stim/white_mw091.bmp'><br><font color='red'><strong>Keep</strong></font></div><div class='tr'><img class='introPic' src='trustrating_stim/white_mw013.bmp'><br><font color='green'><strong>Share</strong></font></div></div></div>","null","ARRAY","3","trustrating_stim/white_mw012.bmp,trustrating_stim/white_mw091.bmp,trustrating_stim/white_mw013.bmp","0,0,1","noMatchOutcome","i","4500","","","","",""
"html-keyboard-response","67","238524","0.0-7.0-3.6","62c5e680e4a4b4648606d756","bdp_wmem","Tue Mar 14 2023 13:11:50 GMT-0500 (Central Daylight Time)","618023","Match,No Match","","null","","","","","","<div class='trialBorder'><div class='vertical-center'><img src='img/fixation2_sml.jpg'</img></div></div>","null","DELAY","","","","","","","","","","",""
"html-keyboard-response","68","240152","0.0-7.0-4.6","62c5e680e4a4b4648606d756","bdp_wmem","Tue Mar 14 2023 13:11:50 GMT-0500 (Central Daylight Time)","618023","Match,No Match","","1628","","","","","","<div class='trialBorder'><div class='targDiv'><div class='tc'><img class='introPic' src='trustrating_stim/white_mw091.bmp'><br><font color='green'><strong>Share</strong></font></div></div><div class='respDiv'><div class='respDivL'>Match<br>(e)</div><div class='respDivR'>No Match<br>(i)</div></div></div>","e","TARGET","3","trustrating_stim/white_mw012.bmp,trustrating_stim/white_mw091.bmp,trustrating_stim/white_mw013.bmp","0,0,1","noMatchOutcome","i","4500","trustrating_stim/white_mw091.bmp","green","Share","REAL","0"
"html-keyboard-response","69","240653","0.0-7.0-5.6","62c5e680e4a4b4648606d756","bdp_wmem","Tue Mar 14 2023 13:11:50 GMT-0500 (Central Daylight Time)","618023","Match,No Match","","null","","","","","","<div class='trialBorder'><div class='vertical-center'><img src='img/error.jpg'></div><div class='respDiv'><div class='respDivL'><font style='color:orange'>Match<br>(e)</font></div><div class='respDivR'>No Match<br>(i)</div></div></div>","null","FEEDBACK","","","","","","","","","","",""
"html-keyboard-response","70","241155","0.0-7.0-1.7","62c5e680e4a4b4648606d756","bdp_wmem","Tue Mar 14 2023 13:11:50 GMT-0500 (Central Daylight Time)","618023","Match,No Match","","null","","","","","","<div class='trialBorder'><div class='vertical-center'><img src='img/fixation2_sml.jpg'</img></div></div>","null","FIX","","","","","","","","","","",""
"html-keyboard-response","71","245657","0.0-7.0-2.7","62c5e680e4a4b4648606d756","bdp_wmem","Tue Mar 14 2023 13:11:50 GMT-0500 (Central Daylight Time)","618023","Match,No Match","","null","","","","","","<div class='trialBorder'><div class='vertical-center'><img style='vertical-align:center; align:center' src='img/fixation2_sml.jpg'></div><div class='arrayDiv3'><div class='tl'><img class='introPic' src='trustrating_stim/white_mw040.bmp'><br><font color='red'><strong>Keep</strong></font></div><div class='tc'><img class='introPic' src='trustrating_stim/white_mw078.bmp'><br><font color='green'><strong>Share</strong></font></div><div class='tr'><img class='introPic' src='trustrating_stim/white_mw070.bmp'><br><font color='green'><strong>Share</strong></font></div></div></div>","null","ARRAY","3","trustrating_stim/white_mw040.bmp,trustrating_stim/white_mw078.bmp,trustrating_stim/white_mw070.bmp","0,1,1","Match","e","4500","","","","",""
"html-keyboard-response","72","249658","0.0-7.0-3.7","62c5e680e4a4b4648606d756","bdp_wmem","Tue Mar 14 2023 13:11:50 GMT-0500 (Central Daylight Time)","618023","Match,No Match","","null","","","","","","<div class='trialBorder'><div class='vertical-center'><img src='img/fixation2_sml.jpg'</img></div></div>","null","DELAY","","","","","","","","","","",""
"html-keyboard-response","73","250536","0.0-7.0-4.7","62c5e680e4a4b4648606d756","bdp_wmem","Tue Mar 14 2023 13:11:50 GMT-0500 (Central Daylight Time)","618023","Match,No Match","","877","","","","","","<div class='trialBorder'><div class='targDiv'><div class='tc'><img class='introPic' src='trustrating_stim/white_mw070.bmp'><br><font color='green'><strong>Share</strong></font></div></div><div class='respDiv'><div class='respDivL'>Match<br>(e)</div><div class='respDivR'>No Match<br>(i)</div></div></div>","i","TARGET","3","trustrating_stim/white_mw040.bmp,trustrating_stim/white_mw078.bmp,trustrating_stim/white_mw070.bmp","0,1,1","Match","e","4500","trustrating_stim/white_mw070.bmp","green","Share","REAL","0"
"html-keyboard-response","74","251036","0.0-7.0-5.7","62c5e680e4a4b4648606d756","bdp_wmem","Tue Mar 14 2023 13:11:50 GMT-0500 (Central Daylight Time)","618023","Match,No Match","","null","","","","","","<div class='trialBorder'><div class='vertical-center'><img src='img/error.jpg'></div><div class='respDiv'><div class='respDivL'>Match<br>(e)</div><div class='respDivR'><font style='color:orange'>No Match<br>(i)</font></div></div></div>","null","FEEDBACK","","","","","","","","","","",""
"html-keyboard-response","75","251538","0.0-7.0-1.8","62c5e680e4a4b4648606d756","bdp_wmem","Tue Mar 14 2023 13:11:50 GMT-0500 (Central Daylight Time)","618023","Match,No Match","","null","","","","","","<div class='trialBorder'><div class='vertical-center'><img src='img/fixation2_sml.jpg'</img></div></div>","null","FIX","","","","","","","","","","",""
"html-keyboard-response","76","256040","0.0-7.0-2.8","62c5e680e4a4b4648606d756","bdp_wmem","Tue Mar 14 2023 13:11:50 GMT-0500 (Central Daylight Time)","618023","Match,No Match","","null","","","","","","<div class='trialBorder'><div class='vertical-center'><img style='vertical-align:center; align:center' src='img/fixation2_sml.jpg'></div><div class='arrayDiv3'><div class='tl'><img class='introPic' src='trustrating_stim/white_mw091.bmp'><br><font color='green'><strong>Share</strong></font></div><div class='tc'><img class='introPic' src='trustrating_stim/white_mw070.bmp'><br><font color='green'><strong>Share</strong></font></div><div class='tr'><img class='introPic' src='trustrating_stim/white_mw012.bmp'><br><font color='red'><strong>Keep</strong></font></div></div></div>","null","ARRAY","3","trustrating_stim/white_mw091.bmp,trustrating_stim/white_mw070.bmp,trustrating_stim/white_mw012.bmp","1,1,0","Match","e","4500","","","","",""
"html-keyboard-response","77","260041","0.0-7.0-3.8","62c5e680e4a4b4648606d756","bdp_wmem","Tue Mar 14 2023 13:11:50 GMT-0500 (Central Daylight Time)","618023","Match,No Match","","null","","","","","","<div class='trialBorder'><div class='vertical-center'><img src='img/fixation2_sml.jpg'</img></div></div>","null","DELAY","","","","","","","","","","",""
"html-keyboard-response","78","261022","0.0-7.0-4.8","62c5e680e4a4b4648606d756","bdp_wmem","Tue Mar 14 2023 13:11:50 GMT-0500 (Central Daylight Time)","618023","Match,No Match","","980","","","","","","<div class='trialBorder'><div class='targDiv'><div class='tc'><img class='introPic' src='trustrating_stim/white_mw091.bmp'><br><font color='green'><strong>Share</strong></font></div></div><div class='respDiv'><div class='respDivL'>Match<br>(e)</div><div class='respDivR'>No Match<br>(i)</div></div></div>","e","TARGET","3","trustrating_stim/white_mw091.bmp,trustrating_stim/white_mw070.bmp,trustrating_stim/white_mw012.bmp","1,1,0","Match","e","4500","trustrating_stim/white_mw091.bmp","green","Share","REAL","1"
"html-keyboard-response","79","261523","0.0-7.0-5.8","62c5e680e4a4b4648606d756","bdp_wmem","Tue Mar 14 2023 13:11:50 GMT-0500 (Central Daylight Time)","618023","Match,No Match","","null","","","","","","<div class='trialBorder'><div class='vertical-center'><img src='img/correct.jpg'></div><div class='respDiv'><div class='respDivL'><font style='color:orange'>Match<br>(e)</font></div><div class='respDivR'>No Match<br>(i)</div></div></div>","null","FEEDBACK","","","","","","","","","","",""
"html-keyboard-response","80","262025","0.0-7.0-1.9","62c5e680e4a4b4648606d756","bdp_wmem","Tue Mar 14 2023 13:11:50 GMT-0500 (Central Daylight Time)","618023","Match,No Match","","null","","","","","","<div class='trialBorder'><div class='vertical-center'><img src='img/fixation2_sml.jpg'</img></div></div>","null","FIX","","","","","","","","","","",""
"html-keyboard-response","81","265026","0.0-7.0-2.9","62c5e680e4a4b4648606d756","bdp_wmem","Tue Mar 14 2023 13:11:50 GMT-0500 (Central Daylight Time)","618023","Match,No Match","","null","","","","","","<div class='trialBorder'><div class='vertical-center'><img style='vertical-align:center; align:center' src='img/fixation2_sml.jpg'></div><div class='arrayDiv2'><div class='tl'><img class='introPic' src='trustrating_stim/white_mw070.bmp'><br><font color='green'><strong>Share</strong></font></div><div class='tr'><img class='introPic' src='trustrating_stim/white_mw038.bmp'><br><font color='red'><strong>Keep</strong></font></div></div></div>","null","ARRAY","2","trustrating_stim/white_mw070.bmp,trustrating_stim/white_mw038.bmp","1,0","noMatchFace","i","3000","","","","",""
"html-keyboard-response","82","269027","0.0-7.0-3.9","62c5e680e4a4b4648606d756","bdp_wmem","Tue Mar 14 2023 13:11:50 GMT-0500 (Central Daylight Time)","618023","Match,No Match","","null","","","","","","<div class='trialBorder'><div class='vertical-center'><img src='img/fixation2_sml.jpg'</img></div></div>","null","DELAY","","","","","","","","","","",""
"html-keyboard-response","83","269951","0.0-7.0-4.9","62c5e680e4a4b4648606d756","bdp_wmem","Tue Mar 14 2023 13:11:50 GMT-0500 (Central Daylight Time)","618023","Match,No Match","","923","","","","","","<div class='trialBorder'><div class='targDiv'><div class='tc'><img class='introPic' src='trustrating_stim/white_mw042.bmp'><br><font color='green'><strong>Share</strong></font></div></div><div class='respDiv'><div class='respDivL'>Match<br>(e)</div><div class='respDivR'>No Match<br>(i)</div></div></div>","i","TARGET","2","trustrating_stim/white_mw070.bmp,trustrating_stim/white_mw038.bmp","1,0","noMatchFace","i","3000","trustrating_stim/white_mw042.bmp","green","Share","REAL","1"
"html-keyboard-response","84","270451","0.0-7.0-5.9","62c5e680e4a4b4648606d756","bdp_wmem","Tue Mar 14 2023 13:11:50 GMT-0500 (Central Daylight Time)","618023","Match,No Match","","null","","","","","","<div class='trialBorder'><div class='vertical-center'><img src='img/correct.jpg'></div><div class='respDiv'><div class='respDivL'>Match<br>(e)</div><div class='respDivR'><font style='color:orange'>No Match<br>(i)</font></div></div></div>","null","FEEDBACK","","","","","","","","","","",""
"html-keyboard-response","85","270953","0.0-7.0-1.10","62c5e680e4a4b4648606d756","bdp_wmem","Tue Mar 14 2023 13:11:50 GMT-0500 (Central Daylight Time)","618023","Match,No Match","","null","","","","","","<div class='trialBorder'><div class='vertical-center'><img src='img/fixation2_sml.jpg'</img></div></div>","null","FIX","","","","","","","","","","",""
"html-keyboard-response","86","272455","0.0-7.0-2.10","62c5e680e4a4b4648606d756","bdp_wmem","Tue Mar 14 2023 13:11:50 GMT-0500 (Central Daylight Time)","618023","Match,No Match","","null","","","","","","<div class='trialBorder'><div class='vertical-center'><img style='vertical-align:center; align:center' src='img/fixation2_sml.jpg'></div><div class='arrayDiv1'><div class='tc'><img class='introPic' src='trustrating_stim/white_mw038.bmp'><br><font color='green'><strong>Share</strong></font></div></div></div>","null","ARRAY","1","trustrating_stim/white_mw038.bmp","1","noMatchOutcome","i","1500","","","","",""
"html-keyboard-response","87","276456","0.0-7.0-3.10","62c5e680e4a4b4648606d756","bdp_wmem","Tue Mar 14 2023 13:11:50 GMT-0500 (Central Daylight Time)","618023","Match,No Match","","null","","","","","","<div class='trialBorder'><div class='vertical-center'><img src='img/fixation2_sml.jpg'</img></div></div>","null","DELAY","","","","","","","","","","",""
"html-keyboard-response","88","277095","0.0-7.0-4.10","62c5e680e4a4b4648606d756","bdp_wmem","Tue Mar 14 2023 13:11:50 GMT-0500 (Central Daylight Time)","618023","Match,No Match","","638","","","","","","<div class='trialBorder'><div class='targDiv'><div class='tc'><img class='introPic' src='trustrating_stim/white_mw038.bmp'><br><font color='red'><strong>Keep</strong></font></div></div><div class='respDiv'><div class='respDivL'>Match<br>(e)</div><div class='respDivR'>No Match<br>(i)</div></div></div>","i","TARGET","1","trustrating_stim/white_mw038.bmp","1","noMatchOutcome","i","1500","trustrating_stim/white_mw038.bmp","red","Keep","REAL","1"
"html-keyboard-response","89","277596","0.0-7.0-5.10","62c5e680e4a4b4648606d756","bdp_wmem","Tue Mar 14 2023 13:11:50 GMT-0500 (Central Daylight Time)","618023","Match,No Match","","null","","","","","","<div class='trialBorder'><div class='vertical-center'><img src='img/correct.jpg'></div><div class='respDiv'><div class='respDivL'>Match<br>(e)</div><div class='respDivR'><font style='color:orange'>No Match<br>(i)</font></div></div></div>","null","FEEDBACK","","","","","","","","","","",""
"html-keyboard-response","90","278098","0.0-7.0-1.11","62c5e680e4a4b4648606d756","bdp_wmem","Tue Mar 14 2023 13:11:50 GMT-0500 (Central Daylight Time)","618023","Match,No Match","","null","","","","","","<div class='trialBorder'><div class='vertical-center'><img src='img/fixation2_sml.jpg'</img></div></div>","null","FIX","","","","","","","","","","",""
"html-keyboard-response","91","281099","0.0-7.0-2.11","62c5e680e4a4b4648606d756","bdp_wmem","Tue Mar 14 2023 13:11:50 GMT-0500 (Central Daylight Time)","618023","Match,No Match","","null","","","","","","<div class='trialBorder'><div class='vertical-center'><img style='vertical-align:center; align:center' src='img/fixation2_sml.jpg'></div><div class='arrayDiv2'><div class='tl'><img class='introPic' src='trustrating_stim/white_mw010.bmp'><br><font color='red'><strong>Keep</strong></font></div><div class='tr'><img class='introPic' src='trustrating_stim/white_mw085.bmp'><br><font color='green'><strong>Share</strong></font></div></div></div>","null","ARRAY","2","trustrating_stim/white_mw010.bmp,trustrating_stim/white_mw085.bmp","0,1","Match","e","3000","","","","",""
"html-keyboard-response","92","285101","0.0-7.0-3.11","62c5e680e4a4b4648606d756","bdp_wmem","Tue Mar 14 2023 13:11:50 GMT-0500 (Central Daylight Time)","618023","Match,No Match","","null","","","","","","<div class='trialBorder'><div class='vertical-center'><img src='img/fixation2_sml.jpg'</img></div></div>","null","DELAY","","","","","","","","","","",""
"html-keyboard-response","93","287196","0.0-7.0-4.11","62c5e680e4a4b4648606d756","bdp_wmem","Tue Mar 14 2023 13:11:50 GMT-0500 (Central Daylight Time)","618023","Match,No Match","","2095","","","","","","<div class='trialBorder'><div class='targDiv'><div class='tc'><img class='introPic' src='trustrating_stim/white_mw010.bmp'><br><font color='red'><strong>Keep</strong></font></div></div><div class='respDiv'><div class='respDivL'>Match<br>(e)</div><div class='respDivR'>No Match<br>(i)</div></div></div>","e","TARGET","2","trustrating_stim/white_mw010.bmp,trustrating_stim/white_mw085.bmp","0,1","Match","e","3000","trustrating_stim/white_mw010.bmp","red","Keep","REAL","1"
"html-keyboard-response","94","287697","0.0-7.0-5.11","62c5e680e4a4b4648606d756","bdp_wmem","Tue Mar 14 2023 13:11:50 GMT-0500 (Central Daylight Time)","618023","Match,No Match","","null","","","","","","<div class='trialBorder'><div class='vertical-center'><img src='img/correct.jpg'></div><div class='respDiv'><div class='respDivL'><font style='color:orange'>Match<br>(e)</font></div><div class='respDivR'>No Match<br>(i)</div></div></div>","null","FEEDBACK","","","","","","","","","","",""
"html-keyboard-response","95","288198","0.0-7.0-1.12","62c5e680e4a4b4648606d756","bdp_wmem","Tue Mar 14 2023 13:11:50 GMT-0500 (Central Daylight Time)","618023","Match,No Match","","null","","","","","","<div class='trialBorder'><div class='vertical-center'><img src='img/fixation2_sml.jpg'</img></div></div>","null","FIX","","","","","","","","","","",""
"html-keyboard-response","96","289699","0.0-7.0-2.12","62c5e680e4a4b4648606d756","bdp_wmem","Tue Mar 14 2023 13:11:50 GMT-0500 (Central Daylight Time)","618023","Match,No Match","","null","","","","","","<div class='trialBorder'><div class='vertical-center'><img style='vertical-align:center; align:center' src='img/fixation2_sml.jpg'></div><div class='arrayDiv1'><div class='tc'><img class='introPic' src='trustrating_stim/white_mw042.bmp'><br><font color='green'><strong>Share</strong></font></div></div></div>","null","ARRAY","1","trustrating_stim/white_mw042.bmp","1","noMatchFace","i","1500","","","","",""
"html-keyboard-response","97","293701","0.0-7.0-3.12","62c5e680e4a4b4648606d756","bdp_wmem","Tue Mar 14 2023 13:11:50 GMT-0500 (Central Daylight Time)","618023","Match,No Match","","null","","","","","","<div class='trialBorder'><div class='vertical-center'><img src='img/fixation2_sml.jpg'</img></div></div>","null","DELAY","","","","","","","","","","",""
"html-keyboard-response","98","294398","0.0-7.0-4.12","62c5e680e4a4b4648606d756","bdp_wmem","Tue Mar 14 2023 13:11:50 GMT-0500 (Central Daylight Time)","618023","Match,No Match","","697","","","","","","<div class='trialBorder'><div class='targDiv'><div class='tc'><img class='introPic' src='trustrating_stim/white_mw085.bmp'><br><font color='green'><strong>Share</strong></font></div></div><div class='respDiv'><div class='respDivL'>Match<br>(e)</div><div class='respDivR'>No Match<br>(i)</div></div></div>","i","TARGET","1","trustrating_stim/white_mw042.bmp","1","noMatchFace","i","1500","trustrating_stim/white_mw085.bmp","green","Share","REAL","1"
"html-keyboard-response","99","294899","0.0-7.0-5.12","62c5e680e4a4b4648606d756","bdp_wmem","Tue Mar 14 2023 13:11:50 GMT-0500 (Central Daylight Time)","618023","Match,No Match","","null","","","","","","<div class='trialBorder'><div class='vertical-center'><img src='img/correct.jpg'></div><div class='respDiv'><div class='respDivL'>Match<br>(e)</div><div class='respDivR'><font style='color:orange'>No Match<br>(i)</font></div></div></div>","null","FEEDBACK","","","","","","","","","","",""
"html-keyboard-response","100","295400","0.0-7.0-1.13","62c5e680e4a4b4648606d756","bdp_wmem","Tue Mar 14 2023 13:11:50 GMT-0500 (Central Daylight Time)","618023","Match,No Match","","null","","","","","","<div class='trialBorder'><div class='vertical-center'><img src='img/fixation2_sml.jpg'</img></div></div>","null","FIX","","","","","","","","","","",""
"html-keyboard-response","101","299902","0.0-7.0-2.13","62c5e680e4a4b4648606d756","bdp_wmem","Tue Mar 14 2023 13:11:50 GMT-0500 (Central Daylight Time)","618023","Match,No Match","","null","","","","","","<div class='trialBorder'><div class='vertical-center'><img style='vertical-align:center; align:center' src='img/fixation2_sml.jpg'></div><div class='arrayDiv3'><div class='tl'><img class='introPic' src='trustrating_stim/white_mw038.bmp'><br><font color='green'><strong>Share</strong></font></div><div class='tc'><img class='introPic' src='trustrating_stim/white_mw042.bmp'><br><font color='red'><strong>Keep</strong></font></div><div class='tr'><img class='introPic' src='trustrating_stim/white_mw091.bmp'><br><font color='green'><strong>Share</strong></font></div></div></div>","null","ARRAY","3","trustrating_stim/white_mw038.bmp,trustrating_stim/white_mw042.bmp,trustrating_stim/white_mw091.bmp","1,0,1","noMatchOutcome","i","4500","","","","",""
"html-keyboard-response","102","303904","0.0-7.0-3.13","62c5e680e4a4b4648606d756","bdp_wmem","Tue Mar 14 2023 13:11:50 GMT-0500 (Central Daylight Time)","618023","Match,No Match","","null","","","","","","<div class='trialBorder'><div class='vertical-center'><img src='img/fixation2_sml.jpg'</img></div></div>","null","DELAY","","","","","","","","","","",""
"html-keyboard-response","103","304921","0.0-7.0-4.13","62c5e680e4a4b4648606d756","bdp_wmem","Tue Mar 14 2023 13:11:50 GMT-0500 (Central Daylight Time)","618023","Match,No Match","","1017","","","","","","<div class='trialBorder'><div class='targDiv'><div class='tc'><img class='introPic' src='trustrating_stim/white_mw091.bmp'><br><font color='red'><strong>Keep</strong></font></div></div><div class='respDiv'><div class='respDivL'>Match<br>(e)</div><div class='respDivR'>No Match<br>(i)</div></div></div>","i","TARGET","3","trustrating_stim/white_mw038.bmp,trustrating_stim/white_mw042.bmp,trustrating_stim/white_mw091.bmp","1,0,1","noMatchOutcome","i","4500","trustrating_stim/white_mw091.bmp","red","Keep","REAL","1"
"html-keyboard-response","104","305422","0.0-7.0-5.13","62c5e680e4a4b4648606d756","bdp_wmem","Tue Mar 14 2023 13:11:50 GMT-0500 (Central Daylight Time)","618023","Match,No Match","","null","","","","","","<div class='trialBorder'><div class='vertical-center'><img src='img/correct.jpg'></div><div class='respDiv'><div class='respDivL'>Match<br>(e)</div><div class='respDivR'><font style='color:orange'>No Match<br>(i)</font></div></div></div>","null","FEEDBACK","","","","","","","","","","",""
"html-keyboard-response","105","305924","0.0-7.0-1.14","62c5e680e4a4b4648606d756","bdp_wmem","Tue Mar 14 2023 13:11:50 GMT-0500 (Central Daylight Time)","618023","Match,No Match","","null","","","","","","<div class='trialBorder'><div class='vertical-center'><img src='img/fixation2_sml.jpg'</img></div></div>","null","FIX","","","","","","","","","","",""
"html-keyboard-response","106","310426","0.0-7.0-2.14","62c5e680e4a4b4648606d756","bdp_wmem","Tue Mar 14 2023 13:11:50 GMT-0500 (Central Daylight Time)","618023","Match,No Match","","null","","","","","","<div class='trialBorder'><div class='vertical-center'><img style='vertical-align:center; align:center' src='img/fixation2_sml.jpg'></div><div class='arrayDiv3'><div class='tl'><img class='introPic' src='trustrating_stim/white_mw010.bmp'><br><font color='green'><strong>Share</strong></font></div><div class='tc'><img class='introPic' src='trustrating_stim/white_mw078.bmp'><br><font color='green'><strong>Share</strong></font></div><div class='tr'><img class='introPic' src='trustrating_stim/white_mw085.bmp'><br><font color='red'><strong>Keep</strong></font></div></div></div>","null","ARRAY","3","trustrating_stim/white_mw010.bmp,trustrating_stim/white_mw078.bmp,trustrating_stim/white_mw085.bmp","1,1,0","Match","e","4500","","","","",""
"html-keyboard-response","107","314428","0.0-7.0-3.14","62c5e680e4a4b4648606d756","bdp_wmem","Tue Mar 14 2023 13:11:50 GMT-0500 (Central Daylight Time)","618023","Match,No Match","","null","","","","","","<div class='trialBorder'><div class='vertical-center'><img src='img/fixation2_sml.jpg'</img></div></div>","null","DELAY","","","","","","","","","","",""
"html-keyboard-response","108","315574","0.0-7.0-4.14","62c5e680e4a4b4648606d756","bdp_wmem","Tue Mar 14 2023 13:11:50 GMT-0500 (Central Daylight Time)","618023","Match,No Match","","1146","","","","","","<div class='trialBorder'><div class='targDiv'><div class='tc'><img class='introPic' src='trustrating_stim/white_mw085.bmp'><br><font color='red'><strong>Keep</strong></font></div></div><div class='respDiv'><div class='respDivL'>Match<br>(e)</div><div class='respDivR'>No Match<br>(i)</div></div></div>","e","TARGET","3","trustrating_stim/white_mw010.bmp,trustrating_stim/white_mw078.bmp,trustrating_stim/white_mw085.bmp","1,1,0","Match","e","4500","trustrating_stim/white_mw085.bmp","red","Keep","REAL","1"
"html-keyboard-response","109","316075","0.0-7.0-5.14","62c5e680e4a4b4648606d756","bdp_wmem","Tue Mar 14 2023 13:11:50 GMT-0500 (Central Daylight Time)","618023","Match,No Match","","null","","","","","","<div class='trialBorder'><div class='vertical-center'><img src='img/correct.jpg'></div><div class='respDiv'><div class='respDivL'><font style='color:orange'>Match<br>(e)</font></div><div class='respDivR'>No Match<br>(i)</div></div></div>","null","FEEDBACK","","","","","","","","","","",""
"html-keyboard-response","110","316577","0.0-7.0-1.15","62c5e680e4a4b4648606d756","bdp_wmem","Tue Mar 14 2023 13:11:50 GMT-0500 (Central Daylight Time)","618023","Match,No Match","","null","","","","","","<div class='trialBorder'><div class='vertical-center'><img src='img/fixation2_sml.jpg'</img></div></div>","null","FIX","","","","","","","","","","",""
"html-keyboard-response","111","319579","0.0-7.0-2.15","62c5e680e4a4b4648606d756","bdp_wmem","Tue Mar 14 2023 13:11:50 GMT-0500 (Central Daylight Time)","618023","Match,No Match","","null","","","","","","<div class='trialBorder'><div class='vertical-center'><img style='vertical-align:center; align:center' src='img/fixation2_sml.jpg'></div><div class='arrayDiv2'><div class='tl'><img class='introPic' src='trustrating_stim/white_mw042.bmp'><br><font color='red'><strong>Keep</strong></font></div><div class='tr'><img class='introPic' src='trustrating_stim/white_mw003.bmp'><br><font color='green'><strong>Share</strong></font></div></div></div>","null","ARRAY","2","trustrating_stim/white_mw042.bmp,trustrating_stim/white_mw003.bmp","0,1","noMatchOutcome","i","3000","","","","",""
"html-keyboard-response","112","323580","0.0-7.0-3.15","62c5e680e4a4b4648606d756","bdp_wmem","Tue Mar 14 2023 13:11:50 GMT-0500 (Central Daylight Time)","618023","Match,No Match","","null","","","","","","<div class='trialBorder'><div class='vertical-center'><img src='img/fixation2_sml.jpg'</img></div></div>","null","DELAY","","","","","","","","","","",""
"html-keyboard-response","113","324761","0.0-7.0-4.15","62c5e680e4a4b4648606d756","bdp_wmem","Tue Mar 14 2023 13:11:50 GMT-0500 (Central Daylight Time)","618023","Match,No Match","","1179","","","","","","<div class='trialBorder'><div class='targDiv'><div class='tc'><img class='introPic' src='trustrating_stim/white_mw042.bmp'><br><font color='green'><strong>Share</strong></font></div></div><div class='respDiv'><div class='respDivL'>Match<br>(e)</div><div class='respDivR'>No Match<br>(i)</div></div></div>","i","TARGET","2","trustrating_stim/white_mw042.bmp,trustrating_stim/white_mw003.bmp","0,1","noMatchOutcome","i","3000","trustrating_stim/white_mw042.bmp","green","Share","REAL","1"
"html-keyboard-response","114","325263","0.0-7.0-5.15","62c5e680e4a4b4648606d756","bdp_wmem","Tue Mar 14 2023 13:11:50 GMT-0500 (Central Daylight Time)","618023","Match,No Match","","null","","","","","","<div class='trialBorder'><div class='vertical-center'><img src='img/correct.jpg'></div><div class='respDiv'><div class='respDivL'>Match<br>(e)</div><div class='respDivR'><font style='color:orange'>No Match<br>(i)</font></div></div></div>","null","FEEDBACK","","","","","","","","","","",""
"html-keyboard-response","115","325764","0.0-7.0-1.16","62c5e680e4a4b4648606d756","bdp_wmem","Tue Mar 14 2023 13:11:50 GMT-0500 (Central Daylight Time)","618023","Match,No Match","","null","","","","","","<div class='trialBorder'><div class='vertical-center'><img src='img/fixation2_sml.jpg'</img></div></div>","null","FIX","","","","","","","","","","",""
"html-keyboard-response","116","330265","0.0-7.0-2.16","62c5e680e4a4b4648606d756","bdp_wmem","Tue Mar 14 2023 13:11:50 GMT-0500 (Central Daylight Time)","618023","Match,No Match","","null","","","","","","<div class='trialBorder'><div class='vertical-center'><img style='vertical-align:center; align:center' src='img/fixation2_sml.jpg'></div><div class='arrayDiv3'><div class='tl'><img class='introPic' src='trustrating_stim/white_mw010.bmp'><br><font color='red'><strong>Keep</strong></font></div><div class='tc'><img class='introPic' src='trustrating_stim/white_mw003.bmp'><br><font color='green'><strong>Share</strong></font></div><div class='tr'><img class='introPic' src='trustrating_stim/white_mw040.bmp'><br><font color='red'><strong>Keep</strong></font></div></div></div>","null","ARRAY","3","trustrating_stim/white_mw010.bmp,trustrating_stim/white_mw003.bmp,trustrating_stim/white_mw040.bmp","0,1,0","Match","e","4500","","","","",""
"html-keyboard-response","117","334267","0.0-7.0-3.16","62c5e680e4a4b4648606d756","bdp_wmem","Tue Mar 14 2023 13:11:50 GMT-0500 (Central Daylight Time)","618023","Match,No Match","","null","","","","","","<div class='trialBorder'><div class='vertical-center'><img src='img/fixation2_sml.jpg'</img></div></div>","null","DELAY","","","","","","","","","","",""
"html-keyboard-response","118","335229","0.0-7.0-4.16","62c5e680e4a4b4648606d756","bdp_wmem","Tue Mar 14 2023 13:11:50 GMT-0500 (Central Daylight Time)","618023","Match,No Match","","962","","","","","","<div class='trialBorder'><div class='targDiv'><div class='tc'><img class='introPic' src='trustrating_stim/white_mw040.bmp'><br><font color='red'><strong>Keep</strong></font></div></div><div class='respDiv'><div class='respDivL'>Match<br>(e)</div><div class='respDivR'>No Match<br>(i)</div></div></div>","e","TARGET","3","trustrating_stim/white_mw010.bmp,trustrating_stim/white_mw003.bmp,trustrating_stim/white_mw040.bmp","0,1,0","Match","e","4500","trustrating_stim/white_mw040.bmp","red","Keep","REAL","1"
"html-keyboard-response","119","335730","0.0-7.0-5.16","62c5e680e4a4b4648606d756","bdp_wmem","Tue Mar 14 2023 13:11:50 GMT-0500 (Central Daylight Time)","618023","Match,No Match","","null","","","","","","<div class='trialBorder'><div class='vertical-center'><img src='img/correct.jpg'></div><div class='respDiv'><div class='respDivL'><font style='color:orange'>Match<br>(e)</font></div><div class='respDivR'>No Match<br>(i)</div></div></div>","null","FEEDBACK","","","","","","","","","","",""
"html-keyboard-response","120","336231","0.0-7.0-1.17","62c5e680e4a4b4648606d756","bdp_wmem","Tue Mar 14 2023 13:11:50 GMT-0500 (Central Daylight Time)","618023","Match,No Match","","null","","","","","","<div class='trialBorder'><div class='vertical-center'><img src='img/fixation2_sml.jpg'</img></div></div>","null","FIX","","","","","","","","","","",""
"html-keyboard-response","121","337732","0.0-7.0-2.17","62c5e680e4a4b4648606d756","bdp_wmem","Tue Mar 14 2023 13:11:50 GMT-0500 (Central Daylight Time)","618023","Match,No Match","","null","","","","","","<div class='trialBorder'><div class='vertical-center'><img style='vertical-align:center; align:center' src='img/fixation2_sml.jpg'></div><div class='arrayDiv1'><div class='tc'><img class='introPic' src='trustrating_stim/white_mw012.bmp'><br><font color='red'><strong>Keep</strong></font></div></div></div>","null","ARRAY","1","trustrating_stim/white_mw012.bmp","0","Match","e","1500","","","","",""
"html-keyboard-response","122","341734","0.0-7.0-3.17","62c5e680e4a4b4648606d756","bdp_wmem","Tue Mar 14 2023 13:11:50 GMT-0500 (Central Daylight Time)","618023","Match,No Match","","null","","","","","","<div class='trialBorder'><div class='vertical-center'><img src='img/fixation2_sml.jpg'</img></div></div>","null","DELAY","","","","","","","","","","",""
"html-keyboard-response","123","342282","0.0-7.0-4.17","62c5e680e4a4b4648606d756","bdp_wmem","Tue Mar 14 2023 13:11:50 GMT-0500 (Central Daylight Time)","618023","Match,No Match","","547","","","","","","<div class='trialBorder'><div class='targDiv'><div class='tc'><img class='introPic' src='trustrating_stim/white_mw012.bmp'><br><font color='red'><strong>Keep</strong></font></div></div><div class='respDiv'><div class='respDivL'>Match<br>(e)</div><div class='respDivR'>No Match<br>(i)</div></div></div>","e","TARGET","1","trustrating_stim/white_mw012.bmp","0","Match","e","1500","trustrating_stim/white_mw012.bmp","red","Keep","REAL","1"
"html-keyboard-response","124","342782","0.0-7.0-5.17","62c5e680e4a4b4648606d756","bdp_wmem","Tue Mar 14 2023 13:11:50 GMT-0500 (Central Daylight Time)","618023","Match,No Match","","null","","","","","","<div class='trialBorder'><div class='vertical-center'><img src='img/correct.jpg'></div><div class='respDiv'><div class='respDivL'><font style='color:orange'>Match<br>(e)</font></div><div class='respDivR'>No Match<br>(i)</div></div></div>","null","FEEDBACK","","","","","","","","","","",""
"html-keyboard-response","125","343283","0.0-7.0-1.18","62c5e680e4a4b4648606d756","bdp_wmem","Tue Mar 14 2023 13:11:50 GMT-0500 (Central Daylight Time)","618023","Match,No Match","","null","","","","","","<div class='trialBorder'><div class='vertical-center'><img src='img/fixation2_sml.jpg'</img></div></div>","null","FIX","","","","","","","","","","",""
"html-keyboard-response","126","344784","0.0-7.0-2.18","62c5e680e4a4b4648606d756","bdp_wmem","Tue Mar 14 2023 13:11:50 GMT-0500 (Central Daylight Time)","618023","Match,No Match","","null","","","","","","<div class='trialBorder'><div class='vertical-center'><img style='vertical-align:center; align:center' src='img/fixation2_sml.jpg'></div><div class='arrayDiv1'><div class='tc'><img class='introPic' src='trustrating_stim/white_mw038.bmp'><br><font color='green'><strong>Share</strong></font></div></div></div>","null","ARRAY","1","trustrating_stim/white_mw038.bmp","1","Match","e","1500","","","","",""
"html-keyboard-response","127","348785","0.0-7.0-3.18","62c5e680e4a4b4648606d756","bdp_wmem","Tue Mar 14 2023 13:11:50 GMT-0500 (Central Daylight Time)","618023","Match,No Match","","null","","","","","","<div class='trialBorder'><div class='vertical-center'><img src='img/fixation2_sml.jpg'</img></div></div>","null","DELAY","","","","","","","","","","",""
"html-keyboard-response","128","349430","0.0-7.0-4.18","62c5e680e4a4b4648606d756","bdp_wmem","Tue Mar 14 2023 13:11:50 GMT-0500 (Central Daylight Time)","618023","Match,No Match","","645","","","","","","<div class='trialBorder'><div class='targDiv'><div class='tc'><img class='introPic' src='trustrating_stim/white_mw038.bmp'><br><font color='green'><strong>Share</strong></font></div></div><div class='respDiv'><div class='respDivL'>Match<br>(e)</div><div class='respDivR'>No Match<br>(i)</div></div></div>","e","TARGET","1","trustrating_stim/white_mw038.bmp","1","Match","e","1500","trustrating_stim/white_mw038.bmp","green","Share","REAL","1"
"html-keyboard-response","129","349931","0.0-7.0-5.18","62c5e680e4a4b4648606d756","bdp_wmem","Tue Mar 14 2023 13:11:50 GMT-0500 (Central Daylight Time)","618023","Match,No Match","","null","","","","","","<div class='trialBorder'><div class='vertical-center'><img src='img/correct.jpg'></div><div class='respDiv'><div class='respDivL'><font style='color:orange'>Match<br>(e)</font></div><div class='respDivR'>No Match<br>(i)</div></div></div>","null","FEEDBACK","","","","","","","","","","",""
"html-keyboard-response","130","350432","0.0-7.0-1.19","62c5e680e4a4b4648606d756","bdp_wmem","Tue Mar 14 2023 13:11:50 GMT-0500 (Central Daylight Time)","618023","Match,No Match","","null","","","","","","<div class='trialBorder'><div class='vertical-center'><img src='img/fixation2_sml.jpg'</img></div></div>","null","FIX","","","","","","","","","","",""
"html-keyboard-response","131","354934","0.0-7.0-2.19","62c5e680e4a4b4648606d756","bdp_wmem","Tue Mar 14 2023 13:11:50 GMT-0500 (Central Daylight Time)","618023","Match,No Match","","null","","","","","","<div class='trialBorder'><div class='vertical-center'><img style='vertical-align:center; align:center' src='img/fixation2_sml.jpg'></div><div class='arrayDiv3'><div class='tl'><img class='introPic' src='trustrating_stim/white_mw070.bmp'><br><font color='green'><strong>Share</strong></font></div><div class='tc'><img class='introPic' src='trustrating_stim/white_mw003.bmp'><br><font color='red'><strong>Keep</strong></font></div><div class='tr'><img class='introPic' src='trustrating_stim/white_mw013.bmp'><br><font color='green'><strong>Share</strong></font></div></div></div>","null","ARRAY","3","trustrating_stim/white_mw070.bmp,trustrating_stim/white_mw003.bmp,trustrating_stim/white_mw013.bmp","1,0,1","noMatchOutcome","i","4500","","","","",""
"html-keyboard-response","132","358936","0.0-7.0-3.19","62c5e680e4a4b4648606d756","bdp_wmem","Tue Mar 14 2023 13:11:50 GMT-0500 (Central Daylight Time)","618023","Match,No Match","","null","","","","","","<div class='trialBorder'><div class='vertical-center'><img src='img/fixation2_sml.jpg'</img></div></div>","null","DELAY","","","","","","","","","","",""
"html-keyboard-response","133","359751","0.0-7.0-4.19","62c5e680e4a4b4648606d756","bdp_wmem","Tue Mar 14 2023 13:11:50 GMT-0500 (Central Daylight Time)","618023","Match,No Match","","815","","","","","","<div class='trialBorder'><div class='targDiv'><div class='tc'><img class='introPic' src='trustrating_stim/white_mw013.bmp'><br><font color='red'><strong>Keep</strong></font></div></div><div class='respDiv'><div class='respDivL'>Match<br>(e)</div><div class='respDivR'>No Match<br>(i)</div></div></div>","i","TARGET","3","trustrating_stim/white_mw070.bmp,trustrating_stim/white_mw003.bmp,trustrating_stim/white_mw013.bmp","1,0,1","noMatchOutcome","i","4500","trustrating_stim/white_mw013.bmp","red","Keep","REAL","1"
"html-keyboard-response","134","360251","0.0-7.0-5.19","62c5e680e4a4b4648606d756","bdp_wmem","Tue Mar 14 2023 13:11:50 GMT-0500 (Central Daylight Time)","618023","Match,No Match","","null","","","","","","<div class='trialBorder'><div class='vertical-center'><img src='img/correct.jpg'></div><div class='respDiv'><div class='respDivL'>Match<br>(e)</div><div class='respDivR'><font style='color:orange'>No Match<br>(i)</font></div></div></div>","null","FEEDBACK","","","","","","","","","","",""
"html-keyboard-response","135","360753","0.0-7.0-1.20","62c5e680e4a4b4648606d756","bdp_wmem","Tue Mar 14 2023 13:11:50 GMT-0500 (Central Daylight Time)","618023","Match,No Match","","null","","","","","","<div class='trialBorder'><div class='vertical-center'><img src='img/fixation2_sml.jpg'</img></div></div>","null","FIX","","","","","","","","","","",""
"html-keyboard-response","136","365255","0.0-7.0-2.20","62c5e680e4a4b4648606d756","bdp_wmem","Tue Mar 14 2023 13:11:50 GMT-0500 (Central Daylight Time)","618023","Match,No Match","","null","","","","","","<div class='trialBorder'><div class='vertical-center'><img style='vertical-align:center; align:center' src='img/fixation2_sml.jpg'></div><div class='arrayDiv3'><div class='tl'><img class='introPic' src='trustrating_stim/white_mw042.bmp'><br><font color='green'><strong>Share</strong></font></div><div class='tc'><img class='introPic' src='trustrating_stim/white_mw038.bmp'><br><font color='green'><strong>Share</strong></font></div><div class='tr'><img class='introPic' src='trustrating_stim/white_mw013.bmp'><br><font color='red'><strong>Keep</strong></font></div></div></div>","null","ARRAY","3","trustrating_stim/white_mw042.bmp,trustrating_stim/white_mw038.bmp,trustrating_stim/white_mw013.bmp","1,1,0","noMatchFace","i","4500","","","","",""
"html-keyboard-response","137","369256","0.0-7.0-3.20","62c5e680e4a4b4648606d756","bdp_wmem","Tue Mar 14 2023 13:11:50 GMT-0500 (Central Daylight Time)","618023","Match,No Match","","null","","","","","","<div class='trialBorder'><div class='vertical-center'><img src='img/fixation2_sml.jpg'</img></div></div>","null","DELAY","","","","","","","","","","",""
"html-keyboard-response","138","370061","0.0-7.0-4.20","62c5e680e4a4b4648606d756","bdp_wmem","Tue Mar 14 2023 13:11:50 GMT-0500 (Central Daylight Time)","618023","Match,No Match","","804","","","","","","<div class='trialBorder'><div class='targDiv'><div class='tc'><img class='introPic' src='trustrating_stim/white_mw085.bmp'><br><font color='green'><strong>Share</strong></font></div></div><div class='respDiv'><div class='respDivL'>Match<br>(e)</div><div class='respDivR'>No Match<br>(i)</div></div></div>","i","TARGET","3","trustrating_stim/white_mw042.bmp,trustrating_stim/white_mw038.bmp,trustrating_stim/white_mw013.bmp","1,1,0","noMatchFace","i","4500","trustrating_stim/white_mw085.bmp","green","Share","REAL","1"
"html-keyboard-response","139","370562","0.0-7.0-5.20","62c5e680e4a4b4648606d756","bdp_wmem","Tue Mar 14 2023 13:11:50 GMT-0500 (Central Daylight Time)","618023","Match,No Match","","null","","","","","","<div class='trialBorder'><div class='vertical-center'><img src='img/correct.jpg'></div><div class='respDiv'><div class='respDivL'>Match<br>(e)</div><div class='respDivR'><font style='color:orange'>No Match<br>(i)</font></div></div></div>","null","FEEDBACK","","","","","","","","","","",""
"html-keyboard-response","140","371063","0.0-7.0-1.21","62c5e680e4a4b4648606d756","bdp_wmem","Tue Mar 14 2023 13:11:50 GMT-0500 (Central Daylight Time)","618023","Match,No Match","","null","","","","","","<div class='trialBorder'><div class='vertical-center'><img src='img/fixation2_sml.jpg'</img></div></div>","null","FIX","","","","","","","","","","",""
"html-keyboard-response","141","374065","0.0-7.0-2.21","62c5e680e4a4b4648606d756","bdp_wmem","Tue Mar 14 2023 13:11:50 GMT-0500 (Central Daylight Time)","618023","Match,No Match","","null","","","","","","<div class='trialBorder'><div class='vertical-center'><img style='vertical-align:center; align:center' src='img/fixation2_sml.jpg'></div><div class='arrayDiv2'><div class='tl'><img class='introPic' src='trustrating_stim/white_mw013.bmp'><br><font color='green'><strong>Share</strong></font></div><div class='tr'><img class='introPic' src='trustrating_stim/white_mw010.bmp'><br><font color='red'><strong>Keep</strong></font></div></div></div>","null","ARRAY","2","trustrating_stim/white_mw013.bmp,trustrating_stim/white_mw010.bmp","1,0","noMatchFace","i","3000","","","","",""
"html-keyboard-response","142","378068","0.0-7.0-3.21","62c5e680e4a4b4648606d756","bdp_wmem","Tue Mar 14 2023 13:11:50 GMT-0500 (Central Daylight Time)","618023","Match,No Match","","null","","","","","","<div class='trialBorder'><div class='vertical-center'><img src='img/fixation2_sml.jpg'</img></div></div>","null","DELAY","","","","","","","","","","",""
"html-keyboard-response","143","378753","0.0-7.0-4.21","62c5e680e4a4b4648606d756","bdp_wmem","Tue Mar 14 2023 13:11:50 GMT-0500 (Central Daylight Time)","618023","Match,No Match","","685","","","","","","<div class='trialBorder'><div class='targDiv'><div class='tc'><img class='introPic' src='trustrating_stim/white_mw012.bmp'><br><font color='red'><strong>Keep</strong></font></div></div><div class='respDiv'><div class='respDivL'>Match<br>(e)</div><div class='respDivR'>No Match<br>(i)</div></div></div>","i","TARGET","2","trustrating_stim/white_mw013.bmp,trustrating_stim/white_mw010.bmp","1,0","noMatchFace","i","3000","trustrating_stim/white_mw012.bmp","red","Keep","REAL","1"
"html-keyboard-response","144","379254","0.0-7.0-5.21","62c5e680e4a4b4648606d756","bdp_wmem","Tue Mar 14 2023 13:11:50 GMT-0500 (Central Daylight Time)","618023","Match,No Match","","null","","","","","","<div class='trialBorder'><div class='vertical-center'><img src='img/correct.jpg'></div><div class='respDiv'><div class='respDivL'>Match<br>(e)</div><div class='respDivR'><font style='color:orange'>No Match<br>(i)</font></div></div></div>","null","FEEDBACK","","","","","","","","","","",""
"html-keyboard-response","145","379756","0.0-7.0-1.22","62c5e680e4a4b4648606d756","bdp_wmem","Tue Mar 14 2023 13:11:50 GMT-0500 (Central Daylight Time)","618023","Match,No Match","","null","","","","","","<div class='trialBorder'><div class='vertical-center'><img src='img/fixation2_sml.jpg'</img></div></div>","null","FIX","","","","","","","","","","",""
"html-keyboard-response","146","381258","0.0-7.0-2.22","62c5e680e4a4b4648606d756","bdp_wmem","Tue Mar 14 2023 13:11:50 GMT-0500 (Central Daylight Time)","618023","Match,No Match","","null","","","","","","<div class='trialBorder'><div class='vertical-center'><img style='vertical-align:center; align:center' src='img/fixation2_sml.jpg'></div><div class='arrayDiv1'><div class='tc'><img class='introPic' src='trustrating_stim/white_mw085.bmp'><br><font color='red'><strong>Keep</strong></font></div></div></div>","null","ARRAY","1","trustrating_stim/white_mw085.bmp","0","Match","e","1500","","","","",""
"html-keyboard-response","147","385259","0.0-7.0-3.22","62c5e680e4a4b4648606d756","bdp_wmem","Tue Mar 14 2023 13:11:50 GMT-0500 (Central Daylight Time)","618023","Match,No Match","","null","","","","","","<div class='trialBorder'><div class='vertical-center'><img src='img/fixation2_sml.jpg'</img></div></div>","null","DELAY","","","","","","","","","","",""
"html-keyboard-response","148","386100","0.0-7.0-4.22","62c5e680e4a4b4648606d756","bdp_wmem","Tue Mar 14 2023 13:11:50 GMT-0500 (Central Daylight Time)","618023","Match,No Match","","840","","","","","","<div class='trialBorder'><div class='targDiv'><div class='tc'><img class='introPic' src='trustrating_stim/white_mw085.bmp'><br><font color='red'><strong>Keep</strong></font></div></div><div class='respDiv'><div class='respDivL'>Match<br>(e)</div><div class='respDivR'>No Match<br>(i)</div></div></div>","e","TARGET","1","trustrating_stim/white_mw085.bmp","0","Match","e","1500","trustrating_stim/white_mw085.bmp","red","Keep","REAL","1"
"html-keyboard-response","149","386601","0.0-7.0-5.22","62c5e680e4a4b4648606d756","bdp_wmem","Tue Mar 14 2023 13:11:50 GMT-0500 (Central Daylight Time)","618023","Match,No Match","","null","","","","","","<div class='trialBorder'><div class='vertical-center'><img src='img/correct.jpg'></div><div class='respDiv'><div class='respDivL'><font style='color:orange'>Match<br>(e)</font></div><div class='respDivR'>No Match<br>(i)</div></div></div>","null","FEEDBACK","","","","","","","","","","",""
"html-keyboard-response","150","387102","0.0-7.0-1.23","62c5e680e4a4b4648606d756","bdp_wmem","Tue Mar 14 2023 13:11:50 GMT-0500 (Central Daylight Time)","618023","Match,No Match","","null","","","","","","<div class='trialBorder'><div class='vertical-center'><img src='img/fixation2_sml.jpg'</img></div></div>","null","FIX","","","","","","","","","","",""
"html-keyboard-response","151","390104","0.0-7.0-2.23","62c5e680e4a4b4648606d756","bdp_wmem","Tue Mar 14 2023 13:11:50 GMT-0500 (Central Daylight Time)","618023","Match,No Match","","null","","","","","","<div class='trialBorder'><div class='vertical-center'><img style='vertical-align:center; align:center' src='img/fixation2_sml.jpg'></div><div class='arrayDiv2'><div class='tl'><img class='introPic' src='trustrating_stim/white_mw003.bmp'><br><font color='red'><strong>Keep</strong></font></div><div class='tr'><img class='introPic' src='trustrating_stim/white_mw038.bmp'><br><font color='green'><strong>Share</strong></font></div></div></div>","null","ARRAY","2","trustrating_stim/white_mw003.bmp,trustrating_stim/white_mw038.bmp","0,1","noMatchFace","i","3000","","","","",""
"html-keyboard-response","152","394106","0.0-7.0-3.23","62c5e680e4a4b4648606d756","bdp_wmem","Tue Mar 14 2023 13:11:50 GMT-0500 (Central Daylight Time)","618023","Match,No Match","","null","","","","","","<div class='trialBorder'><div class='vertical-center'><img src='img/fixation2_sml.jpg'</img></div></div>","null","DELAY","","","","","","","","","","",""
"html-keyboard-response","153","394799","0.0-7.0-4.23","62c5e680e4a4b4648606d756","bdp_wmem","Tue Mar 14 2023 13:11:50 GMT-0500 (Central Daylight Time)","618023","Match,No Match","","693","","","","","","<div class='trialBorder'><div class='targDiv'><div class='tc'><img class='introPic' src='trustrating_stim/white_mw070.bmp'><br><font color='green'><strong>Share</strong></font></div></div><div class='respDiv'><div class='respDivL'>Match<br>(e)</div><div class='respDivR'>No Match<br>(i)</div></div></div>","i","TARGET","2","trustrating_stim/white_mw003.bmp,trustrating_stim/white_mw038.bmp","0,1","noMatchFace","i","3000","trustrating_stim/white_mw070.bmp","green","Share","REAL","1"
"html-keyboard-response","154","395300","0.0-7.0-5.23","62c5e680e4a4b4648606d756","bdp_wmem","Tue Mar 14 2023 13:11:50 GMT-0500 (Central Daylight Time)","618023","Match,No Match","","null","","","","","","<div class='trialBorder'><div class='vertical-center'><img src='img/correct.jpg'></div><div class='respDiv'><div class='respDivL'>Match<br>(e)</div><div class='respDivR'><font style='color:orange'>No Match<br>(i)</font></div></div></div>","null","FEEDBACK","","","","","","","","","","",""
"html-keyboard-response","155","395802","0.0-7.0-1.24","62c5e680e4a4b4648606d756","bdp_wmem","Tue Mar 14 2023 13:11:50 GMT-0500 (Central Daylight Time)","618023","Match,No Match","","null","","","","","","<div class='trialBorder'><div class='vertical-center'><img src='img/fixation2_sml.jpg'</img></div></div>","null","FIX","","","","","","","","","","",""
"html-keyboard-response","156","397304","0.0-7.0-2.24","62c5e680e4a4b4648606d756","bdp_wmem","Tue Mar 14 2023 13:11:50 GMT-0500 (Central Daylight Time)","618023","Match,No Match","","null","","","","","","<div class='trialBorder'><div class='vertical-center'><img style='vertical-align:center; align:center' src='img/fixation2_sml.jpg'></div><div class='arrayDiv1'><div class='tc'><img class='introPic' src='trustrating_stim/white_mw040.bmp'><br><font color='red'><strong>Keep</strong></font></div></div></div>","null","ARRAY","1","trustrating_stim/white_mw040.bmp","0","noMatchFace","i","1500","","","","",""
"html-keyboard-response","157","401305","0.0-7.0-3.24","62c5e680e4a4b4648606d756","bdp_wmem","Tue Mar 14 2023 13:11:50 GMT-0500 (Central Daylight Time)","618023","Match,No Match","","null","","","","","","<div class='trialBorder'><div class='vertical-center'><img src='img/fixation2_sml.jpg'</img></div></div>","null","DELAY","","","","","","","","","","",""
"html-keyboard-response","158","402085","0.0-7.0-4.24","62c5e680e4a4b4648606d756","bdp_wmem","Tue Mar 14 2023 13:11:50 GMT-0500 (Central Daylight Time)","618023","Match,No Match","","779","","","","","","<div class='trialBorder'><div class='targDiv'><div class='tc'><img class='introPic' src='trustrating_stim/white_mw042.bmp'><br><font color='red'><strong>Keep</strong></font></div></div><div class='respDiv'><div class='respDivL'>Match<br>(e)</div><div class='respDivR'>No Match<br>(i)</div></div></div>","i","TARGET","1","trustrating_stim/white_mw040.bmp","0","noMatchFace","i","1500","trustrating_stim/white_mw042.bmp","red","Keep","REAL","1"
"html-keyboard-response","159","402587","0.0-7.0-5.24","62c5e680e4a4b4648606d756","bdp_wmem","Tue Mar 14 2023 13:11:50 GMT-0500 (Central Daylight Time)","618023","Match,No Match","","null","","","","","","<div class='trialBorder'><div class='vertical-center'><img src='img/correct.jpg'></div><div class='respDiv'><div class='respDivL'>Match<br>(e)</div><div class='respDivR'><font style='color:orange'>No Match<br>(i)</font></div></div></div>","null","FEEDBACK","","","","","","","","","","",""
"html-keyboard-response","160","403089","0.0-7.0-1.25","62c5e680e4a4b4648606d756","bdp_wmem","Tue Mar 14 2023 13:11:50 GMT-0500 (Central Daylight Time)","618023","Match,No Match","","null","","","","","","<div class='trialBorder'><div class='vertical-center'><img src='img/fixation2_sml.jpg'</img></div></div>","null","FIX","","","","","","","","","","",""
"html-keyboard-response","161","404590","0.0-7.0-2.25","62c5e680e4a4b4648606d756","bdp_wmem","Tue Mar 14 2023 13:11:50 GMT-0500 (Central Daylight Time)","618023","Match,No Match","","null","","","","","","<div class='trialBorder'><div class='vertical-center'><img style='vertical-align:center; align:center' src='img/fixation2_sml.jpg'></div><div class='arrayDiv1'><div class='tc'><img class='introPic' src='trustrating_stim/white_mw013.bmp'><br><font color='green'><strong>Share</strong></font></div></div></div>","null","ARRAY","1","trustrating_stim/white_mw013.bmp","1","noMatchFace","i","1500","","","","",""
"html-keyboard-response","162","408591","0.0-7.0-3.25","62c5e680e4a4b4648606d756","bdp_wmem","Tue Mar 14 2023 13:11:50 GMT-0500 (Central Daylight Time)","618023","Match,No Match","","null","","","","","","<div class='trialBorder'><div class='vertical-center'><img src='img/fixation2_sml.jpg'</img></div></div>","null","DELAY","","","","","","","","","","",""
"html-keyboard-response","163","409208","0.0-7.0-4.25","62c5e680e4a4b4648606d756","bdp_wmem","Tue Mar 14 2023 13:11:50 GMT-0500 (Central Daylight Time)","618023","Match,No Match","","617","","","","","","<div class='trialBorder'><div class='targDiv'><div class='tc'><img class='introPic' src='trustrating_stim/white_mw012.bmp'><br><font color='green'><strong>Share</strong></font></div></div><div class='respDiv'><div class='respDivL'>Match<br>(e)</div><div class='respDivR'>No Match<br>(i)</div></div></div>","i","TARGET","1","trustrating_stim/white_mw013.bmp","1","noMatchFace","i","1500","trustrating_stim/white_mw012.bmp","green","Share","REAL","1"
"html-keyboard-response","164","409709","0.0-7.0-5.25","62c5e680e4a4b4648606d756","bdp_wmem","Tue Mar 14 2023 13:11:50 GMT-0500 (Central Daylight Time)","618023","Match,No Match","","null","","","","","","<div class='trialBorder'><div class='vertical-center'><img src='img/correct.jpg'></div><div class='respDiv'><div class='respDivL'>Match<br>(e)</div><div class='respDivR'><font style='color:orange'>No Match<br>(i)</font></div></div></div>","null","FEEDBACK","","","","","","","","","","",""
"html-keyboard-response","165","410211","0.0-7.0-1.26","62c5e680e4a4b4648606d756","bdp_wmem","Tue Mar 14 2023 13:11:50 GMT-0500 (Central Daylight Time)","618023","Match,No Match","","null","","","","","","<div class='trialBorder'><div class='vertical-center'><img src='img/fixation2_sml.jpg'</img></div></div>","null","FIX","","","","","","","","","","",""
"html-keyboard-response","166","414712","0.0-7.0-2.26","62c5e680e4a4b4648606d756","bdp_wmem","Tue Mar 14 2023 13:11:50 GMT-0500 (Central Daylight Time)","618023","Match,No Match","","null","","","","","","<div class='trialBorder'><div class='vertical-center'><img style='vertical-align:center; align:center' src='img/fixation2_sml.jpg'></div><div class='arrayDiv3'><div class='tl'><img class='introPic' src='trustrating_stim/white_mw040.bmp'><br><font color='green'><strong>Share</strong></font></div><div class='tc'><img class='introPic' src='trustrating_stim/white_mw078.bmp'><br><font color='green'><strong>Share</strong></font></div><div class='tr'><img class='introPic' src='trustrating_stim/white_mw010.bmp'><br><font color='red'><strong>Keep</strong></font></div></div></div>","null","ARRAY","3","trustrating_stim/white_mw040.bmp,trustrating_stim/white_mw078.bmp,trustrating_stim/white_mw010.bmp","1,1,0","Match","e","4500","","","","",""
"html-keyboard-response","167","418713","0.0-7.0-3.26","62c5e680e4a4b4648606d756","bdp_wmem","Tue Mar 14 2023 13:11:50 GMT-0500 (Central Daylight Time)","618023","Match,No Match","","null","","","","","","<div class='trialBorder'><div class='vertical-center'><img src='img/fixation2_sml.jpg'</img></div></div>","null","DELAY","","","","","","","","","","",""
"html-keyboard-response","168","421318","0.0-7.0-4.26","62c5e680e4a4b4648606d756","bdp_wmem","Tue Mar 14 2023 13:11:50 GMT-0500 (Central Daylight Time)","618023","Match,No Match","","2605","","","","","","<div class='trialBorder'><div class='targDiv'><div class='tc'><img class='introPic' src='trustrating_stim/white_mw078.bmp'><br><font color='green'><strong>Share</strong></font></div></div><div class='respDiv'><div class='respDivL'>Match<br>(e)</div><div class='respDivR'>No Match<br>(i)</div></div></div>","e","TARGET","3","trustrating_stim/white_mw040.bmp,trustrating_stim/white_mw078.bmp,trustrating_stim/white_mw010.bmp","1,1,0","Match","e","4500","trustrating_stim/white_mw078.bmp","green","Share","REAL","1"
"html-keyboard-response","169","421819","0.0-7.0-5.26","62c5e680e4a4b4648606d756","bdp_wmem","Tue Mar 14 2023 13:11:50 GMT-0500 (Central Daylight Time)","618023","Match,No Match","","null","","","","","","<div class='trialBorder'><div class='vertical-center'><img src='img/correct.jpg'></div><div class='respDiv'><div class='respDivL'><font style='color:orange'>Match<br>(e)</font></div><div class='respDivR'>No Match<br>(i)</div></div></div>","null","FEEDBACK","","","","","","","","","","",""
"html-keyboard-response","170","422320","0.0-7.0-1.27","62c5e680e4a4b4648606d756","bdp_wmem","Tue Mar 14 2023 13:11:50 GMT-0500 (Central Daylight Time)","618023","Match,No Match","","null","","","","","","<div class='trialBorder'><div class='vertical-center'><img src='img/fixation2_sml.jpg'</img></div></div>","null","FIX","","","","","","","","","","",""
"html-keyboard-response","171","426821","0.0-7.0-2.27","62c5e680e4a4b4648606d756","bdp_wmem","Tue Mar 14 2023 13:11:50 GMT-0500 (Central Daylight Time)","618023","Match,No Match","","null","","","","","","<div class='trialBorder'><div class='vertical-center'><img style='vertical-align:center; align:center' src='img/fixation2_sml.jpg'></div><div class='arrayDiv3'><div class='tl'><img class='introPic' src='trustrating_stim/white_mw003.bmp'><br><font color='red'><strong>Keep</strong></font></div><div class='tc'><img class='introPic' src='trustrating_stim/white_mw092.bmp'><br><font color='green'><strong>Share</strong></font></div><div class='tr'><img class='introPic' src='trustrating_stim/white_mw040.bmp'><br><font color='green'><strong>Share</strong></font></div></div></div>","null","ARRAY","3","trustrating_stim/white_mw003.bmp,trustrating_stim/white_mw092.bmp,trustrating_stim/white_mw040.bmp","0,1,1","Match","e","4500","","","","",""
"html-keyboard-response","172","430822","0.0-7.0-3.27","62c5e680e4a4b4648606d756","bdp_wmem","Tue Mar 14 2023 13:11:50 GMT-0500 (Central Daylight Time)","618023","Match,No Match","","null","","","","","","<div class='trialBorder'><div class='vertical-center'><img src='img/fixation2_sml.jpg'</img></div></div>","null","DELAY","","","","","","","","","","",""
"html-keyboard-response","173","432078","0.0-7.0-4.27","62c5e680e4a4b4648606d756","bdp_wmem","Tue Mar 14 2023 13:11:50 GMT-0500 (Central Daylight Time)","618023","Match,No Match","","1255","","","","","","<div class='trialBorder'><div class='targDiv'><div class='tc'><img class='introPic' src='trustrating_stim/white_mw092.bmp'><br><font color='green'><strong>Share</strong></font></div></div><div class='respDiv'><div class='respDivL'>Match<br>(e)</div><div class='respDivR'>No Match<br>(i)</div></div></div>","i","TARGET","3","trustrating_stim/white_mw003.bmp,trustrating_stim/white_mw092.bmp,trustrating_stim/white_mw040.bmp","0,1,1","Match","e","4500","trustrating_stim/white_mw092.bmp","green","Share","REAL","0"
"html-keyboard-response","174","432579","0.0-7.0-5.27","62c5e680e4a4b4648606d756","bdp_wmem","Tue Mar 14 2023 13:11:50 GMT-0500 (Central Daylight Time)","618023","Match,No Match","","null","","","","","","<div class='trialBorder'><div class='vertical-center'><img src='img/error.jpg'></div><div class='respDiv'><div class='respDivL'>Match<br>(e)</div><div class='respDivR'><font style='color:orange'>No Match<br>(i)</font></div></div></div>","null","FEEDBACK","","","","","","","","","","",""
"html-keyboard-response","175","433080","0.0-7.0-1.28","62c5e680e4a4b4648606d756","bdp_wmem","Tue Mar 14 2023 13:11:50 GMT-0500 (Central Daylight Time)","618023","Match,No Match","","null","","","","","","<div class='trialBorder'><div class='vertical-center'><img src='img/fixation2_sml.jpg'</img></div></div>","null","FIX","","","","","","","","","","",""
"html-keyboard-response","176","436082","0.0-7.0-2.28","62c5e680e4a4b4648606d756","bdp_wmem","Tue Mar 14 2023 13:11:50 GMT-0500 (Central Daylight Time)","618023","Match,No Match","","null","","","","","","<div class='trialBorder'><div class='vertical-center'><img style='vertical-align:center; align:center' src='img/fixation2_sml.jpg'></div><div class='arrayDiv2'><div class='tl'><img class='introPic' src='trustrating_stim/white_mw010.bmp'><br><font color='red'><strong>Keep</strong></font></div><div class='tr'><img class='introPic' src='trustrating_stim/white_mw078.bmp'><br><font color='green'><strong>Share</strong></font></div></div></div>","null","ARRAY","2","trustrating_stim/white_mw010.bmp,trustrating_stim/white_mw078.bmp","0,1","Match","e","3000","","","","",""
"html-keyboard-response","177","440085","0.0-7.0-3.28","62c5e680e4a4b4648606d756","bdp_wmem","Tue Mar 14 2023 13:11:50 GMT-0500 (Central Daylight Time)","618023","Match,No Match","","null","","","","","","<div class='trialBorder'><div class='vertical-center'><img src='img/fixation2_sml.jpg'</img></div></div>","null","DELAY","","","","","","","","","","",""
"html-keyboard-response","178","440928","0.0-7.0-4.28","62c5e680e4a4b4648606d756","bdp_wmem","Tue Mar 14 2023 13:11:50 GMT-0500 (Central Daylight Time)","618023","Match,No Match","","843","","","","","","<div class='trialBorder'><div class='targDiv'><div class='tc'><img class='introPic' src='trustrating_stim/white_mw010.bmp'><br><font color='red'><strong>Keep</strong></font></div></div><div class='respDiv'><div class='respDivL'>Match<br>(e)</div><div class='respDivR'>No Match<br>(i)</div></div></div>","e","TARGET","2","trustrating_stim/white_mw010.bmp,trustrating_stim/white_mw078.bmp","0,1","Match","e","3000","trustrating_stim/white_mw010.bmp","red","Keep","REAL","1"
"html-keyboard-response","179","441429","0.0-7.0-5.28","62c5e680e4a4b4648606d756","bdp_wmem","Tue Mar 14 2023 13:11:50 GMT-0500 (Central Daylight Time)","618023","Match,No Match","","null","","","","","","<div class='trialBorder'><div class='vertical-center'><img src='img/correct.jpg'></div><div class='respDiv'><div class='respDivL'><font style='color:orange'>Match<br>(e)</font></div><div class='respDivR'>No Match<br>(i)</div></div></div>","null","FEEDBACK","","","","","","","","","","",""
"html-keyboard-response","180","441931","0.0-7.0-1.29","62c5e680e4a4b4648606d756","bdp_wmem","Tue Mar 14 2023 13:11:50 GMT-0500 (Central Daylight Time)","618023","Match,No Match","","null","","","","","","<div class='trialBorder'><div class='vertical-center'><img src='img/fixation2_sml.jpg'</img></div></div>","null","FIX","","","","","","","","","","",""
"html-keyboard-response","181","444933","0.0-7.0-2.29","62c5e680e4a4b4648606d756","bdp_wmem","Tue Mar 14 2023 13:11:50 GMT-0500 (Central Daylight Time)","618023","Match,No Match","","null","","","","","","<div class='trialBorder'><div class='vertical-center'><img style='vertical-align:center; align:center' src='img/fixation2_sml.jpg'></div><div class='arrayDiv2'><div class='tl'><img class='introPic' src='trustrating_stim/white_mw040.bmp'><br><font color='red'><strong>Keep</strong></font></div><div class='tr'><img class='introPic' src='trustrating_stim/white_mw012.bmp'><br><font color='green'><strong>Share</strong></font></div></div></div>","null","ARRAY","2","trustrating_stim/white_mw040.bmp,trustrating_stim/white_mw012.bmp","0,1","Match","e","3000","","","","",""
"html-keyboard-response","182","448934","0.0-7.0-3.29","62c5e680e4a4b4648606d756","bdp_wmem","Tue Mar 14 2023 13:11:50 GMT-0500 (Central Daylight Time)","618023","Match,No Match","","null","","","","","","<div class='trialBorder'><div class='vertical-center'><img src='img/fixation2_sml.jpg'</img></div></div>","null","DELAY","","","","","","","","","","",""
"html-keyboard-response","183","449902","0.0-7.0-4.29","62c5e680e4a4b4648606d756","bdp_wmem","Tue Mar 14 2023 13:11:50 GMT-0500 (Central Daylight Time)","618023","Match,No Match","","968","","","","","","<div class='trialBorder'><div class='targDiv'><div class='tc'><img class='introPic' src='trustrating_stim/white_mw012.bmp'><br><font color='green'><strong>Share</strong></font></div></div><div class='respDiv'><div class='respDivL'>Match<br>(e)</div><div class='respDivR'>No Match<br>(i)</div></div></div>","e","TARGET","2","trustrating_stim/white_mw040.bmp,trustrating_stim/white_mw012.bmp","0,1","Match","e","3000","trustrating_stim/white_mw012.bmp","green","Share","REAL","1"
"html-keyboard-response","184","450402","0.0-7.0-5.29","62c5e680e4a4b4648606d756","bdp_wmem","Tue Mar 14 2023 13:11:50 GMT-0500 (Central Daylight Time)","618023","Match,No Match","","null","","","","","","<div class='trialBorder'><div class='vertical-center'><img src='img/correct.jpg'></div><div class='respDiv'><div class='respDivL'><font style='color:orange'>Match<br>(e)</font></div><div class='respDivR'>No Match<br>(i)</div></div></div>","null","FEEDBACK","","","","","","","","","","",""
"html-keyboard-response","185","450904","0.0-7.0-1.30","62c5e680e4a4b4648606d756","bdp_wmem","Tue Mar 14 2023 13:11:50 GMT-0500 (Central Daylight Time)","618023","Match,No Match","","null","","","","","","<div class='trialBorder'><div class='vertical-center'><img src='img/fixation2_sml.jpg'</img></div></div>","null","FIX","","","","","","","","","","",""
"html-keyboard-response","186","453905","0.0-7.0-2.30","62c5e680e4a4b4648606d756","bdp_wmem","Tue Mar 14 2023 13:11:50 GMT-0500 (Central Daylight Time)","618023","Match,No Match","","null","","","","","","<div class='trialBorder'><div class='vertical-center'><img style='vertical-align:center; align:center' src='img/fixation2_sml.jpg'></div><div class='arrayDiv2'><div class='tl'><img class='introPic' src='trustrating_stim/white_mw012.bmp'><br><font color='green'><strong>Share</strong></font></div><div class='tr'><img class='introPic' src='trustrating_stim/white_mw040.bmp'><br><font color='red'><strong>Keep</strong></font></div></div></div>","null","ARRAY","2","trustrating_stim/white_mw012.bmp,trustrating_stim/white_mw040.bmp","1,0","Match","e","3000","","","","",""
"html-keyboard-response","187","457906","0.0-7.0-3.30","62c5e680e4a4b4648606d756","bdp_wmem","Tue Mar 14 2023 13:11:50 GMT-0500 (Central Daylight Time)","618023","Match,No Match","","null","","","","","","<div class='trialBorder'><div class='vertical-center'><img src='img/fixation2_sml.jpg'</img></div></div>","null","DELAY","","","","","","","","","","",""
