"trial_type","trial_index","time_elapsed","internal_node_id","subject_id","task","startTime","totalTime","labels","view_history","rt","event","trial","time","trialtype","success","stimulus","key_press","stimType","arraySize","arrayFaces","arrayOutcomes","matchType","corrResp","arrayDur","targFace","targCol","targOutcome","trialType","corr"
"pavlovia","0","12","0.0-0.0","63eaa9f8f0637c961dcfc277","bdp_wmem","Tue Mar 14 2023 15:58:32 GMT-1000 (Hawaii-Aleutian Standard Time)","637374","Match,No Match","","","","","","","","","","","","","","","","","","","","",""
"instructions","1","1589","0.0-1.0","63eaa9f8f0637c961dcfc277","bdp_wmem","Tue Mar 14 2023 15:58:32 GMT-1000 (Hawaii-Aleutian Standard Time)","637374","Match,No Match","[{""page_index"":0,""viewing_time"":1576}]","1576","","","","","","","","","","","","","","","","","","",""
"","","","","63eaa9f8f0637c961dcfc277","bdp_wmem","Tue Mar 14 2023 15:58:32 GMT-1000 (Hawaii-Aleutian Standard Time)","637374","Match,No Match","","","fullscreenenter","2","4510","fullscreenenter","","","","","","","","","","","","","","",""
"fullscreen","2","5472","0.0-2.0","63eaa9f8f0637c961dcfc277","bdp_wmem","Tue Mar 14 2023 15:58:32 GMT-1000 (Hawaii-Aleutian Standard Time)","637374","Match,No Match","","","","","","","true","","","","","","","","","","","","","",""
"instructions","3","109998","0.0-4.0","63eaa9f8f0637c961dcfc277","bdp_wmem","Tue Mar 14 2023 15:58:32 GMT-1000 (Hawaii-Aleutian Standard Time)","637374","Match,No Match","[{""page_index"":0,""viewing_time"":20197},{""page_index"":1,""viewing_time"":49698},{""page_index"":2,""viewing_time"":14177},{""page_index"":3,""viewing_time"":7987},{""page_index"":4,""viewing_time"":12463}]","104523","","","","","","","","","","","","","","","","","","",""
"html-keyboard-response","4","110510","0.0-5.0-1.0","63eaa9f8f0637c961dcfc277","bdp_wmem","Tue Mar 14 2023 15:58:32 GMT-1000 (Hawaii-Aleutian Standard Time)","637374","Match,No Match","","null","","","","","","<div class='trialBorder'><div class='vertical-center'><img src='img/fixation2_sml.jpg'</img></div></div>","null","FIX","","","","","","","","","","",""
"html-keyboard-response","5","115020","0.0-5.0-2.0","63eaa9f8f0637c961dcfc277","bdp_wmem","Tue Mar 14 2023 15:58:32 GMT-1000 (Hawaii-Aleutian Standard Time)","637374","Match,No Match","","null","","","","","","<div class='trialBorder'><div class='vertical-center'><img style='vertical-align:center; align:center' src='img/fixation2_sml.jpg'></div><div class='arrayDiv3'><div class='tl'><img class='introPic' src='trustrating_stim/white_mw085.bmp'><br><font color='red'><strong>Keep</strong></font></div><div class='tc'><img class='introPic' src='trustrating_stim/white_mw012.bmp'><br><font color='green'><strong>Share</strong></font></div><div class='tr'><img class='introPic' src='trustrating_stim/white_mw078.bmp'><br><font color='red'><strong>Keep</strong></font></div></div></div>","null","ARRAY","3","trustrating_stim/white_mw085.bmp,trustrating_stim/white_mw012.bmp,trustrating_stim/white_mw078.bmp","0,1,0","Match","e","4500","","","","",""
"html-keyboard-response","6","119030","0.0-5.0-3.0","63eaa9f8f0637c961dcfc277","bdp_wmem","Tue Mar 14 2023 15:58:32 GMT-1000 (Hawaii-Aleutian Standard Time)","637374","Match,No Match","","null","","","","","","<div class='trialBorder'><div class='vertical-center'><img src='img/fixation2_sml.jpg'</img></div></div>","null","DELAY","","","","","","","","","","",""
"html-keyboard-response","7","121088","0.0-5.0-4.0","63eaa9f8f0637c961dcfc277","bdp_wmem","Tue Mar 14 2023 15:58:32 GMT-1000 (Hawaii-Aleutian Standard Time)","637374","Match,No Match","","2055","","","","","","<div class='trialBorder'><div class='targDiv'><div class='tc'><img class='introPic' src='trustrating_stim/white_mw085.bmp'><br><font color='red'><strong>Keep</strong></font></div></div><div class='respDiv'><div class='respDivL'>Match<br>(e)</div><div class='respDivR'>No Match<br>(i)</div></div></div>","i","TARGET","3","trustrating_stim/white_mw085.bmp,trustrating_stim/white_mw012.bmp,trustrating_stim/white_mw078.bmp","0,1,0","Match","e","4500","trustrating_stim/white_mw085.bmp","red","Keep","PRACTICE","0"
"html-keyboard-response","8","121592","0.0-5.0-5.0","63eaa9f8f0637c961dcfc277","bdp_wmem","Tue Mar 14 2023 15:58:32 GMT-1000 (Hawaii-Aleutian Standard Time)","637374","Match,No Match","","null","","","","","","<div class='trialBorder'><div class='vertical-center'><img src='img/error.jpg'></div><div class='respDiv'><div class='respDivL'>Match<br>(e)</div><div class='respDivR'><font style='color:orange'>No Match<br>(i)</font></div></div></div>","null","FEEDBACK","","","","","","","","","","",""
"html-keyboard-response","9","122095","0.0-5.0-1.1","63eaa9f8f0637c961dcfc277","bdp_wmem","Tue Mar 14 2023 15:58:32 GMT-1000 (Hawaii-Aleutian Standard Time)","637374","Match,No Match","","null","","","","","","<div class='trialBorder'><div class='vertical-center'><img src='img/fixation2_sml.jpg'</img></div></div>","null","FIX","","","","","","","","","","",""
"html-keyboard-response","10","123602","0.0-5.0-2.1","63eaa9f8f0637c961dcfc277","bdp_wmem","Tue Mar 14 2023 15:58:32 GMT-1000 (Hawaii-Aleutian Standard Time)","637374","Match,No Match","","null","","","","","","<div class='trialBorder'><div class='vertical-center'><img style='vertical-align:center; align:center' src='img/fixation2_sml.jpg'></div><div class='arrayDiv1'><div class='tc'><img class='introPic' src='trustrating_stim/white_mw012.bmp'><br><font color='green'><strong>Share</strong></font></div></div></div>","null","ARRAY","1","trustrating_stim/white_mw012.bmp","1","Match","e","1500","","","","",""
"html-keyboard-response","11","127608","0.0-5.0-3.1","63eaa9f8f0637c961dcfc277","bdp_wmem","Tue Mar 14 2023 15:58:32 GMT-1000 (Hawaii-Aleutian Standard Time)","637374","Match,No Match","","null","","","","","","<div class='trialBorder'><div class='vertical-center'><img src='img/fixation2_sml.jpg'</img></div></div>","null","DELAY","","","","","","","","","","",""
"html-keyboard-response","12","128962","0.0-5.0-4.1","63eaa9f8f0637c961dcfc277","bdp_wmem","Tue Mar 14 2023 15:58:32 GMT-1000 (Hawaii-Aleutian Standard Time)","637374","Match,No Match","","1352","","","","","","<div class='trialBorder'><div class='targDiv'><div class='tc'><img class='introPic' src='trustrating_stim/white_mw012.bmp'><br><font color='green'><strong>Share</strong></font></div></div><div class='respDiv'><div class='respDivL'>Match<br>(e)</div><div class='respDivR'>No Match<br>(i)</div></div></div>","e","TARGET","1","trustrating_stim/white_mw012.bmp","1","Match","e","1500","trustrating_stim/white_mw012.bmp","green","Share","PRACTICE","1"
"html-keyboard-response","13","129466","0.0-5.0-5.1","63eaa9f8f0637c961dcfc277","bdp_wmem","Tue Mar 14 2023 15:58:32 GMT-1000 (Hawaii-Aleutian Standard Time)","637374","Match,No Match","","null","","","","","","<div class='trialBorder'><div class='vertical-center'><img src='img/correct.jpg'></div><div class='respDiv'><div class='respDivL'><font style='color:orange'>Match<br>(e)</font></div><div class='respDivR'>No Match<br>(i)</div></div></div>","null","FEEDBACK","","","","","","","","","","",""
"html-keyboard-response","14","129975","0.0-5.0-1.2","63eaa9f8f0637c961dcfc277","bdp_wmem","Tue Mar 14 2023 15:58:32 GMT-1000 (Hawaii-Aleutian Standard Time)","637374","Match,No Match","","null","","","","","","<div class='trialBorder'><div class='vertical-center'><img src='img/fixation2_sml.jpg'</img></div></div>","null","FIX","","","","","","","","","","",""
"html-keyboard-response","15","131483","0.0-5.0-2.2","63eaa9f8f0637c961dcfc277","bdp_wmem","Tue Mar 14 2023 15:58:32 GMT-1000 (Hawaii-Aleutian Standard Time)","637374","Match,No Match","","null","","","","","","<div class='trialBorder'><div class='vertical-center'><img style='vertical-align:center; align:center' src='img/fixation2_sml.jpg'></div><div class='arrayDiv1'><div class='tc'><img class='introPic' src='trustrating_stim/white_mw092.bmp'><br><font color='green'><strong>Share</strong></font></div></div></div>","null","ARRAY","1","trustrating_stim/white_mw092.bmp","1","noMatchFace","i","1500","","","","",""
"html-keyboard-response","16","135494","0.0-5.0-3.2","63eaa9f8f0637c961dcfc277","bdp_wmem","Tue Mar 14 2023 15:58:32 GMT-1000 (Hawaii-Aleutian Standard Time)","637374","Match,No Match","","null","","","","","","<div class='trialBorder'><div class='vertical-center'><img src='img/fixation2_sml.jpg'</img></div></div>","null","DELAY","","","","","","","","","","",""
"html-keyboard-response","17","136514","0.0-5.0-4.2","63eaa9f8f0637c961dcfc277","bdp_wmem","Tue Mar 14 2023 15:58:32 GMT-1000 (Hawaii-Aleutian Standard Time)","637374","Match,No Match","","1017","","","","","","<div class='trialBorder'><div class='targDiv'><div class='tc'><img class='introPic' src='trustrating_stim/white_mw003.bmp'><br><font color='green'><strong>Share</strong></font></div></div><div class='respDiv'><div class='respDivL'>Match<br>(e)</div><div class='respDivR'>No Match<br>(i)</div></div></div>","i","TARGET","1","trustrating_stim/white_mw092.bmp","1","noMatchFace","i","1500","trustrating_stim/white_mw003.bmp","green","Share","PRACTICE","1"
"html-keyboard-response","18","137016","0.0-5.0-5.2","63eaa9f8f0637c961dcfc277","bdp_wmem","Tue Mar 14 2023 15:58:32 GMT-1000 (Hawaii-Aleutian Standard Time)","637374","Match,No Match","","null","","","","","","<div class='trialBorder'><div class='vertical-center'><img src='img/correct.jpg'></div><div class='respDiv'><div class='respDivL'>Match<br>(e)</div><div class='respDivR'><font style='color:orange'>No Match<br>(i)</font></div></div></div>","null","FEEDBACK","","","","","","","","","","",""
"html-keyboard-response","19","137525","0.0-5.0-1.3","63eaa9f8f0637c961dcfc277","bdp_wmem","Tue Mar 14 2023 15:58:32 GMT-1000 (Hawaii-Aleutian Standard Time)","637374","Match,No Match","","null","","","","","","<div class='trialBorder'><div class='vertical-center'><img src='img/fixation2_sml.jpg'</img></div></div>","null","FIX","","","","","","","","","","",""
"html-keyboard-response","20","142031","0.0-5.0-2.3","63eaa9f8f0637c961dcfc277","bdp_wmem","Tue Mar 14 2023 15:58:32 GMT-1000 (Hawaii-Aleutian Standard Time)","637374","Match,No Match","","null","","","","","","<div class='trialBorder'><div class='vertical-center'><img style='vertical-align:center; align:center' src='img/fixation2_sml.jpg'></div><div class='arrayDiv3'><div class='tl'><img class='introPic' src='trustrating_stim/white_mw040.bmp'><br><font color='green'><strong>Share</strong></font></div><div class='tc'><img class='introPic' src='trustrating_stim/white_mw091.bmp'><br><font color='green'><strong>Share</strong></font></div><div class='tr'><img class='introPic' src='trustrating_stim/white_mw078.bmp'><br><font color='red'><strong>Keep</strong></font></div></div></div>","null","ARRAY","3","trustrating_stim/white_mw040.bmp,trustrating_stim/white_mw091.bmp,trustrating_stim/white_mw078.bmp","1,1,0","noMatchOutcome","i","4500","","","","",""
"html-keyboard-response","21","146041","0.0-5.0-3.3","63eaa9f8f0637c961dcfc277","bdp_wmem","Tue Mar 14 2023 15:58:32 GMT-1000 (Hawaii-Aleutian Standard Time)","637374","Match,No Match","","null","","","","","","<div class='trialBorder'><div class='vertical-center'><img src='img/fixation2_sml.jpg'</img></div></div>","null","DELAY","","","","","","","","","","",""
"html-keyboard-response","22","150204","0.0-5.0-4.3","63eaa9f8f0637c961dcfc277","bdp_wmem","Tue Mar 14 2023 15:58:32 GMT-1000 (Hawaii-Aleutian Standard Time)","637374","Match,No Match","","4160","","","","","","<div class='trialBorder'><div class='targDiv'><div class='tc'><img class='introPic' src='trustrating_stim/white_mw040.bmp'><br><font color='red'><strong>Keep</strong></font></div></div><div class='respDiv'><div class='respDivL'>Match<br>(e)</div><div class='respDivR'>No Match<br>(i)</div></div></div>","e","TARGET","3","trustrating_stim/white_mw040.bmp,trustrating_stim/white_mw091.bmp,trustrating_stim/white_mw078.bmp","1,1,0","noMatchOutcome","i","4500","trustrating_stim/white_mw040.bmp","red","Keep","PRACTICE","0"
"html-keyboard-response","23","150711","0.0-5.0-5.3","63eaa9f8f0637c961dcfc277","bdp_wmem","Tue Mar 14 2023 15:58:32 GMT-1000 (Hawaii-Aleutian Standard Time)","637374","Match,No Match","","null","","","","","","<div class='trialBorder'><div class='vertical-center'><img src='img/error.jpg'></div><div class='respDiv'><div class='respDivL'><font style='color:orange'>Match<br>(e)</font></div><div class='respDivR'>No Match<br>(i)</div></div></div>","null","FEEDBACK","","","","","","","","","","",""
"html-keyboard-response","24","151220","0.0-5.0-1.4","63eaa9f8f0637c961dcfc277","bdp_wmem","Tue Mar 14 2023 15:58:32 GMT-1000 (Hawaii-Aleutian Standard Time)","637374","Match,No Match","","null","","","","","","<div class='trialBorder'><div class='vertical-center'><img src='img/fixation2_sml.jpg'</img></div></div>","null","FIX","","","","","","","","","","",""
"html-keyboard-response","25","154229","0.0-5.0-2.4","63eaa9f8f0637c961dcfc277","bdp_wmem","Tue Mar 14 2023 15:58:32 GMT-1000 (Hawaii-Aleutian Standard Time)","637374","Match,No Match","","null","","","","","","<div class='trialBorder'><div class='vertical-center'><img style='vertical-align:center; align:center' src='img/fixation2_sml.jpg'></div><div class='arrayDiv2'><div class='tl'><img class='introPic' src='trustrating_stim/white_mw003.bmp'><br><font color='green'><strong>Share</strong></font></div><div class='tr'><img class='introPic' src='trustrating_stim/white_mw010.bmp'><br><font color='red'><strong>Keep</strong></font></div></div></div>","null","ARRAY","2","trustrating_stim/white_mw003.bmp,trustrating_stim/white_mw010.bmp","1,0","Match","e","3000","","","","",""
"html-keyboard-response","26","158232","0.0-5.0-3.4","63eaa9f8f0637c961dcfc277","bdp_wmem","Tue Mar 14 2023 15:58:32 GMT-1000 (Hawaii-Aleutian Standard Time)","637374","Match,No Match","","null","","","","","","<div class='trialBorder'><div class='vertical-center'><img src='img/fixation2_sml.jpg'</img></div></div>","null","DELAY","","","","","","","","","","",""
"html-keyboard-response","27","160010","0.0-5.0-4.4","63eaa9f8f0637c961dcfc277","bdp_wmem","Tue Mar 14 2023 15:58:32 GMT-1000 (Hawaii-Aleutian Standard Time)","637374","Match,No Match","","1775","","","","","","<div class='trialBorder'><div class='targDiv'><div class='tc'><img class='introPic' src='trustrating_stim/white_mw010.bmp'><br><font color='red'><strong>Keep</strong></font></div></div><div class='respDiv'><div class='respDivL'>Match<br>(e)</div><div class='respDivR'>No Match<br>(i)</div></div></div>","e","TARGET","2","trustrating_stim/white_mw003.bmp,trustrating_stim/white_mw010.bmp","1,0","Match","e","3000","trustrating_stim/white_mw010.bmp","red","Keep","PRACTICE","1"
"html-keyboard-response","28","160515","0.0-5.0-5.4","63eaa9f8f0637c961dcfc277","bdp_wmem","Tue Mar 14 2023 15:58:32 GMT-1000 (Hawaii-Aleutian Standard Time)","637374","Match,No Match","","null","","","","","","<div class='trialBorder'><div class='vertical-center'><img src='img/correct.jpg'></div><div class='respDiv'><div class='respDivL'><font style='color:orange'>Match<br>(e)</font></div><div class='respDivR'>No Match<br>(i)</div></div></div>","null","FEEDBACK","","","","","","","","","","",""
"html-keyboard-response","29","161024","0.0-5.0-1.5","63eaa9f8f0637c961dcfc277","bdp_wmem","Tue Mar 14 2023 15:58:32 GMT-1000 (Hawaii-Aleutian Standard Time)","637374","Match,No Match","","null","","","","","","<div class='trialBorder'><div class='vertical-center'><img src='img/fixation2_sml.jpg'</img></div></div>","null","FIX","","","","","","","","","","",""
"html-keyboard-response","30","164030","0.0-5.0-2.5","63eaa9f8f0637c961dcfc277","bdp_wmem","Tue Mar 14 2023 15:58:32 GMT-1000 (Hawaii-Aleutian Standard Time)","637374","Match,No Match","","null","","","","","","<div class='trialBorder'><div class='vertical-center'><img style='vertical-align:center; align:center' src='img/fixation2_sml.jpg'></div><div class='arrayDiv2'><div class='tl'><img class='introPic' src='trustrating_stim/white_mw012.bmp'><br><font color='red'><strong>Keep</strong></font></div><div class='tr'><img class='introPic' src='trustrating_stim/white_mw040.bmp'><br><font color='green'><strong>Share</strong></font></div></div></div>","null","ARRAY","2","trustrating_stim/white_mw012.bmp,trustrating_stim/white_mw040.bmp","0,1","noMatchFace","i","3000","","","","",""
"html-keyboard-response","31","168036","0.0-5.0-3.5","63eaa9f8f0637c961dcfc277","bdp_wmem","Tue Mar 14 2023 15:58:32 GMT-1000 (Hawaii-Aleutian Standard Time)","637374","Match,No Match","","null","","","","","","<div class='trialBorder'><div class='vertical-center'><img src='img/fixation2_sml.jpg'</img></div></div>","null","DELAY","","","","","","","","","","",""
"html-keyboard-response","32","169845","0.0-5.0-4.5","63eaa9f8f0637c961dcfc277","bdp_wmem","Tue Mar 14 2023 15:58:32 GMT-1000 (Hawaii-Aleutian Standard Time)","637374","Match,No Match","","1806","","","","","","<div class='trialBorder'><div class='targDiv'><div class='tc'><img class='introPic' src='trustrating_stim/white_mw013.bmp'><br><font color='green'><strong>Share</strong></font></div></div><div class='respDiv'><div class='respDivL'>Match<br>(e)</div><div class='respDivR'>No Match<br>(i)</div></div></div>","i","TARGET","2","trustrating_stim/white_mw012.bmp,trustrating_stim/white_mw040.bmp","0,1","noMatchFace","i","3000","trustrating_stim/white_mw013.bmp","green","Share","PRACTICE","1"
"html-keyboard-response","33","170351","0.0-5.0-5.5","63eaa9f8f0637c961dcfc277","bdp_wmem","Tue Mar 14 2023 15:58:32 GMT-1000 (Hawaii-Aleutian Standard Time)","637374","Match,No Match","","null","","","","","","<div class='trialBorder'><div class='vertical-center'><img src='img/correct.jpg'></div><div class='respDiv'><div class='respDivL'>Match<br>(e)</div><div class='respDivR'><font style='color:orange'>No Match<br>(i)</font></div></div></div>","null","FEEDBACK","","","","","","","","","","",""
"instructions","34","175224","0.0-6.0","63eaa9f8f0637c961dcfc277","bdp_wmem","Tue Mar 14 2023 15:58:32 GMT-1000 (Hawaii-Aleutian Standard Time)","637374","Match,No Match","[{""page_index"":0,""viewing_time"":4871}]","4872","","","","","","","","","","","","","","","","","","",""
"html-keyboard-response","35","175731","0.0-7.0-1.0","63eaa9f8f0637c961dcfc277","bdp_wmem","Tue Mar 14 2023 15:58:32 GMT-1000 (Hawaii-Aleutian Standard Time)","637374","Match,No Match","","null","","","","","","<div class='trialBorder'><div class='vertical-center'><img src='img/fixation2_sml.jpg'</img></div></div>","null","FIX","","","","","","","","","","",""
"html-keyboard-response","36","178743","0.0-7.0-2.0","63eaa9f8f0637c961dcfc277","bdp_wmem","Tue Mar 14 2023 15:58:32 GMT-1000 (Hawaii-Aleutian Standard Time)","637374","Match,No Match","","null","","","","","","<div class='trialBorder'><div class='vertical-center'><img style='vertical-align:center; align:center' src='img/fixation2_sml.jpg'></div><div class='arrayDiv2'><div class='tl'><img class='introPic' src='trustrating_stim/white_mw003.bmp'><br><font color='green'><strong>Share</strong></font></div><div class='tr'><img class='introPic' src='trustrating_stim/white_mw078.bmp'><br><font color='red'><strong>Keep</strong></font></div></div></div>","null","ARRAY","2","trustrating_stim/white_mw003.bmp,trustrating_stim/white_mw078.bmp","1,0","Match","e","3000","","","","",""
"html-keyboard-response","37","182753","0.0-7.0-3.0","63eaa9f8f0637c961dcfc277","bdp_wmem","Tue Mar 14 2023 15:58:32 GMT-1000 (Hawaii-Aleutian Standard Time)","637374","Match,No Match","","null","","","","","","<div class='trialBorder'><div class='vertical-center'><img src='img/fixation2_sml.jpg'</img></div></div>","null","DELAY","","","","","","","","","","",""
"html-keyboard-response","38","184898","0.0-7.0-4.0","63eaa9f8f0637c961dcfc277","bdp_wmem","Tue Mar 14 2023 15:58:32 GMT-1000 (Hawaii-Aleutian Standard Time)","637374","Match,No Match","","2143","","","","","","<div class='trialBorder'><div class='targDiv'><div class='tc'><img class='introPic' src='trustrating_stim/white_mw078.bmp'><br><font color='red'><strong>Keep</strong></font></div></div><div class='respDiv'><div class='respDivL'>Match<br>(e)</div><div class='respDivR'>No Match<br>(i)</div></div></div>","e","TARGET","2","trustrating_stim/white_mw003.bmp,trustrating_stim/white_mw078.bmp","1,0","Match","e","3000","trustrating_stim/white_mw078.bmp","red","Keep","REAL","1"
"html-keyboard-response","39","185402","0.0-7.0-5.0","63eaa9f8f0637c961dcfc277","bdp_wmem","Tue Mar 14 2023 15:58:32 GMT-1000 (Hawaii-Aleutian Standard Time)","637374","Match,No Match","","null","","","","","","<div class='trialBorder'><div class='vertical-center'><img src='img/correct.jpg'></div><div class='respDiv'><div class='respDivL'><font style='color:orange'>Match<br>(e)</font></div><div class='respDivR'>No Match<br>(i)</div></div></div>","null","FEEDBACK","","","","","","","","","","",""
"html-keyboard-response","40","185910","0.0-7.0-1.1","63eaa9f8f0637c961dcfc277","bdp_wmem","Tue Mar 14 2023 15:58:32 GMT-1000 (Hawaii-Aleutian Standard Time)","637374","Match,No Match","","null","","","","","","<div class='trialBorder'><div class='vertical-center'><img src='img/fixation2_sml.jpg'</img></div></div>","null","FIX","","","","","","","","","","",""
"html-keyboard-response","41","190414","0.0-7.0-2.1","63eaa9f8f0637c961dcfc277","bdp_wmem","Tue Mar 14 2023 15:58:32 GMT-1000 (Hawaii-Aleutian Standard Time)","637374","Match,No Match","","null","","","","","","<div class='trialBorder'><div class='vertical-center'><img style='vertical-align:center; align:center' src='img/fixation2_sml.jpg'></div><div class='arrayDiv3'><div class='tl'><img class='introPic' src='trustrating_stim/white_mw070.bmp'><br><font color='green'><strong>Share</strong></font></div><div class='tc'><img class='introPic' src='trustrating_stim/white_mw012.bmp'><br><font color='red'><strong>Keep</strong></font></div><div class='tr'><img class='introPic' src='trustrating_stim/white_mw085.bmp'><br><font color='red'><strong>Keep</strong></font></div></div></div>","null","ARRAY","3","trustrating_stim/white_mw070.bmp,trustrating_stim/white_mw012.bmp,trustrating_stim/white_mw085.bmp","1,0,0","noMatchFace","i","4500","","","","",""
"html-keyboard-response","42","194422","0.0-7.0-3.1","63eaa9f8f0637c961dcfc277","bdp_wmem","Tue Mar 14 2023 15:58:32 GMT-1000 (Hawaii-Aleutian Standard Time)","637374","Match,No Match","","null","","","","","","<div class='trialBorder'><div class='vertical-center'><img src='img/fixation2_sml.jpg'</img></div></div>","null","DELAY","","","","","","","","","","",""
"html-keyboard-response","43","195653","0.0-7.0-4.1","63eaa9f8f0637c961dcfc277","bdp_wmem","Tue Mar 14 2023 15:58:32 GMT-1000 (Hawaii-Aleutian Standard Time)","637374","Match,No Match","","1228","","","","","","<div class='trialBorder'><div class='targDiv'><div class='tc'><img class='introPic' src='trustrating_stim/white_mw038.bmp'><br><font color='green'><strong>Share</strong></font></div></div><div class='respDiv'><div class='respDivL'>Match<br>(e)</div><div class='respDivR'>No Match<br>(i)</div></div></div>","i","TARGET","3","trustrating_stim/white_mw070.bmp,trustrating_stim/white_mw012.bmp,trustrating_stim/white_mw085.bmp","1,0,0","noMatchFace","i","4500","trustrating_stim/white_mw038.bmp","green","Share","REAL","1"
"html-keyboard-response","44","196155","0.0-7.0-5.1","63eaa9f8f0637c961dcfc277","bdp_wmem","Tue Mar 14 2023 15:58:32 GMT-1000 (Hawaii-Aleutian Standard Time)","637374","Match,No Match","","null","","","","","","<div class='trialBorder'><div class='vertical-center'><img src='img/correct.jpg'></div><div class='respDiv'><div class='respDivL'>Match<br>(e)</div><div class='respDivR'><font style='color:orange'>No Match<br>(i)</font></div></div></div>","null","FEEDBACK","","","","","","","","","","",""
"html-keyboard-response","45","196658","0.0-7.0-1.2","63eaa9f8f0637c961dcfc277","bdp_wmem","Tue Mar 14 2023 15:58:32 GMT-1000 (Hawaii-Aleutian Standard Time)","637374","Match,No Match","","null","","","","","","<div class='trialBorder'><div class='vertical-center'><img src='img/fixation2_sml.jpg'</img></div></div>","null","FIX","","","","","","","","","","",""
"html-keyboard-response","46","199661","0.0-7.0-2.2","63eaa9f8f0637c961dcfc277","bdp_wmem","Tue Mar 14 2023 15:58:32 GMT-1000 (Hawaii-Aleutian Standard Time)","637374","Match,No Match","","null","","","","","","<div class='trialBorder'><div class='vertical-center'><img style='vertical-align:center; align:center' src='img/fixation2_sml.jpg'></div><div class='arrayDiv2'><div class='tl'><img class='introPic' src='trustrating_stim/white_mw038.bmp'><br><font color='green'><strong>Share</strong></font></div><div class='tr'><img class='introPic' src='trustrating_stim/white_mw070.bmp'><br><font color='red'><strong>Keep</strong></font></div></div></div>","null","ARRAY","2","trustrating_stim/white_mw038.bmp,trustrating_stim/white_mw070.bmp","1,0","noMatchOutcome","i","3000","","","","",""
"html-keyboard-response","47","203670","0.0-7.0-3.2","63eaa9f8f0637c961dcfc277","bdp_wmem","Tue Mar 14 2023 15:58:32 GMT-1000 (Hawaii-Aleutian Standard Time)","637374","Match,No Match","","null","","","","","","<div class='trialBorder'><div class='vertical-center'><img src='img/fixation2_sml.jpg'</img></div></div>","null","DELAY","","","","","","","","","","",""
"html-keyboard-response","48","206074","0.0-7.0-4.2","63eaa9f8f0637c961dcfc277","bdp_wmem","Tue Mar 14 2023 15:58:32 GMT-1000 (Hawaii-Aleutian Standard Time)","637374","Match,No Match","","2401","","","","","","<div class='trialBorder'><div class='targDiv'><div class='tc'><img class='introPic' src='trustrating_stim/white_mw070.bmp'><br><font color='green'><strong>Share</strong></font></div></div><div class='respDiv'><div class='respDivL'>Match<br>(e)</div><div class='respDivR'>No Match<br>(i)</div></div></div>","i","TARGET","2","trustrating_stim/white_mw038.bmp,trustrating_stim/white_mw070.bmp","1,0","noMatchOutcome","i","3000","trustrating_stim/white_mw070.bmp","green","Share","REAL","1"
"html-keyboard-response","49","206583","0.0-7.0-5.2","63eaa9f8f0637c961dcfc277","bdp_wmem","Tue Mar 14 2023 15:58:32 GMT-1000 (Hawaii-Aleutian Standard Time)","637374","Match,No Match","","null","","","","","","<div class='trialBorder'><div class='vertical-center'><img src='img/correct.jpg'></div><div class='respDiv'><div class='respDivL'>Match<br>(e)</div><div class='respDivR'><font style='color:orange'>No Match<br>(i)</font></div></div></div>","null","FEEDBACK","","","","","","","","","","",""
"html-keyboard-response","50","207086","0.0-7.0-1.3","63eaa9f8f0637c961dcfc277","bdp_wmem","Tue Mar 14 2023 15:58:32 GMT-1000 (Hawaii-Aleutian Standard Time)","637374","Match,No Match","","null","","","","","","<div class='trialBorder'><div class='vertical-center'><img src='img/fixation2_sml.jpg'</img></div></div>","null","FIX","","","","","","","","","","",""
"html-keyboard-response","51","210096","0.0-7.0-2.3","63eaa9f8f0637c961dcfc277","bdp_wmem","Tue Mar 14 2023 15:58:32 GMT-1000 (Hawaii-Aleutian Standard Time)","637374","Match,No Match","","null","","","","","","<div class='trialBorder'><div class='vertical-center'><img style='vertical-align:center; align:center' src='img/fixation2_sml.jpg'></div><div class='arrayDiv2'><div class='tl'><img class='introPic' src='trustrating_stim/white_mw003.bmp'><br><font color='red'><strong>Keep</strong></font></div><div class='tr'><img class='introPic' src='trustrating_stim/white_mw091.bmp'><br><font color='green'><strong>Share</strong></font></div></div></div>","null","ARRAY","2","trustrating_stim/white_mw003.bmp,trustrating_stim/white_mw091.bmp","0,1","Match","e","3000","","","","",""
"html-keyboard-response","52","214104","0.0-7.0-3.3","63eaa9f8f0637c961dcfc277","bdp_wmem","Tue Mar 14 2023 15:58:32 GMT-1000 (Hawaii-Aleutian Standard Time)","637374","Match,No Match","","null","","","","","","<div class='trialBorder'><div class='vertical-center'><img src='img/fixation2_sml.jpg'</img></div></div>","null","DELAY","","","","","","","","","","",""
"html-keyboard-response","53","215472","0.0-7.0-4.3","63eaa9f8f0637c961dcfc277","bdp_wmem","Tue Mar 14 2023 15:58:32 GMT-1000 (Hawaii-Aleutian Standard Time)","637374","Match,No Match","","1365","","","","","","<div class='trialBorder'><div class='targDiv'><div class='tc'><img class='introPic' src='trustrating_stim/white_mw091.bmp'><br><font color='green'><strong>Share</strong></font></div></div><div class='respDiv'><div class='respDivL'>Match<br>(e)</div><div class='respDivR'>No Match<br>(i)</div></div></div>","e","TARGET","2","trustrating_stim/white_mw003.bmp,trustrating_stim/white_mw091.bmp","0,1","Match","e","3000","trustrating_stim/white_mw091.bmp","green","Share","REAL","1"
"html-keyboard-response","54","215980","0.0-7.0-5.3","63eaa9f8f0637c961dcfc277","bdp_wmem","Tue Mar 14 2023 15:58:32 GMT-1000 (Hawaii-Aleutian Standard Time)","637374","Match,No Match","","null","","","","","","<div class='trialBorder'><div class='vertical-center'><img src='img/correct.jpg'></div><div class='respDiv'><div class='respDivL'><font style='color:orange'>Match<br>(e)</font></div><div class='respDivR'>No Match<br>(i)</div></div></div>","null","FEEDBACK","","","","","","","","","","",""
"html-keyboard-response","55","216489","0.0-7.0-1.4","63eaa9f8f0637c961dcfc277","bdp_wmem","Tue Mar 14 2023 15:58:32 GMT-1000 (Hawaii-Aleutian Standard Time)","637374","Match,No Match","","null","","","","","","<div class='trialBorder'><div class='vertical-center'><img src='img/fixation2_sml.jpg'</img></div></div>","null","FIX","","","","","","","","","","",""
"html-keyboard-response","56","221009","0.0-7.0-2.4","63eaa9f8f0637c961dcfc277","bdp_wmem","Tue Mar 14 2023 15:58:32 GMT-1000 (Hawaii-Aleutian Standard Time)","637374","Match,No Match","","null","","","","","","<div class='trialBorder'><div class='vertical-center'><img style='vertical-align:center; align:center' src='img/fixation2_sml.jpg'></div><div class='arrayDiv3'><div class='tl'><img class='introPic' src='trustrating_stim/white_mw040.bmp'><br><font color='red'><strong>Keep</strong></font></div><div class='tc'><img class='introPic' src='trustrating_stim/white_mw085.bmp'><br><font color='green'><strong>Share</strong></font></div><div class='tr'><img class='introPic' src='trustrating_stim/white_mw092.bmp'><br><font color='red'><strong>Keep</strong></font></div></div></div>","null","ARRAY","3","trustrating_stim/white_mw040.bmp,trustrating_stim/white_mw085.bmp,trustrating_stim/white_mw092.bmp","0,1,0","noMatchFace","i","4500","","","","",""
"html-keyboard-response","57","225022","0.0-7.0-3.4","63eaa9f8f0637c961dcfc277","bdp_wmem","Tue Mar 14 2023 15:58:32 GMT-1000 (Hawaii-Aleutian Standard Time)","637374","Match,No Match","","null","","","","","","<div class='trialBorder'><div class='vertical-center'><img src='img/fixation2_sml.jpg'</img></div></div>","null","DELAY","","","","","","","","","","",""
"html-keyboard-response","58","226252","0.0-7.0-4.4","63eaa9f8f0637c961dcfc277","bdp_wmem","Tue Mar 14 2023 15:58:32 GMT-1000 (Hawaii-Aleutian Standard Time)","637374","Match,No Match","","1228","","","","","","<div class='trialBorder'><div class='targDiv'><div class='tc'><img class='introPic' src='trustrating_stim/white_mw003.bmp'><br><font color='red'><strong>Keep</strong></font></div></div><div class='respDiv'><div class='respDivL'>Match<br>(e)</div><div class='respDivR'>No Match<br>(i)</div></div></div>","i","TARGET","3","trustrating_stim/white_mw040.bmp,trustrating_stim/white_mw085.bmp,trustrating_stim/white_mw092.bmp","0,1,0","noMatchFace","i","4500","trustrating_stim/white_mw003.bmp","red","Keep","REAL","1"
"html-keyboard-response","59","226760","0.0-7.0-5.4","63eaa9f8f0637c961dcfc277","bdp_wmem","Tue Mar 14 2023 15:58:32 GMT-1000 (Hawaii-Aleutian Standard Time)","637374","Match,No Match","","null","","","","","","<div class='trialBorder'><div class='vertical-center'><img src='img/correct.jpg'></div><div class='respDiv'><div class='respDivL'>Match<br>(e)</div><div class='respDivR'><font style='color:orange'>No Match<br>(i)</font></div></div></div>","null","FEEDBACK","","","","","","","","","","",""
"html-keyboard-response","60","227261","0.0-7.0-1.5","63eaa9f8f0637c961dcfc277","bdp_wmem","Tue Mar 14 2023 15:58:32 GMT-1000 (Hawaii-Aleutian Standard Time)","637374","Match,No Match","","null","","","","","","<div class='trialBorder'><div class='vertical-center'><img src='img/fixation2_sml.jpg'</img></div></div>","null","FIX","","","","","","","","","","",""
"html-keyboard-response","61","230272","0.0-7.0-2.5","63eaa9f8f0637c961dcfc277","bdp_wmem","Tue Mar 14 2023 15:58:32 GMT-1000 (Hawaii-Aleutian Standard Time)","637374","Match,No Match","","null","","","","","","<div class='trialBorder'><div class='vertical-center'><img style='vertical-align:center; align:center' src='img/fixation2_sml.jpg'></div><div class='arrayDiv2'><div class='tl'><img class='introPic' src='trustrating_stim/white_mw091.bmp'><br><font color='green'><strong>Share</strong></font></div><div class='tr'><img class='introPic' src='trustrating_stim/white_mw092.bmp'><br><font color='red'><strong>Keep</strong></font></div></div></div>","null","ARRAY","2","trustrating_stim/white_mw091.bmp,trustrating_stim/white_mw092.bmp","1,0","noMatchOutcome","i","3000","","","","",""
"html-keyboard-response","62","234279","0.0-7.0-3.5","63eaa9f8f0637c961dcfc277","bdp_wmem","Tue Mar 14 2023 15:58:32 GMT-1000 (Hawaii-Aleutian Standard Time)","637374","Match,No Match","","null","","","","","","<div class='trialBorder'><div class='vertical-center'><img src='img/fixation2_sml.jpg'</img></div></div>","null","DELAY","","","","","","","","","","",""
"html-keyboard-response","63","237060","0.0-7.0-4.5","63eaa9f8f0637c961dcfc277","bdp_wmem","Tue Mar 14 2023 15:58:32 GMT-1000 (Hawaii-Aleutian Standard Time)","637374","Match,No Match","","2778","","","","","","<div class='trialBorder'><div class='targDiv'><div class='tc'><img class='introPic' src='trustrating_stim/white_mw092.bmp'><br><font color='green'><strong>Share</strong></font></div></div><div class='respDiv'><div class='respDivL'>Match<br>(e)</div><div class='respDivR'>No Match<br>(i)</div></div></div>","i","TARGET","2","trustrating_stim/white_mw091.bmp,trustrating_stim/white_mw092.bmp","1,0","noMatchOutcome","i","3000","trustrating_stim/white_mw092.bmp","green","Share","REAL","1"
"html-keyboard-response","64","237565","0.0-7.0-5.5","63eaa9f8f0637c961dcfc277","bdp_wmem","Tue Mar 14 2023 15:58:32 GMT-1000 (Hawaii-Aleutian Standard Time)","637374","Match,No Match","","null","","","","","","<div class='trialBorder'><div class='vertical-center'><img src='img/correct.jpg'></div><div class='respDiv'><div class='respDivL'>Match<br>(e)</div><div class='respDivR'><font style='color:orange'>No Match<br>(i)</font></div></div></div>","null","FEEDBACK","","","","","","","","","","",""
"html-keyboard-response","65","238074","0.0-7.0-1.6","63eaa9f8f0637c961dcfc277","bdp_wmem","Tue Mar 14 2023 15:58:32 GMT-1000 (Hawaii-Aleutian Standard Time)","637374","Match,No Match","","null","","","","","","<div class='trialBorder'><div class='vertical-center'><img src='img/fixation2_sml.jpg'</img></div></div>","null","FIX","","","","","","","","","","",""
"html-keyboard-response","66","242583","0.0-7.0-2.6","63eaa9f8f0637c961dcfc277","bdp_wmem","Tue Mar 14 2023 15:58:32 GMT-1000 (Hawaii-Aleutian Standard Time)","637374","Match,No Match","","null","","","","","","<div class='trialBorder'><div class='vertical-center'><img style='vertical-align:center; align:center' src='img/fixation2_sml.jpg'></div><div class='arrayDiv3'><div class='tl'><img class='introPic' src='trustrating_stim/white_mw038.bmp'><br><font color='green'><strong>Share</strong></font></div><div class='tc'><img class='introPic' src='trustrating_stim/white_mw078.bmp'><br><font color='red'><strong>Keep</strong></font></div><div class='tr'><img class='introPic' src='trustrating_stim/white_mw012.bmp'><br><font color='red'><strong>Keep</strong></font></div></div></div>","null","ARRAY","3","trustrating_stim/white_mw038.bmp,trustrating_stim/white_mw078.bmp,trustrating_stim/white_mw012.bmp","1,0,0","noMatchOutcome","i","4500","","","","",""
"html-keyboard-response","67","246601","0.0-7.0-3.6","63eaa9f8f0637c961dcfc277","bdp_wmem","Tue Mar 14 2023 15:58:32 GMT-1000 (Hawaii-Aleutian Standard Time)","637374","Match,No Match","","null","","","","","","<div class='trialBorder'><div class='vertical-center'><img src='img/fixation2_sml.jpg'</img></div></div>","null","DELAY","","","","","","","","","","",""
"html-keyboard-response","68","249056","0.0-7.0-4.6","63eaa9f8f0637c961dcfc277","bdp_wmem","Tue Mar 14 2023 15:58:32 GMT-1000 (Hawaii-Aleutian Standard Time)","637374","Match,No Match","","2451","","","","","","<div class='trialBorder'><div class='targDiv'><div class='tc'><img class='introPic' src='trustrating_stim/white_mw038.bmp'><br><font color='red'><strong>Keep</strong></font></div></div><div class='respDiv'><div class='respDivL'>Match<br>(e)</div><div class='respDivR'>No Match<br>(i)</div></div></div>","i","TARGET","3","trustrating_stim/white_mw038.bmp,trustrating_stim/white_mw078.bmp,trustrating_stim/white_mw012.bmp","1,0,0","noMatchOutcome","i","4500","trustrating_stim/white_mw038.bmp","red","Keep","REAL","1"
"html-keyboard-response","69","249564","0.0-7.0-5.6","63eaa9f8f0637c961dcfc277","bdp_wmem","Tue Mar 14 2023 15:58:32 GMT-1000 (Hawaii-Aleutian Standard Time)","637374","Match,No Match","","null","","","","","","<div class='trialBorder'><div class='vertical-center'><img src='img/correct.jpg'></div><div class='respDiv'><div class='respDivL'>Match<br>(e)</div><div class='respDivR'><font style='color:orange'>No Match<br>(i)</font></div></div></div>","null","FEEDBACK","","","","","","","","","","",""
"html-keyboard-response","70","250072","0.0-7.0-1.7","63eaa9f8f0637c961dcfc277","bdp_wmem","Tue Mar 14 2023 15:58:32 GMT-1000 (Hawaii-Aleutian Standard Time)","637374","Match,No Match","","null","","","","","","<div class='trialBorder'><div class='vertical-center'><img src='img/fixation2_sml.jpg'</img></div></div>","null","FIX","","","","","","","","","","",""
"html-keyboard-response","71","253078","0.0-7.0-2.7","63eaa9f8f0637c961dcfc277","bdp_wmem","Tue Mar 14 2023 15:58:32 GMT-1000 (Hawaii-Aleutian Standard Time)","637374","Match,No Match","","null","","","","","","<div class='trialBorder'><div class='vertical-center'><img style='vertical-align:center; align:center' src='img/fixation2_sml.jpg'></div><div class='arrayDiv2'><div class='tl'><img class='introPic' src='trustrating_stim/white_mw010.bmp'><br><font color='red'><strong>Keep</strong></font></div><div class='tr'><img class='introPic' src='trustrating_stim/white_mw078.bmp'><br><font color='green'><strong>Share</strong></font></div></div></div>","null","ARRAY","2","trustrating_stim/white_mw010.bmp,trustrating_stim/white_mw078.bmp","0,1","noMatchFace","i","3000","","","","",""
"html-keyboard-response","72","257082","0.0-7.0-3.7","63eaa9f8f0637c961dcfc277","bdp_wmem","Tue Mar 14 2023 15:58:32 GMT-1000 (Hawaii-Aleutian Standard Time)","637374","Match,No Match","","null","","","","","","<div class='trialBorder'><div class='vertical-center'><img src='img/fixation2_sml.jpg'</img></div></div>","null","DELAY","","","","","","","","","","",""
"html-keyboard-response","73","258214","0.0-7.0-4.7","63eaa9f8f0637c961dcfc277","bdp_wmem","Tue Mar 14 2023 15:58:32 GMT-1000 (Hawaii-Aleutian Standard Time)","637374","Match,No Match","","1129","","","","","","<div class='trialBorder'><div class='targDiv'><div class='tc'><img class='introPic' src='trustrating_stim/white_mw091.bmp'><br><font color='green'><strong>Share</strong></font></div></div><div class='respDiv'><div class='respDivL'>Match<br>(e)</div><div class='respDivR'>No Match<br>(i)</div></div></div>","i","TARGET","2","trustrating_stim/white_mw010.bmp,trustrating_stim/white_mw078.bmp","0,1","noMatchFace","i","3000","trustrating_stim/white_mw091.bmp","green","Share","REAL","1"
"html-keyboard-response","74","258723","0.0-7.0-5.7","63eaa9f8f0637c961dcfc277","bdp_wmem","Tue Mar 14 2023 15:58:32 GMT-1000 (Hawaii-Aleutian Standard Time)","637374","Match,No Match","","null","","","","","","<div class='trialBorder'><div class='vertical-center'><img src='img/correct.jpg'></div><div class='respDiv'><div class='respDivL'>Match<br>(e)</div><div class='respDivR'><font style='color:orange'>No Match<br>(i)</font></div></div></div>","null","FEEDBACK","","","","","","","","","","",""
"html-keyboard-response","75","259227","0.0-7.0-1.8","63eaa9f8f0637c961dcfc277","bdp_wmem","Tue Mar 14 2023 15:58:32 GMT-1000 (Hawaii-Aleutian Standard Time)","637374","Match,No Match","","null","","","","","","<div class='trialBorder'><div class='vertical-center'><img src='img/fixation2_sml.jpg'</img></div></div>","null","FIX","","","","","","","","","","",""
"html-keyboard-response","76","263731","0.0-7.0-2.8","63eaa9f8f0637c961dcfc277","bdp_wmem","Tue Mar 14 2023 15:58:32 GMT-1000 (Hawaii-Aleutian Standard Time)","637374","Match,No Match","","null","","","","","","<div class='trialBorder'><div class='vertical-center'><img style='vertical-align:center; align:center' src='img/fixation2_sml.jpg'></div><div class='arrayDiv3'><div class='tl'><img class='introPic' src='trustrating_stim/white_mw040.bmp'><br><font color='green'><strong>Share</strong></font></div><div class='tc'><img class='introPic' src='trustrating_stim/white_mw091.bmp'><br><font color='red'><strong>Keep</strong></font></div><div class='tr'><img class='introPic' src='trustrating_stim/white_mw085.bmp'><br><font color='red'><strong>Keep</strong></font></div></div></div>","null","ARRAY","3","trustrating_stim/white_mw040.bmp,trustrating_stim/white_mw091.bmp,trustrating_stim/white_mw085.bmp","1,0,0","Match","e","4500","","","","",""
"html-keyboard-response","77","267740","0.0-7.0-3.8","63eaa9f8f0637c961dcfc277","bdp_wmem","Tue Mar 14 2023 15:58:32 GMT-1000 (Hawaii-Aleutian Standard Time)","637374","Match,No Match","","null","","","","","","<div class='trialBorder'><div class='vertical-center'><img src='img/fixation2_sml.jpg'</img></div></div>","null","DELAY","","","","","","","","","","",""
"html-keyboard-response","78","270167","0.0-7.0-4.8","63eaa9f8f0637c961dcfc277","bdp_wmem","Tue Mar 14 2023 15:58:32 GMT-1000 (Hawaii-Aleutian Standard Time)","637374","Match,No Match","","2423","","","","","","<div class='trialBorder'><div class='targDiv'><div class='tc'><img class='introPic' src='trustrating_stim/white_mw040.bmp'><br><font color='green'><strong>Share</strong></font></div></div><div class='respDiv'><div class='respDivL'>Match<br>(e)</div><div class='respDivR'>No Match<br>(i)</div></div></div>","e","TARGET","3","trustrating_stim/white_mw040.bmp,trustrating_stim/white_mw091.bmp,trustrating_stim/white_mw085.bmp","1,0,0","Match","e","4500","trustrating_stim/white_mw040.bmp","green","Share","REAL","1"
"html-keyboard-response","79","270670","0.0-7.0-5.8","63eaa9f8f0637c961dcfc277","bdp_wmem","Tue Mar 14 2023 15:58:32 GMT-1000 (Hawaii-Aleutian Standard Time)","637374","Match,No Match","","null","","","","","","<div class='trialBorder'><div class='vertical-center'><img src='img/correct.jpg'></div><div class='respDiv'><div class='respDivL'><font style='color:orange'>Match<br>(e)</font></div><div class='respDivR'>No Match<br>(i)</div></div></div>","null","FEEDBACK","","","","","","","","","","",""
"html-keyboard-response","80","271179","0.0-7.0-1.9","63eaa9f8f0637c961dcfc277","bdp_wmem","Tue Mar 14 2023 15:58:32 GMT-1000 (Hawaii-Aleutian Standard Time)","637374","Match,No Match","","null","","","","","","<div class='trialBorder'><div class='vertical-center'><img src='img/fixation2_sml.jpg'</img></div></div>","null","FIX","","","","","","","","","","",""
"html-keyboard-response","81","272687","0.0-7.0-2.9","63eaa9f8f0637c961dcfc277","bdp_wmem","Tue Mar 14 2023 15:58:32 GMT-1000 (Hawaii-Aleutian Standard Time)","637374","Match,No Match","","null","","","","","","<div class='trialBorder'><div class='vertical-center'><img style='vertical-align:center; align:center' src='img/fixation2_sml.jpg'></div><div class='arrayDiv1'><div class='tc'><img class='introPic' src='trustrating_stim/white_mw070.bmp'><br><font color='green'><strong>Share</strong></font></div></div></div>","null","ARRAY","1","trustrating_stim/white_mw070.bmp","1","noMatchOutcome","i","1500","","","","",""
"html-keyboard-response","82","276691","0.0-7.0-3.9","63eaa9f8f0637c961dcfc277","bdp_wmem","Tue Mar 14 2023 15:58:32 GMT-1000 (Hawaii-Aleutian Standard Time)","637374","Match,No Match","","null","","","","","","<div class='trialBorder'><div class='vertical-center'><img src='img/fixation2_sml.jpg'</img></div></div>","null","DELAY","","","","","","","","","","",""
"html-keyboard-response","83","277748","0.0-7.0-4.9","63eaa9f8f0637c961dcfc277","bdp_wmem","Tue Mar 14 2023 15:58:32 GMT-1000 (Hawaii-Aleutian Standard Time)","637374","Match,No Match","","1054","","","","","","<div class='trialBorder'><div class='targDiv'><div class='tc'><img class='introPic' src='trustrating_stim/white_mw070.bmp'><br><font color='red'><strong>Keep</strong></font></div></div><div class='respDiv'><div class='respDivL'>Match<br>(e)</div><div class='respDivR'>No Match<br>(i)</div></div></div>","i","TARGET","1","trustrating_stim/white_mw070.bmp","1","noMatchOutcome","i","1500","trustrating_stim/white_mw070.bmp","red","Keep","REAL","1"
"html-keyboard-response","84","278255","0.0-7.0-5.9","63eaa9f8f0637c961dcfc277","bdp_wmem","Tue Mar 14 2023 15:58:32 GMT-1000 (Hawaii-Aleutian Standard Time)","637374","Match,No Match","","null","","","","","","<div class='trialBorder'><div class='vertical-center'><img src='img/correct.jpg'></div><div class='respDiv'><div class='respDivL'>Match<br>(e)</div><div class='respDivR'><font style='color:orange'>No Match<br>(i)</font></div></div></div>","null","FEEDBACK","","","","","","","","","","",""
"html-keyboard-response","85","278757","0.0-7.0-1.10","63eaa9f8f0637c961dcfc277","bdp_wmem","Tue Mar 14 2023 15:58:32 GMT-1000 (Hawaii-Aleutian Standard Time)","637374","Match,No Match","","null","","","","","","<div class='trialBorder'><div class='vertical-center'><img src='img/fixation2_sml.jpg'</img></div></div>","null","FIX","","","","","","","","","","",""
"html-keyboard-response","86","283261","0.0-7.0-2.10","63eaa9f8f0637c961dcfc277","bdp_wmem","Tue Mar 14 2023 15:58:32 GMT-1000 (Hawaii-Aleutian Standard Time)","637374","Match,No Match","","null","","","","","","<div class='trialBorder'><div class='vertical-center'><img style='vertical-align:center; align:center' src='img/fixation2_sml.jpg'></div><div class='arrayDiv3'><div class='tl'><img class='introPic' src='trustrating_stim/white_mw013.bmp'><br><font color='red'><strong>Keep</strong></font></div><div class='tc'><img class='introPic' src='trustrating_stim/white_mw078.bmp'><br><font color='green'><strong>Share</strong></font></div><div class='tr'><img class='introPic' src='trustrating_stim/white_mw085.bmp'><br><font color='green'><strong>Share</strong></font></div></div></div>","null","ARRAY","3","trustrating_stim/white_mw013.bmp,trustrating_stim/white_mw078.bmp,trustrating_stim/white_mw085.bmp","0,1,1","Match","e","4500","","","","",""
"html-keyboard-response","87","287269","0.0-7.0-3.10","63eaa9f8f0637c961dcfc277","bdp_wmem","Tue Mar 14 2023 15:58:32 GMT-1000 (Hawaii-Aleutian Standard Time)","637374","Match,No Match","","null","","","","","","<div class='trialBorder'><div class='vertical-center'><img src='img/fixation2_sml.jpg'</img></div></div>","null","DELAY","","","","","","","","","","",""
"html-keyboard-response","88","288806","0.0-7.0-4.10","63eaa9f8f0637c961dcfc277","bdp_wmem","Tue Mar 14 2023 15:58:32 GMT-1000 (Hawaii-Aleutian Standard Time)","637374","Match,No Match","","1533","","","","","","<div class='trialBorder'><div class='targDiv'><div class='tc'><img class='introPic' src='trustrating_stim/white_mw078.bmp'><br><font color='green'><strong>Share</strong></font></div></div><div class='respDiv'><div class='respDivL'>Match<br>(e)</div><div class='respDivR'>No Match<br>(i)</div></div></div>","e","TARGET","3","trustrating_stim/white_mw013.bmp,trustrating_stim/white_mw078.bmp,trustrating_stim/white_mw085.bmp","0,1,1","Match","e","4500","trustrating_stim/white_mw078.bmp","green","Share","REAL","1"
"html-keyboard-response","89","289310","0.0-7.0-5.10","63eaa9f8f0637c961dcfc277","bdp_wmem","Tue Mar 14 2023 15:58:32 GMT-1000 (Hawaii-Aleutian Standard Time)","637374","Match,No Match","","null","","","","","","<div class='trialBorder'><div class='vertical-center'><img src='img/correct.jpg'></div><div class='respDiv'><div class='respDivL'><font style='color:orange'>Match<br>(e)</font></div><div class='respDivR'>No Match<br>(i)</div></div></div>","null","FEEDBACK","","","","","","","","","","",""
"html-keyboard-response","90","289814","0.0-7.0-1.11","63eaa9f8f0637c961dcfc277","bdp_wmem","Tue Mar 14 2023 15:58:32 GMT-1000 (Hawaii-Aleutian Standard Time)","637374","Match,No Match","","null","","","","","","<div class='trialBorder'><div class='vertical-center'><img src='img/fixation2_sml.jpg'</img></div></div>","null","FIX","","","","","","","","","","",""
"html-keyboard-response","91","292820","0.0-7.0-2.11","63eaa9f8f0637c961dcfc277","bdp_wmem","Tue Mar 14 2023 15:58:32 GMT-1000 (Hawaii-Aleutian Standard Time)","637374","Match,No Match","","null","","","","","","<div class='trialBorder'><div class='vertical-center'><img style='vertical-align:center; align:center' src='img/fixation2_sml.jpg'></div><div class='arrayDiv2'><div class='tl'><img class='introPic' src='trustrating_stim/white_mw003.bmp'><br><font color='green'><strong>Share</strong></font></div><div class='tr'><img class='introPic' src='trustrating_stim/white_mw013.bmp'><br><font color='red'><strong>Keep</strong></font></div></div></div>","null","ARRAY","2","trustrating_stim/white_mw003.bmp,trustrating_stim/white_mw013.bmp","1,0","noMatchFace","i","3000","","","","",""
"html-keyboard-response","92","296823","0.0-7.0-3.11","63eaa9f8f0637c961dcfc277","bdp_wmem","Tue Mar 14 2023 15:58:32 GMT-1000 (Hawaii-Aleutian Standard Time)","637374","Match,No Match","","null","","","","","","<div class='trialBorder'><div class='vertical-center'><img src='img/fixation2_sml.jpg'</img></div></div>","null","DELAY","","","","","","","","","","",""
"html-keyboard-response","93","297903","0.0-7.0-4.11","63eaa9f8f0637c961dcfc277","bdp_wmem","Tue Mar 14 2023 15:58:32 GMT-1000 (Hawaii-Aleutian Standard Time)","637374","Match,No Match","","1076","","","","","","<div class='trialBorder'><div class='targDiv'><div class='tc'><img class='introPic' src='trustrating_stim/white_mw085.bmp'><br><font color='green'><strong>Share</strong></font></div></div><div class='respDiv'><div class='respDivL'>Match<br>(e)</div><div class='respDivR'>No Match<br>(i)</div></div></div>","i","TARGET","2","trustrating_stim/white_mw003.bmp,trustrating_stim/white_mw013.bmp","1,0","noMatchFace","i","3000","trustrating_stim/white_mw085.bmp","green","Share","REAL","1"
"html-keyboard-response","94","298411","0.0-7.0-5.11","63eaa9f8f0637c961dcfc277","bdp_wmem","Tue Mar 14 2023 15:58:32 GMT-1000 (Hawaii-Aleutian Standard Time)","637374","Match,No Match","","null","","","","","","<div class='trialBorder'><div class='vertical-center'><img src='img/correct.jpg'></div><div class='respDiv'><div class='respDivL'>Match<br>(e)</div><div class='respDivR'><font style='color:orange'>No Match<br>(i)</font></div></div></div>","null","FEEDBACK","","","","","","","","","","",""
"html-keyboard-response","95","298920","0.0-7.0-1.12","63eaa9f8f0637c961dcfc277","bdp_wmem","Tue Mar 14 2023 15:58:32 GMT-1000 (Hawaii-Aleutian Standard Time)","637374","Match,No Match","","null","","","","","","<div class='trialBorder'><div class='vertical-center'><img src='img/fixation2_sml.jpg'</img></div></div>","null","FIX","","","","","","","","","","",""
"html-keyboard-response","96","300424","0.0-7.0-2.12","63eaa9f8f0637c961dcfc277","bdp_wmem","Tue Mar 14 2023 15:58:32 GMT-1000 (Hawaii-Aleutian Standard Time)","637374","Match,No Match","","null","","","","","","<div class='trialBorder'><div class='vertical-center'><img style='vertical-align:center; align:center' src='img/fixation2_sml.jpg'></div><div class='arrayDiv1'><div class='tc'><img class='introPic' src='trustrating_stim/white_mw078.bmp'><br><font color='red'><strong>Keep</strong></font></div></div></div>","null","ARRAY","1","trustrating_stim/white_mw078.bmp","0","noMatchFace","i","1500","","","","",""
"html-keyboard-response","97","304429","0.0-7.0-3.12","63eaa9f8f0637c961dcfc277","bdp_wmem","Tue Mar 14 2023 15:58:32 GMT-1000 (Hawaii-Aleutian Standard Time)","637374","Match,No Match","","null","","","","","","<div class='trialBorder'><div class='vertical-center'><img src='img/fixation2_sml.jpg'</img></div></div>","null","DELAY","","","","","","","","","","",""
"html-keyboard-response","98","305586","0.0-7.0-4.12","63eaa9f8f0637c961dcfc277","bdp_wmem","Tue Mar 14 2023 15:58:32 GMT-1000 (Hawaii-Aleutian Standard Time)","637374","Match,No Match","","1154","","","","","","<div class='trialBorder'><div class='targDiv'><div class='tc'><img class='introPic' src='trustrating_stim/white_mw038.bmp'><br><font color='red'><strong>Keep</strong></font></div></div><div class='respDiv'><div class='respDivL'>Match<br>(e)</div><div class='respDivR'>No Match<br>(i)</div></div></div>","i","TARGET","1","trustrating_stim/white_mw078.bmp","0","noMatchFace","i","1500","trustrating_stim/white_mw038.bmp","red","Keep","REAL","1"
"html-keyboard-response","99","306092","0.0-7.0-5.12","63eaa9f8f0637c961dcfc277","bdp_wmem","Tue Mar 14 2023 15:58:32 GMT-1000 (Hawaii-Aleutian Standard Time)","637374","Match,No Match","","null","","","","","","<div class='trialBorder'><div class='vertical-center'><img src='img/correct.jpg'></div><div class='respDiv'><div class='respDivL'>Match<br>(e)</div><div class='respDivR'><font style='color:orange'>No Match<br>(i)</font></div></div></div>","null","FEEDBACK","","","","","","","","","","",""
"html-keyboard-response","100","306594","0.0-7.0-1.13","63eaa9f8f0637c961dcfc277","bdp_wmem","Tue Mar 14 2023 15:58:32 GMT-1000 (Hawaii-Aleutian Standard Time)","637374","Match,No Match","","null","","","","","","<div class='trialBorder'><div class='vertical-center'><img src='img/fixation2_sml.jpg'</img></div></div>","null","FIX","","","","","","","","","","",""
"html-keyboard-response","101","308100","0.0-7.0-2.13","63eaa9f8f0637c961dcfc277","bdp_wmem","Tue Mar 14 2023 15:58:32 GMT-1000 (Hawaii-Aleutian Standard Time)","637374","Match,No Match","","null","","","","","","<div class='trialBorder'><div class='vertical-center'><img style='vertical-align:center; align:center' src='img/fixation2_sml.jpg'></div><div class='arrayDiv1'><div class='tc'><img class='introPic' src='trustrating_stim/white_mw013.bmp'><br><font color='green'><strong>Share</strong></font></div></div></div>","null","ARRAY","1","trustrating_stim/white_mw013.bmp","1","Match","e","1500","","","","",""
"html-keyboard-response","102","312107","0.0-7.0-3.13","63eaa9f8f0637c961dcfc277","bdp_wmem","Tue Mar 14 2023 15:58:32 GMT-1000 (Hawaii-Aleutian Standard Time)","637374","Match,No Match","","null","","","","","","<div class='trialBorder'><div class='vertical-center'><img src='img/fixation2_sml.jpg'</img></div></div>","null","DELAY","","","","","","","","","","",""
"html-keyboard-response","103","313558","0.0-7.0-4.13","63eaa9f8f0637c961dcfc277","bdp_wmem","Tue Mar 14 2023 15:58:32 GMT-1000 (Hawaii-Aleutian Standard Time)","637374","Match,No Match","","1447","","","","","","<div class='trialBorder'><div class='targDiv'><div class='tc'><img class='introPic' src='trustrating_stim/white_mw013.bmp'><br><font color='green'><strong>Share</strong></font></div></div><div class='respDiv'><div class='respDivL'>Match<br>(e)</div><div class='respDivR'>No Match<br>(i)</div></div></div>","e","TARGET","1","trustrating_stim/white_mw013.bmp","1","Match","e","1500","trustrating_stim/white_mw013.bmp","green","Share","REAL","1"
"html-keyboard-response","104","314061","0.0-7.0-5.13","63eaa9f8f0637c961dcfc277","bdp_wmem","Tue Mar 14 2023 15:58:32 GMT-1000 (Hawaii-Aleutian Standard Time)","637374","Match,No Match","","null","","","","","","<div class='trialBorder'><div class='vertical-center'><img src='img/correct.jpg'></div><div class='respDiv'><div class='respDivL'><font style='color:orange'>Match<br>(e)</font></div><div class='respDivR'>No Match<br>(i)</div></div></div>","null","FEEDBACK","","","","","","","","","","",""
"html-keyboard-response","105","314570","0.0-7.0-1.14","63eaa9f8f0637c961dcfc277","bdp_wmem","Tue Mar 14 2023 15:58:32 GMT-1000 (Hawaii-Aleutian Standard Time)","637374","Match,No Match","","null","","","","","","<div class='trialBorder'><div class='vertical-center'><img src='img/fixation2_sml.jpg'</img></div></div>","null","FIX","","","","","","","","","","",""
"html-keyboard-response","106","317576","0.0-7.0-2.14","63eaa9f8f0637c961dcfc277","bdp_wmem","Tue Mar 14 2023 15:58:32 GMT-1000 (Hawaii-Aleutian Standard Time)","637374","Match,No Match","","null","","","","","","<div class='trialBorder'><div class='vertical-center'><img style='vertical-align:center; align:center' src='img/fixation2_sml.jpg'></div><div class='arrayDiv2'><div class='tl'><img class='introPic' src='trustrating_stim/white_mw092.bmp'><br><font color='red'><strong>Keep</strong></font></div><div class='tr'><img class='introPic' src='trustrating_stim/white_mw013.bmp'><br><font color='green'><strong>Share</strong></font></div></div></div>","null","ARRAY","2","trustrating_stim/white_mw092.bmp,trustrating_stim/white_mw013.bmp","0,1","noMatchOutcome","i","3000","","","","",""
"html-keyboard-response","107","321580","0.0-7.0-3.14","63eaa9f8f0637c961dcfc277","bdp_wmem","Tue Mar 14 2023 15:58:32 GMT-1000 (Hawaii-Aleutian Standard Time)","637374","Match,No Match","","null","","","","","","<div class='trialBorder'><div class='vertical-center'><img src='img/fixation2_sml.jpg'</img></div></div>","null","DELAY","","","","","","","","","","",""
"html-keyboard-response","108","323086","0.0-7.0-4.14","63eaa9f8f0637c961dcfc277","bdp_wmem","Tue Mar 14 2023 15:58:32 GMT-1000 (Hawaii-Aleutian Standard Time)","637374","Match,No Match","","1503","","","","","","<div class='trialBorder'><div class='targDiv'><div class='tc'><img class='introPic' src='trustrating_stim/white_mw092.bmp'><br><font color='green'><strong>Share</strong></font></div></div><div class='respDiv'><div class='respDivL'>Match<br>(e)</div><div class='respDivR'>No Match<br>(i)</div></div></div>","i","TARGET","2","trustrating_stim/white_mw092.bmp,trustrating_stim/white_mw013.bmp","0,1","noMatchOutcome","i","3000","trustrating_stim/white_mw092.bmp","green","Share","REAL","1"
"html-keyboard-response","109","323592","0.0-7.0-5.14","63eaa9f8f0637c961dcfc277","bdp_wmem","Tue Mar 14 2023 15:58:32 GMT-1000 (Hawaii-Aleutian Standard Time)","637374","Match,No Match","","null","","","","","","<div class='trialBorder'><div class='vertical-center'><img src='img/correct.jpg'></div><div class='respDiv'><div class='respDivL'>Match<br>(e)</div><div class='respDivR'><font style='color:orange'>No Match<br>(i)</font></div></div></div>","null","FEEDBACK","","","","","","","","","","",""
"html-keyboard-response","110","324096","0.0-7.0-1.15","63eaa9f8f0637c961dcfc277","bdp_wmem","Tue Mar 14 2023 15:58:32 GMT-1000 (Hawaii-Aleutian Standard Time)","637374","Match,No Match","","null","","","","","","<div class='trialBorder'><div class='vertical-center'><img src='img/fixation2_sml.jpg'</img></div></div>","null","FIX","","","","","","","","","","",""
"html-keyboard-response","111","327103","0.0-7.0-2.15","63eaa9f8f0637c961dcfc277","bdp_wmem","Tue Mar 14 2023 15:58:32 GMT-1000 (Hawaii-Aleutian Standard Time)","637374","Match,No Match","","null","","","","","","<div class='trialBorder'><div class='vertical-center'><img style='vertical-align:center; align:center' src='img/fixation2_sml.jpg'></div><div class='arrayDiv2'><div class='tl'><img class='introPic' src='trustrating_stim/white_mw092.bmp'><br><font color='red'><strong>Keep</strong></font></div><div class='tr'><img class='introPic' src='trustrating_stim/white_mw003.bmp'><br><font color='green'><strong>Share</strong></font></div></div></div>","null","ARRAY","2","trustrating_stim/white_mw092.bmp,trustrating_stim/white_mw003.bmp","0,1","Match","e","3000","","","","",""
"html-keyboard-response","112","331111","0.0-7.0-3.15","63eaa9f8f0637c961dcfc277","bdp_wmem","Tue Mar 14 2023 15:58:32 GMT-1000 (Hawaii-Aleutian Standard Time)","637374","Match,No Match","","null","","","","","","<div class='trialBorder'><div class='vertical-center'><img src='img/fixation2_sml.jpg'</img></div></div>","null","DELAY","","","","","","","","","","",""
"html-keyboard-response","113","333367","0.0-7.0-4.15","63eaa9f8f0637c961dcfc277","bdp_wmem","Tue Mar 14 2023 15:58:32 GMT-1000 (Hawaii-Aleutian Standard Time)","637374","Match,No Match","","2253","","","","","","<div class='trialBorder'><div class='targDiv'><div class='tc'><img class='introPic' src='trustrating_stim/white_mw003.bmp'><br><font color='green'><strong>Share</strong></font></div></div><div class='respDiv'><div class='respDivL'>Match<br>(e)</div><div class='respDivR'>No Match<br>(i)</div></div></div>","e","TARGET","2","trustrating_stim/white_mw092.bmp,trustrating_stim/white_mw003.bmp","0,1","Match","e","3000","trustrating_stim/white_mw003.bmp","green","Share","REAL","1"
"html-keyboard-response","114","333870","0.0-7.0-5.15","63eaa9f8f0637c961dcfc277","bdp_wmem","Tue Mar 14 2023 15:58:32 GMT-1000 (Hawaii-Aleutian Standard Time)","637374","Match,No Match","","null","","","","","","<div class='trialBorder'><div class='vertical-center'><img src='img/correct.jpg'></div><div class='respDiv'><div class='respDivL'><font style='color:orange'>Match<br>(e)</font></div><div class='respDivR'>No Match<br>(i)</div></div></div>","null","FEEDBACK","","","","","","","","","","",""
"html-keyboard-response","115","334373","0.0-7.0-1.16","63eaa9f8f0637c961dcfc277","bdp_wmem","Tue Mar 14 2023 15:58:32 GMT-1000 (Hawaii-Aleutian Standard Time)","637374","Match,No Match","","null","","","","","","<div class='trialBorder'><div class='vertical-center'><img src='img/fixation2_sml.jpg'</img></div></div>","null","FIX","","","","","","","","","","",""
"html-keyboard-response","116","338879","0.0-7.0-2.16","63eaa9f8f0637c961dcfc277","bdp_wmem","Tue Mar 14 2023 15:58:32 GMT-1000 (Hawaii-Aleutian Standard Time)","637374","Match,No Match","","null","","","","","","<div class='trialBorder'><div class='vertical-center'><img style='vertical-align:center; align:center' src='img/fixation2_sml.jpg'></div><div class='arrayDiv3'><div class='tl'><img class='introPic' src='trustrating_stim/white_mw013.bmp'><br><font color='red'><strong>Keep</strong></font></div><div class='tc'><img class='introPic' src='trustrating_stim/white_mw091.bmp'><br><font color='red'><strong>Keep</strong></font></div><div class='tr'><img class='introPic' src='trustrating_stim/white_mw042.bmp'><br><font color='green'><strong>Share</strong></font></div></div></div>","null","ARRAY","3","trustrating_stim/white_mw013.bmp,trustrating_stim/white_mw091.bmp,trustrating_stim/white_mw042.bmp","0,0,1","noMatchOutcome","i","4500","","","","",""
"html-keyboard-response","117","342890","0.0-7.0-3.16","63eaa9f8f0637c961dcfc277","bdp_wmem","Tue Mar 14 2023 15:58:32 GMT-1000 (Hawaii-Aleutian Standard Time)","637374","Match,No Match","","null","","","","","","<div class='trialBorder'><div class='vertical-center'><img src='img/fixation2_sml.jpg'</img></div></div>","null","DELAY","","","","","","","","","","",""
"html-keyboard-response","118","345035","0.0-7.0-4.16","63eaa9f8f0637c961dcfc277","bdp_wmem","Tue Mar 14 2023 15:58:32 GMT-1000 (Hawaii-Aleutian Standard Time)","637374","Match,No Match","","2143","","","","","","<div class='trialBorder'><div class='targDiv'><div class='tc'><img class='introPic' src='trustrating_stim/white_mw013.bmp'><br><font color='green'><strong>Share</strong></font></div></div><div class='respDiv'><div class='respDivL'>Match<br>(e)</div><div class='respDivR'>No Match<br>(i)</div></div></div>","e","TARGET","3","trustrating_stim/white_mw013.bmp,trustrating_stim/white_mw091.bmp,trustrating_stim/white_mw042.bmp","0,0,1","noMatchOutcome","i","4500","trustrating_stim/white_mw013.bmp","green","Share","REAL","0"
"html-keyboard-response","119","345545","0.0-7.0-5.16","63eaa9f8f0637c961dcfc277","bdp_wmem","Tue Mar 14 2023 15:58:32 GMT-1000 (Hawaii-Aleutian Standard Time)","637374","Match,No Match","","null","","","","","","<div class='trialBorder'><div class='vertical-center'><img src='img/error.jpg'></div><div class='respDiv'><div class='respDivL'><font style='color:orange'>Match<br>(e)</font></div><div class='respDivR'>No Match<br>(i)</div></div></div>","null","FEEDBACK","","","","","","","","","","",""
"html-keyboard-response","120","346047","0.0-7.0-1.17","63eaa9f8f0637c961dcfc277","bdp_wmem","Tue Mar 14 2023 15:58:32 GMT-1000 (Hawaii-Aleutian Standard Time)","637374","Match,No Match","","null","","","","","","<div class='trialBorder'><div class='vertical-center'><img src='img/fixation2_sml.jpg'</img></div></div>","null","FIX","","","","","","","","","","",""
"html-keyboard-response","121","347553","0.0-7.0-2.17","63eaa9f8f0637c961dcfc277","bdp_wmem","Tue Mar 14 2023 15:58:32 GMT-1000 (Hawaii-Aleutian Standard Time)","637374","Match,No Match","","null","","","","","","<div class='trialBorder'><div class='vertical-center'><img style='vertical-align:center; align:center' src='img/fixation2_sml.jpg'></div><div class='arrayDiv1'><div class='tc'><img class='introPic' src='trustrating_stim/white_mw003.bmp'><br><font color='green'><strong>Share</strong></font></div></div></div>","null","ARRAY","1","trustrating_stim/white_mw003.bmp","1","noMatchOutcome","i","1500","","","","",""
"html-keyboard-response","122","351561","0.0-7.0-3.17","63eaa9f8f0637c961dcfc277","bdp_wmem","Tue Mar 14 2023 15:58:32 GMT-1000 (Hawaii-Aleutian Standard Time)","637374","Match,No Match","","null","","","","","","<div class='trialBorder'><div class='vertical-center'><img src='img/fixation2_sml.jpg'</img></div></div>","null","DELAY","","","","","","","","","","",""
"html-keyboard-response","123","352983","0.0-7.0-4.17","63eaa9f8f0637c961dcfc277","bdp_wmem","Tue Mar 14 2023 15:58:32 GMT-1000 (Hawaii-Aleutian Standard Time)","637374","Match,No Match","","1417","","","","","","<div class='trialBorder'><div class='targDiv'><div class='tc'><img class='introPic' src='trustrating_stim/white_mw003.bmp'><br><font color='red'><strong>Keep</strong></font></div></div><div class='respDiv'><div class='respDivL'>Match<br>(e)</div><div class='respDivR'>No Match<br>(i)</div></div></div>","i","TARGET","1","trustrating_stim/white_mw003.bmp","1","noMatchOutcome","i","1500","trustrating_stim/white_mw003.bmp","red","Keep","REAL","1"
"html-keyboard-response","124","353492","0.0-7.0-5.17","63eaa9f8f0637c961dcfc277","bdp_wmem","Tue Mar 14 2023 15:58:32 GMT-1000 (Hawaii-Aleutian Standard Time)","637374","Match,No Match","","null","","","","","","<div class='trialBorder'><div class='vertical-center'><img src='img/correct.jpg'></div><div class='respDiv'><div class='respDivL'>Match<br>(e)</div><div class='respDivR'><font style='color:orange'>No Match<br>(i)</font></div></div></div>","null","FEEDBACK","","","","","","","","","","",""
"html-keyboard-response","125","354000","0.0-7.0-1.18","63eaa9f8f0637c961dcfc277","bdp_wmem","Tue Mar 14 2023 15:58:32 GMT-1000 (Hawaii-Aleutian Standard Time)","637374","Match,No Match","","null","","","","","","<div class='trialBorder'><div class='vertical-center'><img src='img/fixation2_sml.jpg'</img></div></div>","null","FIX","","","","","","","","","","",""
"html-keyboard-response","126","358511","0.0-7.0-2.18","63eaa9f8f0637c961dcfc277","bdp_wmem","Tue Mar 14 2023 15:58:32 GMT-1000 (Hawaii-Aleutian Standard Time)","637374","Match,No Match","","null","","","","","","<div class='trialBorder'><div class='vertical-center'><img style='vertical-align:center; align:center' src='img/fixation2_sml.jpg'></div><div class='arrayDiv3'><div class='tl'><img class='introPic' src='trustrating_stim/white_mw091.bmp'><br><font color='red'><strong>Keep</strong></font></div><div class='tc'><img class='introPic' src='trustrating_stim/white_mw070.bmp'><br><font color='green'><strong>Share</strong></font></div><div class='tr'><img class='introPic' src='trustrating_stim/white_mw013.bmp'><br><font color='green'><strong>Share</strong></font></div></div></div>","null","ARRAY","3","trustrating_stim/white_mw091.bmp,trustrating_stim/white_mw070.bmp,trustrating_stim/white_mw013.bmp","0,1,1","Match","e","4500","","","","",""
"html-keyboard-response","127","362515","0.0-7.0-3.18","63eaa9f8f0637c961dcfc277","bdp_wmem","Tue Mar 14 2023 15:58:32 GMT-1000 (Hawaii-Aleutian Standard Time)","637374","Match,No Match","","null","","","","","","<div class='trialBorder'><div class='vertical-center'><img src='img/fixation2_sml.jpg'</img></div></div>","null","DELAY","","","","","","","","","","",""
"html-keyboard-response","128","364312","0.0-7.0-4.18","63eaa9f8f0637c961dcfc277","bdp_wmem","Tue Mar 14 2023 15:58:32 GMT-1000 (Hawaii-Aleutian Standard Time)","637374","Match,No Match","","1793","","","","","","<div class='trialBorder'><div class='targDiv'><div class='tc'><img class='introPic' src='trustrating_stim/white_mw091.bmp'><br><font color='red'><strong>Keep</strong></font></div></div><div class='respDiv'><div class='respDivL'>Match<br>(e)</div><div class='respDivR'>No Match<br>(i)</div></div></div>","e","TARGET","3","trustrating_stim/white_mw091.bmp,trustrating_stim/white_mw070.bmp,trustrating_stim/white_mw013.bmp","0,1,1","Match","e","4500","trustrating_stim/white_mw091.bmp","red","Keep","REAL","1"
"html-keyboard-response","129","364820","0.0-7.0-5.18","63eaa9f8f0637c961dcfc277","bdp_wmem","Tue Mar 14 2023 15:58:32 GMT-1000 (Hawaii-Aleutian Standard Time)","637374","Match,No Match","","null","","","","","","<div class='trialBorder'><div class='vertical-center'><img src='img/correct.jpg'></div><div class='respDiv'><div class='respDivL'><font style='color:orange'>Match<br>(e)</font></div><div class='respDivR'>No Match<br>(i)</div></div></div>","null","FEEDBACK","","","","","","","","","","",""
"html-keyboard-response","130","365322","0.0-7.0-1.19","63eaa9f8f0637c961dcfc277","bdp_wmem","Tue Mar 14 2023 15:58:32 GMT-1000 (Hawaii-Aleutian Standard Time)","637374","Match,No Match","","null","","","","","","<div class='trialBorder'><div class='vertical-center'><img src='img/fixation2_sml.jpg'</img></div></div>","null","FIX","","","","","","","","","","",""
"html-keyboard-response","131","369830","0.0-7.0-2.19","63eaa9f8f0637c961dcfc277","bdp_wmem","Tue Mar 14 2023 15:58:32 GMT-1000 (Hawaii-Aleutian Standard Time)","637374","Match,No Match","","null","","","","","","<div class='trialBorder'><div class='vertical-center'><img style='vertical-align:center; align:center' src='img/fixation2_sml.jpg'></div><div class='arrayDiv3'><div class='tl'><img class='introPic' src='trustrating_stim/white_mw091.bmp'><br><font color='green'><strong>Share</strong></font></div><div class='tc'><img class='introPic' src='trustrating_stim/white_mw070.bmp'><br><font color='red'><strong>Keep</strong></font></div><div class='tr'><img class='introPic' src='trustrating_stim/white_mw078.bmp'><br><font color='green'><strong>Share</strong></font></div></div></div>","null","ARRAY","3","trustrating_stim/white_mw091.bmp,trustrating_stim/white_mw070.bmp,trustrating_stim/white_mw078.bmp","1,0,1","noMatchFace","i","4500","","","","",""
"html-keyboard-response","132","373840","0.0-7.0-3.19","63eaa9f8f0637c961dcfc277","bdp_wmem","Tue Mar 14 2023 15:58:32 GMT-1000 (Hawaii-Aleutian Standard Time)","637374","Match,No Match","","null","","","","","","<div class='trialBorder'><div class='vertical-center'><img src='img/fixation2_sml.jpg'</img></div></div>","null","DELAY","","","","","","","","","","",""
"html-keyboard-response","133","374974","0.0-7.0-4.19","63eaa9f8f0637c961dcfc277","bdp_wmem","Tue Mar 14 2023 15:58:32 GMT-1000 (Hawaii-Aleutian Standard Time)","637374","Match,No Match","","1130","","","","","","<div class='trialBorder'><div class='targDiv'><div class='tc'><img class='introPic' src='trustrating_stim/white_mw042.bmp'><br><font color='green'><strong>Share</strong></font></div></div><div class='respDiv'><div class='respDivL'>Match<br>(e)</div><div class='respDivR'>No Match<br>(i)</div></div></div>","i","TARGET","3","trustrating_stim/white_mw091.bmp,trustrating_stim/white_mw070.bmp,trustrating_stim/white_mw078.bmp","1,0,1","noMatchFace","i","4500","trustrating_stim/white_mw042.bmp","green","Share","REAL","1"
"html-keyboard-response","134","375476","0.0-7.0-5.19","63eaa9f8f0637c961dcfc277","bdp_wmem","Tue Mar 14 2023 15:58:32 GMT-1000 (Hawaii-Aleutian Standard Time)","637374","Match,No Match","","null","","","","","","<div class='trialBorder'><div class='vertical-center'><img src='img/correct.jpg'></div><div class='respDiv'><div class='respDivL'>Match<br>(e)</div><div class='respDivR'><font style='color:orange'>No Match<br>(i)</font></div></div></div>","null","FEEDBACK","","","","","","","","","","",""
"html-keyboard-response","135","375979","0.0-7.0-1.20","63eaa9f8f0637c961dcfc277","bdp_wmem","Tue Mar 14 2023 15:58:32 GMT-1000 (Hawaii-Aleutian Standard Time)","637374","Match,No Match","","null","","","","","","<div class='trialBorder'><div class='vertical-center'><img src='img/fixation2_sml.jpg'</img></div></div>","null","FIX","","","","","","","","","","",""
"html-keyboard-response","136","380495","0.0-7.0-2.20","63eaa9f8f0637c961dcfc277","bdp_wmem","Tue Mar 14 2023 15:58:32 GMT-1000 (Hawaii-Aleutian Standard Time)","637374","Match,No Match","","null","","","","","","<div class='trialBorder'><div class='vertical-center'><img style='vertical-align:center; align:center' src='img/fixation2_sml.jpg'></div><div class='arrayDiv3'><div class='tl'><img class='introPic' src='trustrating_stim/white_mw091.bmp'><br><font color='red'><strong>Keep</strong></font></div><div class='tc'><img class='introPic' src='trustrating_stim/white_mw042.bmp'><br><font color='green'><strong>Share</strong></font></div><div class='tr'><img class='introPic' src='trustrating_stim/white_mw013.bmp'><br><font color='red'><strong>Keep</strong></font></div></div></div>","null","ARRAY","3","trustrating_stim/white_mw091.bmp,trustrating_stim/white_mw042.bmp,trustrating_stim/white_mw013.bmp","0,1,0","Match","e","4500","","","","",""
"html-keyboard-response","137","384503","0.0-7.0-3.20","63eaa9f8f0637c961dcfc277","bdp_wmem","Tue Mar 14 2023 15:58:32 GMT-1000 (Hawaii-Aleutian Standard Time)","637374","Match,No Match","","null","","","","","","<div class='trialBorder'><div class='vertical-center'><img src='img/fixation2_sml.jpg'</img></div></div>","null","DELAY","","","","","","","","","","",""
"html-keyboard-response","138","386623","0.0-7.0-4.20","63eaa9f8f0637c961dcfc277","bdp_wmem","Tue Mar 14 2023 15:58:32 GMT-1000 (Hawaii-Aleutian Standard Time)","637374","Match,No Match","","2117","","","","","","<div class='trialBorder'><div class='targDiv'><div class='tc'><img class='introPic' src='trustrating_stim/white_mw091.bmp'><br><font color='red'><strong>Keep</strong></font></div></div><div class='respDiv'><div class='respDivL'>Match<br>(e)</div><div class='respDivR'>No Match<br>(i)</div></div></div>","e","TARGET","3","trustrating_stim/white_mw091.bmp,trustrating_stim/white_mw042.bmp,trustrating_stim/white_mw013.bmp","0,1,0","Match","e","4500","trustrating_stim/white_mw091.bmp","red","Keep","REAL","1"
"html-keyboard-response","139","387130","0.0-7.0-5.20","63eaa9f8f0637c961dcfc277","bdp_wmem","Tue Mar 14 2023 15:58:32 GMT-1000 (Hawaii-Aleutian Standard Time)","637374","Match,No Match","","null","","","","","","<div class='trialBorder'><div class='vertical-center'><img src='img/correct.jpg'></div><div class='respDiv'><div class='respDivL'><font style='color:orange'>Match<br>(e)</font></div><div class='respDivR'>No Match<br>(i)</div></div></div>","null","FEEDBACK","","","","","","","","","","",""
"html-keyboard-response","140","387640","0.0-7.0-1.21","63eaa9f8f0637c961dcfc277","bdp_wmem","Tue Mar 14 2023 15:58:32 GMT-1000 (Hawaii-Aleutian Standard Time)","637374","Match,No Match","","null","","","","","","<div class='trialBorder'><div class='vertical-center'><img src='img/fixation2_sml.jpg'</img></div></div>","null","FIX","","","","","","","","","","",""
"html-keyboard-response","141","389147","0.0-7.0-2.21","63eaa9f8f0637c961dcfc277","bdp_wmem","Tue Mar 14 2023 15:58:32 GMT-1000 (Hawaii-Aleutian Standard Time)","637374","Match,No Match","","null","","","","","","<div class='trialBorder'><div class='vertical-center'><img style='vertical-align:center; align:center' src='img/fixation2_sml.jpg'></div><div class='arrayDiv1'><div class='tc'><img class='introPic' src='trustrating_stim/white_mw092.bmp'><br><font color='red'><strong>Keep</strong></font></div></div></div>","null","ARRAY","1","trustrating_stim/white_mw092.bmp","0","noMatchFace","i","1500","","","","",""
"html-keyboard-response","142","393154","0.0-7.0-3.21","63eaa9f8f0637c961dcfc277","bdp_wmem","Tue Mar 14 2023 15:58:32 GMT-1000 (Hawaii-Aleutian Standard Time)","637374","Match,No Match","","null","","","","","","<div class='trialBorder'><div class='vertical-center'><img src='img/fixation2_sml.jpg'</img></div></div>","null","DELAY","","","","","","","","","","",""
"html-keyboard-response","143","394125","0.0-7.0-4.21","63eaa9f8f0637c961dcfc277","bdp_wmem","Tue Mar 14 2023 15:58:32 GMT-1000 (Hawaii-Aleutian Standard Time)","637374","Match,No Match","","969","","","","","","<div class='trialBorder'><div class='targDiv'><div class='tc'><img class='introPic' src='trustrating_stim/white_mw013.bmp'><br><font color='red'><strong>Keep</strong></font></div></div><div class='respDiv'><div class='respDivL'>Match<br>(e)</div><div class='respDivR'>No Match<br>(i)</div></div></div>","i","TARGET","1","trustrating_stim/white_mw092.bmp","0","noMatchFace","i","1500","trustrating_stim/white_mw013.bmp","red","Keep","REAL","1"
"html-keyboard-response","144","394634","0.0-7.0-5.21","63eaa9f8f0637c961dcfc277","bdp_wmem","Tue Mar 14 2023 15:58:32 GMT-1000 (Hawaii-Aleutian Standard Time)","637374","Match,No Match","","null","","","","","","<div class='trialBorder'><div class='vertical-center'><img src='img/correct.jpg'></div><div class='respDiv'><div class='respDivL'>Match<br>(e)</div><div class='respDivR'><font style='color:orange'>No Match<br>(i)</font></div></div></div>","null","FEEDBACK","","","","","","","","","","",""
"html-keyboard-response","145","395144","0.0-7.0-1.22","63eaa9f8f0637c961dcfc277","bdp_wmem","Tue Mar 14 2023 15:58:32 GMT-1000 (Hawaii-Aleutian Standard Time)","637374","Match,No Match","","null","","","","","","<div class='trialBorder'><div class='vertical-center'><img src='img/fixation2_sml.jpg'</img></div></div>","null","FIX","","","","","","","","","","",""
"html-keyboard-response","146","396648","0.0-7.0-2.22","63eaa9f8f0637c961dcfc277","bdp_wmem","Tue Mar 14 2023 15:58:32 GMT-1000 (Hawaii-Aleutian Standard Time)","637374","Match,No Match","","null","","","","","","<div class='trialBorder'><div class='vertical-center'><img style='vertical-align:center; align:center' src='img/fixation2_sml.jpg'></div><div class='arrayDiv1'><div class='tc'><img class='introPic' src='trustrating_stim/white_mw040.bmp'><br><font color='green'><strong>Share</strong></font></div></div></div>","null","ARRAY","1","trustrating_stim/white_mw040.bmp","1","Match","e","1500","","","","",""
"html-keyboard-response","147","400651","0.0-7.0-3.22","63eaa9f8f0637c961dcfc277","bdp_wmem","Tue Mar 14 2023 15:58:32 GMT-1000 (Hawaii-Aleutian Standard Time)","637374","Match,No Match","","null","","","","","","<div class='trialBorder'><div class='vertical-center'><img src='img/fixation2_sml.jpg'</img></div></div>","null","DELAY","","","","","","","","","","",""
"html-keyboard-response","148","401900","0.0-7.0-4.22","63eaa9f8f0637c961dcfc277","bdp_wmem","Tue Mar 14 2023 15:58:32 GMT-1000 (Hawaii-Aleutian Standard Time)","637374","Match,No Match","","1245","","","","","","<div class='trialBorder'><div class='targDiv'><div class='tc'><img class='introPic' src='trustrating_stim/white_mw040.bmp'><br><font color='green'><strong>Share</strong></font></div></div><div class='respDiv'><div class='respDivL'>Match<br>(e)</div><div class='respDivR'>No Match<br>(i)</div></div></div>","e","TARGET","1","trustrating_stim/white_mw040.bmp","1","Match","e","1500","trustrating_stim/white_mw040.bmp","green","Share","REAL","1"
"html-keyboard-response","149","402402","0.0-7.0-5.22","63eaa9f8f0637c961dcfc277","bdp_wmem","Tue Mar 14 2023 15:58:32 GMT-1000 (Hawaii-Aleutian Standard Time)","637374","Match,No Match","","null","","","","","","<div class='trialBorder'><div class='vertical-center'><img src='img/correct.jpg'></div><div class='respDiv'><div class='respDivL'><font style='color:orange'>Match<br>(e)</font></div><div class='respDivR'>No Match<br>(i)</div></div></div>","null","FEEDBACK","","","","","","","","","","",""
"html-keyboard-response","150","402910","0.0-7.0-1.23","63eaa9f8f0637c961dcfc277","bdp_wmem","Tue Mar 14 2023 15:58:32 GMT-1000 (Hawaii-Aleutian Standard Time)","637374","Match,No Match","","null","","","","","","<div class='trialBorder'><div class='vertical-center'><img src='img/fixation2_sml.jpg'</img></div></div>","null","FIX","","","","","","","","","","",""
"html-keyboard-response","151","407414","0.0-7.0-2.23","63eaa9f8f0637c961dcfc277","bdp_wmem","Tue Mar 14 2023 15:58:32 GMT-1000 (Hawaii-Aleutian Standard Time)","637374","Match,No Match","","null","","","","","","<div class='trialBorder'><div class='vertical-center'><img style='vertical-align:center; align:center' src='img/fixation2_sml.jpg'></div><div class='arrayDiv3'><div class='tl'><img class='introPic' src='trustrating_stim/white_mw085.bmp'><br><font color='red'><strong>Keep</strong></font></div><div class='tc'><img class='introPic' src='trustrating_stim/white_mw013.bmp'><br><font color='red'><strong>Keep</strong></font></div><div class='tr'><img class='introPic' src='trustrating_stim/white_mw078.bmp'><br><font color='green'><strong>Share</strong></font></div></div></div>","null","ARRAY","3","trustrating_stim/white_mw085.bmp,trustrating_stim/white_mw013.bmp,trustrating_stim/white_mw078.bmp","0,0,1","noMatchFace","i","4500","","","","",""
"html-keyboard-response","152","411419","0.0-7.0-3.23","63eaa9f8f0637c961dcfc277","bdp_wmem","Tue Mar 14 2023 15:58:32 GMT-1000 (Hawaii-Aleutian Standard Time)","637374","Match,No Match","","null","","","","","","<div class='trialBorder'><div class='vertical-center'><img src='img/fixation2_sml.jpg'</img></div></div>","null","DELAY","","","","","","","","","","",""
"html-keyboard-response","153","412603","0.0-7.0-4.23","63eaa9f8f0637c961dcfc277","bdp_wmem","Tue Mar 14 2023 15:58:32 GMT-1000 (Hawaii-Aleutian Standard Time)","637374","Match,No Match","","1181","","","","","","<div class='trialBorder'><div class='targDiv'><div class='tc'><img class='introPic' src='trustrating_stim/white_mw010.bmp'><br><font color='red'><strong>Keep</strong></font></div></div><div class='respDiv'><div class='respDivL'>Match<br>(e)</div><div class='respDivR'>No Match<br>(i)</div></div></div>","i","TARGET","3","trustrating_stim/white_mw085.bmp,trustrating_stim/white_mw013.bmp,trustrating_stim/white_mw078.bmp","0,0,1","noMatchFace","i","4500","trustrating_stim/white_mw010.bmp","red","Keep","REAL","1"
"html-keyboard-response","154","413108","0.0-7.0-5.23","63eaa9f8f0637c961dcfc277","bdp_wmem","Tue Mar 14 2023 15:58:32 GMT-1000 (Hawaii-Aleutian Standard Time)","637374","Match,No Match","","null","","","","","","<div class='trialBorder'><div class='vertical-center'><img src='img/correct.jpg'></div><div class='respDiv'><div class='respDivL'>Match<br>(e)</div><div class='respDivR'><font style='color:orange'>No Match<br>(i)</font></div></div></div>","null","FEEDBACK","","","","","","","","","","",""
"html-keyboard-response","155","413610","0.0-7.0-1.24","63eaa9f8f0637c961dcfc277","bdp_wmem","Tue Mar 14 2023 15:58:32 GMT-1000 (Hawaii-Aleutian Standard Time)","637374","Match,No Match","","null","","","","","","<div class='trialBorder'><div class='vertical-center'><img src='img/fixation2_sml.jpg'</img></div></div>","null","FIX","","","","","","","","","","",""
"html-keyboard-response","156","415121","0.0-7.0-2.24","63eaa9f8f0637c961dcfc277","bdp_wmem","Tue Mar 14 2023 15:58:32 GMT-1000 (Hawaii-Aleutian Standard Time)","637374","Match,No Match","","null","","","","","","<div class='trialBorder'><div class='vertical-center'><img style='vertical-align:center; align:center' src='img/fixation2_sml.jpg'></div><div class='arrayDiv1'><div class='tc'><img class='introPic' src='trustrating_stim/white_mw070.bmp'><br><font color='green'><strong>Share</strong></font></div></div></div>","null","ARRAY","1","trustrating_stim/white_mw070.bmp","1","Match","e","1500","","","","",""
"html-keyboard-response","157","419131","0.0-7.0-3.24","63eaa9f8f0637c961dcfc277","bdp_wmem","Tue Mar 14 2023 15:58:32 GMT-1000 (Hawaii-Aleutian Standard Time)","637374","Match,No Match","","null","","","","","","<div class='trialBorder'><div class='vertical-center'><img src='img/fixation2_sml.jpg'</img></div></div>","null","DELAY","","","","","","","","","","",""
"html-keyboard-response","158","420522","0.0-7.0-4.24","63eaa9f8f0637c961dcfc277","bdp_wmem","Tue Mar 14 2023 15:58:32 GMT-1000 (Hawaii-Aleutian Standard Time)","637374","Match,No Match","","1388","","","","","","<div class='trialBorder'><div class='targDiv'><div class='tc'><img class='introPic' src='trustrating_stim/white_mw070.bmp'><br><font color='green'><strong>Share</strong></font></div></div><div class='respDiv'><div class='respDivL'>Match<br>(e)</div><div class='respDivR'>No Match<br>(i)</div></div></div>","e","TARGET","1","trustrating_stim/white_mw070.bmp","1","Match","e","1500","trustrating_stim/white_mw070.bmp","green","Share","REAL","1"
"html-keyboard-response","159","421033","0.0-7.0-5.24","63eaa9f8f0637c961dcfc277","bdp_wmem","Tue Mar 14 2023 15:58:32 GMT-1000 (Hawaii-Aleutian Standard Time)","637374","Match,No Match","","null","","","","","","<div class='trialBorder'><div class='vertical-center'><img src='img/correct.jpg'></div><div class='respDiv'><div class='respDivL'><font style='color:orange'>Match<br>(e)</font></div><div class='respDivR'>No Match<br>(i)</div></div></div>","null","FEEDBACK","","","","","","","","","","",""
"html-keyboard-response","160","421543","0.0-7.0-1.25","63eaa9f8f0637c961dcfc277","bdp_wmem","Tue Mar 14 2023 15:58:32 GMT-1000 (Hawaii-Aleutian Standard Time)","637374","Match,No Match","","null","","","","","","<div class='trialBorder'><div class='vertical-center'><img src='img/fixation2_sml.jpg'</img></div></div>","null","FIX","","","","","","","","","","",""
"html-keyboard-response","161","426053","0.0-7.0-2.25","63eaa9f8f0637c961dcfc277","bdp_wmem","Tue Mar 14 2023 15:58:32 GMT-1000 (Hawaii-Aleutian Standard Time)","637374","Match,No Match","","null","","","","","","<div class='trialBorder'><div class='vertical-center'><img style='vertical-align:center; align:center' src='img/fixation2_sml.jpg'></div><div class='arrayDiv3'><div class='tl'><img class='introPic' src='trustrating_stim/white_mw091.bmp'><br><font color='red'><strong>Keep</strong></font></div><div class='tc'><img class='introPic' src='trustrating_stim/white_mw038.bmp'><br><font color='green'><strong>Share</strong></font></div><div class='tr'><img class='introPic' src='trustrating_stim/white_mw040.bmp'><br><font color='red'><strong>Keep</strong></font></div></div></div>","null","ARRAY","3","trustrating_stim/white_mw091.bmp,trustrating_stim/white_mw038.bmp,trustrating_stim/white_mw040.bmp","0,1,0","Match","e","4500","","","","",""
"html-keyboard-response","162","430062","0.0-7.0-3.25","63eaa9f8f0637c961dcfc277","bdp_wmem","Tue Mar 14 2023 15:58:32 GMT-1000 (Hawaii-Aleutian Standard Time)","637374","Match,No Match","","null","","","","","","<div class='trialBorder'><div class='vertical-center'><img src='img/fixation2_sml.jpg'</img></div></div>","null","DELAY","","","","","","","","","","",""
"html-keyboard-response","163","431556","0.0-7.0-4.25","63eaa9f8f0637c961dcfc277","bdp_wmem","Tue Mar 14 2023 15:58:32 GMT-1000 (Hawaii-Aleutian Standard Time)","637374","Match,No Match","","1491","","","","","","<div class='trialBorder'><div class='targDiv'><div class='tc'><img class='introPic' src='trustrating_stim/white_mw040.bmp'><br><font color='red'><strong>Keep</strong></font></div></div><div class='respDiv'><div class='respDivL'>Match<br>(e)</div><div class='respDivR'>No Match<br>(i)</div></div></div>","i","TARGET","3","trustrating_stim/white_mw091.bmp,trustrating_stim/white_mw038.bmp,trustrating_stim/white_mw040.bmp","0,1,0","Match","e","4500","trustrating_stim/white_mw040.bmp","red","Keep","REAL","0"
"html-keyboard-response","164","432062","0.0-7.0-5.25","63eaa9f8f0637c961dcfc277","bdp_wmem","Tue Mar 14 2023 15:58:32 GMT-1000 (Hawaii-Aleutian Standard Time)","637374","Match,No Match","","null","","","","","","<div class='trialBorder'><div class='vertical-center'><img src='img/error.jpg'></div><div class='respDiv'><div class='respDivL'>Match<br>(e)</div><div class='respDivR'><font style='color:orange'>No Match<br>(i)</font></div></div></div>","null","FEEDBACK","","","","","","","","","","",""
"html-keyboard-response","165","432572","0.0-7.0-1.26","63eaa9f8f0637c961dcfc277","bdp_wmem","Tue Mar 14 2023 15:58:32 GMT-1000 (Hawaii-Aleutian Standard Time)","637374","Match,No Match","","null","","","","","","<div class='trialBorder'><div class='vertical-center'><img src='img/fixation2_sml.jpg'</img></div></div>","null","FIX","","","","","","","","","","",""
"html-keyboard-response","166","437077","0.0-7.0-2.26","63eaa9f8f0637c961dcfc277","bdp_wmem","Tue Mar 14 2023 15:58:32 GMT-1000 (Hawaii-Aleutian Standard Time)","637374","Match,No Match","","null","","","","","","<div class='trialBorder'><div class='vertical-center'><img style='vertical-align:center; align:center' src='img/fixation2_sml.jpg'></div><div class='arrayDiv3'><div class='tl'><img class='introPic' src='trustrating_stim/white_mw091.bmp'><br><font color='green'><strong>Share</strong></font></div><div class='tc'><img class='introPic' src='trustrating_stim/white_mw003.bmp'><br><font color='red'><strong>Keep</strong></font></div><div class='tr'><img class='introPic' src='trustrating_stim/white_mw010.bmp'><br><font color='red'><strong>Keep</strong></font></div></div></div>","null","ARRAY","3","trustrating_stim/white_mw091.bmp,trustrating_stim/white_mw003.bmp,trustrating_stim/white_mw010.bmp","1,0,0","noMatchOutcome","i","4500","","","","",""
"html-keyboard-response","167","441086","0.0-7.0-3.26","63eaa9f8f0637c961dcfc277","bdp_wmem","Tue Mar 14 2023 15:58:32 GMT-1000 (Hawaii-Aleutian Standard Time)","637374","Match,No Match","","null","","","","","","<div class='trialBorder'><div class='vertical-center'><img src='img/fixation2_sml.jpg'</img></div></div>","null","DELAY","","","","","","","","","","",""
"html-keyboard-response","168","442526","0.0-7.0-4.26","63eaa9f8f0637c961dcfc277","bdp_wmem","Tue Mar 14 2023 15:58:32 GMT-1000 (Hawaii-Aleutian Standard Time)","637374","Match,No Match","","1437","","","","","","<div class='trialBorder'><div class='targDiv'><div class='tc'><img class='introPic' src='trustrating_stim/white_mw091.bmp'><br><font color='red'><strong>Keep</strong></font></div></div><div class='respDiv'><div class='respDivL'>Match<br>(e)</div><div class='respDivR'>No Match<br>(i)</div></div></div>","i","TARGET","3","trustrating_stim/white_mw091.bmp,trustrating_stim/white_mw003.bmp,trustrating_stim/white_mw010.bmp","1,0,0","noMatchOutcome","i","4500","trustrating_stim/white_mw091.bmp","red","Keep","REAL","1"
"html-keyboard-response","169","443029","0.0-7.0-5.26","63eaa9f8f0637c961dcfc277","bdp_wmem","Tue Mar 14 2023 15:58:32 GMT-1000 (Hawaii-Aleutian Standard Time)","637374","Match,No Match","","null","","","","","","<div class='trialBorder'><div class='vertical-center'><img src='img/correct.jpg'></div><div class='respDiv'><div class='respDivL'>Match<br>(e)</div><div class='respDivR'><font style='color:orange'>No Match<br>(i)</font></div></div></div>","null","FEEDBACK","","","","","","","","","","",""
"html-keyboard-response","170","443538","0.0-7.0-1.27","63eaa9f8f0637c961dcfc277","bdp_wmem","Tue Mar 14 2023 15:58:32 GMT-1000 (Hawaii-Aleutian Standard Time)","637374","Match,No Match","","null","","","","","","<div class='trialBorder'><div class='vertical-center'><img src='img/fixation2_sml.jpg'</img></div></div>","null","FIX","","","","","","","","","","",""
"html-keyboard-response","171","445042","0.0-7.0-2.27","63eaa9f8f0637c961dcfc277","bdp_wmem","Tue Mar 14 2023 15:58:32 GMT-1000 (Hawaii-Aleutian Standard Time)","637374","Match,No Match","","null","","","","","","<div class='trialBorder'><div class='vertical-center'><img style='vertical-align:center; align:center' src='img/fixation2_sml.jpg'></div><div class='arrayDiv1'><div class='tc'><img class='introPic' src='trustrating_stim/white_mw085.bmp'><br><font color='red'><strong>Keep</strong></font></div></div></div>","null","ARRAY","1","trustrating_stim/white_mw085.bmp","0","Match","e","1500","","","","",""
"html-keyboard-response","172","449049","0.0-7.0-3.27","63eaa9f8f0637c961dcfc277","bdp_wmem","Tue Mar 14 2023 15:58:32 GMT-1000 (Hawaii-Aleutian Standard Time)","637374","Match,No Match","","null","","","","","","<div class='trialBorder'><div class='vertical-center'><img src='img/fixation2_sml.jpg'</img></div></div>","null","DELAY","","","","","","","","","","",""
"html-keyboard-response","173","450797","0.0-7.0-4.27","63eaa9f8f0637c961dcfc277","bdp_wmem","Tue Mar 14 2023 15:58:32 GMT-1000 (Hawaii-Aleutian Standard Time)","637374","Match,No Match","","1746","","","","","","<div class='trialBorder'><div class='targDiv'><div class='tc'><img class='introPic' src='trustrating_stim/white_mw085.bmp'><br><font color='red'><strong>Keep</strong></font></div></div><div class='respDiv'><div class='respDivL'>Match<br>(e)</div><div class='respDivR'>No Match<br>(i)</div></div></div>","e","TARGET","1","trustrating_stim/white_mw085.bmp","0","Match","e","1500","trustrating_stim/white_mw085.bmp","red","Keep","REAL","1"
"html-keyboard-response","174","451307","0.0-7.0-5.27","63eaa9f8f0637c961dcfc277","bdp_wmem","Tue Mar 14 2023 15:58:32 GMT-1000 (Hawaii-Aleutian Standard Time)","637374","Match,No Match","","null","","","","","","<div class='trialBorder'><div class='vertical-center'><img src='img/correct.jpg'></div><div class='respDiv'><div class='respDivL'><font style='color:orange'>Match<br>(e)</font></div><div class='respDivR'>No Match<br>(i)</div></div></div>","null","FEEDBACK","","","","","","","","","","",""
"html-keyboard-response","175","451817","0.0-7.0-1.28","63eaa9f8f0637c961dcfc277","bdp_wmem","Tue Mar 14 2023 15:58:32 GMT-1000 (Hawaii-Aleutian Standard Time)","637374","Match,No Match","","null","","","","","","<div class='trialBorder'><div class='vertical-center'><img src='img/fixation2_sml.jpg'</img></div></div>","null","FIX","","","","","","","","","","",""
"html-keyboard-response","176","453324","0.0-7.0-2.28","63eaa9f8f0637c961dcfc277","bdp_wmem","Tue Mar 14 2023 15:58:32 GMT-1000 (Hawaii-Aleutian Standard Time)","637374","Match,No Match","","null","","","","","","<div class='trialBorder'><div class='vertical-center'><img style='vertical-align:center; align:center' src='img/fixation2_sml.jpg'></div><div class='arrayDiv1'><div class='tc'><img class='introPic' src='trustrating_stim/white_mw013.bmp'><br><font color='red'><strong>Keep</strong></font></div></div></div>","null","ARRAY","1","trustrating_stim/white_mw013.bmp","0","Match","e","1500","","","","",""
"html-keyboard-response","177","457329","0.0-7.0-3.28","63eaa9f8f0637c961dcfc277","bdp_wmem","Tue Mar 14 2023 15:58:32 GMT-1000 (Hawaii-Aleutian Standard Time)","637374","Match,No Match","","null","","","","","","<div class='trialBorder'><div class='vertical-center'><img src='img/fixation2_sml.jpg'</img></div></div>","null","DELAY","","","","","","","","","","",""
"html-keyboard-response","178","458638","0.0-7.0-4.28","63eaa9f8f0637c961dcfc277","bdp_wmem","Tue Mar 14 2023 15:58:32 GMT-1000 (Hawaii-Aleutian Standard Time)","637374","Match,No Match","","1306","","","","","","<div class='trialBorder'><div class='targDiv'><div class='tc'><img class='introPic' src='trustrating_stim/white_mw013.bmp'><br><font color='red'><strong>Keep</strong></font></div></div><div class='respDiv'><div class='respDivL'>Match<br>(e)</div><div class='respDivR'>No Match<br>(i)</div></div></div>","e","TARGET","1","trustrating_stim/white_mw013.bmp","0","Match","e","1500","trustrating_stim/white_mw013.bmp","red","Keep","REAL","1"
"html-keyboard-response","179","459145","0.0-7.0-5.28","63eaa9f8f0637c961dcfc277","bdp_wmem","Tue Mar 14 2023 15:58:32 GMT-1000 (Hawaii-Aleutian Standard Time)","637374","Match,No Match","","null","","","","","","<div class='trialBorder'><div class='vertical-center'><img src='img/correct.jpg'></div><div class='respDiv'><div class='respDivL'><font style='color:orange'>Match<br>(e)</font></div><div class='respDivR'>No Match<br>(i)</div></div></div>","null","FEEDBACK","","","","","","","","","","",""
"html-keyboard-response","180","459648","0.0-7.0-1.29","63eaa9f8f0637c961dcfc277","bdp_wmem","Tue Mar 14 2023 15:58:32 GMT-1000 (Hawaii-Aleutian Standard Time)","637374","Match,No Match","","null","","","","","","<div class='trialBorder'><div class='vertical-center'><img src='img/fixation2_sml.jpg'</img></div></div>","null","FIX","","","","","","","","","","",""
"html-keyboard-response","181","461159","0.0-7.0-2.29","63eaa9f8f0637c961dcfc277","bdp_wmem","Tue Mar 14 2023 15:58:32 GMT-1000 (Hawaii-Aleutian Standard Time)","637374","Match,No Match","","null","","","","","","<div class='trialBorder'><div class='vertical-center'><img style='vertical-align:center; align:center' src='img/fixation2_sml.jpg'></div><div class='arrayDiv1'><div class='tc'><img class='introPic' src='trustrating_stim/white_mw010.bmp'><br><font color='green'><strong>Share</strong></font></div></div></div>","null","ARRAY","1","trustrating_stim/white_mw010.bmp","1","Match","e","1500","","","","",""
"html-keyboard-response","182","465162","0.0-7.0-3.29","63eaa9f8f0637c961dcfc277","bdp_wmem","Tue Mar 14 2023 15:58:32 GMT-1000 (Hawaii-Aleutian Standard Time)","637374","Match,No Match","","null","","","","","","<div class='trialBorder'><div class='vertical-center'><img src='img/fixation2_sml.jpg'</img></div></div>","null","DELAY","","","","","","","","","","",""
"html-keyboard-response","183","466232","0.0-7.0-4.29","63eaa9f8f0637c961dcfc277","bdp_wmem","Tue Mar 14 2023 15:58:32 GMT-1000 (Hawaii-Aleutian Standard Time)","637374","Match,No Match","","1067","","","","","","<div class='trialBorder'><div class='targDiv'><div class='tc'><img class='introPic' src='trustrating_stim/white_mw010.bmp'><br><font color='green'><strong>Share</strong></font></div></div><div class='respDiv'><div class='respDivL'>Match<br>(e)</div><div class='respDivR'>No Match<br>(i)</div></div></div>","e","TARGET","1","trustrating_stim/white_mw010.bmp","1","Match","e","1500","trustrating_stim/white_mw010.bmp","green","Share","REAL","1"
"html-keyboard-response","184","466735","0.0-7.0-5.29","63eaa9f8f0637c961dcfc277","bdp_wmem","Tue Mar 14 2023 15:58:32 GMT-1000 (Hawaii-Aleutian Standard Time)","637374","Match,No Match","","null","","","","","","<div class='trialBorder'><div class='vertical-center'><img src='img/correct.jpg'></div><div class='respDiv'><div class='respDivL'><font style='color:orange'>Match<br>(e)</font></div><div class='respDivR'>No Match<br>(i)</div></div></div>","null","FEEDBACK","","","","","","","","","","",""
