"trial_type","trial_index","time_elapsed","internal_node_id","subject_id","task","startTime","totalTime","labels","view_history","rt","event","trial","time","trialtype","success","stimulus","key_press","stimType","arraySize","arrayFaces","arrayOutcomes","matchType","corrResp","arrayDur","targFace","targCol","targOutcome","trialType","corr"
"pavlovia","0","3","0.0-0.0","63d81e2fb6c8f0da25fea602","bdp_wmem","Mon Mar 13 2023 13:48:07 GMT-0500 (Central Daylight Time)","682415","Match,No Match","","","","","","","","","","","","","","","","","","","","",""
"instructions","1","5081","0.0-1.0","63d81e2fb6c8f0da25fea602","bdp_wmem","Mon Mar 13 2023 13:48:07 GMT-0500 (Central Daylight Time)","682415","Match,No Match","[{""page_index"":0,""viewing_time"":5078}]","5078","","","","","","","","","","","","","","","","","","",""
"","","","","63d81e2fb6c8f0da25fea602","bdp_wmem","Mon Mar 13 2023 13:48:07 GMT-0500 (Central Daylight Time)","682415","Match,No Match","","","fullscreenenter","2","7838","fullscreenenter","","","","","","","","","","","","","","",""
"fullscreen","2","8794","0.0-2.0","63d81e2fb6c8f0da25fea602","bdp_wmem","Mon Mar 13 2023 13:48:07 GMT-0500 (Central Daylight Time)","682415","Match,No Match","","","","","","","true","","","","","","","","","","","","","",""
"instructions","3","177408","0.0-4.0","63d81e2fb6c8f0da25fea602","bdp_wmem","Mon Mar 13 2023 13:48:07 GMT-0500 (Central Daylight Time)","682415","Match,No Match","[{""page_index"":0,""viewing_time"":70103},{""page_index"":1,""viewing_time"":77652},{""page_index"":2,""viewing_time"":9288},{""page_index"":3,""viewing_time"":2743},{""page_index"":4,""viewing_time"":8823}]","168610","","","","","","","","","","","","","","","","","","",""
"html-keyboard-response","4","177910","0.0-5.0-1.0","63d81e2fb6c8f0da25fea602","bdp_wmem","Mon Mar 13 2023 13:48:07 GMT-0500 (Central Daylight Time)","682415","Match,No Match","","null","","","","","","<div class='trialBorder'><div class='vertical-center'><img src='img/fixation2_sml.jpg'</img></div></div>","null","FIX","","","","","","","","","","",""
"html-keyboard-response","5","179413","0.0-5.0-2.0","63d81e2fb6c8f0da25fea602","bdp_wmem","Mon Mar 13 2023 13:48:07 GMT-0500 (Central Daylight Time)","682415","Match,No Match","","null","","","","","","<div class='trialBorder'><div class='vertical-center'><img style='vertical-align:center; align:center' src='img/fixation2_sml.jpg'></div><div class='arrayDiv1'><div class='tc'><img class='introPic' src='trustrating_stim/white_mw042.bmp'><br><font color='green'><strong>Share</strong></font></div></div></div>","null","ARRAY","1","trustrating_stim/white_mw042.bmp","1","Match","e","1500","","","","",""
"html-keyboard-response","6","183415","0.0-5.0-3.0","63d81e2fb6c8f0da25fea602","bdp_wmem","Mon Mar 13 2023 13:48:07 GMT-0500 (Central Daylight Time)","682415","Match,No Match","","null","","","","","","<div class='trialBorder'><div class='vertical-center'><img src='img/fixation2_sml.jpg'</img></div></div>","null","DELAY","","","","","","","","","","",""
"html-keyboard-response","7","184445","0.0-5.0-4.0","63d81e2fb6c8f0da25fea602","bdp_wmem","Mon Mar 13 2023 13:48:07 GMT-0500 (Central Daylight Time)","682415","Match,No Match","","1027","","","","","","<div class='trialBorder'><div class='targDiv'><div class='tc'><img class='introPic' src='trustrating_stim/white_mw042.bmp'><br><font color='green'><strong>Share</strong></font></div></div><div class='respDiv'><div class='respDivL'>Match<br>(e)</div><div class='respDivR'>No Match<br>(i)</div></div></div>","e","TARGET","1","trustrating_stim/white_mw042.bmp","1","Match","e","1500","trustrating_stim/white_mw042.bmp","green","Share","PRACTICE","1"
"html-keyboard-response","8","184946","0.0-5.0-5.0","63d81e2fb6c8f0da25fea602","bdp_wmem","Mon Mar 13 2023 13:48:07 GMT-0500 (Central Daylight Time)","682415","Match,No Match","","null","","","","","","<div class='trialBorder'><div class='vertical-center'><img src='img/correct.jpg'></div><div class='respDiv'><div class='respDivL'><font style='color:orange'>Match<br>(e)</font></div><div class='respDivR'>No Match<br>(i)</div></div></div>","null","FEEDBACK","","","","","","","","","","",""
"html-keyboard-response","9","185448","0.0-5.0-1.1","63d81e2fb6c8f0da25fea602","bdp_wmem","Mon Mar 13 2023 13:48:07 GMT-0500 (Central Daylight Time)","682415","Match,No Match","","null","","","","","","<div class='trialBorder'><div class='vertical-center'><img src='img/fixation2_sml.jpg'</img></div></div>","null","FIX","","","","","","","","","","",""
"html-keyboard-response","10","189950","0.0-5.0-2.1","63d81e2fb6c8f0da25fea602","bdp_wmem","Mon Mar 13 2023 13:48:07 GMT-0500 (Central Daylight Time)","682415","Match,No Match","","null","","","","","","<div class='trialBorder'><div class='vertical-center'><img style='vertical-align:center; align:center' src='img/fixation2_sml.jpg'></div><div class='arrayDiv3'><div class='tl'><img class='introPic' src='trustrating_stim/white_mw040.bmp'><br><font color='red'><strong>Keep</strong></font></div><div class='tc'><img class='introPic' src='trustrating_stim/white_mw070.bmp'><br><font color='green'><strong>Share</strong></font></div><div class='tr'><img class='introPic' src='trustrating_stim/white_mw085.bmp'><br><font color='green'><strong>Share</strong></font></div></div></div>","null","ARRAY","3","trustrating_stim/white_mw040.bmp,trustrating_stim/white_mw070.bmp,trustrating_stim/white_mw085.bmp","0,1,1","noMatchOutcome","i","4500","","","","",""
"html-keyboard-response","11","193952","0.0-5.0-3.1","63d81e2fb6c8f0da25fea602","bdp_wmem","Mon Mar 13 2023 13:48:07 GMT-0500 (Central Daylight Time)","682415","Match,No Match","","null","","","","","","<div class='trialBorder'><div class='vertical-center'><img src='img/fixation2_sml.jpg'</img></div></div>","null","DELAY","","","","","","","","","","",""
"html-keyboard-response","12","195355","0.0-5.0-4.1","63d81e2fb6c8f0da25fea602","bdp_wmem","Mon Mar 13 2023 13:48:07 GMT-0500 (Central Daylight Time)","682415","Match,No Match","","1402","","","","","","<div class='trialBorder'><div class='targDiv'><div class='tc'><img class='introPic' src='trustrating_stim/white_mw085.bmp'><br><font color='red'><strong>Keep</strong></font></div></div><div class='respDiv'><div class='respDivL'>Match<br>(e)</div><div class='respDivR'>No Match<br>(i)</div></div></div>","e","TARGET","3","trustrating_stim/white_mw040.bmp,trustrating_stim/white_mw070.bmp,trustrating_stim/white_mw085.bmp","0,1,1","noMatchOutcome","i","4500","trustrating_stim/white_mw085.bmp","red","Keep","PRACTICE","0"
"html-keyboard-response","13","195857","0.0-5.0-5.1","63d81e2fb6c8f0da25fea602","bdp_wmem","Mon Mar 13 2023 13:48:07 GMT-0500 (Central Daylight Time)","682415","Match,No Match","","null","","","","","","<div class='trialBorder'><div class='vertical-center'><img src='img/error.jpg'></div><div class='respDiv'><div class='respDivL'><font style='color:orange'>Match<br>(e)</font></div><div class='respDivR'>No Match<br>(i)</div></div></div>","null","FEEDBACK","","","","","","","","","","",""
"html-keyboard-response","14","196359","0.0-5.0-1.2","63d81e2fb6c8f0da25fea602","bdp_wmem","Mon Mar 13 2023 13:48:07 GMT-0500 (Central Daylight Time)","682415","Match,No Match","","null","","","","","","<div class='trialBorder'><div class='vertical-center'><img src='img/fixation2_sml.jpg'</img></div></div>","null","FIX","","","","","","","","","","",""
"html-keyboard-response","15","200861","0.0-5.0-2.2","63d81e2fb6c8f0da25fea602","bdp_wmem","Mon Mar 13 2023 13:48:07 GMT-0500 (Central Daylight Time)","682415","Match,No Match","","null","","","","","","<div class='trialBorder'><div class='vertical-center'><img style='vertical-align:center; align:center' src='img/fixation2_sml.jpg'></div><div class='arrayDiv3'><div class='tl'><img class='introPic' src='trustrating_stim/white_mw078.bmp'><br><font color='green'><strong>Share</strong></font></div><div class='tc'><img class='introPic' src='trustrating_stim/white_mw070.bmp'><br><font color='red'><strong>Keep</strong></font></div><div class='tr'><img class='introPic' src='trustrating_stim/white_mw091.bmp'><br><font color='green'><strong>Share</strong></font></div></div></div>","null","ARRAY","3","trustrating_stim/white_mw078.bmp,trustrating_stim/white_mw070.bmp,trustrating_stim/white_mw091.bmp","1,0,1","Match","e","4500","","","","",""
"html-keyboard-response","16","204862","0.0-5.0-3.2","63d81e2fb6c8f0da25fea602","bdp_wmem","Mon Mar 13 2023 13:48:07 GMT-0500 (Central Daylight Time)","682415","Match,No Match","","null","","","","","","<div class='trialBorder'><div class='vertical-center'><img src='img/fixation2_sml.jpg'</img></div></div>","null","DELAY","","","","","","","","","","",""
"html-keyboard-response","17","206228","0.0-5.0-4.2","63d81e2fb6c8f0da25fea602","bdp_wmem","Mon Mar 13 2023 13:48:07 GMT-0500 (Central Daylight Time)","682415","Match,No Match","","1365","","","","","","<div class='trialBorder'><div class='targDiv'><div class='tc'><img class='introPic' src='trustrating_stim/white_mw091.bmp'><br><font color='green'><strong>Share</strong></font></div></div><div class='respDiv'><div class='respDivL'>Match<br>(e)</div><div class='respDivR'>No Match<br>(i)</div></div></div>","e","TARGET","3","trustrating_stim/white_mw078.bmp,trustrating_stim/white_mw070.bmp,trustrating_stim/white_mw091.bmp","1,0,1","Match","e","4500","trustrating_stim/white_mw091.bmp","green","Share","PRACTICE","1"
"html-keyboard-response","18","206730","0.0-5.0-5.2","63d81e2fb6c8f0da25fea602","bdp_wmem","Mon Mar 13 2023 13:48:07 GMT-0500 (Central Daylight Time)","682415","Match,No Match","","null","","","","","","<div class='trialBorder'><div class='vertical-center'><img src='img/correct.jpg'></div><div class='respDiv'><div class='respDivL'><font style='color:orange'>Match<br>(e)</font></div><div class='respDivR'>No Match<br>(i)</div></div></div>","null","FEEDBACK","","","","","","","","","","",""
"html-keyboard-response","19","207232","0.0-5.0-1.3","63d81e2fb6c8f0da25fea602","bdp_wmem","Mon Mar 13 2023 13:48:07 GMT-0500 (Central Daylight Time)","682415","Match,No Match","","null","","","","","","<div class='trialBorder'><div class='vertical-center'><img src='img/fixation2_sml.jpg'</img></div></div>","null","FIX","","","","","","","","","","",""
"html-keyboard-response","20","210234","0.0-5.0-2.3","63d81e2fb6c8f0da25fea602","bdp_wmem","Mon Mar 13 2023 13:48:07 GMT-0500 (Central Daylight Time)","682415","Match,No Match","","null","","","","","","<div class='trialBorder'><div class='vertical-center'><img style='vertical-align:center; align:center' src='img/fixation2_sml.jpg'></div><div class='arrayDiv2'><div class='tl'><img class='introPic' src='trustrating_stim/white_mw070.bmp'><br><font color='red'><strong>Keep</strong></font></div><div class='tr'><img class='introPic' src='trustrating_stim/white_mw013.bmp'><br><font color='green'><strong>Share</strong></font></div></div></div>","null","ARRAY","2","trustrating_stim/white_mw070.bmp,trustrating_stim/white_mw013.bmp","0,1","noMatchOutcome","i","3000","","","","",""
"html-keyboard-response","21","214236","0.0-5.0-3.3","63d81e2fb6c8f0da25fea602","bdp_wmem","Mon Mar 13 2023 13:48:07 GMT-0500 (Central Daylight Time)","682415","Match,No Match","","null","","","","","","<div class='trialBorder'><div class='vertical-center'><img src='img/fixation2_sml.jpg'</img></div></div>","null","DELAY","","","","","","","","","","",""
"html-keyboard-response","22","215557","0.0-5.0-4.3","63d81e2fb6c8f0da25fea602","bdp_wmem","Mon Mar 13 2023 13:48:07 GMT-0500 (Central Daylight Time)","682415","Match,No Match","","1319","","","","","","<div class='trialBorder'><div class='targDiv'><div class='tc'><img class='introPic' src='trustrating_stim/white_mw013.bmp'><br><font color='red'><strong>Keep</strong></font></div></div><div class='respDiv'><div class='respDivL'>Match<br>(e)</div><div class='respDivR'>No Match<br>(i)</div></div></div>","i","TARGET","2","trustrating_stim/white_mw070.bmp,trustrating_stim/white_mw013.bmp","0,1","noMatchOutcome","i","3000","trustrating_stim/white_mw013.bmp","red","Keep","PRACTICE","1"
"html-keyboard-response","23","216058","0.0-5.0-5.3","63d81e2fb6c8f0da25fea602","bdp_wmem","Mon Mar 13 2023 13:48:07 GMT-0500 (Central Daylight Time)","682415","Match,No Match","","null","","","","","","<div class='trialBorder'><div class='vertical-center'><img src='img/correct.jpg'></div><div class='respDiv'><div class='respDivL'>Match<br>(e)</div><div class='respDivR'><font style='color:orange'>No Match<br>(i)</font></div></div></div>","null","FEEDBACK","","","","","","","","","","",""
"html-keyboard-response","24","216560","0.0-5.0-1.4","63d81e2fb6c8f0da25fea602","bdp_wmem","Mon Mar 13 2023 13:48:07 GMT-0500 (Central Daylight Time)","682415","Match,No Match","","null","","","","","","<div class='trialBorder'><div class='vertical-center'><img src='img/fixation2_sml.jpg'</img></div></div>","null","FIX","","","","","","","","","","",""
"html-keyboard-response","25","218062","0.0-5.0-2.4","63d81e2fb6c8f0da25fea602","bdp_wmem","Mon Mar 13 2023 13:48:07 GMT-0500 (Central Daylight Time)","682415","Match,No Match","","null","","","","","","<div class='trialBorder'><div class='vertical-center'><img style='vertical-align:center; align:center' src='img/fixation2_sml.jpg'></div><div class='arrayDiv1'><div class='tc'><img class='introPic' src='trustrating_stim/white_mw091.bmp'><br><font color='red'><strong>Keep</strong></font></div></div></div>","null","ARRAY","1","trustrating_stim/white_mw091.bmp","0","noMatchFace","i","1500","","","","",""
"html-keyboard-response","26","222065","0.0-5.0-3.4","63d81e2fb6c8f0da25fea602","bdp_wmem","Mon Mar 13 2023 13:48:07 GMT-0500 (Central Daylight Time)","682415","Match,No Match","","null","","","","","","<div class='trialBorder'><div class='vertical-center'><img src='img/fixation2_sml.jpg'</img></div></div>","null","DELAY","","","","","","","","","","",""
"html-keyboard-response","27","223340","0.0-5.0-4.4","63d81e2fb6c8f0da25fea602","bdp_wmem","Mon Mar 13 2023 13:48:07 GMT-0500 (Central Daylight Time)","682415","Match,No Match","","1274","","","","","","<div class='trialBorder'><div class='targDiv'><div class='tc'><img class='introPic' src='trustrating_stim/white_mw003.bmp'><br><font color='red'><strong>Keep</strong></font></div></div><div class='respDiv'><div class='respDivL'>Match<br>(e)</div><div class='respDivR'>No Match<br>(i)</div></div></div>","i","TARGET","1","trustrating_stim/white_mw091.bmp","0","noMatchFace","i","1500","trustrating_stim/white_mw003.bmp","red","Keep","PRACTICE","1"
"html-keyboard-response","28","223841","0.0-5.0-5.4","63d81e2fb6c8f0da25fea602","bdp_wmem","Mon Mar 13 2023 13:48:07 GMT-0500 (Central Daylight Time)","682415","Match,No Match","","null","","","","","","<div class='trialBorder'><div class='vertical-center'><img src='img/correct.jpg'></div><div class='respDiv'><div class='respDivL'>Match<br>(e)</div><div class='respDivR'><font style='color:orange'>No Match<br>(i)</font></div></div></div>","null","FEEDBACK","","","","","","","","","","",""
"html-keyboard-response","29","224342","0.0-5.0-1.5","63d81e2fb6c8f0da25fea602","bdp_wmem","Mon Mar 13 2023 13:48:07 GMT-0500 (Central Daylight Time)","682415","Match,No Match","","null","","","","","","<div class='trialBorder'><div class='vertical-center'><img src='img/fixation2_sml.jpg'</img></div></div>","null","FIX","","","","","","","","","","",""
"html-keyboard-response","30","227344","0.0-5.0-2.5","63d81e2fb6c8f0da25fea602","bdp_wmem","Mon Mar 13 2023 13:48:07 GMT-0500 (Central Daylight Time)","682415","Match,No Match","","null","","","","","","<div class='trialBorder'><div class='vertical-center'><img style='vertical-align:center; align:center' src='img/fixation2_sml.jpg'></div><div class='arrayDiv2'><div class='tl'><img class='introPic' src='trustrating_stim/white_mw003.bmp'><br><font color='red'><strong>Keep</strong></font></div><div class='tr'><img class='introPic' src='trustrating_stim/white_mw038.bmp'><br><font color='green'><strong>Share</strong></font></div></div></div>","null","ARRAY","2","trustrating_stim/white_mw003.bmp,trustrating_stim/white_mw038.bmp","0,1","Match","e","3000","","","","",""
"html-keyboard-response","31","231345","0.0-5.0-3.5","63d81e2fb6c8f0da25fea602","bdp_wmem","Mon Mar 13 2023 13:48:07 GMT-0500 (Central Daylight Time)","682415","Match,No Match","","null","","","","","","<div class='trialBorder'><div class='vertical-center'><img src='img/fixation2_sml.jpg'</img></div></div>","null","DELAY","","","","","","","","","","",""
"html-keyboard-response","32","232678","0.0-5.0-4.5","63d81e2fb6c8f0da25fea602","bdp_wmem","Mon Mar 13 2023 13:48:07 GMT-0500 (Central Daylight Time)","682415","Match,No Match","","1332","","","","","","<div class='trialBorder'><div class='targDiv'><div class='tc'><img class='introPic' src='trustrating_stim/white_mw003.bmp'><br><font color='red'><strong>Keep</strong></font></div></div><div class='respDiv'><div class='respDivL'>Match<br>(e)</div><div class='respDivR'>No Match<br>(i)</div></div></div>","e","TARGET","2","trustrating_stim/white_mw003.bmp,trustrating_stim/white_mw038.bmp","0,1","Match","e","3000","trustrating_stim/white_mw003.bmp","red","Keep","PRACTICE","1"
"html-keyboard-response","33","233180","0.0-5.0-5.5","63d81e2fb6c8f0da25fea602","bdp_wmem","Mon Mar 13 2023 13:48:07 GMT-0500 (Central Daylight Time)","682415","Match,No Match","","null","","","","","","<div class='trialBorder'><div class='vertical-center'><img src='img/correct.jpg'></div><div class='respDiv'><div class='respDivL'><font style='color:orange'>Match<br>(e)</font></div><div class='respDivR'>No Match<br>(i)</div></div></div>","null","FEEDBACK","","","","","","","","","","",""
"instructions","34","235206","0.0-6.0","63d81e2fb6c8f0da25fea602","bdp_wmem","Mon Mar 13 2023 13:48:07 GMT-0500 (Central Daylight Time)","682415","Match,No Match","[{""page_index"":0,""viewing_time"":2026}]","2026","","","","","","","","","","","","","","","","","","",""
"html-keyboard-response","35","235707","0.0-7.0-1.0","63d81e2fb6c8f0da25fea602","bdp_wmem","Mon Mar 13 2023 13:48:07 GMT-0500 (Central Daylight Time)","682415","Match,No Match","","null","","","","","","<div class='trialBorder'><div class='vertical-center'><img src='img/fixation2_sml.jpg'</img></div></div>","null","FIX","","","","","","","","","","",""
"html-keyboard-response","36","240209","0.0-7.0-2.0","63d81e2fb6c8f0da25fea602","bdp_wmem","Mon Mar 13 2023 13:48:07 GMT-0500 (Central Daylight Time)","682415","Match,No Match","","null","","","","","","<div class='trialBorder'><div class='vertical-center'><img style='vertical-align:center; align:center' src='img/fixation2_sml.jpg'></div><div class='arrayDiv3'><div class='tl'><img class='introPic' src='trustrating_stim/white_mw040.bmp'><br><font color='green'><strong>Share</strong></font></div><div class='tc'><img class='introPic' src='trustrating_stim/white_mw042.bmp'><br><font color='red'><strong>Keep</strong></font></div><div class='tr'><img class='introPic' src='trustrating_stim/white_mw038.bmp'><br><font color='green'><strong>Share</strong></font></div></div></div>","null","ARRAY","3","trustrating_stim/white_mw040.bmp,trustrating_stim/white_mw042.bmp,trustrating_stim/white_mw038.bmp","1,0,1","Match","e","4500","","","","",""
"html-keyboard-response","37","244212","0.0-7.0-3.0","63d81e2fb6c8f0da25fea602","bdp_wmem","Mon Mar 13 2023 13:48:07 GMT-0500 (Central Daylight Time)","682415","Match,No Match","","null","","","","","","<div class='trialBorder'><div class='vertical-center'><img src='img/fixation2_sml.jpg'</img></div></div>","null","DELAY","","","","","","","","","","",""
"html-keyboard-response","38","245733","0.0-7.0-4.0","63d81e2fb6c8f0da25fea602","bdp_wmem","Mon Mar 13 2023 13:48:07 GMT-0500 (Central Daylight Time)","682415","Match,No Match","","1520","","","","","","<div class='trialBorder'><div class='targDiv'><div class='tc'><img class='introPic' src='trustrating_stim/white_mw040.bmp'><br><font color='green'><strong>Share</strong></font></div></div><div class='respDiv'><div class='respDivL'>Match<br>(e)</div><div class='respDivR'>No Match<br>(i)</div></div></div>","e","TARGET","3","trustrating_stim/white_mw040.bmp,trustrating_stim/white_mw042.bmp,trustrating_stim/white_mw038.bmp","1,0,1","Match","e","4500","trustrating_stim/white_mw040.bmp","green","Share","REAL","1"
"html-keyboard-response","39","246234","0.0-7.0-5.0","63d81e2fb6c8f0da25fea602","bdp_wmem","Mon Mar 13 2023 13:48:07 GMT-0500 (Central Daylight Time)","682415","Match,No Match","","null","","","","","","<div class='trialBorder'><div class='vertical-center'><img src='img/correct.jpg'></div><div class='respDiv'><div class='respDivL'><font style='color:orange'>Match<br>(e)</font></div><div class='respDivR'>No Match<br>(i)</div></div></div>","null","FEEDBACK","","","","","","","","","","",""
"html-keyboard-response","40","246735","0.0-7.0-1.1","63d81e2fb6c8f0da25fea602","bdp_wmem","Mon Mar 13 2023 13:48:07 GMT-0500 (Central Daylight Time)","682415","Match,No Match","","null","","","","","","<div class='trialBorder'><div class='vertical-center'><img src='img/fixation2_sml.jpg'</img></div></div>","null","FIX","","","","","","","","","","",""
"html-keyboard-response","41","251237","0.0-7.0-2.1","63d81e2fb6c8f0da25fea602","bdp_wmem","Mon Mar 13 2023 13:48:07 GMT-0500 (Central Daylight Time)","682415","Match,No Match","","null","","","","","","<div class='trialBorder'><div class='vertical-center'><img style='vertical-align:center; align:center' src='img/fixation2_sml.jpg'></div><div class='arrayDiv3'><div class='tl'><img class='introPic' src='trustrating_stim/white_mw070.bmp'><br><font color='green'><strong>Share</strong></font></div><div class='tc'><img class='introPic' src='trustrating_stim/white_mw091.bmp'><br><font color='red'><strong>Keep</strong></font></div><div class='tr'><img class='introPic' src='trustrating_stim/white_mw042.bmp'><br><font color='red'><strong>Keep</strong></font></div></div></div>","null","ARRAY","3","trustrating_stim/white_mw070.bmp,trustrating_stim/white_mw091.bmp,trustrating_stim/white_mw042.bmp","1,0,0","noMatchFace","i","4500","","","","",""
"html-keyboard-response","42","255239","0.0-7.0-3.1","63d81e2fb6c8f0da25fea602","bdp_wmem","Mon Mar 13 2023 13:48:07 GMT-0500 (Central Daylight Time)","682415","Match,No Match","","null","","","","","","<div class='trialBorder'><div class='vertical-center'><img src='img/fixation2_sml.jpg'</img></div></div>","null","DELAY","","","","","","","","","","",""
"html-keyboard-response","43","257068","0.0-7.0-4.1","63d81e2fb6c8f0da25fea602","bdp_wmem","Mon Mar 13 2023 13:48:07 GMT-0500 (Central Daylight Time)","682415","Match,No Match","","1827","","","","","","<div class='trialBorder'><div class='targDiv'><div class='tc'><img class='introPic' src='trustrating_stim/white_mw040.bmp'><br><font color='red'><strong>Keep</strong></font></div></div><div class='respDiv'><div class='respDivL'>Match<br>(e)</div><div class='respDivR'>No Match<br>(i)</div></div></div>","e","TARGET","3","trustrating_stim/white_mw070.bmp,trustrating_stim/white_mw091.bmp,trustrating_stim/white_mw042.bmp","1,0,0","noMatchFace","i","4500","trustrating_stim/white_mw040.bmp","red","Keep","REAL","0"
"html-keyboard-response","44","257569","0.0-7.0-5.1","63d81e2fb6c8f0da25fea602","bdp_wmem","Mon Mar 13 2023 13:48:07 GMT-0500 (Central Daylight Time)","682415","Match,No Match","","null","","","","","","<div class='trialBorder'><div class='vertical-center'><img src='img/error.jpg'></div><div class='respDiv'><div class='respDivL'><font style='color:orange'>Match<br>(e)</font></div><div class='respDivR'>No Match<br>(i)</div></div></div>","null","FEEDBACK","","","","","","","","","","",""
"html-keyboard-response","45","258071","0.0-7.0-1.2","63d81e2fb6c8f0da25fea602","bdp_wmem","Mon Mar 13 2023 13:48:07 GMT-0500 (Central Daylight Time)","682415","Match,No Match","","null","","","","","","<div class='trialBorder'><div class='vertical-center'><img src='img/fixation2_sml.jpg'</img></div></div>","null","FIX","","","","","","","","","","",""
"html-keyboard-response","46","261073","0.0-7.0-2.2","63d81e2fb6c8f0da25fea602","bdp_wmem","Mon Mar 13 2023 13:48:07 GMT-0500 (Central Daylight Time)","682415","Match,No Match","","null","","","","","","<div class='trialBorder'><div class='vertical-center'><img style='vertical-align:center; align:center' src='img/fixation2_sml.jpg'></div><div class='arrayDiv2'><div class='tl'><img class='introPic' src='trustrating_stim/white_mw091.bmp'><br><font color='red'><strong>Keep</strong></font></div><div class='tr'><img class='introPic' src='trustrating_stim/white_mw092.bmp'><br><font color='green'><strong>Share</strong></font></div></div></div>","null","ARRAY","2","trustrating_stim/white_mw091.bmp,trustrating_stim/white_mw092.bmp","0,1","Match","e","3000","","","","",""
"html-keyboard-response","47","265075","0.0-7.0-3.2","63d81e2fb6c8f0da25fea602","bdp_wmem","Mon Mar 13 2023 13:48:07 GMT-0500 (Central Daylight Time)","682415","Match,No Match","","null","","","","","","<div class='trialBorder'><div class='vertical-center'><img src='img/fixation2_sml.jpg'</img></div></div>","null","DELAY","","","","","","","","","","",""
"html-keyboard-response","48","266729","0.0-7.0-4.2","63d81e2fb6c8f0da25fea602","bdp_wmem","Mon Mar 13 2023 13:48:07 GMT-0500 (Central Daylight Time)","682415","Match,No Match","","1652","","","","","","<div class='trialBorder'><div class='targDiv'><div class='tc'><img class='introPic' src='trustrating_stim/white_mw092.bmp'><br><font color='green'><strong>Share</strong></font></div></div><div class='respDiv'><div class='respDivL'>Match<br>(e)</div><div class='respDivR'>No Match<br>(i)</div></div></div>","e","TARGET","2","trustrating_stim/white_mw091.bmp,trustrating_stim/white_mw092.bmp","0,1","Match","e","3000","trustrating_stim/white_mw092.bmp","green","Share","REAL","1"
"html-keyboard-response","49","267231","0.0-7.0-5.2","63d81e2fb6c8f0da25fea602","bdp_wmem","Mon Mar 13 2023 13:48:07 GMT-0500 (Central Daylight Time)","682415","Match,No Match","","null","","","","","","<div class='trialBorder'><div class='vertical-center'><img src='img/correct.jpg'></div><div class='respDiv'><div class='respDivL'><font style='color:orange'>Match<br>(e)</font></div><div class='respDivR'>No Match<br>(i)</div></div></div>","null","FEEDBACK","","","","","","","","","","",""
"html-keyboard-response","50","267733","0.0-7.0-1.3","63d81e2fb6c8f0da25fea602","bdp_wmem","Mon Mar 13 2023 13:48:07 GMT-0500 (Central Daylight Time)","682415","Match,No Match","","null","","","","","","<div class='trialBorder'><div class='vertical-center'><img src='img/fixation2_sml.jpg'</img></div></div>","null","FIX","","","","","","","","","","",""
"html-keyboard-response","51","269235","0.0-7.0-2.3","63d81e2fb6c8f0da25fea602","bdp_wmem","Mon Mar 13 2023 13:48:07 GMT-0500 (Central Daylight Time)","682415","Match,No Match","","null","","","","","","<div class='trialBorder'><div class='vertical-center'><img style='vertical-align:center; align:center' src='img/fixation2_sml.jpg'></div><div class='arrayDiv1'><div class='tc'><img class='introPic' src='trustrating_stim/white_mw040.bmp'><br><font color='red'><strong>Keep</strong></font></div></div></div>","null","ARRAY","1","trustrating_stim/white_mw040.bmp","0","Match","e","1500","","","","",""
"html-keyboard-response","52","273237","0.0-7.0-3.3","63d81e2fb6c8f0da25fea602","bdp_wmem","Mon Mar 13 2023 13:48:07 GMT-0500 (Central Daylight Time)","682415","Match,No Match","","null","","","","","","<div class='trialBorder'><div class='vertical-center'><img src='img/fixation2_sml.jpg'</img></div></div>","null","DELAY","","","","","","","","","","",""
"html-keyboard-response","53","274117","0.0-7.0-4.3","63d81e2fb6c8f0da25fea602","bdp_wmem","Mon Mar 13 2023 13:48:07 GMT-0500 (Central Daylight Time)","682415","Match,No Match","","879","","","","","","<div class='trialBorder'><div class='targDiv'><div class='tc'><img class='introPic' src='trustrating_stim/white_mw040.bmp'><br><font color='red'><strong>Keep</strong></font></div></div><div class='respDiv'><div class='respDivL'>Match<br>(e)</div><div class='respDivR'>No Match<br>(i)</div></div></div>","e","TARGET","1","trustrating_stim/white_mw040.bmp","0","Match","e","1500","trustrating_stim/white_mw040.bmp","red","Keep","REAL","1"
"html-keyboard-response","54","274619","0.0-7.0-5.3","63d81e2fb6c8f0da25fea602","bdp_wmem","Mon Mar 13 2023 13:48:07 GMT-0500 (Central Daylight Time)","682415","Match,No Match","","null","","","","","","<div class='trialBorder'><div class='vertical-center'><img src='img/correct.jpg'></div><div class='respDiv'><div class='respDivL'><font style='color:orange'>Match<br>(e)</font></div><div class='respDivR'>No Match<br>(i)</div></div></div>","null","FEEDBACK","","","","","","","","","","",""
"html-keyboard-response","55","275121","0.0-7.0-1.4","63d81e2fb6c8f0da25fea602","bdp_wmem","Mon Mar 13 2023 13:48:07 GMT-0500 (Central Daylight Time)","682415","Match,No Match","","null","","","","","","<div class='trialBorder'><div class='vertical-center'><img src='img/fixation2_sml.jpg'</img></div></div>","null","FIX","","","","","","","","","","",""
"html-keyboard-response","56","278122","0.0-7.0-2.4","63d81e2fb6c8f0da25fea602","bdp_wmem","Mon Mar 13 2023 13:48:07 GMT-0500 (Central Daylight Time)","682415","Match,No Match","","null","","","","","","<div class='trialBorder'><div class='vertical-center'><img style='vertical-align:center; align:center' src='img/fixation2_sml.jpg'></div><div class='arrayDiv2'><div class='tl'><img class='introPic' src='trustrating_stim/white_mw003.bmp'><br><font color='red'><strong>Keep</strong></font></div><div class='tr'><img class='introPic' src='trustrating_stim/white_mw013.bmp'><br><font color='green'><strong>Share</strong></font></div></div></div>","null","ARRAY","2","trustrating_stim/white_mw003.bmp,trustrating_stim/white_mw013.bmp","0,1","noMatchOutcome","i","3000","","","","",""
"html-keyboard-response","57","282124","0.0-7.0-3.4","63d81e2fb6c8f0da25fea602","bdp_wmem","Mon Mar 13 2023 13:48:07 GMT-0500 (Central Daylight Time)","682415","Match,No Match","","null","","","","","","<div class='trialBorder'><div class='vertical-center'><img src='img/fixation2_sml.jpg'</img></div></div>","null","DELAY","","","","","","","","","","",""
"html-keyboard-response","58","283241","0.0-7.0-4.4","63d81e2fb6c8f0da25fea602","bdp_wmem","Mon Mar 13 2023 13:48:07 GMT-0500 (Central Daylight Time)","682415","Match,No Match","","1116","","","","","","<div class='trialBorder'><div class='targDiv'><div class='tc'><img class='introPic' src='trustrating_stim/white_mw003.bmp'><br><font color='green'><strong>Share</strong></font></div></div><div class='respDiv'><div class='respDivL'>Match<br>(e)</div><div class='respDivR'>No Match<br>(i)</div></div></div>","i","TARGET","2","trustrating_stim/white_mw003.bmp,trustrating_stim/white_mw013.bmp","0,1","noMatchOutcome","i","3000","trustrating_stim/white_mw003.bmp","green","Share","REAL","1"
"html-keyboard-response","59","283744","0.0-7.0-5.4","63d81e2fb6c8f0da25fea602","bdp_wmem","Mon Mar 13 2023 13:48:07 GMT-0500 (Central Daylight Time)","682415","Match,No Match","","null","","","","","","<div class='trialBorder'><div class='vertical-center'><img src='img/correct.jpg'></div><div class='respDiv'><div class='respDivL'>Match<br>(e)</div><div class='respDivR'><font style='color:orange'>No Match<br>(i)</font></div></div></div>","null","FEEDBACK","","","","","","","","","","",""
"html-keyboard-response","60","284246","0.0-7.0-1.5","63d81e2fb6c8f0da25fea602","bdp_wmem","Mon Mar 13 2023 13:48:07 GMT-0500 (Central Daylight Time)","682415","Match,No Match","","null","","","","","","<div class='trialBorder'><div class='vertical-center'><img src='img/fixation2_sml.jpg'</img></div></div>","null","FIX","","","","","","","","","","",""
"html-keyboard-response","61","285747","0.0-7.0-2.5","63d81e2fb6c8f0da25fea602","bdp_wmem","Mon Mar 13 2023 13:48:07 GMT-0500 (Central Daylight Time)","682415","Match,No Match","","null","","","","","","<div class='trialBorder'><div class='vertical-center'><img style='vertical-align:center; align:center' src='img/fixation2_sml.jpg'></div><div class='arrayDiv1'><div class='tc'><img class='introPic' src='trustrating_stim/white_mw040.bmp'><br><font color='green'><strong>Share</strong></font></div></div></div>","null","ARRAY","1","trustrating_stim/white_mw040.bmp","1","noMatchOutcome","i","1500","","","","",""
"html-keyboard-response","62","289749","0.0-7.0-3.5","63d81e2fb6c8f0da25fea602","bdp_wmem","Mon Mar 13 2023 13:48:07 GMT-0500 (Central Daylight Time)","682415","Match,No Match","","null","","","","","","<div class='trialBorder'><div class='vertical-center'><img src='img/fixation2_sml.jpg'</img></div></div>","null","DELAY","","","","","","","","","","",""
"html-keyboard-response","63","291009","0.0-7.0-4.5","63d81e2fb6c8f0da25fea602","bdp_wmem","Mon Mar 13 2023 13:48:07 GMT-0500 (Central Daylight Time)","682415","Match,No Match","","1259","","","","","","<div class='trialBorder'><div class='targDiv'><div class='tc'><img class='introPic' src='trustrating_stim/white_mw040.bmp'><br><font color='red'><strong>Keep</strong></font></div></div><div class='respDiv'><div class='respDivL'>Match<br>(e)</div><div class='respDivR'>No Match<br>(i)</div></div></div>","i","TARGET","1","trustrating_stim/white_mw040.bmp","1","noMatchOutcome","i","1500","trustrating_stim/white_mw040.bmp","red","Keep","REAL","1"
"html-keyboard-response","64","291511","0.0-7.0-5.5","63d81e2fb6c8f0da25fea602","bdp_wmem","Mon Mar 13 2023 13:48:07 GMT-0500 (Central Daylight Time)","682415","Match,No Match","","null","","","","","","<div class='trialBorder'><div class='vertical-center'><img src='img/correct.jpg'></div><div class='respDiv'><div class='respDivL'>Match<br>(e)</div><div class='respDivR'><font style='color:orange'>No Match<br>(i)</font></div></div></div>","null","FEEDBACK","","","","","","","","","","",""
"html-keyboard-response","65","292012","0.0-7.0-1.6","63d81e2fb6c8f0da25fea602","bdp_wmem","Mon Mar 13 2023 13:48:07 GMT-0500 (Central Daylight Time)","682415","Match,No Match","","null","","","","","","<div class='trialBorder'><div class='vertical-center'><img src='img/fixation2_sml.jpg'</img></div></div>","null","FIX","","","","","","","","","","",""
"html-keyboard-response","66","296514","0.0-7.0-2.6","63d81e2fb6c8f0da25fea602","bdp_wmem","Mon Mar 13 2023 13:48:07 GMT-0500 (Central Daylight Time)","682415","Match,No Match","","null","","","","","","<div class='trialBorder'><div class='vertical-center'><img style='vertical-align:center; align:center' src='img/fixation2_sml.jpg'></div><div class='arrayDiv3'><div class='tl'><img class='introPic' src='trustrating_stim/white_mw078.bmp'><br><font color='green'><strong>Share</strong></font></div><div class='tc'><img class='introPic' src='trustrating_stim/white_mw091.bmp'><br><font color='red'><strong>Keep</strong></font></div><div class='tr'><img class='introPic' src='trustrating_stim/white_mw085.bmp'><br><font color='green'><strong>Share</strong></font></div></div></div>","null","ARRAY","3","trustrating_stim/white_mw078.bmp,trustrating_stim/white_mw091.bmp,trustrating_stim/white_mw085.bmp","1,0,1","noMatchOutcome","i","4500","","","","",""
"html-keyboard-response","67","300515","0.0-7.0-3.6","63d81e2fb6c8f0da25fea602","bdp_wmem","Mon Mar 13 2023 13:48:07 GMT-0500 (Central Daylight Time)","682415","Match,No Match","","null","","","","","","<div class='trialBorder'><div class='vertical-center'><img src='img/fixation2_sml.jpg'</img></div></div>","null","DELAY","","","","","","","","","","",""
"html-keyboard-response","68","301900","0.0-7.0-4.6","63d81e2fb6c8f0da25fea602","bdp_wmem","Mon Mar 13 2023 13:48:07 GMT-0500 (Central Daylight Time)","682415","Match,No Match","","1384","","","","","","<div class='trialBorder'><div class='targDiv'><div class='tc'><img class='introPic' src='trustrating_stim/white_mw085.bmp'><br><font color='red'><strong>Keep</strong></font></div></div><div class='respDiv'><div class='respDivL'>Match<br>(e)</div><div class='respDivR'>No Match<br>(i)</div></div></div>","e","TARGET","3","trustrating_stim/white_mw078.bmp,trustrating_stim/white_mw091.bmp,trustrating_stim/white_mw085.bmp","1,0,1","noMatchOutcome","i","4500","trustrating_stim/white_mw085.bmp","red","Keep","REAL","0"
"html-keyboard-response","69","302402","0.0-7.0-5.6","63d81e2fb6c8f0da25fea602","bdp_wmem","Mon Mar 13 2023 13:48:07 GMT-0500 (Central Daylight Time)","682415","Match,No Match","","null","","","","","","<div class='trialBorder'><div class='vertical-center'><img src='img/error.jpg'></div><div class='respDiv'><div class='respDivL'><font style='color:orange'>Match<br>(e)</font></div><div class='respDivR'>No Match<br>(i)</div></div></div>","null","FEEDBACK","","","","","","","","","","",""
"html-keyboard-response","70","302904","0.0-7.0-1.7","63d81e2fb6c8f0da25fea602","bdp_wmem","Mon Mar 13 2023 13:48:07 GMT-0500 (Central Daylight Time)","682415","Match,No Match","","null","","","","","","<div class='trialBorder'><div class='vertical-center'><img src='img/fixation2_sml.jpg'</img></div></div>","null","FIX","","","","","","","","","","",""
"html-keyboard-response","71","304406","0.0-7.0-2.7","63d81e2fb6c8f0da25fea602","bdp_wmem","Mon Mar 13 2023 13:48:07 GMT-0500 (Central Daylight Time)","682415","Match,No Match","","null","","","","","","<div class='trialBorder'><div class='vertical-center'><img style='vertical-align:center; align:center' src='img/fixation2_sml.jpg'></div><div class='arrayDiv1'><div class='tc'><img class='introPic' src='trustrating_stim/white_mw040.bmp'><br><font color='red'><strong>Keep</strong></font></div></div></div>","null","ARRAY","1","trustrating_stim/white_mw040.bmp","0","noMatchOutcome","i","1500","","","","",""
"html-keyboard-response","72","308407","0.0-7.0-3.7","63d81e2fb6c8f0da25fea602","bdp_wmem","Mon Mar 13 2023 13:48:07 GMT-0500 (Central Daylight Time)","682415","Match,No Match","","null","","","","","","<div class='trialBorder'><div class='vertical-center'><img src='img/fixation2_sml.jpg'</img></div></div>","null","DELAY","","","","","","","","","","",""
"html-keyboard-response","73","309385","0.0-7.0-4.7","63d81e2fb6c8f0da25fea602","bdp_wmem","Mon Mar 13 2023 13:48:07 GMT-0500 (Central Daylight Time)","682415","Match,No Match","","977","","","","","","<div class='trialBorder'><div class='targDiv'><div class='tc'><img class='introPic' src='trustrating_stim/white_mw040.bmp'><br><font color='green'><strong>Share</strong></font></div></div><div class='respDiv'><div class='respDivL'>Match<br>(e)</div><div class='respDivR'>No Match<br>(i)</div></div></div>","i","TARGET","1","trustrating_stim/white_mw040.bmp","0","noMatchOutcome","i","1500","trustrating_stim/white_mw040.bmp","green","Share","REAL","1"
"html-keyboard-response","74","309886","0.0-7.0-5.7","63d81e2fb6c8f0da25fea602","bdp_wmem","Mon Mar 13 2023 13:48:07 GMT-0500 (Central Daylight Time)","682415","Match,No Match","","null","","","","","","<div class='trialBorder'><div class='vertical-center'><img src='img/correct.jpg'></div><div class='respDiv'><div class='respDivL'>Match<br>(e)</div><div class='respDivR'><font style='color:orange'>No Match<br>(i)</font></div></div></div>","null","FEEDBACK","","","","","","","","","","",""
"html-keyboard-response","75","310387","0.0-7.0-1.8","63d81e2fb6c8f0da25fea602","bdp_wmem","Mon Mar 13 2023 13:48:07 GMT-0500 (Central Daylight Time)","682415","Match,No Match","","null","","","","","","<div class='trialBorder'><div class='vertical-center'><img src='img/fixation2_sml.jpg'</img></div></div>","null","FIX","","","","","","","","","","",""
"html-keyboard-response","76","311889","0.0-7.0-2.8","63d81e2fb6c8f0da25fea602","bdp_wmem","Mon Mar 13 2023 13:48:07 GMT-0500 (Central Daylight Time)","682415","Match,No Match","","null","","","","","","<div class='trialBorder'><div class='vertical-center'><img style='vertical-align:center; align:center' src='img/fixation2_sml.jpg'></div><div class='arrayDiv1'><div class='tc'><img class='introPic' src='trustrating_stim/white_mw012.bmp'><br><font color='green'><strong>Share</strong></font></div></div></div>","null","ARRAY","1","trustrating_stim/white_mw012.bmp","1","noMatchOutcome","i","1500","","","","",""
"html-keyboard-response","77","315891","0.0-7.0-3.8","63d81e2fb6c8f0da25fea602","bdp_wmem","Mon Mar 13 2023 13:48:07 GMT-0500 (Central Daylight Time)","682415","Match,No Match","","null","","","","","","<div class='trialBorder'><div class='vertical-center'><img src='img/fixation2_sml.jpg'</img></div></div>","null","DELAY","","","","","","","","","","",""
"html-keyboard-response","78","317431","0.0-7.0-4.8","63d81e2fb6c8f0da25fea602","bdp_wmem","Mon Mar 13 2023 13:48:07 GMT-0500 (Central Daylight Time)","682415","Match,No Match","","1539","","","","","","<div class='trialBorder'><div class='targDiv'><div class='tc'><img class='introPic' src='trustrating_stim/white_mw012.bmp'><br><font color='red'><strong>Keep</strong></font></div></div><div class='respDiv'><div class='respDivL'>Match<br>(e)</div><div class='respDivR'>No Match<br>(i)</div></div></div>","i","TARGET","1","trustrating_stim/white_mw012.bmp","1","noMatchOutcome","i","1500","trustrating_stim/white_mw012.bmp","red","Keep","REAL","1"
"html-keyboard-response","79","317933","0.0-7.0-5.8","63d81e2fb6c8f0da25fea602","bdp_wmem","Mon Mar 13 2023 13:48:07 GMT-0500 (Central Daylight Time)","682415","Match,No Match","","null","","","","","","<div class='trialBorder'><div class='vertical-center'><img src='img/correct.jpg'></div><div class='respDiv'><div class='respDivL'>Match<br>(e)</div><div class='respDivR'><font style='color:orange'>No Match<br>(i)</font></div></div></div>","null","FEEDBACK","","","","","","","","","","",""
"html-keyboard-response","80","318434","0.0-7.0-1.9","63d81e2fb6c8f0da25fea602","bdp_wmem","Mon Mar 13 2023 13:48:07 GMT-0500 (Central Daylight Time)","682415","Match,No Match","","null","","","","","","<div class='trialBorder'><div class='vertical-center'><img src='img/fixation2_sml.jpg'</img></div></div>","null","FIX","","","","","","","","","","",""
"html-keyboard-response","81","322936","0.0-7.0-2.9","63d81e2fb6c8f0da25fea602","bdp_wmem","Mon Mar 13 2023 13:48:07 GMT-0500 (Central Daylight Time)","682415","Match,No Match","","null","","","","","","<div class='trialBorder'><div class='vertical-center'><img style='vertical-align:center; align:center' src='img/fixation2_sml.jpg'></div><div class='arrayDiv3'><div class='tl'><img class='introPic' src='trustrating_stim/white_mw040.bmp'><br><font color='green'><strong>Share</strong></font></div><div class='tc'><img class='introPic' src='trustrating_stim/white_mw078.bmp'><br><font color='green'><strong>Share</strong></font></div><div class='tr'><img class='introPic' src='trustrating_stim/white_mw013.bmp'><br><font color='red'><strong>Keep</strong></font></div></div></div>","null","ARRAY","3","trustrating_stim/white_mw040.bmp,trustrating_stim/white_mw078.bmp,trustrating_stim/white_mw013.bmp","1,1,0","Match","e","4500","","","","",""
"html-keyboard-response","82","326937","0.0-7.0-3.9","63d81e2fb6c8f0da25fea602","bdp_wmem","Mon Mar 13 2023 13:48:07 GMT-0500 (Central Daylight Time)","682415","Match,No Match","","null","","","","","","<div class='trialBorder'><div class='vertical-center'><img src='img/fixation2_sml.jpg'</img></div></div>","null","DELAY","","","","","","","","","","",""
"html-keyboard-response","83","328259","0.0-7.0-4.9","63d81e2fb6c8f0da25fea602","bdp_wmem","Mon Mar 13 2023 13:48:07 GMT-0500 (Central Daylight Time)","682415","Match,No Match","","1321","","","","","","<div class='trialBorder'><div class='targDiv'><div class='tc'><img class='introPic' src='trustrating_stim/white_mw013.bmp'><br><font color='red'><strong>Keep</strong></font></div></div><div class='respDiv'><div class='respDivL'>Match<br>(e)</div><div class='respDivR'>No Match<br>(i)</div></div></div>","e","TARGET","3","trustrating_stim/white_mw040.bmp,trustrating_stim/white_mw078.bmp,trustrating_stim/white_mw013.bmp","1,1,0","Match","e","4500","trustrating_stim/white_mw013.bmp","red","Keep","REAL","1"
"html-keyboard-response","84","328760","0.0-7.0-5.9","63d81e2fb6c8f0da25fea602","bdp_wmem","Mon Mar 13 2023 13:48:07 GMT-0500 (Central Daylight Time)","682415","Match,No Match","","null","","","","","","<div class='trialBorder'><div class='vertical-center'><img src='img/correct.jpg'></div><div class='respDiv'><div class='respDivL'><font style='color:orange'>Match<br>(e)</font></div><div class='respDivR'>No Match<br>(i)</div></div></div>","null","FEEDBACK","","","","","","","","","","",""
"html-keyboard-response","85","329261","0.0-7.0-1.10","63d81e2fb6c8f0da25fea602","bdp_wmem","Mon Mar 13 2023 13:48:07 GMT-0500 (Central Daylight Time)","682415","Match,No Match","","null","","","","","","<div class='trialBorder'><div class='vertical-center'><img src='img/fixation2_sml.jpg'</img></div></div>","null","FIX","","","","","","","","","","",""
"html-keyboard-response","86","332264","0.0-7.0-2.10","63d81e2fb6c8f0da25fea602","bdp_wmem","Mon Mar 13 2023 13:48:07 GMT-0500 (Central Daylight Time)","682415","Match,No Match","","null","","","","","","<div class='trialBorder'><div class='vertical-center'><img style='vertical-align:center; align:center' src='img/fixation2_sml.jpg'></div><div class='arrayDiv2'><div class='tl'><img class='introPic' src='trustrating_stim/white_mw070.bmp'><br><font color='red'><strong>Keep</strong></font></div><div class='tr'><img class='introPic' src='trustrating_stim/white_mw040.bmp'><br><font color='green'><strong>Share</strong></font></div></div></div>","null","ARRAY","2","trustrating_stim/white_mw070.bmp,trustrating_stim/white_mw040.bmp","0,1","noMatchOutcome","i","3000","","","","",""
"html-keyboard-response","87","336266","0.0-7.0-3.10","63d81e2fb6c8f0da25fea602","bdp_wmem","Mon Mar 13 2023 13:48:07 GMT-0500 (Central Daylight Time)","682415","Match,No Match","","null","","","","","","<div class='trialBorder'><div class='vertical-center'><img src='img/fixation2_sml.jpg'</img></div></div>","null","DELAY","","","","","","","","","","",""
"html-keyboard-response","88","337264","0.0-7.0-4.10","63d81e2fb6c8f0da25fea602","bdp_wmem","Mon Mar 13 2023 13:48:07 GMT-0500 (Central Daylight Time)","682415","Match,No Match","","997","","","","","","<div class='trialBorder'><div class='targDiv'><div class='tc'><img class='introPic' src='trustrating_stim/white_mw070.bmp'><br><font color='green'><strong>Share</strong></font></div></div><div class='respDiv'><div class='respDivL'>Match<br>(e)</div><div class='respDivR'>No Match<br>(i)</div></div></div>","i","TARGET","2","trustrating_stim/white_mw070.bmp,trustrating_stim/white_mw040.bmp","0,1","noMatchOutcome","i","3000","trustrating_stim/white_mw070.bmp","green","Share","REAL","1"
"html-keyboard-response","89","337765","0.0-7.0-5.10","63d81e2fb6c8f0da25fea602","bdp_wmem","Mon Mar 13 2023 13:48:07 GMT-0500 (Central Daylight Time)","682415","Match,No Match","","null","","","","","","<div class='trialBorder'><div class='vertical-center'><img src='img/correct.jpg'></div><div class='respDiv'><div class='respDivL'>Match<br>(e)</div><div class='respDivR'><font style='color:orange'>No Match<br>(i)</font></div></div></div>","null","FEEDBACK","","","","","","","","","","",""
"html-keyboard-response","90","338267","0.0-7.0-1.11","63d81e2fb6c8f0da25fea602","bdp_wmem","Mon Mar 13 2023 13:48:07 GMT-0500 (Central Daylight Time)","682415","Match,No Match","","null","","","","","","<div class='trialBorder'><div class='vertical-center'><img src='img/fixation2_sml.jpg'</img></div></div>","null","FIX","","","","","","","","","","",""
"html-keyboard-response","91","342769","0.0-7.0-2.11","63d81e2fb6c8f0da25fea602","bdp_wmem","Mon Mar 13 2023 13:48:07 GMT-0500 (Central Daylight Time)","682415","Match,No Match","","null","","","","","","<div class='trialBorder'><div class='vertical-center'><img style='vertical-align:center; align:center' src='img/fixation2_sml.jpg'></div><div class='arrayDiv3'><div class='tl'><img class='introPic' src='trustrating_stim/white_mw042.bmp'><br><font color='red'><strong>Keep</strong></font></div><div class='tc'><img class='introPic' src='trustrating_stim/white_mw012.bmp'><br><font color='red'><strong>Keep</strong></font></div><div class='tr'><img class='introPic' src='trustrating_stim/white_mw078.bmp'><br><font color='green'><strong>Share</strong></font></div></div></div>","null","ARRAY","3","trustrating_stim/white_mw042.bmp,trustrating_stim/white_mw012.bmp,trustrating_stim/white_mw078.bmp","0,0,1","noMatchFace","i","4500","","","","",""
"html-keyboard-response","92","346771","0.0-7.0-3.11","63d81e2fb6c8f0da25fea602","bdp_wmem","Mon Mar 13 2023 13:48:07 GMT-0500 (Central Daylight Time)","682415","Match,No Match","","null","","","","","","<div class='trialBorder'><div class='vertical-center'><img src='img/fixation2_sml.jpg'</img></div></div>","null","DELAY","","","","","","","","","","",""
"html-keyboard-response","93","348064","0.0-7.0-4.11","63d81e2fb6c8f0da25fea602","bdp_wmem","Mon Mar 13 2023 13:48:07 GMT-0500 (Central Daylight Time)","682415","Match,No Match","","1291","","","","","","<div class='trialBorder'><div class='targDiv'><div class='tc'><img class='introPic' src='trustrating_stim/white_mw040.bmp'><br><font color='red'><strong>Keep</strong></font></div></div><div class='respDiv'><div class='respDivL'>Match<br>(e)</div><div class='respDivR'>No Match<br>(i)</div></div></div>","e","TARGET","3","trustrating_stim/white_mw042.bmp,trustrating_stim/white_mw012.bmp,trustrating_stim/white_mw078.bmp","0,0,1","noMatchFace","i","4500","trustrating_stim/white_mw040.bmp","red","Keep","REAL","0"
"html-keyboard-response","94","348566","0.0-7.0-5.11","63d81e2fb6c8f0da25fea602","bdp_wmem","Mon Mar 13 2023 13:48:07 GMT-0500 (Central Daylight Time)","682415","Match,No Match","","null","","","","","","<div class='trialBorder'><div class='vertical-center'><img src='img/error.jpg'></div><div class='respDiv'><div class='respDivL'><font style='color:orange'>Match<br>(e)</font></div><div class='respDivR'>No Match<br>(i)</div></div></div>","null","FEEDBACK","","","","","","","","","","",""
"html-keyboard-response","95","349068","0.0-7.0-1.12","63d81e2fb6c8f0da25fea602","bdp_wmem","Mon Mar 13 2023 13:48:07 GMT-0500 (Central Daylight Time)","682415","Match,No Match","","null","","","","","","<div class='trialBorder'><div class='vertical-center'><img src='img/fixation2_sml.jpg'</img></div></div>","null","FIX","","","","","","","","","","",""
"html-keyboard-response","96","352070","0.0-7.0-2.12","63d81e2fb6c8f0da25fea602","bdp_wmem","Mon Mar 13 2023 13:48:07 GMT-0500 (Central Daylight Time)","682415","Match,No Match","","null","","","","","","<div class='trialBorder'><div class='vertical-center'><img style='vertical-align:center; align:center' src='img/fixation2_sml.jpg'></div><div class='arrayDiv2'><div class='tl'><img class='introPic' src='trustrating_stim/white_mw003.bmp'><br><font color='green'><strong>Share</strong></font></div><div class='tr'><img class='introPic' src='trustrating_stim/white_mw010.bmp'><br><font color='red'><strong>Keep</strong></font></div></div></div>","null","ARRAY","2","trustrating_stim/white_mw003.bmp,trustrating_stim/white_mw010.bmp","1,0","noMatchOutcome","i","3000","","","","",""
"html-keyboard-response","97","356072","0.0-7.0-3.12","63d81e2fb6c8f0da25fea602","bdp_wmem","Mon Mar 13 2023 13:48:07 GMT-0500 (Central Daylight Time)","682415","Match,No Match","","null","","","","","","<div class='trialBorder'><div class='vertical-center'><img src='img/fixation2_sml.jpg'</img></div></div>","null","DELAY","","","","","","","","","","",""
"html-keyboard-response","98","357072","0.0-7.0-4.12","63d81e2fb6c8f0da25fea602","bdp_wmem","Mon Mar 13 2023 13:48:07 GMT-0500 (Central Daylight Time)","682415","Match,No Match","","999","","","","","","<div class='trialBorder'><div class='targDiv'><div class='tc'><img class='introPic' src='trustrating_stim/white_mw003.bmp'><br><font color='red'><strong>Keep</strong></font></div></div><div class='respDiv'><div class='respDivL'>Match<br>(e)</div><div class='respDivR'>No Match<br>(i)</div></div></div>","i","TARGET","2","trustrating_stim/white_mw003.bmp,trustrating_stim/white_mw010.bmp","1,0","noMatchOutcome","i","3000","trustrating_stim/white_mw003.bmp","red","Keep","REAL","1"
"html-keyboard-response","99","357573","0.0-7.0-5.12","63d81e2fb6c8f0da25fea602","bdp_wmem","Mon Mar 13 2023 13:48:07 GMT-0500 (Central Daylight Time)","682415","Match,No Match","","null","","","","","","<div class='trialBorder'><div class='vertical-center'><img src='img/correct.jpg'></div><div class='respDiv'><div class='respDivL'>Match<br>(e)</div><div class='respDivR'><font style='color:orange'>No Match<br>(i)</font></div></div></div>","null","FEEDBACK","","","","","","","","","","",""
"html-keyboard-response","100","358074","0.0-7.0-1.13","63d81e2fb6c8f0da25fea602","bdp_wmem","Mon Mar 13 2023 13:48:07 GMT-0500 (Central Daylight Time)","682415","Match,No Match","","null","","","","","","<div class='trialBorder'><div class='vertical-center'><img src='img/fixation2_sml.jpg'</img></div></div>","null","FIX","","","","","","","","","","",""
"html-keyboard-response","101","362576","0.0-7.0-2.13","63d81e2fb6c8f0da25fea602","bdp_wmem","Mon Mar 13 2023 13:48:07 GMT-0500 (Central Daylight Time)","682415","Match,No Match","","null","","","","","","<div class='trialBorder'><div class='vertical-center'><img style='vertical-align:center; align:center' src='img/fixation2_sml.jpg'></div><div class='arrayDiv3'><div class='tl'><img class='introPic' src='trustrating_stim/white_mw042.bmp'><br><font color='red'><strong>Keep</strong></font></div><div class='tc'><img class='introPic' src='trustrating_stim/white_mw070.bmp'><br><font color='green'><strong>Share</strong></font></div><div class='tr'><img class='introPic' src='trustrating_stim/white_mw012.bmp'><br><font color='red'><strong>Keep</strong></font></div></div></div>","null","ARRAY","3","trustrating_stim/white_mw042.bmp,trustrating_stim/white_mw070.bmp,trustrating_stim/white_mw012.bmp","0,1,0","Match","e","4500","","","","",""
"html-keyboard-response","102","366579","0.0-7.0-3.13","63d81e2fb6c8f0da25fea602","bdp_wmem","Mon Mar 13 2023 13:48:07 GMT-0500 (Central Daylight Time)","682415","Match,No Match","","null","","","","","","<div class='trialBorder'><div class='vertical-center'><img src='img/fixation2_sml.jpg'</img></div></div>","null","DELAY","","","","","","","","","","",""
"html-keyboard-response","103","367238","0.0-7.0-4.13","63d81e2fb6c8f0da25fea602","bdp_wmem","Mon Mar 13 2023 13:48:07 GMT-0500 (Central Daylight Time)","682415","Match,No Match","","657","","","","","","<div class='trialBorder'><div class='targDiv'><div class='tc'><img class='introPic' src='trustrating_stim/white_mw012.bmp'><br><font color='red'><strong>Keep</strong></font></div></div><div class='respDiv'><div class='respDivL'>Match<br>(e)</div><div class='respDivR'>No Match<br>(i)</div></div></div>","i","TARGET","3","trustrating_stim/white_mw042.bmp,trustrating_stim/white_mw070.bmp,trustrating_stim/white_mw012.bmp","0,1,0","Match","e","4500","trustrating_stim/white_mw012.bmp","red","Keep","REAL","0"
"html-keyboard-response","104","367739","0.0-7.0-5.13","63d81e2fb6c8f0da25fea602","bdp_wmem","Mon Mar 13 2023 13:48:07 GMT-0500 (Central Daylight Time)","682415","Match,No Match","","null","","","","","","<div class='trialBorder'><div class='vertical-center'><img src='img/error.jpg'></div><div class='respDiv'><div class='respDivL'>Match<br>(e)</div><div class='respDivR'><font style='color:orange'>No Match<br>(i)</font></div></div></div>","null","FEEDBACK","","","","","","","","","","",""
"html-keyboard-response","105","368240","0.0-7.0-1.14","63d81e2fb6c8f0da25fea602","bdp_wmem","Mon Mar 13 2023 13:48:07 GMT-0500 (Central Daylight Time)","682415","Match,No Match","","null","","","","","","<div class='trialBorder'><div class='vertical-center'><img src='img/fixation2_sml.jpg'</img></div></div>","null","FIX","","","","","","","","","","",""
"html-keyboard-response","106","372742","0.0-7.0-2.14","63d81e2fb6c8f0da25fea602","bdp_wmem","Mon Mar 13 2023 13:48:07 GMT-0500 (Central Daylight Time)","682415","Match,No Match","","null","","","","","","<div class='trialBorder'><div class='vertical-center'><img style='vertical-align:center; align:center' src='img/fixation2_sml.jpg'></div><div class='arrayDiv3'><div class='tl'><img class='introPic' src='trustrating_stim/white_mw010.bmp'><br><font color='green'><strong>Share</strong></font></div><div class='tc'><img class='introPic' src='trustrating_stim/white_mw042.bmp'><br><font color='red'><strong>Keep</strong></font></div><div class='tr'><img class='introPic' src='trustrating_stim/white_mw092.bmp'><br><font color='green'><strong>Share</strong></font></div></div></div>","null","ARRAY","3","trustrating_stim/white_mw010.bmp,trustrating_stim/white_mw042.bmp,trustrating_stim/white_mw092.bmp","1,0,1","noMatchFace","i","4500","","","","",""
"html-keyboard-response","107","376744","0.0-7.0-3.14","63d81e2fb6c8f0da25fea602","bdp_wmem","Mon Mar 13 2023 13:48:07 GMT-0500 (Central Daylight Time)","682415","Match,No Match","","null","","","","","","<div class='trialBorder'><div class='vertical-center'><img src='img/fixation2_sml.jpg'</img></div></div>","null","DELAY","","","","","","","","","","",""
"html-keyboard-response","108","378266","0.0-7.0-4.14","63d81e2fb6c8f0da25fea602","bdp_wmem","Mon Mar 13 2023 13:48:07 GMT-0500 (Central Daylight Time)","682415","Match,No Match","","1521","","","","","","<div class='trialBorder'><div class='targDiv'><div class='tc'><img class='introPic' src='trustrating_stim/white_mw085.bmp'><br><font color='green'><strong>Share</strong></font></div></div><div class='respDiv'><div class='respDivL'>Match<br>(e)</div><div class='respDivR'>No Match<br>(i)</div></div></div>","i","TARGET","3","trustrating_stim/white_mw010.bmp,trustrating_stim/white_mw042.bmp,trustrating_stim/white_mw092.bmp","1,0,1","noMatchFace","i","4500","trustrating_stim/white_mw085.bmp","green","Share","REAL","1"
"html-keyboard-response","109","378769","0.0-7.0-5.14","63d81e2fb6c8f0da25fea602","bdp_wmem","Mon Mar 13 2023 13:48:07 GMT-0500 (Central Daylight Time)","682415","Match,No Match","","null","","","","","","<div class='trialBorder'><div class='vertical-center'><img src='img/correct.jpg'></div><div class='respDiv'><div class='respDivL'>Match<br>(e)</div><div class='respDivR'><font style='color:orange'>No Match<br>(i)</font></div></div></div>","null","FEEDBACK","","","","","","","","","","",""
"html-keyboard-response","110","379271","0.0-7.0-1.15","63d81e2fb6c8f0da25fea602","bdp_wmem","Mon Mar 13 2023 13:48:07 GMT-0500 (Central Daylight Time)","682415","Match,No Match","","null","","","","","","<div class='trialBorder'><div class='vertical-center'><img src='img/fixation2_sml.jpg'</img></div></div>","null","FIX","","","","","","","","","","",""
"html-keyboard-response","111","380773","0.0-7.0-2.15","63d81e2fb6c8f0da25fea602","bdp_wmem","Mon Mar 13 2023 13:48:07 GMT-0500 (Central Daylight Time)","682415","Match,No Match","","null","","","","","","<div class='trialBorder'><div class='vertical-center'><img style='vertical-align:center; align:center' src='img/fixation2_sml.jpg'></div><div class='arrayDiv1'><div class='tc'><img class='introPic' src='trustrating_stim/white_mw013.bmp'><br><font color='green'><strong>Share</strong></font></div></div></div>","null","ARRAY","1","trustrating_stim/white_mw013.bmp","1","Match","e","1500","","","","",""
"html-keyboard-response","112","384775","0.0-7.0-3.15","63d81e2fb6c8f0da25fea602","bdp_wmem","Mon Mar 13 2023 13:48:07 GMT-0500 (Central Daylight Time)","682415","Match,No Match","","null","","","","","","<div class='trialBorder'><div class='vertical-center'><img src='img/fixation2_sml.jpg'</img></div></div>","null","DELAY","","","","","","","","","","",""
"html-keyboard-response","113","386057","0.0-7.0-4.15","63d81e2fb6c8f0da25fea602","bdp_wmem","Mon Mar 13 2023 13:48:07 GMT-0500 (Central Daylight Time)","682415","Match,No Match","","1281","","","","","","<div class='trialBorder'><div class='targDiv'><div class='tc'><img class='introPic' src='trustrating_stim/white_mw013.bmp'><br><font color='green'><strong>Share</strong></font></div></div><div class='respDiv'><div class='respDivL'>Match<br>(e)</div><div class='respDivR'>No Match<br>(i)</div></div></div>","e","TARGET","1","trustrating_stim/white_mw013.bmp","1","Match","e","1500","trustrating_stim/white_mw013.bmp","green","Share","REAL","1"
"html-keyboard-response","114","386558","0.0-7.0-5.15","63d81e2fb6c8f0da25fea602","bdp_wmem","Mon Mar 13 2023 13:48:07 GMT-0500 (Central Daylight Time)","682415","Match,No Match","","null","","","","","","<div class='trialBorder'><div class='vertical-center'><img src='img/correct.jpg'></div><div class='respDiv'><div class='respDivL'><font style='color:orange'>Match<br>(e)</font></div><div class='respDivR'>No Match<br>(i)</div></div></div>","null","FEEDBACK","","","","","","","","","","",""
"html-keyboard-response","115","387059","0.0-7.0-1.16","63d81e2fb6c8f0da25fea602","bdp_wmem","Mon Mar 13 2023 13:48:07 GMT-0500 (Central Daylight Time)","682415","Match,No Match","","null","","","","","","<div class='trialBorder'><div class='vertical-center'><img src='img/fixation2_sml.jpg'</img></div></div>","null","FIX","","","","","","","","","","",""
"html-keyboard-response","116","388562","0.0-7.0-2.16","63d81e2fb6c8f0da25fea602","bdp_wmem","Mon Mar 13 2023 13:48:07 GMT-0500 (Central Daylight Time)","682415","Match,No Match","","null","","","","","","<div class='trialBorder'><div class='vertical-center'><img style='vertical-align:center; align:center' src='img/fixation2_sml.jpg'></div><div class='arrayDiv1'><div class='tc'><img class='introPic' src='trustrating_stim/white_mw003.bmp'><br><font color='green'><strong>Share</strong></font></div></div></div>","null","ARRAY","1","trustrating_stim/white_mw003.bmp","1","Match","e","1500","","","","",""
"html-keyboard-response","117","392564","0.0-7.0-3.16","63d81e2fb6c8f0da25fea602","bdp_wmem","Mon Mar 13 2023 13:48:07 GMT-0500 (Central Daylight Time)","682415","Match,No Match","","null","","","","","","<div class='trialBorder'><div class='vertical-center'><img src='img/fixation2_sml.jpg'</img></div></div>","null","DELAY","","","","","","","","","","",""
"html-keyboard-response","118","393609","0.0-7.0-4.16","63d81e2fb6c8f0da25fea602","bdp_wmem","Mon Mar 13 2023 13:48:07 GMT-0500 (Central Daylight Time)","682415","Match,No Match","","1044","","","","","","<div class='trialBorder'><div class='targDiv'><div class='tc'><img class='introPic' src='trustrating_stim/white_mw003.bmp'><br><font color='green'><strong>Share</strong></font></div></div><div class='respDiv'><div class='respDivL'>Match<br>(e)</div><div class='respDivR'>No Match<br>(i)</div></div></div>","e","TARGET","1","trustrating_stim/white_mw003.bmp","1","Match","e","1500","trustrating_stim/white_mw003.bmp","green","Share","REAL","1"
"html-keyboard-response","119","394110","0.0-7.0-5.16","63d81e2fb6c8f0da25fea602","bdp_wmem","Mon Mar 13 2023 13:48:07 GMT-0500 (Central Daylight Time)","682415","Match,No Match","","null","","","","","","<div class='trialBorder'><div class='vertical-center'><img src='img/correct.jpg'></div><div class='respDiv'><div class='respDivL'><font style='color:orange'>Match<br>(e)</font></div><div class='respDivR'>No Match<br>(i)</div></div></div>","null","FEEDBACK","","","","","","","","","","",""
"html-keyboard-response","120","394611","0.0-7.0-1.17","63d81e2fb6c8f0da25fea602","bdp_wmem","Mon Mar 13 2023 13:48:07 GMT-0500 (Central Daylight Time)","682415","Match,No Match","","null","","","","","","<div class='trialBorder'><div class='vertical-center'><img src='img/fixation2_sml.jpg'</img></div></div>","null","FIX","","","","","","","","","","",""
"html-keyboard-response","121","397614","0.0-7.0-2.17","63d81e2fb6c8f0da25fea602","bdp_wmem","Mon Mar 13 2023 13:48:07 GMT-0500 (Central Daylight Time)","682415","Match,No Match","","null","","","","","","<div class='trialBorder'><div class='vertical-center'><img style='vertical-align:center; align:center' src='img/fixation2_sml.jpg'></div><div class='arrayDiv2'><div class='tl'><img class='introPic' src='trustrating_stim/white_mw013.bmp'><br><font color='green'><strong>Share</strong></font></div><div class='tr'><img class='introPic' src='trustrating_stim/white_mw078.bmp'><br><font color='red'><strong>Keep</strong></font></div></div></div>","null","ARRAY","2","trustrating_stim/white_mw013.bmp,trustrating_stim/white_mw078.bmp","1,0","noMatchFace","i","3000","","","","",""
"html-keyboard-response","122","401615","0.0-7.0-3.17","63d81e2fb6c8f0da25fea602","bdp_wmem","Mon Mar 13 2023 13:48:07 GMT-0500 (Central Daylight Time)","682415","Match,No Match","","null","","","","","","<div class='trialBorder'><div class='vertical-center'><img src='img/fixation2_sml.jpg'</img></div></div>","null","DELAY","","","","","","","","","","",""
"html-keyboard-response","123","403956","0.0-7.0-4.17","63d81e2fb6c8f0da25fea602","bdp_wmem","Mon Mar 13 2023 13:48:07 GMT-0500 (Central Daylight Time)","682415","Match,No Match","","2340","","","","","","<div class='trialBorder'><div class='targDiv'><div class='tc'><img class='introPic' src='trustrating_stim/white_mw092.bmp'><br><font color='red'><strong>Keep</strong></font></div></div><div class='respDiv'><div class='respDivL'>Match<br>(e)</div><div class='respDivR'>No Match<br>(i)</div></div></div>","i","TARGET","2","trustrating_stim/white_mw013.bmp,trustrating_stim/white_mw078.bmp","1,0","noMatchFace","i","3000","trustrating_stim/white_mw092.bmp","red","Keep","REAL","1"
"html-keyboard-response","124","404457","0.0-7.0-5.17","63d81e2fb6c8f0da25fea602","bdp_wmem","Mon Mar 13 2023 13:48:07 GMT-0500 (Central Daylight Time)","682415","Match,No Match","","null","","","","","","<div class='trialBorder'><div class='vertical-center'><img src='img/correct.jpg'></div><div class='respDiv'><div class='respDivL'>Match<br>(e)</div><div class='respDivR'><font style='color:orange'>No Match<br>(i)</font></div></div></div>","null","FEEDBACK","","","","","","","","","","",""
"html-keyboard-response","125","404958","0.0-7.0-1.18","63d81e2fb6c8f0da25fea602","bdp_wmem","Mon Mar 13 2023 13:48:07 GMT-0500 (Central Daylight Time)","682415","Match,No Match","","null","","","","","","<div class='trialBorder'><div class='vertical-center'><img src='img/fixation2_sml.jpg'</img></div></div>","null","FIX","","","","","","","","","","",""
"html-keyboard-response","126","407960","0.0-7.0-2.18","63d81e2fb6c8f0da25fea602","bdp_wmem","Mon Mar 13 2023 13:48:07 GMT-0500 (Central Daylight Time)","682415","Match,No Match","","null","","","","","","<div class='trialBorder'><div class='vertical-center'><img style='vertical-align:center; align:center' src='img/fixation2_sml.jpg'></div><div class='arrayDiv2'><div class='tl'><img class='introPic' src='trustrating_stim/white_mw012.bmp'><br><font color='green'><strong>Share</strong></font></div><div class='tr'><img class='introPic' src='trustrating_stim/white_mw013.bmp'><br><font color='red'><strong>Keep</strong></font></div></div></div>","null","ARRAY","2","trustrating_stim/white_mw012.bmp,trustrating_stim/white_mw013.bmp","1,0","Match","e","3000","","","","",""
"html-keyboard-response","127","411961","0.0-7.0-3.18","63d81e2fb6c8f0da25fea602","bdp_wmem","Mon Mar 13 2023 13:48:07 GMT-0500 (Central Daylight Time)","682415","Match,No Match","","null","","","","","","<div class='trialBorder'><div class='vertical-center'><img src='img/fixation2_sml.jpg'</img></div></div>","null","DELAY","","","","","","","","","","",""
"html-keyboard-response","128","412962","0.0-7.0-4.18","63d81e2fb6c8f0da25fea602","bdp_wmem","Mon Mar 13 2023 13:48:07 GMT-0500 (Central Daylight Time)","682415","Match,No Match","","999","","","","","","<div class='trialBorder'><div class='targDiv'><div class='tc'><img class='introPic' src='trustrating_stim/white_mw012.bmp'><br><font color='green'><strong>Share</strong></font></div></div><div class='respDiv'><div class='respDivL'>Match<br>(e)</div><div class='respDivR'>No Match<br>(i)</div></div></div>","e","TARGET","2","trustrating_stim/white_mw012.bmp,trustrating_stim/white_mw013.bmp","1,0","Match","e","3000","trustrating_stim/white_mw012.bmp","green","Share","REAL","1"
"html-keyboard-response","129","413463","0.0-7.0-5.18","63d81e2fb6c8f0da25fea602","bdp_wmem","Mon Mar 13 2023 13:48:07 GMT-0500 (Central Daylight Time)","682415","Match,No Match","","null","","","","","","<div class='trialBorder'><div class='vertical-center'><img src='img/correct.jpg'></div><div class='respDiv'><div class='respDivL'><font style='color:orange'>Match<br>(e)</font></div><div class='respDivR'>No Match<br>(i)</div></div></div>","null","FEEDBACK","","","","","","","","","","",""
"html-keyboard-response","130","413964","0.0-7.0-1.19","63d81e2fb6c8f0da25fea602","bdp_wmem","Mon Mar 13 2023 13:48:07 GMT-0500 (Central Daylight Time)","682415","Match,No Match","","null","","","","","","<div class='trialBorder'><div class='vertical-center'><img src='img/fixation2_sml.jpg'</img></div></div>","null","FIX","","","","","","","","","","",""
"html-keyboard-response","131","416965","0.0-7.0-2.19","63d81e2fb6c8f0da25fea602","bdp_wmem","Mon Mar 13 2023 13:48:07 GMT-0500 (Central Daylight Time)","682415","Match,No Match","","null","","","","","","<div class='trialBorder'><div class='vertical-center'><img style='vertical-align:center; align:center' src='img/fixation2_sml.jpg'></div><div class='arrayDiv2'><div class='tl'><img class='introPic' src='trustrating_stim/white_mw012.bmp'><br><font color='green'><strong>Share</strong></font></div><div class='tr'><img class='introPic' src='trustrating_stim/white_mw085.bmp'><br><font color='red'><strong>Keep</strong></font></div></div></div>","null","ARRAY","2","trustrating_stim/white_mw012.bmp,trustrating_stim/white_mw085.bmp","1,0","noMatchFace","i","3000","","","","",""
"html-keyboard-response","132","420967","0.0-7.0-3.19","63d81e2fb6c8f0da25fea602","bdp_wmem","Mon Mar 13 2023 13:48:07 GMT-0500 (Central Daylight Time)","682415","Match,No Match","","null","","","","","","<div class='trialBorder'><div class='vertical-center'><img src='img/fixation2_sml.jpg'</img></div></div>","null","DELAY","","","","","","","","","","",""
"html-keyboard-response","133","423037","0.0-7.0-4.19","63d81e2fb6c8f0da25fea602","bdp_wmem","Mon Mar 13 2023 13:48:07 GMT-0500 (Central Daylight Time)","682415","Match,No Match","","2069","","","","","","<div class='trialBorder'><div class='targDiv'><div class='tc'><img class='introPic' src='trustrating_stim/white_mw091.bmp'><br><font color='green'><strong>Share</strong></font></div></div><div class='respDiv'><div class='respDivL'>Match<br>(e)</div><div class='respDivR'>No Match<br>(i)</div></div></div>","i","TARGET","2","trustrating_stim/white_mw012.bmp,trustrating_stim/white_mw085.bmp","1,0","noMatchFace","i","3000","trustrating_stim/white_mw091.bmp","green","Share","REAL","1"
"html-keyboard-response","134","423538","0.0-7.0-5.19","63d81e2fb6c8f0da25fea602","bdp_wmem","Mon Mar 13 2023 13:48:07 GMT-0500 (Central Daylight Time)","682415","Match,No Match","","null","","","","","","<div class='trialBorder'><div class='vertical-center'><img src='img/correct.jpg'></div><div class='respDiv'><div class='respDivL'>Match<br>(e)</div><div class='respDivR'><font style='color:orange'>No Match<br>(i)</font></div></div></div>","null","FEEDBACK","","","","","","","","","","",""
"html-keyboard-response","135","424041","0.0-7.0-1.20","63d81e2fb6c8f0da25fea602","bdp_wmem","Mon Mar 13 2023 13:48:07 GMT-0500 (Central Daylight Time)","682415","Match,No Match","","null","","","","","","<div class='trialBorder'><div class='vertical-center'><img src='img/fixation2_sml.jpg'</img></div></div>","null","FIX","","","","","","","","","","",""
"html-keyboard-response","136","425543","0.0-7.0-2.20","63d81e2fb6c8f0da25fea602","bdp_wmem","Mon Mar 13 2023 13:48:07 GMT-0500 (Central Daylight Time)","682415","Match,No Match","","null","","","","","","<div class='trialBorder'><div class='vertical-center'><img style='vertical-align:center; align:center' src='img/fixation2_sml.jpg'></div><div class='arrayDiv1'><div class='tc'><img class='introPic' src='trustrating_stim/white_mw012.bmp'><br><font color='red'><strong>Keep</strong></font></div></div></div>","null","ARRAY","1","trustrating_stim/white_mw012.bmp","0","Match","e","1500","","","","",""
"html-keyboard-response","137","429545","0.0-7.0-3.20","63d81e2fb6c8f0da25fea602","bdp_wmem","Mon Mar 13 2023 13:48:07 GMT-0500 (Central Daylight Time)","682415","Match,No Match","","null","","","","","","<div class='trialBorder'><div class='vertical-center'><img src='img/fixation2_sml.jpg'</img></div></div>","null","DELAY","","","","","","","","","","",""
"html-keyboard-response","138","431114","0.0-7.0-4.20","63d81e2fb6c8f0da25fea602","bdp_wmem","Mon Mar 13 2023 13:48:07 GMT-0500 (Central Daylight Time)","682415","Match,No Match","","1568","","","","","","<div class='trialBorder'><div class='targDiv'><div class='tc'><img class='introPic' src='trustrating_stim/white_mw012.bmp'><br><font color='red'><strong>Keep</strong></font></div></div><div class='respDiv'><div class='respDivL'>Match<br>(e)</div><div class='respDivR'>No Match<br>(i)</div></div></div>","e","TARGET","1","trustrating_stim/white_mw012.bmp","0","Match","e","1500","trustrating_stim/white_mw012.bmp","red","Keep","REAL","1"
"html-keyboard-response","139","431615","0.0-7.0-5.20","63d81e2fb6c8f0da25fea602","bdp_wmem","Mon Mar 13 2023 13:48:07 GMT-0500 (Central Daylight Time)","682415","Match,No Match","","null","","","","","","<div class='trialBorder'><div class='vertical-center'><img src='img/correct.jpg'></div><div class='respDiv'><div class='respDivL'><font style='color:orange'>Match<br>(e)</font></div><div class='respDivR'>No Match<br>(i)</div></div></div>","null","FEEDBACK","","","","","","","","","","",""
"html-keyboard-response","140","432116","0.0-7.0-1.21","63d81e2fb6c8f0da25fea602","bdp_wmem","Mon Mar 13 2023 13:48:07 GMT-0500 (Central Daylight Time)","682415","Match,No Match","","null","","","","","","<div class='trialBorder'><div class='vertical-center'><img src='img/fixation2_sml.jpg'</img></div></div>","null","FIX","","","","","","","","","","",""
"html-keyboard-response","141","435117","0.0-7.0-2.21","63d81e2fb6c8f0da25fea602","bdp_wmem","Mon Mar 13 2023 13:48:07 GMT-0500 (Central Daylight Time)","682415","Match,No Match","","null","","","","","","<div class='trialBorder'><div class='vertical-center'><img style='vertical-align:center; align:center' src='img/fixation2_sml.jpg'></div><div class='arrayDiv2'><div class='tl'><img class='introPic' src='trustrating_stim/white_mw012.bmp'><br><font color='red'><strong>Keep</strong></font></div><div class='tr'><img class='introPic' src='trustrating_stim/white_mw070.bmp'><br><font color='green'><strong>Share</strong></font></div></div></div>","null","ARRAY","2","trustrating_stim/white_mw012.bmp,trustrating_stim/white_mw070.bmp","0,1","Match","e","3000","","","","",""
"html-keyboard-response","142","439118","0.0-7.0-3.21","63d81e2fb6c8f0da25fea602","bdp_wmem","Mon Mar 13 2023 13:48:07 GMT-0500 (Central Daylight Time)","682415","Match,No Match","","null","","","","","","<div class='trialBorder'><div class='vertical-center'><img src='img/fixation2_sml.jpg'</img></div></div>","null","DELAY","","","","","","","","","","",""
"html-keyboard-response","143","440635","0.0-7.0-4.21","63d81e2fb6c8f0da25fea602","bdp_wmem","Mon Mar 13 2023 13:48:07 GMT-0500 (Central Daylight Time)","682415","Match,No Match","","1515","","","","","","<div class='trialBorder'><div class='targDiv'><div class='tc'><img class='introPic' src='trustrating_stim/white_mw012.bmp'><br><font color='red'><strong>Keep</strong></font></div></div><div class='respDiv'><div class='respDivL'>Match<br>(e)</div><div class='respDivR'>No Match<br>(i)</div></div></div>","i","TARGET","2","trustrating_stim/white_mw012.bmp,trustrating_stim/white_mw070.bmp","0,1","Match","e","3000","trustrating_stim/white_mw012.bmp","red","Keep","REAL","0"
"html-keyboard-response","144","441137","0.0-7.0-5.21","63d81e2fb6c8f0da25fea602","bdp_wmem","Mon Mar 13 2023 13:48:07 GMT-0500 (Central Daylight Time)","682415","Match,No Match","","null","","","","","","<div class='trialBorder'><div class='vertical-center'><img src='img/error.jpg'></div><div class='respDiv'><div class='respDivL'>Match<br>(e)</div><div class='respDivR'><font style='color:orange'>No Match<br>(i)</font></div></div></div>","null","FEEDBACK","","","","","","","","","","",""
"html-keyboard-response","145","441638","0.0-7.0-1.22","63d81e2fb6c8f0da25fea602","bdp_wmem","Mon Mar 13 2023 13:48:07 GMT-0500 (Central Daylight Time)","682415","Match,No Match","","null","","","","","","<div class='trialBorder'><div class='vertical-center'><img src='img/fixation2_sml.jpg'</img></div></div>","null","FIX","","","","","","","","","","",""
"html-keyboard-response","146","444641","0.0-7.0-2.22","63d81e2fb6c8f0da25fea602","bdp_wmem","Mon Mar 13 2023 13:48:07 GMT-0500 (Central Daylight Time)","682415","Match,No Match","","null","","","","","","<div class='trialBorder'><div class='vertical-center'><img style='vertical-align:center; align:center' src='img/fixation2_sml.jpg'></div><div class='arrayDiv2'><div class='tl'><img class='introPic' src='trustrating_stim/white_mw003.bmp'><br><font color='green'><strong>Share</strong></font></div><div class='tr'><img class='introPic' src='trustrating_stim/white_mw013.bmp'><br><font color='red'><strong>Keep</strong></font></div></div></div>","null","ARRAY","2","trustrating_stim/white_mw003.bmp,trustrating_stim/white_mw013.bmp","1,0","Match","e","3000","","","","",""
"html-keyboard-response","147","448642","0.0-7.0-3.22","63d81e2fb6c8f0da25fea602","bdp_wmem","Mon Mar 13 2023 13:48:07 GMT-0500 (Central Daylight Time)","682415","Match,No Match","","null","","","","","","<div class='trialBorder'><div class='vertical-center'><img src='img/fixation2_sml.jpg'</img></div></div>","null","DELAY","","","","","","","","","","",""
"html-keyboard-response","148","449622","0.0-7.0-4.22","63d81e2fb6c8f0da25fea602","bdp_wmem","Mon Mar 13 2023 13:48:07 GMT-0500 (Central Daylight Time)","682415","Match,No Match","","978","","","","","","<div class='trialBorder'><div class='targDiv'><div class='tc'><img class='introPic' src='trustrating_stim/white_mw003.bmp'><br><font color='green'><strong>Share</strong></font></div></div><div class='respDiv'><div class='respDivL'>Match<br>(e)</div><div class='respDivR'>No Match<br>(i)</div></div></div>","e","TARGET","2","trustrating_stim/white_mw003.bmp,trustrating_stim/white_mw013.bmp","1,0","Match","e","3000","trustrating_stim/white_mw003.bmp","green","Share","REAL","1"
"html-keyboard-response","149","450123","0.0-7.0-5.22","63d81e2fb6c8f0da25fea602","bdp_wmem","Mon Mar 13 2023 13:48:07 GMT-0500 (Central Daylight Time)","682415","Match,No Match","","null","","","","","","<div class='trialBorder'><div class='vertical-center'><img src='img/correct.jpg'></div><div class='respDiv'><div class='respDivL'><font style='color:orange'>Match<br>(e)</font></div><div class='respDivR'>No Match<br>(i)</div></div></div>","null","FEEDBACK","","","","","","","","","","",""
"html-keyboard-response","150","450624","0.0-7.0-1.23","63d81e2fb6c8f0da25fea602","bdp_wmem","Mon Mar 13 2023 13:48:07 GMT-0500 (Central Daylight Time)","682415","Match,No Match","","null","","","","","","<div class='trialBorder'><div class='vertical-center'><img src='img/fixation2_sml.jpg'</img></div></div>","null","FIX","","","","","","","","","","",""
"html-keyboard-response","151","453626","0.0-7.0-2.23","63d81e2fb6c8f0da25fea602","bdp_wmem","Mon Mar 13 2023 13:48:07 GMT-0500 (Central Daylight Time)","682415","Match,No Match","","null","","","","","","<div class='trialBorder'><div class='vertical-center'><img style='vertical-align:center; align:center' src='img/fixation2_sml.jpg'></div><div class='arrayDiv2'><div class='tl'><img class='introPic' src='trustrating_stim/white_mw070.bmp'><br><font color='red'><strong>Keep</strong></font></div><div class='tr'><img class='introPic' src='trustrating_stim/white_mw038.bmp'><br><font color='green'><strong>Share</strong></font></div></div></div>","null","ARRAY","2","trustrating_stim/white_mw070.bmp,trustrating_stim/white_mw038.bmp","0,1","noMatchFace","i","3000","","","","",""
"html-keyboard-response","152","457629","0.0-7.0-3.23","63d81e2fb6c8f0da25fea602","bdp_wmem","Mon Mar 13 2023 13:48:07 GMT-0500 (Central Daylight Time)","682415","Match,No Match","","null","","","","","","<div class='trialBorder'><div class='vertical-center'><img src='img/fixation2_sml.jpg'</img></div></div>","null","DELAY","","","","","","","","","","",""
"html-keyboard-response","153","458778","0.0-7.0-4.23","63d81e2fb6c8f0da25fea602","bdp_wmem","Mon Mar 13 2023 13:48:07 GMT-0500 (Central Daylight Time)","682415","Match,No Match","","1148","","","","","","<div class='trialBorder'><div class='targDiv'><div class='tc'><img class='introPic' src='trustrating_stim/white_mw003.bmp'><br><font color='red'><strong>Keep</strong></font></div></div><div class='respDiv'><div class='respDivL'>Match<br>(e)</div><div class='respDivR'>No Match<br>(i)</div></div></div>","e","TARGET","2","trustrating_stim/white_mw070.bmp,trustrating_stim/white_mw038.bmp","0,1","noMatchFace","i","3000","trustrating_stim/white_mw003.bmp","red","Keep","REAL","0"
"html-keyboard-response","154","459279","0.0-7.0-5.23","63d81e2fb6c8f0da25fea602","bdp_wmem","Mon Mar 13 2023 13:48:07 GMT-0500 (Central Daylight Time)","682415","Match,No Match","","null","","","","","","<div class='trialBorder'><div class='vertical-center'><img src='img/error.jpg'></div><div class='respDiv'><div class='respDivL'><font style='color:orange'>Match<br>(e)</font></div><div class='respDivR'>No Match<br>(i)</div></div></div>","null","FEEDBACK","","","","","","","","","","",""
"html-keyboard-response","155","459781","0.0-7.0-1.24","63d81e2fb6c8f0da25fea602","bdp_wmem","Mon Mar 13 2023 13:48:07 GMT-0500 (Central Daylight Time)","682415","Match,No Match","","null","","","","","","<div class='trialBorder'><div class='vertical-center'><img src='img/fixation2_sml.jpg'</img></div></div>","null","FIX","","","","","","","","","","",""
"html-keyboard-response","156","464284","0.0-7.0-2.24","63d81e2fb6c8f0da25fea602","bdp_wmem","Mon Mar 13 2023 13:48:07 GMT-0500 (Central Daylight Time)","682415","Match,No Match","","null","","","","","","<div class='trialBorder'><div class='vertical-center'><img style='vertical-align:center; align:center' src='img/fixation2_sml.jpg'></div><div class='arrayDiv3'><div class='tl'><img class='introPic' src='trustrating_stim/white_mw003.bmp'><br><font color='red'><strong>Keep</strong></font></div><div class='tc'><img class='introPic' src='trustrating_stim/white_mw070.bmp'><br><font color='green'><strong>Share</strong></font></div><div class='tr'><img class='introPic' src='trustrating_stim/white_mw040.bmp'><br><font color='red'><strong>Keep</strong></font></div></div></div>","null","ARRAY","3","trustrating_stim/white_mw003.bmp,trustrating_stim/white_mw070.bmp,trustrating_stim/white_mw040.bmp","0,1,0","Match","e","4500","","","","",""
"html-keyboard-response","157","468286","0.0-7.0-3.24","63d81e2fb6c8f0da25fea602","bdp_wmem","Mon Mar 13 2023 13:48:07 GMT-0500 (Central Daylight Time)","682415","Match,No Match","","null","","","","","","<div class='trialBorder'><div class='vertical-center'><img src='img/fixation2_sml.jpg'</img></div></div>","null","DELAY","","","","","","","","","","",""
"html-keyboard-response","158","469642","0.0-7.0-4.24","63d81e2fb6c8f0da25fea602","bdp_wmem","Mon Mar 13 2023 13:48:07 GMT-0500 (Central Daylight Time)","682415","Match,No Match","","1353","","","","","","<div class='trialBorder'><div class='targDiv'><div class='tc'><img class='introPic' src='trustrating_stim/white_mw040.bmp'><br><font color='red'><strong>Keep</strong></font></div></div><div class='respDiv'><div class='respDivL'>Match<br>(e)</div><div class='respDivR'>No Match<br>(i)</div></div></div>","e","TARGET","3","trustrating_stim/white_mw003.bmp,trustrating_stim/white_mw070.bmp,trustrating_stim/white_mw040.bmp","0,1,0","Match","e","4500","trustrating_stim/white_mw040.bmp","red","Keep","REAL","1"
"html-keyboard-response","159","470144","0.0-7.0-5.24","63d81e2fb6c8f0da25fea602","bdp_wmem","Mon Mar 13 2023 13:48:07 GMT-0500 (Central Daylight Time)","682415","Match,No Match","","null","","","","","","<div class='trialBorder'><div class='vertical-center'><img src='img/correct.jpg'></div><div class='respDiv'><div class='respDivL'><font style='color:orange'>Match<br>(e)</font></div><div class='respDivR'>No Match<br>(i)</div></div></div>","null","FEEDBACK","","","","","","","","","","",""
"html-keyboard-response","160","470646","0.0-7.0-1.25","63d81e2fb6c8f0da25fea602","bdp_wmem","Mon Mar 13 2023 13:48:07 GMT-0500 (Central Daylight Time)","682415","Match,No Match","","null","","","","","","<div class='trialBorder'><div class='vertical-center'><img src='img/fixation2_sml.jpg'</img></div></div>","null","FIX","","","","","","","","","","",""
"html-keyboard-response","161","472148","0.0-7.0-2.25","63d81e2fb6c8f0da25fea602","bdp_wmem","Mon Mar 13 2023 13:48:07 GMT-0500 (Central Daylight Time)","682415","Match,No Match","","null","","","","","","<div class='trialBorder'><div class='vertical-center'><img style='vertical-align:center; align:center' src='img/fixation2_sml.jpg'></div><div class='arrayDiv1'><div class='tc'><img class='introPic' src='trustrating_stim/white_mw003.bmp'><br><font color='green'><strong>Share</strong></font></div></div></div>","null","ARRAY","1","trustrating_stim/white_mw003.bmp","1","noMatchOutcome","i","1500","","","","",""
"html-keyboard-response","162","476150","0.0-7.0-3.25","63d81e2fb6c8f0da25fea602","bdp_wmem","Mon Mar 13 2023 13:48:07 GMT-0500 (Central Daylight Time)","682415","Match,No Match","","null","","","","","","<div class='trialBorder'><div class='vertical-center'><img src='img/fixation2_sml.jpg'</img></div></div>","null","DELAY","","","","","","","","","","",""
"html-keyboard-response","163","476961","0.0-7.0-4.25","63d81e2fb6c8f0da25fea602","bdp_wmem","Mon Mar 13 2023 13:48:07 GMT-0500 (Central Daylight Time)","682415","Match,No Match","","809","","","","","","<div class='trialBorder'><div class='targDiv'><div class='tc'><img class='introPic' src='trustrating_stim/white_mw003.bmp'><br><font color='red'><strong>Keep</strong></font></div></div><div class='respDiv'><div class='respDivL'>Match<br>(e)</div><div class='respDivR'>No Match<br>(i)</div></div></div>","i","TARGET","1","trustrating_stim/white_mw003.bmp","1","noMatchOutcome","i","1500","trustrating_stim/white_mw003.bmp","red","Keep","REAL","1"
"html-keyboard-response","164","477462","0.0-7.0-5.25","63d81e2fb6c8f0da25fea602","bdp_wmem","Mon Mar 13 2023 13:48:07 GMT-0500 (Central Daylight Time)","682415","Match,No Match","","null","","","","","","<div class='trialBorder'><div class='vertical-center'><img src='img/correct.jpg'></div><div class='respDiv'><div class='respDivL'>Match<br>(e)</div><div class='respDivR'><font style='color:orange'>No Match<br>(i)</font></div></div></div>","null","FEEDBACK","","","","","","","","","","",""
"html-keyboard-response","165","477964","0.0-7.0-1.26","63d81e2fb6c8f0da25fea602","bdp_wmem","Mon Mar 13 2023 13:48:07 GMT-0500 (Central Daylight Time)","682415","Match,No Match","","null","","","","","","<div class='trialBorder'><div class='vertical-center'><img src='img/fixation2_sml.jpg'</img></div></div>","null","FIX","","","","","","","","","","",""
"html-keyboard-response","166","482467","0.0-7.0-2.26","63d81e2fb6c8f0da25fea602","bdp_wmem","Mon Mar 13 2023 13:48:07 GMT-0500 (Central Daylight Time)","682415","Match,No Match","","null","","","","","","<div class='trialBorder'><div class='vertical-center'><img style='vertical-align:center; align:center' src='img/fixation2_sml.jpg'></div><div class='arrayDiv3'><div class='tl'><img class='introPic' src='trustrating_stim/white_mw070.bmp'><br><font color='green'><strong>Share</strong></font></div><div class='tc'><img class='introPic' src='trustrating_stim/white_mw042.bmp'><br><font color='red'><strong>Keep</strong></font></div><div class='tr'><img class='introPic' src='trustrating_stim/white_mw078.bmp'><br><font color='red'><strong>Keep</strong></font></div></div></div>","null","ARRAY","3","trustrating_stim/white_mw070.bmp,trustrating_stim/white_mw042.bmp,trustrating_stim/white_mw078.bmp","1,0,0","noMatchFace","i","4500","","","","",""
"html-keyboard-response","167","486469","0.0-7.0-3.26","63d81e2fb6c8f0da25fea602","bdp_wmem","Mon Mar 13 2023 13:48:07 GMT-0500 (Central Daylight Time)","682415","Match,No Match","","null","","","","","","<div class='trialBorder'><div class='vertical-center'><img src='img/fixation2_sml.jpg'</img></div></div>","null","DELAY","","","","","","","","","","",""
"html-keyboard-response","168","487284","0.0-7.0-4.26","63d81e2fb6c8f0da25fea602","bdp_wmem","Mon Mar 13 2023 13:48:07 GMT-0500 (Central Daylight Time)","682415","Match,No Match","","814","","","","","","<div class='trialBorder'><div class='targDiv'><div class='tc'><img class='introPic' src='trustrating_stim/white_mw010.bmp'><br><font color='green'><strong>Share</strong></font></div></div><div class='respDiv'><div class='respDivL'>Match<br>(e)</div><div class='respDivR'>No Match<br>(i)</div></div></div>","e","TARGET","3","trustrating_stim/white_mw070.bmp,trustrating_stim/white_mw042.bmp,trustrating_stim/white_mw078.bmp","1,0,0","noMatchFace","i","4500","trustrating_stim/white_mw010.bmp","green","Share","REAL","0"
"html-keyboard-response","169","487786","0.0-7.0-5.26","63d81e2fb6c8f0da25fea602","bdp_wmem","Mon Mar 13 2023 13:48:07 GMT-0500 (Central Daylight Time)","682415","Match,No Match","","null","","","","","","<div class='trialBorder'><div class='vertical-center'><img src='img/error.jpg'></div><div class='respDiv'><div class='respDivL'><font style='color:orange'>Match<br>(e)</font></div><div class='respDivR'>No Match<br>(i)</div></div></div>","null","FEEDBACK","","","","","","","","","","",""
"html-keyboard-response","170","488286","0.0-7.0-1.27","63d81e2fb6c8f0da25fea602","bdp_wmem","Mon Mar 13 2023 13:48:07 GMT-0500 (Central Daylight Time)","682415","Match,No Match","","null","","","","","","<div class='trialBorder'><div class='vertical-center'><img src='img/fixation2_sml.jpg'</img></div></div>","null","FIX","","","","","","","","","","",""
"html-keyboard-response","171","489788","0.0-7.0-2.27","63d81e2fb6c8f0da25fea602","bdp_wmem","Mon Mar 13 2023 13:48:07 GMT-0500 (Central Daylight Time)","682415","Match,No Match","","null","","","","","","<div class='trialBorder'><div class='vertical-center'><img style='vertical-align:center; align:center' src='img/fixation2_sml.jpg'></div><div class='arrayDiv1'><div class='tc'><img class='introPic' src='trustrating_stim/white_mw092.bmp'><br><font color='green'><strong>Share</strong></font></div></div></div>","null","ARRAY","1","trustrating_stim/white_mw092.bmp","1","noMatchFace","i","1500","","","","",""
"html-keyboard-response","172","493790","0.0-7.0-3.27","63d81e2fb6c8f0da25fea602","bdp_wmem","Mon Mar 13 2023 13:48:07 GMT-0500 (Central Daylight Time)","682415","Match,No Match","","null","","","","","","<div class='trialBorder'><div class='vertical-center'><img src='img/fixation2_sml.jpg'</img></div></div>","null","DELAY","","","","","","","","","","",""
"html-keyboard-response","173","497232","0.0-7.0-4.27","63d81e2fb6c8f0da25fea602","bdp_wmem","Mon Mar 13 2023 13:48:07 GMT-0500 (Central Daylight Time)","682415","Match,No Match","","3440","","","","","","<div class='trialBorder'><div class='targDiv'><div class='tc'><img class='introPic' src='trustrating_stim/white_mw091.bmp'><br><font color='green'><strong>Share</strong></font></div></div><div class='respDiv'><div class='respDivL'>Match<br>(e)</div><div class='respDivR'>No Match<br>(i)</div></div></div>","i","TARGET","1","trustrating_stim/white_mw092.bmp","1","noMatchFace","i","1500","trustrating_stim/white_mw091.bmp","green","Share","REAL","1"
"html-keyboard-response","174","497733","0.0-7.0-5.27","63d81e2fb6c8f0da25fea602","bdp_wmem","Mon Mar 13 2023 13:48:07 GMT-0500 (Central Daylight Time)","682415","Match,No Match","","null","","","","","","<div class='trialBorder'><div class='vertical-center'><img src='img/correct.jpg'></div><div class='respDiv'><div class='respDivL'>Match<br>(e)</div><div class='respDivR'><font style='color:orange'>No Match<br>(i)</font></div></div></div>","null","FEEDBACK","","","","","","","","","","",""
"html-keyboard-response","175","498234","0.0-7.0-1.28","63d81e2fb6c8f0da25fea602","bdp_wmem","Mon Mar 13 2023 13:48:07 GMT-0500 (Central Daylight Time)","682415","Match,No Match","","null","","","","","","<div class='trialBorder'><div class='vertical-center'><img src='img/fixation2_sml.jpg'</img></div></div>","null","FIX","","","","","","","","","","",""
"html-keyboard-response","176","502736","0.0-7.0-2.28","63d81e2fb6c8f0da25fea602","bdp_wmem","Mon Mar 13 2023 13:48:07 GMT-0500 (Central Daylight Time)","682415","Match,No Match","","null","","","","","","<div class='trialBorder'><div class='vertical-center'><img style='vertical-align:center; align:center' src='img/fixation2_sml.jpg'></div><div class='arrayDiv3'><div class='tl'><img class='introPic' src='trustrating_stim/white_mw012.bmp'><br><font color='red'><strong>Keep</strong></font></div><div class='tc'><img class='introPic' src='trustrating_stim/white_mw003.bmp'><br><font color='green'><strong>Share</strong></font></div><div class='tr'><img class='introPic' src='trustrating_stim/white_mw078.bmp'><br><font color='green'><strong>Share</strong></font></div></div></div>","null","ARRAY","3","trustrating_stim/white_mw012.bmp,trustrating_stim/white_mw003.bmp,trustrating_stim/white_mw078.bmp","0,1,1","Match","e","4500","","","","",""
"html-keyboard-response","177","506738","0.0-7.0-3.28","63d81e2fb6c8f0da25fea602","bdp_wmem","Mon Mar 13 2023 13:48:07 GMT-0500 (Central Daylight Time)","682415","Match,No Match","","null","","","","","","<div class='trialBorder'><div class='vertical-center'><img src='img/fixation2_sml.jpg'</img></div></div>","null","DELAY","","","","","","","","","","",""
"html-keyboard-response","178","508615","0.0-7.0-4.28","63d81e2fb6c8f0da25fea602","bdp_wmem","Mon Mar 13 2023 13:48:07 GMT-0500 (Central Daylight Time)","682415","Match,No Match","","1876","","","","","","<div class='trialBorder'><div class='targDiv'><div class='tc'><img class='introPic' src='trustrating_stim/white_mw078.bmp'><br><font color='green'><strong>Share</strong></font></div></div><div class='respDiv'><div class='respDivL'>Match<br>(e)</div><div class='respDivR'>No Match<br>(i)</div></div></div>","i","TARGET","3","trustrating_stim/white_mw012.bmp,trustrating_stim/white_mw003.bmp,trustrating_stim/white_mw078.bmp","0,1,1","Match","e","4500","trustrating_stim/white_mw078.bmp","green","Share","REAL","0"
"html-keyboard-response","179","509117","0.0-7.0-5.28","63d81e2fb6c8f0da25fea602","bdp_wmem","Mon Mar 13 2023 13:48:07 GMT-0500 (Central Daylight Time)","682415","Match,No Match","","null","","","","","","<div class='trialBorder'><div class='vertical-center'><img src='img/error.jpg'></div><div class='respDiv'><div class='respDivL'>Match<br>(e)</div><div class='respDivR'><font style='color:orange'>No Match<br>(i)</font></div></div></div>","null","FEEDBACK","","","","","","","","","","",""
"html-keyboard-response","180","509619","0.0-7.0-1.29","63d81e2fb6c8f0da25fea602","bdp_wmem","Mon Mar 13 2023 13:48:07 GMT-0500 (Central Daylight Time)","682415","Match,No Match","","null","","","","","","<div class='trialBorder'><div class='vertical-center'><img src='img/fixation2_sml.jpg'</img></div></div>","null","FIX","","","","","","","","","","",""
"html-keyboard-response","181","514122","0.0-7.0-2.29","63d81e2fb6c8f0da25fea602","bdp_wmem","Mon Mar 13 2023 13:48:07 GMT-0500 (Central Daylight Time)","682415","Match,No Match","","null","","","","","","<div class='trialBorder'><div class='vertical-center'><img style='vertical-align:center; align:center' src='img/fixation2_sml.jpg'></div><div class='arrayDiv3'><div class='tl'><img class='introPic' src='trustrating_stim/white_mw012.bmp'><br><font color='red'><strong>Keep</strong></font></div><div class='tc'><img class='introPic' src='trustrating_stim/white_mw013.bmp'><br><font color='green'><strong>Share</strong></font></div><div class='tr'><img class='introPic' src='trustrating_stim/white_mw085.bmp'><br><font color='red'><strong>Keep</strong></font></div></div></div>","null","ARRAY","3","trustrating_stim/white_mw012.bmp,trustrating_stim/white_mw013.bmp,trustrating_stim/white_mw085.bmp","0,1,0","noMatchOutcome","i","4500","","","","",""
"html-keyboard-response","182","518123","0.0-7.0-3.29","63d81e2fb6c8f0da25fea602","bdp_wmem","Mon Mar 13 2023 13:48:07 GMT-0500 (Central Daylight Time)","682415","Match,No Match","","null","","","","","","<div class='trialBorder'><div class='vertical-center'><img src='img/fixation2_sml.jpg'</img></div></div>","null","DELAY","","","","","","","","","","",""
"html-keyboard-response","183","518899","0.0-7.0-4.29","63d81e2fb6c8f0da25fea602","bdp_wmem","Mon Mar 13 2023 13:48:07 GMT-0500 (Central Daylight Time)","682415","Match,No Match","","773","","","","","","<div class='trialBorder'><div class='targDiv'><div class='tc'><img class='introPic' src='trustrating_stim/white_mw085.bmp'><br><font color='green'><strong>Share</strong></font></div></div><div class='respDiv'><div class='respDivL'>Match<br>(e)</div><div class='respDivR'>No Match<br>(i)</div></div></div>","e","TARGET","3","trustrating_stim/white_mw012.bmp,trustrating_stim/white_mw013.bmp,trustrating_stim/white_mw085.bmp","0,1,0","noMatchOutcome","i","4500","trustrating_stim/white_mw085.bmp","green","Share","REAL","0"
"html-keyboard-response","184","519401","0.0-7.0-5.29","63d81e2fb6c8f0da25fea602","bdp_wmem","Mon Mar 13 2023 13:48:07 GMT-0500 (Central Daylight Time)","682415","Match,No Match","","null","","","","","","<div class='trialBorder'><div class='vertical-center'><img src='img/error.jpg'></div><div class='respDiv'><div class='respDivL'><font style='color:orange'>Match<br>(e)</font></div><div class='respDivR'>No Match<br>(i)</div></div></div>","null","FEEDBACK","","","","","","","","","","",""
"html-keyboard-response","185","519903","0.0-7.0-1.30","63d81e2fb6c8f0da25fea602","bdp_wmem","Mon Mar 13 2023 13:48:07 GMT-0500 (Central Daylight Time)","682415","Match,No Match","","null","","","","","","<div class='trialBorder'><div class='vertical-center'><img src='img/fixation2_sml.jpg'</img></div></div>","null","FIX","","","","","","","","","","",""
"html-keyboard-response","186","524406","0.0-7.0-2.30","63d81e2fb6c8f0da25fea602","bdp_wmem","Mon Mar 13 2023 13:48:07 GMT-0500 (Central Daylight Time)","682415","Match,No Match","","null","","","","","","<div class='trialBorder'><div class='vertical-center'><img style='vertical-align:center; align:center' src='img/fixation2_sml.jpg'></div><div class='arrayDiv3'><div class='tl'><img class='introPic' src='trustrating_stim/white_mw042.bmp'><br><font color='green'><strong>Share</strong></font></div><div class='tc'><img class='introPic' src='trustrating_stim/white_mw038.bmp'><br><font color='green'><strong>Share</strong></font></div><div class='tr'><img class='introPic' src='trustrating_stim/white_mw085.bmp'><br><font color='red'><strong>Keep</strong></font></div></div></div>","null","ARRAY","3","trustrating_stim/white_mw042.bmp,trustrating_stim/white_mw038.bmp,trustrating_stim/white_mw085.bmp","1,1,0","noMatchOutcome","i","4500","","","","",""
