"trial_type","trial_index","time_elapsed","internal_node_id","subject_id","task","startTime","totalTime","labels","view_history","rt","event","trial","time","trialtype","success","stimulus","key_press","stimType","arraySize","arrayFaces","arrayOutcomes","matchType","corrResp","arrayDur","targFace","targCol","targOutcome","trialType","corr"
"pavlovia","0","2","0.0-0.0","61088f97759a1199340202e9","bdp_wmem","Wed Jul 27 2022 23:41:17 GMT-0500 (Central Daylight Time)","654627","Match,No Match","","","","","","","","","","","","","","","","","","","","",""
"instructions","1","2631","0.0-1.0","61088f97759a1199340202e9","bdp_wmem","Wed Jul 27 2022 23:41:17 GMT-0500 (Central Daylight Time)","654627","Match,No Match","[{""page_index"":0,""viewing_time"":2629}]","2629","","","","","","","","","","","","","","","","","","",""
"","","","","61088f97759a1199340202e9","bdp_wmem","Wed Jul 27 2022 23:41:17 GMT-0500 (Central Daylight Time)","654627","Match,No Match","","","fullscreenenter","2","4981","fullscreenenter","","","","","","","","","","","","","","",""
"fullscreen","2","5973","0.0-2.0","61088f97759a1199340202e9","bdp_wmem","Wed Jul 27 2022 23:41:17 GMT-0500 (Central Daylight Time)","654627","Match,No Match","","","","","","","true","","","","","","","","","","","","","",""
"instructions","3","116707","0.0-4.0","61088f97759a1199340202e9","bdp_wmem","Wed Jul 27 2022 23:41:17 GMT-0500 (Central Daylight Time)","654627","Match,No Match","[{""page_index"":0,""viewing_time"":40301},{""page_index"":1,""viewing_time"":47186},{""page_index"":2,""viewing_time"":13791},{""page_index"":3,""viewing_time"":3036},{""page_index"":4,""viewing_time"":6419}]","110733","","","","","","","","","","","","","","","","","","",""
"html-keyboard-response","4","117209","0.0-5.0-1.0","61088f97759a1199340202e9","bdp_wmem","Wed Jul 27 2022 23:41:17 GMT-0500 (Central Daylight Time)","654627","Match,No Match","","null","","","","","","<div class='trialBorder'><div class='vertical-center'><img src='img/fixation2_sml.jpg'</img></div></div>","null","FIX","","","","","","","","","","",""
"html-keyboard-response","5","118711","0.0-5.0-2.0","61088f97759a1199340202e9","bdp_wmem","Wed Jul 27 2022 23:41:17 GMT-0500 (Central Daylight Time)","654627","Match,No Match","","null","","","","","","<div class='trialBorder'><div class='vertical-center'><img style='vertical-align:center; align:center' src='img/fixation2_sml.jpg'></div><div class='arrayDiv1'><div class='tc'><img class='introPic' src='trustrating_stim/white_mw013.bmp'><br><font color='green'><strong>Share</strong></font></div></div></div>","null","ARRAY","1","trustrating_stim/white_mw013.bmp","1","Match","e","1500","","","","",""
"html-keyboard-response","6","122712","0.0-5.0-3.0","61088f97759a1199340202e9","bdp_wmem","Wed Jul 27 2022 23:41:17 GMT-0500 (Central Daylight Time)","654627","Match,No Match","","null","","","","","","<div class='trialBorder'><div class='vertical-center'><img src='img/fixation2_sml.jpg'</img></div></div>","null","DELAY","","","","","","","","","","",""
"html-keyboard-response","7","124496","0.0-5.0-4.0","61088f97759a1199340202e9","bdp_wmem","Wed Jul 27 2022 23:41:17 GMT-0500 (Central Daylight Time)","654627","Match,No Match","","1783","","","","","","<div class='trialBorder'><div class='targDiv'><div class='tc'><img class='introPic' src='trustrating_stim/white_mw013.bmp'><br><font color='green'><strong>Share</strong></font></div></div><div class='respDiv'><div class='respDivL'>Match<br>(e)</div><div class='respDivR'>No Match<br>(i)</div></div></div>","e","TARGET","1","trustrating_stim/white_mw013.bmp","1","Match","e","1500","trustrating_stim/white_mw013.bmp","green","Share","PRACTICE","1"
"html-keyboard-response","8","124998","0.0-5.0-5.0","61088f97759a1199340202e9","bdp_wmem","Wed Jul 27 2022 23:41:17 GMT-0500 (Central Daylight Time)","654627","Match,No Match","","null","","","","","","<div class='trialBorder'><div class='vertical-center'><img src='img/correct.jpg'></div><div class='respDiv'><div class='respDivL'><font style='color:orange'>Match<br>(e)</font></div><div class='respDivR'>No Match<br>(i)</div></div></div>","null","FEEDBACK","","","","","","","","","","",""
"html-keyboard-response","9","125499","0.0-5.0-1.1","61088f97759a1199340202e9","bdp_wmem","Wed Jul 27 2022 23:41:17 GMT-0500 (Central Daylight Time)","654627","Match,No Match","","null","","","","","","<div class='trialBorder'><div class='vertical-center'><img src='img/fixation2_sml.jpg'</img></div></div>","null","FIX","","","","","","","","","","",""
"html-keyboard-response","10","130000","0.0-5.0-2.1","61088f97759a1199340202e9","bdp_wmem","Wed Jul 27 2022 23:41:17 GMT-0500 (Central Daylight Time)","654627","Match,No Match","","null","","","","","","<div class='trialBorder'><div class='vertical-center'><img style='vertical-align:center; align:center' src='img/fixation2_sml.jpg'></div><div class='arrayDiv3'><div class='tl'><img class='introPic' src='trustrating_stim/white_mw042.bmp'><br><font color='green'><strong>Share</strong></font></div><div class='tc'><img class='introPic' src='trustrating_stim/white_mw070.bmp'><br><font color='red'><strong>Keep</strong></font></div><div class='tr'><img class='introPic' src='trustrating_stim/white_mw013.bmp'><br><font color='green'><strong>Share</strong></font></div></div></div>","null","ARRAY","3","trustrating_stim/white_mw042.bmp,trustrating_stim/white_mw070.bmp,trustrating_stim/white_mw013.bmp","1,0,1","noMatchOutcome","i","4500","","","","",""
"html-keyboard-response","11","134002","0.0-5.0-3.1","61088f97759a1199340202e9","bdp_wmem","Wed Jul 27 2022 23:41:17 GMT-0500 (Central Daylight Time)","654627","Match,No Match","","null","","","","","","<div class='trialBorder'><div class='vertical-center'><img src='img/fixation2_sml.jpg'</img></div></div>","null","DELAY","","","","","","","","","","",""
"html-keyboard-response","12","135948","0.0-5.0-4.1","61088f97759a1199340202e9","bdp_wmem","Wed Jul 27 2022 23:41:17 GMT-0500 (Central Daylight Time)","654627","Match,No Match","","1944","","","","","","<div class='trialBorder'><div class='targDiv'><div class='tc'><img class='introPic' src='trustrating_stim/white_mw070.bmp'><br><font color='green'><strong>Share</strong></font></div></div><div class='respDiv'><div class='respDivL'>Match<br>(e)</div><div class='respDivR'>No Match<br>(i)</div></div></div>","i","TARGET","3","trustrating_stim/white_mw042.bmp,trustrating_stim/white_mw070.bmp,trustrating_stim/white_mw013.bmp","1,0,1","noMatchOutcome","i","4500","trustrating_stim/white_mw070.bmp","green","Share","PRACTICE","1"
"html-keyboard-response","13","136448","0.0-5.0-5.1","61088f97759a1199340202e9","bdp_wmem","Wed Jul 27 2022 23:41:17 GMT-0500 (Central Daylight Time)","654627","Match,No Match","","null","","","","","","<div class='trialBorder'><div class='vertical-center'><img src='img/correct.jpg'></div><div class='respDiv'><div class='respDivL'>Match<br>(e)</div><div class='respDivR'><font style='color:orange'>No Match<br>(i)</font></div></div></div>","null","FEEDBACK","","","","","","","","","","",""
"html-keyboard-response","14","136949","0.0-5.0-1.2","61088f97759a1199340202e9","bdp_wmem","Wed Jul 27 2022 23:41:17 GMT-0500 (Central Daylight Time)","654627","Match,No Match","","null","","","","","","<div class='trialBorder'><div class='vertical-center'><img src='img/fixation2_sml.jpg'</img></div></div>","null","FIX","","","","","","","","","","",""
"html-keyboard-response","15","139951","0.0-5.0-2.2","61088f97759a1199340202e9","bdp_wmem","Wed Jul 27 2022 23:41:17 GMT-0500 (Central Daylight Time)","654627","Match,No Match","","null","","","","","","<div class='trialBorder'><div class='vertical-center'><img style='vertical-align:center; align:center' src='img/fixation2_sml.jpg'></div><div class='arrayDiv2'><div class='tl'><img class='introPic' src='trustrating_stim/white_mw042.bmp'><br><font color='red'><strong>Keep</strong></font></div><div class='tr'><img class='introPic' src='trustrating_stim/white_mw070.bmp'><br><font color='green'><strong>Share</strong></font></div></div></div>","null","ARRAY","2","trustrating_stim/white_mw042.bmp,trustrating_stim/white_mw070.bmp","0,1","noMatchFace","i","3000","","","","",""
"html-keyboard-response","16","143953","0.0-5.0-3.2","61088f97759a1199340202e9","bdp_wmem","Wed Jul 27 2022 23:41:17 GMT-0500 (Central Daylight Time)","654627","Match,No Match","","null","","","","","","<div class='trialBorder'><div class='vertical-center'><img src='img/fixation2_sml.jpg'</img></div></div>","null","DELAY","","","","","","","","","","",""
"html-keyboard-response","17","146317","0.0-5.0-4.2","61088f97759a1199340202e9","bdp_wmem","Wed Jul 27 2022 23:41:17 GMT-0500 (Central Daylight Time)","654627","Match,No Match","","2363","","","","","","<div class='trialBorder'><div class='targDiv'><div class='tc'><img class='introPic' src='trustrating_stim/white_mw003.bmp'><br><font color='green'><strong>Share</strong></font></div></div><div class='respDiv'><div class='respDivL'>Match<br>(e)</div><div class='respDivR'>No Match<br>(i)</div></div></div>","i","TARGET","2","trustrating_stim/white_mw042.bmp,trustrating_stim/white_mw070.bmp","0,1","noMatchFace","i","3000","trustrating_stim/white_mw003.bmp","green","Share","PRACTICE","1"
"html-keyboard-response","18","146818","0.0-5.0-5.2","61088f97759a1199340202e9","bdp_wmem","Wed Jul 27 2022 23:41:17 GMT-0500 (Central Daylight Time)","654627","Match,No Match","","null","","","","","","<div class='trialBorder'><div class='vertical-center'><img src='img/correct.jpg'></div><div class='respDiv'><div class='respDivL'>Match<br>(e)</div><div class='respDivR'><font style='color:orange'>No Match<br>(i)</font></div></div></div>","null","FEEDBACK","","","","","","","","","","",""
"html-keyboard-response","19","147319","0.0-5.0-1.3","61088f97759a1199340202e9","bdp_wmem","Wed Jul 27 2022 23:41:17 GMT-0500 (Central Daylight Time)","654627","Match,No Match","","null","","","","","","<div class='trialBorder'><div class='vertical-center'><img src='img/fixation2_sml.jpg'</img></div></div>","null","FIX","","","","","","","","","","",""
"html-keyboard-response","20","151821","0.0-5.0-2.3","61088f97759a1199340202e9","bdp_wmem","Wed Jul 27 2022 23:41:17 GMT-0500 (Central Daylight Time)","654627","Match,No Match","","null","","","","","","<div class='trialBorder'><div class='vertical-center'><img style='vertical-align:center; align:center' src='img/fixation2_sml.jpg'></div><div class='arrayDiv3'><div class='tl'><img class='introPic' src='trustrating_stim/white_mw040.bmp'><br><font color='red'><strong>Keep</strong></font></div><div class='tc'><img class='introPic' src='trustrating_stim/white_mw013.bmp'><br><font color='green'><strong>Share</strong></font></div><div class='tr'><img class='introPic' src='trustrating_stim/white_mw010.bmp'><br><font color='red'><strong>Keep</strong></font></div></div></div>","null","ARRAY","3","trustrating_stim/white_mw040.bmp,trustrating_stim/white_mw013.bmp,trustrating_stim/white_mw010.bmp","0,1,0","Match","e","4500","","","","",""
"html-keyboard-response","21","155823","0.0-5.0-3.3","61088f97759a1199340202e9","bdp_wmem","Wed Jul 27 2022 23:41:17 GMT-0500 (Central Daylight Time)","654627","Match,No Match","","null","","","","","","<div class='trialBorder'><div class='vertical-center'><img src='img/fixation2_sml.jpg'</img></div></div>","null","DELAY","","","","","","","","","","",""
"html-keyboard-response","22","158164","0.0-5.0-4.3","61088f97759a1199340202e9","bdp_wmem","Wed Jul 27 2022 23:41:17 GMT-0500 (Central Daylight Time)","654627","Match,No Match","","2340","","","","","","<div class='trialBorder'><div class='targDiv'><div class='tc'><img class='introPic' src='trustrating_stim/white_mw013.bmp'><br><font color='green'><strong>Share</strong></font></div></div><div class='respDiv'><div class='respDivL'>Match<br>(e)</div><div class='respDivR'>No Match<br>(i)</div></div></div>","e","TARGET","3","trustrating_stim/white_mw040.bmp,trustrating_stim/white_mw013.bmp,trustrating_stim/white_mw010.bmp","0,1,0","Match","e","4500","trustrating_stim/white_mw013.bmp","green","Share","PRACTICE","1"
"html-keyboard-response","23","158665","0.0-5.0-5.3","61088f97759a1199340202e9","bdp_wmem","Wed Jul 27 2022 23:41:17 GMT-0500 (Central Daylight Time)","654627","Match,No Match","","null","","","","","","<div class='trialBorder'><div class='vertical-center'><img src='img/correct.jpg'></div><div class='respDiv'><div class='respDivL'><font style='color:orange'>Match<br>(e)</font></div><div class='respDivR'>No Match<br>(i)</div></div></div>","null","FEEDBACK","","","","","","","","","","",""
"html-keyboard-response","24","159166","0.0-5.0-1.4","61088f97759a1199340202e9","bdp_wmem","Wed Jul 27 2022 23:41:17 GMT-0500 (Central Daylight Time)","654627","Match,No Match","","null","","","","","","<div class='trialBorder'><div class='vertical-center'><img src='img/fixation2_sml.jpg'</img></div></div>","null","FIX","","","","","","","","","","",""
"html-keyboard-response","25","160667","0.0-5.0-2.4","61088f97759a1199340202e9","bdp_wmem","Wed Jul 27 2022 23:41:17 GMT-0500 (Central Daylight Time)","654627","Match,No Match","","null","","","","","","<div class='trialBorder'><div class='vertical-center'><img style='vertical-align:center; align:center' src='img/fixation2_sml.jpg'></div><div class='arrayDiv1'><div class='tc'><img class='introPic' src='trustrating_stim/white_mw013.bmp'><br><font color='red'><strong>Keep</strong></font></div></div></div>","null","ARRAY","1","trustrating_stim/white_mw013.bmp","0","noMatchFace","i","1500","","","","",""
"html-keyboard-response","26","164668","0.0-5.0-3.4","61088f97759a1199340202e9","bdp_wmem","Wed Jul 27 2022 23:41:17 GMT-0500 (Central Daylight Time)","654627","Match,No Match","","null","","","","","","<div class='trialBorder'><div class='vertical-center'><img src='img/fixation2_sml.jpg'</img></div></div>","null","DELAY","","","","","","","","","","",""
"html-keyboard-response","27","165825","0.0-5.0-4.4","61088f97759a1199340202e9","bdp_wmem","Wed Jul 27 2022 23:41:17 GMT-0500 (Central Daylight Time)","654627","Match,No Match","","1156","","","","","","<div class='trialBorder'><div class='targDiv'><div class='tc'><img class='introPic' src='trustrating_stim/white_mw010.bmp'><br><font color='red'><strong>Keep</strong></font></div></div><div class='respDiv'><div class='respDivL'>Match<br>(e)</div><div class='respDivR'>No Match<br>(i)</div></div></div>","i","TARGET","1","trustrating_stim/white_mw013.bmp","0","noMatchFace","i","1500","trustrating_stim/white_mw010.bmp","red","Keep","PRACTICE","1"
"html-keyboard-response","28","166326","0.0-5.0-5.4","61088f97759a1199340202e9","bdp_wmem","Wed Jul 27 2022 23:41:17 GMT-0500 (Central Daylight Time)","654627","Match,No Match","","null","","","","","","<div class='trialBorder'><div class='vertical-center'><img src='img/correct.jpg'></div><div class='respDiv'><div class='respDivL'>Match<br>(e)</div><div class='respDivR'><font style='color:orange'>No Match<br>(i)</font></div></div></div>","null","FEEDBACK","","","","","","","","","","",""
"html-keyboard-response","29","166827","0.0-5.0-1.5","61088f97759a1199340202e9","bdp_wmem","Wed Jul 27 2022 23:41:17 GMT-0500 (Central Daylight Time)","654627","Match,No Match","","null","","","","","","<div class='trialBorder'><div class='vertical-center'><img src='img/fixation2_sml.jpg'</img></div></div>","null","FIX","","","","","","","","","","",""
"html-keyboard-response","30","169828","0.0-5.0-2.5","61088f97759a1199340202e9","bdp_wmem","Wed Jul 27 2022 23:41:17 GMT-0500 (Central Daylight Time)","654627","Match,No Match","","null","","","","","","<div class='trialBorder'><div class='vertical-center'><img style='vertical-align:center; align:center' src='img/fixation2_sml.jpg'></div><div class='arrayDiv2'><div class='tl'><img class='introPic' src='trustrating_stim/white_mw078.bmp'><br><font color='green'><strong>Share</strong></font></div><div class='tr'><img class='introPic' src='trustrating_stim/white_mw092.bmp'><br><font color='red'><strong>Keep</strong></font></div></div></div>","null","ARRAY","2","trustrating_stim/white_mw078.bmp,trustrating_stim/white_mw092.bmp","1,0","Match","e","3000","","","","",""
"html-keyboard-response","31","173829","0.0-5.0-3.5","61088f97759a1199340202e9","bdp_wmem","Wed Jul 27 2022 23:41:17 GMT-0500 (Central Daylight Time)","654627","Match,No Match","","null","","","","","","<div class='trialBorder'><div class='vertical-center'><img src='img/fixation2_sml.jpg'</img></div></div>","null","DELAY","","","","","","","","","","",""
"html-keyboard-response","32","176069","0.0-5.0-4.5","61088f97759a1199340202e9","bdp_wmem","Wed Jul 27 2022 23:41:17 GMT-0500 (Central Daylight Time)","654627","Match,No Match","","2238","","","","","","<div class='trialBorder'><div class='targDiv'><div class='tc'><img class='introPic' src='trustrating_stim/white_mw092.bmp'><br><font color='red'><strong>Keep</strong></font></div></div><div class='respDiv'><div class='respDivL'>Match<br>(e)</div><div class='respDivR'>No Match<br>(i)</div></div></div>","e","TARGET","2","trustrating_stim/white_mw078.bmp,trustrating_stim/white_mw092.bmp","1,0","Match","e","3000","trustrating_stim/white_mw092.bmp","red","Keep","PRACTICE","1"
"html-keyboard-response","33","176570","0.0-5.0-5.5","61088f97759a1199340202e9","bdp_wmem","Wed Jul 27 2022 23:41:17 GMT-0500 (Central Daylight Time)","654627","Match,No Match","","null","","","","","","<div class='trialBorder'><div class='vertical-center'><img src='img/correct.jpg'></div><div class='respDiv'><div class='respDivL'><font style='color:orange'>Match<br>(e)</font></div><div class='respDivR'>No Match<br>(i)</div></div></div>","null","FEEDBACK","","","","","","","","","","",""
"instructions","34","181683","0.0-6.0","61088f97759a1199340202e9","bdp_wmem","Wed Jul 27 2022 23:41:17 GMT-0500 (Central Daylight Time)","654627","Match,No Match","[{""page_index"":0,""viewing_time"":5113}]","5113","","","","","","","","","","","","","","","","","","",""
"html-keyboard-response","35","182184","0.0-7.0-1.0","61088f97759a1199340202e9","bdp_wmem","Wed Jul 27 2022 23:41:17 GMT-0500 (Central Daylight Time)","654627","Match,No Match","","null","","","","","","<div class='trialBorder'><div class='vertical-center'><img src='img/fixation2_sml.jpg'</img></div></div>","null","FIX","","","","","","","","","","",""
"html-keyboard-response","36","183685","0.0-7.0-2.0","61088f97759a1199340202e9","bdp_wmem","Wed Jul 27 2022 23:41:17 GMT-0500 (Central Daylight Time)","654627","Match,No Match","","null","","","","","","<div class='trialBorder'><div class='vertical-center'><img style='vertical-align:center; align:center' src='img/fixation2_sml.jpg'></div><div class='arrayDiv1'><div class='tc'><img class='introPic' src='trustrating_stim/white_mw003.bmp'><br><font color='red'><strong>Keep</strong></font></div></div></div>","null","ARRAY","1","trustrating_stim/white_mw003.bmp","0","noMatchFace","i","1500","","","","",""
"html-keyboard-response","37","187687","0.0-7.0-3.0","61088f97759a1199340202e9","bdp_wmem","Wed Jul 27 2022 23:41:17 GMT-0500 (Central Daylight Time)","654627","Match,No Match","","null","","","","","","<div class='trialBorder'><div class='vertical-center'><img src='img/fixation2_sml.jpg'</img></div></div>","null","DELAY","","","","","","","","","","",""
"html-keyboard-response","38","189227","0.0-7.0-4.0","61088f97759a1199340202e9","bdp_wmem","Wed Jul 27 2022 23:41:17 GMT-0500 (Central Daylight Time)","654627","Match,No Match","","1539","","","","","","<div class='trialBorder'><div class='targDiv'><div class='tc'><img class='introPic' src='trustrating_stim/white_mw010.bmp'><br><font color='red'><strong>Keep</strong></font></div></div><div class='respDiv'><div class='respDivL'>Match<br>(e)</div><div class='respDivR'>No Match<br>(i)</div></div></div>","i","TARGET","1","trustrating_stim/white_mw003.bmp","0","noMatchFace","i","1500","trustrating_stim/white_mw010.bmp","red","Keep","REAL","1"
"html-keyboard-response","39","189728","0.0-7.0-5.0","61088f97759a1199340202e9","bdp_wmem","Wed Jul 27 2022 23:41:17 GMT-0500 (Central Daylight Time)","654627","Match,No Match","","null","","","","","","<div class='trialBorder'><div class='vertical-center'><img src='img/correct.jpg'></div><div class='respDiv'><div class='respDivL'>Match<br>(e)</div><div class='respDivR'><font style='color:orange'>No Match<br>(i)</font></div></div></div>","null","FEEDBACK","","","","","","","","","","",""
"html-keyboard-response","40","190229","0.0-7.0-1.1","61088f97759a1199340202e9","bdp_wmem","Wed Jul 27 2022 23:41:17 GMT-0500 (Central Daylight Time)","654627","Match,No Match","","null","","","","","","<div class='trialBorder'><div class='vertical-center'><img src='img/fixation2_sml.jpg'</img></div></div>","null","FIX","","","","","","","","","","",""
"html-keyboard-response","41","191731","0.0-7.0-2.1","61088f97759a1199340202e9","bdp_wmem","Wed Jul 27 2022 23:41:17 GMT-0500 (Central Daylight Time)","654627","Match,No Match","","null","","","","","","<div class='trialBorder'><div class='vertical-center'><img style='vertical-align:center; align:center' src='img/fixation2_sml.jpg'></div><div class='arrayDiv1'><div class='tc'><img class='introPic' src='trustrating_stim/white_mw078.bmp'><br><font color='red'><strong>Keep</strong></font></div></div></div>","null","ARRAY","1","trustrating_stim/white_mw078.bmp","0","noMatchOutcome","i","1500","","","","",""
"html-keyboard-response","42","195732","0.0-7.0-3.1","61088f97759a1199340202e9","bdp_wmem","Wed Jul 27 2022 23:41:17 GMT-0500 (Central Daylight Time)","654627","Match,No Match","","null","","","","","","<div class='trialBorder'><div class='vertical-center'><img src='img/fixation2_sml.jpg'</img></div></div>","null","DELAY","","","","","","","","","","",""
"html-keyboard-response","43","197325","0.0-7.0-4.1","61088f97759a1199340202e9","bdp_wmem","Wed Jul 27 2022 23:41:17 GMT-0500 (Central Daylight Time)","654627","Match,No Match","","1592","","","","","","<div class='trialBorder'><div class='targDiv'><div class='tc'><img class='introPic' src='trustrating_stim/white_mw078.bmp'><br><font color='green'><strong>Share</strong></font></div></div><div class='respDiv'><div class='respDivL'>Match<br>(e)</div><div class='respDivR'>No Match<br>(i)</div></div></div>","i","TARGET","1","trustrating_stim/white_mw078.bmp","0","noMatchOutcome","i","1500","trustrating_stim/white_mw078.bmp","green","Share","REAL","1"
"html-keyboard-response","44","197826","0.0-7.0-5.1","61088f97759a1199340202e9","bdp_wmem","Wed Jul 27 2022 23:41:17 GMT-0500 (Central Daylight Time)","654627","Match,No Match","","null","","","","","","<div class='trialBorder'><div class='vertical-center'><img src='img/correct.jpg'></div><div class='respDiv'><div class='respDivL'>Match<br>(e)</div><div class='respDivR'><font style='color:orange'>No Match<br>(i)</font></div></div></div>","null","FEEDBACK","","","","","","","","","","",""
"html-keyboard-response","45","198328","0.0-7.0-1.2","61088f97759a1199340202e9","bdp_wmem","Wed Jul 27 2022 23:41:17 GMT-0500 (Central Daylight Time)","654627","Match,No Match","","null","","","","","","<div class='trialBorder'><div class='vertical-center'><img src='img/fixation2_sml.jpg'</img></div></div>","null","FIX","","","","","","","","","","",""
"html-keyboard-response","46","202829","0.0-7.0-2.2","61088f97759a1199340202e9","bdp_wmem","Wed Jul 27 2022 23:41:17 GMT-0500 (Central Daylight Time)","654627","Match,No Match","","null","","","","","","<div class='trialBorder'><div class='vertical-center'><img style='vertical-align:center; align:center' src='img/fixation2_sml.jpg'></div><div class='arrayDiv3'><div class='tl'><img class='introPic' src='trustrating_stim/white_mw040.bmp'><br><font color='green'><strong>Share</strong></font></div><div class='tc'><img class='introPic' src='trustrating_stim/white_mw091.bmp'><br><font color='red'><strong>Keep</strong></font></div><div class='tr'><img class='introPic' src='trustrating_stim/white_mw078.bmp'><br><font color='green'><strong>Share</strong></font></div></div></div>","null","ARRAY","3","trustrating_stim/white_mw040.bmp,trustrating_stim/white_mw091.bmp,trustrating_stim/white_mw078.bmp","1,0,1","Match","e","4500","","","","",""
"html-keyboard-response","47","206830","0.0-7.0-3.2","61088f97759a1199340202e9","bdp_wmem","Wed Jul 27 2022 23:41:17 GMT-0500 (Central Daylight Time)","654627","Match,No Match","","null","","","","","","<div class='trialBorder'><div class='vertical-center'><img src='img/fixation2_sml.jpg'</img></div></div>","null","DELAY","","","","","","","","","","",""
"html-keyboard-response","48","208388","0.0-7.0-4.2","61088f97759a1199340202e9","bdp_wmem","Wed Jul 27 2022 23:41:17 GMT-0500 (Central Daylight Time)","654627","Match,No Match","","1556","","","","","","<div class='trialBorder'><div class='targDiv'><div class='tc'><img class='introPic' src='trustrating_stim/white_mw078.bmp'><br><font color='green'><strong>Share</strong></font></div></div><div class='respDiv'><div class='respDivL'>Match<br>(e)</div><div class='respDivR'>No Match<br>(i)</div></div></div>","e","TARGET","3","trustrating_stim/white_mw040.bmp,trustrating_stim/white_mw091.bmp,trustrating_stim/white_mw078.bmp","1,0,1","Match","e","4500","trustrating_stim/white_mw078.bmp","green","Share","REAL","1"
"html-keyboard-response","49","208888","0.0-7.0-5.2","61088f97759a1199340202e9","bdp_wmem","Wed Jul 27 2022 23:41:17 GMT-0500 (Central Daylight Time)","654627","Match,No Match","","null","","","","","","<div class='trialBorder'><div class='vertical-center'><img src='img/correct.jpg'></div><div class='respDiv'><div class='respDivL'><font style='color:orange'>Match<br>(e)</font></div><div class='respDivR'>No Match<br>(i)</div></div></div>","null","FEEDBACK","","","","","","","","","","",""
"html-keyboard-response","50","209390","0.0-7.0-1.3","61088f97759a1199340202e9","bdp_wmem","Wed Jul 27 2022 23:41:17 GMT-0500 (Central Daylight Time)","654627","Match,No Match","","null","","","","","","<div class='trialBorder'><div class='vertical-center'><img src='img/fixation2_sml.jpg'</img></div></div>","null","FIX","","","","","","","","","","",""
"html-keyboard-response","51","212391","0.0-7.0-2.3","61088f97759a1199340202e9","bdp_wmem","Wed Jul 27 2022 23:41:17 GMT-0500 (Central Daylight Time)","654627","Match,No Match","","null","","","","","","<div class='trialBorder'><div class='vertical-center'><img style='vertical-align:center; align:center' src='img/fixation2_sml.jpg'></div><div class='arrayDiv2'><div class='tl'><img class='introPic' src='trustrating_stim/white_mw042.bmp'><br><font color='green'><strong>Share</strong></font></div><div class='tr'><img class='introPic' src='trustrating_stim/white_mw010.bmp'><br><font color='red'><strong>Keep</strong></font></div></div></div>","null","ARRAY","2","trustrating_stim/white_mw042.bmp,trustrating_stim/white_mw010.bmp","1,0","Match","e","3000","","","","",""
"html-keyboard-response","52","216392","0.0-7.0-3.3","61088f97759a1199340202e9","bdp_wmem","Wed Jul 27 2022 23:41:17 GMT-0500 (Central Daylight Time)","654627","Match,No Match","","null","","","","","","<div class='trialBorder'><div class='vertical-center'><img src='img/fixation2_sml.jpg'</img></div></div>","null","DELAY","","","","","","","","","","",""
"html-keyboard-response","53","218206","0.0-7.0-4.3","61088f97759a1199340202e9","bdp_wmem","Wed Jul 27 2022 23:41:17 GMT-0500 (Central Daylight Time)","654627","Match,No Match","","1813","","","","","","<div class='trialBorder'><div class='targDiv'><div class='tc'><img class='introPic' src='trustrating_stim/white_mw042.bmp'><br><font color='green'><strong>Share</strong></font></div></div><div class='respDiv'><div class='respDivL'>Match<br>(e)</div><div class='respDivR'>No Match<br>(i)</div></div></div>","e","TARGET","2","trustrating_stim/white_mw042.bmp,trustrating_stim/white_mw010.bmp","1,0","Match","e","3000","trustrating_stim/white_mw042.bmp","green","Share","REAL","1"
"html-keyboard-response","54","218707","0.0-7.0-5.3","61088f97759a1199340202e9","bdp_wmem","Wed Jul 27 2022 23:41:17 GMT-0500 (Central Daylight Time)","654627","Match,No Match","","null","","","","","","<div class='trialBorder'><div class='vertical-center'><img src='img/correct.jpg'></div><div class='respDiv'><div class='respDivL'><font style='color:orange'>Match<br>(e)</font></div><div class='respDivR'>No Match<br>(i)</div></div></div>","null","FEEDBACK","","","","","","","","","","",""
"html-keyboard-response","55","219208","0.0-7.0-1.4","61088f97759a1199340202e9","bdp_wmem","Wed Jul 27 2022 23:41:17 GMT-0500 (Central Daylight Time)","654627","Match,No Match","","null","","","","","","<div class='trialBorder'><div class='vertical-center'><img src='img/fixation2_sml.jpg'</img></div></div>","null","FIX","","","","","","","","","","",""
"html-keyboard-response","56","220709","0.0-7.0-2.4","61088f97759a1199340202e9","bdp_wmem","Wed Jul 27 2022 23:41:17 GMT-0500 (Central Daylight Time)","654627","Match,No Match","","null","","","","","","<div class='trialBorder'><div class='vertical-center'><img style='vertical-align:center; align:center' src='img/fixation2_sml.jpg'></div><div class='arrayDiv1'><div class='tc'><img class='introPic' src='trustrating_stim/white_mw038.bmp'><br><font color='green'><strong>Share</strong></font></div></div></div>","null","ARRAY","1","trustrating_stim/white_mw038.bmp","1","noMatchFace","i","1500","","","","",""
"html-keyboard-response","57","224711","0.0-7.0-3.4","61088f97759a1199340202e9","bdp_wmem","Wed Jul 27 2022 23:41:17 GMT-0500 (Central Daylight Time)","654627","Match,No Match","","null","","","","","","<div class='trialBorder'><div class='vertical-center'><img src='img/fixation2_sml.jpg'</img></div></div>","null","DELAY","","","","","","","","","","",""
"html-keyboard-response","58","225362","0.0-7.0-4.4","61088f97759a1199340202e9","bdp_wmem","Wed Jul 27 2022 23:41:17 GMT-0500 (Central Daylight Time)","654627","Match,No Match","","650","","","","","","<div class='trialBorder'><div class='targDiv'><div class='tc'><img class='introPic' src='trustrating_stim/white_mw070.bmp'><br><font color='green'><strong>Share</strong></font></div></div><div class='respDiv'><div class='respDivL'>Match<br>(e)</div><div class='respDivR'>No Match<br>(i)</div></div></div>","i","TARGET","1","trustrating_stim/white_mw038.bmp","1","noMatchFace","i","1500","trustrating_stim/white_mw070.bmp","green","Share","REAL","1"
"html-keyboard-response","59","225863","0.0-7.0-5.4","61088f97759a1199340202e9","bdp_wmem","Wed Jul 27 2022 23:41:17 GMT-0500 (Central Daylight Time)","654627","Match,No Match","","null","","","","","","<div class='trialBorder'><div class='vertical-center'><img src='img/correct.jpg'></div><div class='respDiv'><div class='respDivL'>Match<br>(e)</div><div class='respDivR'><font style='color:orange'>No Match<br>(i)</font></div></div></div>","null","FEEDBACK","","","","","","","","","","",""
"html-keyboard-response","60","226364","0.0-7.0-1.5","61088f97759a1199340202e9","bdp_wmem","Wed Jul 27 2022 23:41:17 GMT-0500 (Central Daylight Time)","654627","Match,No Match","","null","","","","","","<div class='trialBorder'><div class='vertical-center'><img src='img/fixation2_sml.jpg'</img></div></div>","null","FIX","","","","","","","","","","",""
"html-keyboard-response","61","227866","0.0-7.0-2.5","61088f97759a1199340202e9","bdp_wmem","Wed Jul 27 2022 23:41:17 GMT-0500 (Central Daylight Time)","654627","Match,No Match","","null","","","","","","<div class='trialBorder'><div class='vertical-center'><img style='vertical-align:center; align:center' src='img/fixation2_sml.jpg'></div><div class='arrayDiv1'><div class='tc'><img class='introPic' src='trustrating_stim/white_mw042.bmp'><br><font color='red'><strong>Keep</strong></font></div></div></div>","null","ARRAY","1","trustrating_stim/white_mw042.bmp","0","Match","e","1500","","","","",""
"html-keyboard-response","62","231867","0.0-7.0-3.5","61088f97759a1199340202e9","bdp_wmem","Wed Jul 27 2022 23:41:17 GMT-0500 (Central Daylight Time)","654627","Match,No Match","","null","","","","","","<div class='trialBorder'><div class='vertical-center'><img src='img/fixation2_sml.jpg'</img></div></div>","null","DELAY","","","","","","","","","","",""
"html-keyboard-response","63","233507","0.0-7.0-4.5","61088f97759a1199340202e9","bdp_wmem","Wed Jul 27 2022 23:41:17 GMT-0500 (Central Daylight Time)","654627","Match,No Match","","1640","","","","","","<div class='trialBorder'><div class='targDiv'><div class='tc'><img class='introPic' src='trustrating_stim/white_mw042.bmp'><br><font color='red'><strong>Keep</strong></font></div></div><div class='respDiv'><div class='respDivL'>Match<br>(e)</div><div class='respDivR'>No Match<br>(i)</div></div></div>","e","TARGET","1","trustrating_stim/white_mw042.bmp","0","Match","e","1500","trustrating_stim/white_mw042.bmp","red","Keep","REAL","1"
"html-keyboard-response","64","234008","0.0-7.0-5.5","61088f97759a1199340202e9","bdp_wmem","Wed Jul 27 2022 23:41:17 GMT-0500 (Central Daylight Time)","654627","Match,No Match","","null","","","","","","<div class='trialBorder'><div class='vertical-center'><img src='img/correct.jpg'></div><div class='respDiv'><div class='respDivL'><font style='color:orange'>Match<br>(e)</font></div><div class='respDivR'>No Match<br>(i)</div></div></div>","null","FEEDBACK","","","","","","","","","","",""
"html-keyboard-response","65","234509","0.0-7.0-1.6","61088f97759a1199340202e9","bdp_wmem","Wed Jul 27 2022 23:41:17 GMT-0500 (Central Daylight Time)","654627","Match,No Match","","null","","","","","","<div class='trialBorder'><div class='vertical-center'><img src='img/fixation2_sml.jpg'</img></div></div>","null","FIX","","","","","","","","","","",""
"html-keyboard-response","66","237511","0.0-7.0-2.6","61088f97759a1199340202e9","bdp_wmem","Wed Jul 27 2022 23:41:17 GMT-0500 (Central Daylight Time)","654627","Match,No Match","","null","","","","","","<div class='trialBorder'><div class='vertical-center'><img style='vertical-align:center; align:center' src='img/fixation2_sml.jpg'></div><div class='arrayDiv2'><div class='tl'><img class='introPic' src='trustrating_stim/white_mw013.bmp'><br><font color='red'><strong>Keep</strong></font></div><div class='tr'><img class='introPic' src='trustrating_stim/white_mw091.bmp'><br><font color='green'><strong>Share</strong></font></div></div></div>","null","ARRAY","2","trustrating_stim/white_mw013.bmp,trustrating_stim/white_mw091.bmp","0,1","noMatchFace","i","3000","","","","",""
"html-keyboard-response","67","241512","0.0-7.0-3.6","61088f97759a1199340202e9","bdp_wmem","Wed Jul 27 2022 23:41:17 GMT-0500 (Central Daylight Time)","654627","Match,No Match","","null","","","","","","<div class='trialBorder'><div class='vertical-center'><img src='img/fixation2_sml.jpg'</img></div></div>","null","DELAY","","","","","","","","","","",""
"html-keyboard-response","68","242516","0.0-7.0-4.6","61088f97759a1199340202e9","bdp_wmem","Wed Jul 27 2022 23:41:17 GMT-0500 (Central Daylight Time)","654627","Match,No Match","","1003","","","","","","<div class='trialBorder'><div class='targDiv'><div class='tc'><img class='introPic' src='trustrating_stim/white_mw085.bmp'><br><font color='green'><strong>Share</strong></font></div></div><div class='respDiv'><div class='respDivL'>Match<br>(e)</div><div class='respDivR'>No Match<br>(i)</div></div></div>","i","TARGET","2","trustrating_stim/white_mw013.bmp,trustrating_stim/white_mw091.bmp","0,1","noMatchFace","i","3000","trustrating_stim/white_mw085.bmp","green","Share","REAL","1"
"html-keyboard-response","69","243018","0.0-7.0-5.6","61088f97759a1199340202e9","bdp_wmem","Wed Jul 27 2022 23:41:17 GMT-0500 (Central Daylight Time)","654627","Match,No Match","","null","","","","","","<div class='trialBorder'><div class='vertical-center'><img src='img/correct.jpg'></div><div class='respDiv'><div class='respDivL'>Match<br>(e)</div><div class='respDivR'><font style='color:orange'>No Match<br>(i)</font></div></div></div>","null","FEEDBACK","","","","","","","","","","",""
"html-keyboard-response","70","243519","0.0-7.0-1.7","61088f97759a1199340202e9","bdp_wmem","Wed Jul 27 2022 23:41:17 GMT-0500 (Central Daylight Time)","654627","Match,No Match","","null","","","","","","<div class='trialBorder'><div class='vertical-center'><img src='img/fixation2_sml.jpg'</img></div></div>","null","FIX","","","","","","","","","","",""
"html-keyboard-response","71","246521","0.0-7.0-2.7","61088f97759a1199340202e9","bdp_wmem","Wed Jul 27 2022 23:41:17 GMT-0500 (Central Daylight Time)","654627","Match,No Match","","null","","","","","","<div class='trialBorder'><div class='vertical-center'><img style='vertical-align:center; align:center' src='img/fixation2_sml.jpg'></div><div class='arrayDiv2'><div class='tl'><img class='introPic' src='trustrating_stim/white_mw091.bmp'><br><font color='red'><strong>Keep</strong></font></div><div class='tr'><img class='introPic' src='trustrating_stim/white_mw078.bmp'><br><font color='green'><strong>Share</strong></font></div></div></div>","null","ARRAY","2","trustrating_stim/white_mw091.bmp,trustrating_stim/white_mw078.bmp","0,1","noMatchFace","i","3000","","","","",""
"html-keyboard-response","72","250522","0.0-7.0-3.7","61088f97759a1199340202e9","bdp_wmem","Wed Jul 27 2022 23:41:17 GMT-0500 (Central Daylight Time)","654627","Match,No Match","","null","","","","","","<div class='trialBorder'><div class='vertical-center'><img src='img/fixation2_sml.jpg'</img></div></div>","null","DELAY","","","","","","","","","","",""
"html-keyboard-response","73","251926","0.0-7.0-4.7","61088f97759a1199340202e9","bdp_wmem","Wed Jul 27 2022 23:41:17 GMT-0500 (Central Daylight Time)","654627","Match,No Match","","1402","","","","","","<div class='trialBorder'><div class='targDiv'><div class='tc'><img class='introPic' src='trustrating_stim/white_mw010.bmp'><br><font color='red'><strong>Keep</strong></font></div></div><div class='respDiv'><div class='respDivL'>Match<br>(e)</div><div class='respDivR'>No Match<br>(i)</div></div></div>","i","TARGET","2","trustrating_stim/white_mw091.bmp,trustrating_stim/white_mw078.bmp","0,1","noMatchFace","i","3000","trustrating_stim/white_mw010.bmp","red","Keep","REAL","1"
"html-keyboard-response","74","252427","0.0-7.0-5.7","61088f97759a1199340202e9","bdp_wmem","Wed Jul 27 2022 23:41:17 GMT-0500 (Central Daylight Time)","654627","Match,No Match","","null","","","","","","<div class='trialBorder'><div class='vertical-center'><img src='img/correct.jpg'></div><div class='respDiv'><div class='respDivL'>Match<br>(e)</div><div class='respDivR'><font style='color:orange'>No Match<br>(i)</font></div></div></div>","null","FEEDBACK","","","","","","","","","","",""
"html-keyboard-response","75","252928","0.0-7.0-1.8","61088f97759a1199340202e9","bdp_wmem","Wed Jul 27 2022 23:41:17 GMT-0500 (Central Daylight Time)","654627","Match,No Match","","null","","","","","","<div class='trialBorder'><div class='vertical-center'><img src='img/fixation2_sml.jpg'</img></div></div>","null","FIX","","","","","","","","","","",""
"html-keyboard-response","76","257429","0.0-7.0-2.8","61088f97759a1199340202e9","bdp_wmem","Wed Jul 27 2022 23:41:17 GMT-0500 (Central Daylight Time)","654627","Match,No Match","","null","","","","","","<div class='trialBorder'><div class='vertical-center'><img style='vertical-align:center; align:center' src='img/fixation2_sml.jpg'></div><div class='arrayDiv3'><div class='tl'><img class='introPic' src='trustrating_stim/white_mw085.bmp'><br><font color='green'><strong>Share</strong></font></div><div class='tc'><img class='introPic' src='trustrating_stim/white_mw091.bmp'><br><font color='red'><strong>Keep</strong></font></div><div class='tr'><img class='introPic' src='trustrating_stim/white_mw078.bmp'><br><font color='red'><strong>Keep</strong></font></div></div></div>","null","ARRAY","3","trustrating_stim/white_mw085.bmp,trustrating_stim/white_mw091.bmp,trustrating_stim/white_mw078.bmp","1,0,0","Match","e","4500","","","","",""
"html-keyboard-response","77","261431","0.0-7.0-3.8","61088f97759a1199340202e9","bdp_wmem","Wed Jul 27 2022 23:41:17 GMT-0500 (Central Daylight Time)","654627","Match,No Match","","null","","","","","","<div class='trialBorder'><div class='vertical-center'><img src='img/fixation2_sml.jpg'</img></div></div>","null","DELAY","","","","","","","","","","",""
"html-keyboard-response","78","263385","0.0-7.0-4.8","61088f97759a1199340202e9","bdp_wmem","Wed Jul 27 2022 23:41:17 GMT-0500 (Central Daylight Time)","654627","Match,No Match","","1953","","","","","","<div class='trialBorder'><div class='targDiv'><div class='tc'><img class='introPic' src='trustrating_stim/white_mw078.bmp'><br><font color='red'><strong>Keep</strong></font></div></div><div class='respDiv'><div class='respDivL'>Match<br>(e)</div><div class='respDivR'>No Match<br>(i)</div></div></div>","i","TARGET","3","trustrating_stim/white_mw085.bmp,trustrating_stim/white_mw091.bmp,trustrating_stim/white_mw078.bmp","1,0,0","Match","e","4500","trustrating_stim/white_mw078.bmp","red","Keep","REAL","0"
"html-keyboard-response","79","263886","0.0-7.0-5.8","61088f97759a1199340202e9","bdp_wmem","Wed Jul 27 2022 23:41:17 GMT-0500 (Central Daylight Time)","654627","Match,No Match","","null","","","","","","<div class='trialBorder'><div class='vertical-center'><img src='img/error.jpg'></div><div class='respDiv'><div class='respDivL'>Match<br>(e)</div><div class='respDivR'><font style='color:orange'>No Match<br>(i)</font></div></div></div>","null","FEEDBACK","","","","","","","","","","",""
"html-keyboard-response","80","264387","0.0-7.0-1.9","61088f97759a1199340202e9","bdp_wmem","Wed Jul 27 2022 23:41:17 GMT-0500 (Central Daylight Time)","654627","Match,No Match","","null","","","","","","<div class='trialBorder'><div class='vertical-center'><img src='img/fixation2_sml.jpg'</img></div></div>","null","FIX","","","","","","","","","","",""
"html-keyboard-response","81","265889","0.0-7.0-2.9","61088f97759a1199340202e9","bdp_wmem","Wed Jul 27 2022 23:41:17 GMT-0500 (Central Daylight Time)","654627","Match,No Match","","null","","","","","","<div class='trialBorder'><div class='vertical-center'><img style='vertical-align:center; align:center' src='img/fixation2_sml.jpg'></div><div class='arrayDiv1'><div class='tc'><img class='introPic' src='trustrating_stim/white_mw012.bmp'><br><font color='red'><strong>Keep</strong></font></div></div></div>","null","ARRAY","1","trustrating_stim/white_mw012.bmp","0","noMatchFace","i","1500","","","","",""
"html-keyboard-response","82","269890","0.0-7.0-3.9","61088f97759a1199340202e9","bdp_wmem","Wed Jul 27 2022 23:41:17 GMT-0500 (Central Daylight Time)","654627","Match,No Match","","null","","","","","","<div class='trialBorder'><div class='vertical-center'><img src='img/fixation2_sml.jpg'</img></div></div>","null","DELAY","","","","","","","","","","",""
"html-keyboard-response","83","270640","0.0-7.0-4.9","61088f97759a1199340202e9","bdp_wmem","Wed Jul 27 2022 23:41:17 GMT-0500 (Central Daylight Time)","654627","Match,No Match","","749","","","","","","<div class='trialBorder'><div class='targDiv'><div class='tc'><img class='introPic' src='trustrating_stim/white_mw070.bmp'><br><font color='red'><strong>Keep</strong></font></div></div><div class='respDiv'><div class='respDivL'>Match<br>(e)</div><div class='respDivR'>No Match<br>(i)</div></div></div>","i","TARGET","1","trustrating_stim/white_mw012.bmp","0","noMatchFace","i","1500","trustrating_stim/white_mw070.bmp","red","Keep","REAL","1"
"html-keyboard-response","84","271141","0.0-7.0-5.9","61088f97759a1199340202e9","bdp_wmem","Wed Jul 27 2022 23:41:17 GMT-0500 (Central Daylight Time)","654627","Match,No Match","","null","","","","","","<div class='trialBorder'><div class='vertical-center'><img src='img/correct.jpg'></div><div class='respDiv'><div class='respDivL'>Match<br>(e)</div><div class='respDivR'><font style='color:orange'>No Match<br>(i)</font></div></div></div>","null","FEEDBACK","","","","","","","","","","",""
"html-keyboard-response","85","271642","0.0-7.0-1.10","61088f97759a1199340202e9","bdp_wmem","Wed Jul 27 2022 23:41:17 GMT-0500 (Central Daylight Time)","654627","Match,No Match","","null","","","","","","<div class='trialBorder'><div class='vertical-center'><img src='img/fixation2_sml.jpg'</img></div></div>","null","FIX","","","","","","","","","","",""
"html-keyboard-response","86","276144","0.0-7.0-2.10","61088f97759a1199340202e9","bdp_wmem","Wed Jul 27 2022 23:41:17 GMT-0500 (Central Daylight Time)","654627","Match,No Match","","null","","","","","","<div class='trialBorder'><div class='vertical-center'><img style='vertical-align:center; align:center' src='img/fixation2_sml.jpg'></div><div class='arrayDiv3'><div class='tl'><img class='introPic' src='trustrating_stim/white_mw092.bmp'><br><font color='green'><strong>Share</strong></font></div><div class='tc'><img class='introPic' src='trustrating_stim/white_mw012.bmp'><br><font color='red'><strong>Keep</strong></font></div><div class='tr'><img class='introPic' src='trustrating_stim/white_mw003.bmp'><br><font color='red'><strong>Keep</strong></font></div></div></div>","null","ARRAY","3","trustrating_stim/white_mw092.bmp,trustrating_stim/white_mw012.bmp,trustrating_stim/white_mw003.bmp","1,0,0","Match","e","4500","","","","",""
"html-keyboard-response","87","280145","0.0-7.0-3.10","61088f97759a1199340202e9","bdp_wmem","Wed Jul 27 2022 23:41:17 GMT-0500 (Central Daylight Time)","654627","Match,No Match","","null","","","","","","<div class='trialBorder'><div class='vertical-center'><img src='img/fixation2_sml.jpg'</img></div></div>","null","DELAY","","","","","","","","","","",""
"html-keyboard-response","88","281584","0.0-7.0-4.10","61088f97759a1199340202e9","bdp_wmem","Wed Jul 27 2022 23:41:17 GMT-0500 (Central Daylight Time)","654627","Match,No Match","","1437","","","","","","<div class='trialBorder'><div class='targDiv'><div class='tc'><img class='introPic' src='trustrating_stim/white_mw003.bmp'><br><font color='red'><strong>Keep</strong></font></div></div><div class='respDiv'><div class='respDivL'>Match<br>(e)</div><div class='respDivR'>No Match<br>(i)</div></div></div>","i","TARGET","3","trustrating_stim/white_mw092.bmp,trustrating_stim/white_mw012.bmp,trustrating_stim/white_mw003.bmp","1,0,0","Match","e","4500","trustrating_stim/white_mw003.bmp","red","Keep","REAL","0"
"html-keyboard-response","89","282085","0.0-7.0-5.10","61088f97759a1199340202e9","bdp_wmem","Wed Jul 27 2022 23:41:17 GMT-0500 (Central Daylight Time)","654627","Match,No Match","","null","","","","","","<div class='trialBorder'><div class='vertical-center'><img src='img/error.jpg'></div><div class='respDiv'><div class='respDivL'>Match<br>(e)</div><div class='respDivR'><font style='color:orange'>No Match<br>(i)</font></div></div></div>","null","FEEDBACK","","","","","","","","","","",""
"html-keyboard-response","90","282587","0.0-7.0-1.11","61088f97759a1199340202e9","bdp_wmem","Wed Jul 27 2022 23:41:17 GMT-0500 (Central Daylight Time)","654627","Match,No Match","","null","","","","","","<div class='trialBorder'><div class='vertical-center'><img src='img/fixation2_sml.jpg'</img></div></div>","null","FIX","","","","","","","","","","",""
"html-keyboard-response","91","284088","0.0-7.0-2.11","61088f97759a1199340202e9","bdp_wmem","Wed Jul 27 2022 23:41:17 GMT-0500 (Central Daylight Time)","654627","Match,No Match","","null","","","","","","<div class='trialBorder'><div class='vertical-center'><img style='vertical-align:center; align:center' src='img/fixation2_sml.jpg'></div><div class='arrayDiv1'><div class='tc'><img class='introPic' src='trustrating_stim/white_mw012.bmp'><br><font color='green'><strong>Share</strong></font></div></div></div>","null","ARRAY","1","trustrating_stim/white_mw012.bmp","1","noMatchOutcome","i","1500","","","","",""
"html-keyboard-response","92","288089","0.0-7.0-3.11","61088f97759a1199340202e9","bdp_wmem","Wed Jul 27 2022 23:41:17 GMT-0500 (Central Daylight Time)","654627","Match,No Match","","null","","","","","","<div class='trialBorder'><div class='vertical-center'><img src='img/fixation2_sml.jpg'</img></div></div>","null","DELAY","","","","","","","","","","",""
"html-keyboard-response","93","292394","0.0-7.0-4.11","61088f97759a1199340202e9","bdp_wmem","Wed Jul 27 2022 23:41:17 GMT-0500 (Central Daylight Time)","654627","Match,No Match","","4304","","","","","","<div class='trialBorder'><div class='targDiv'><div class='tc'><img class='introPic' src='trustrating_stim/white_mw012.bmp'><br><font color='red'><strong>Keep</strong></font></div></div><div class='respDiv'><div class='respDivL'>Match<br>(e)</div><div class='respDivR'>No Match<br>(i)</div></div></div>","e","TARGET","1","trustrating_stim/white_mw012.bmp","1","noMatchOutcome","i","1500","trustrating_stim/white_mw012.bmp","red","Keep","REAL","0"
"html-keyboard-response","94","292895","0.0-7.0-5.11","61088f97759a1199340202e9","bdp_wmem","Wed Jul 27 2022 23:41:17 GMT-0500 (Central Daylight Time)","654627","Match,No Match","","null","","","","","","<div class='trialBorder'><div class='vertical-center'><img src='img/error.jpg'></div><div class='respDiv'><div class='respDivL'><font style='color:orange'>Match<br>(e)</font></div><div class='respDivR'>No Match<br>(i)</div></div></div>","null","FEEDBACK","","","","","","","","","","",""
"html-keyboard-response","95","293397","0.0-7.0-1.12","61088f97759a1199340202e9","bdp_wmem","Wed Jul 27 2022 23:41:17 GMT-0500 (Central Daylight Time)","654627","Match,No Match","","null","","","","","","<div class='trialBorder'><div class='vertical-center'><img src='img/fixation2_sml.jpg'</img></div></div>","null","FIX","","","","","","","","","","",""
"html-keyboard-response","96","296399","0.0-7.0-2.12","61088f97759a1199340202e9","bdp_wmem","Wed Jul 27 2022 23:41:17 GMT-0500 (Central Daylight Time)","654627","Match,No Match","","null","","","","","","<div class='trialBorder'><div class='vertical-center'><img style='vertical-align:center; align:center' src='img/fixation2_sml.jpg'></div><div class='arrayDiv2'><div class='tl'><img class='introPic' src='trustrating_stim/white_mw078.bmp'><br><font color='red'><strong>Keep</strong></font></div><div class='tr'><img class='introPic' src='trustrating_stim/white_mw092.bmp'><br><font color='green'><strong>Share</strong></font></div></div></div>","null","ARRAY","2","trustrating_stim/white_mw078.bmp,trustrating_stim/white_mw092.bmp","0,1","Match","e","3000","","","","",""
"html-keyboard-response","97","300400","0.0-7.0-3.12","61088f97759a1199340202e9","bdp_wmem","Wed Jul 27 2022 23:41:17 GMT-0500 (Central Daylight Time)","654627","Match,No Match","","null","","","","","","<div class='trialBorder'><div class='vertical-center'><img src='img/fixation2_sml.jpg'</img></div></div>","null","DELAY","","","","","","","","","","",""
"html-keyboard-response","98","302156","0.0-7.0-4.12","61088f97759a1199340202e9","bdp_wmem","Wed Jul 27 2022 23:41:17 GMT-0500 (Central Daylight Time)","654627","Match,No Match","","1755","","","","","","<div class='trialBorder'><div class='targDiv'><div class='tc'><img class='introPic' src='trustrating_stim/white_mw092.bmp'><br><font color='green'><strong>Share</strong></font></div></div><div class='respDiv'><div class='respDivL'>Match<br>(e)</div><div class='respDivR'>No Match<br>(i)</div></div></div>","e","TARGET","2","trustrating_stim/white_mw078.bmp,trustrating_stim/white_mw092.bmp","0,1","Match","e","3000","trustrating_stim/white_mw092.bmp","green","Share","REAL","1"
"html-keyboard-response","99","302657","0.0-7.0-5.12","61088f97759a1199340202e9","bdp_wmem","Wed Jul 27 2022 23:41:17 GMT-0500 (Central Daylight Time)","654627","Match,No Match","","null","","","","","","<div class='trialBorder'><div class='vertical-center'><img src='img/correct.jpg'></div><div class='respDiv'><div class='respDivL'><font style='color:orange'>Match<br>(e)</font></div><div class='respDivR'>No Match<br>(i)</div></div></div>","null","FEEDBACK","","","","","","","","","","",""
"html-keyboard-response","100","303157","0.0-7.0-1.13","61088f97759a1199340202e9","bdp_wmem","Wed Jul 27 2022 23:41:17 GMT-0500 (Central Daylight Time)","654627","Match,No Match","","null","","","","","","<div class='trialBorder'><div class='vertical-center'><img src='img/fixation2_sml.jpg'</img></div></div>","null","FIX","","","","","","","","","","",""
"html-keyboard-response","101","307659","0.0-7.0-2.13","61088f97759a1199340202e9","bdp_wmem","Wed Jul 27 2022 23:41:17 GMT-0500 (Central Daylight Time)","654627","Match,No Match","","null","","","","","","<div class='trialBorder'><div class='vertical-center'><img style='vertical-align:center; align:center' src='img/fixation2_sml.jpg'></div><div class='arrayDiv3'><div class='tl'><img class='introPic' src='trustrating_stim/white_mw070.bmp'><br><font color='red'><strong>Keep</strong></font></div><div class='tc'><img class='introPic' src='trustrating_stim/white_mw091.bmp'><br><font color='green'><strong>Share</strong></font></div><div class='tr'><img class='introPic' src='trustrating_stim/white_mw078.bmp'><br><font color='red'><strong>Keep</strong></font></div></div></div>","null","ARRAY","3","trustrating_stim/white_mw070.bmp,trustrating_stim/white_mw091.bmp,trustrating_stim/white_mw078.bmp","0,1,0","noMatchOutcome","i","4500","","","","",""
"html-keyboard-response","102","311659","0.0-7.0-3.13","61088f97759a1199340202e9","bdp_wmem","Wed Jul 27 2022 23:41:17 GMT-0500 (Central Daylight Time)","654627","Match,No Match","","null","","","","","","<div class='trialBorder'><div class='vertical-center'><img src='img/fixation2_sml.jpg'</img></div></div>","null","DELAY","","","","","","","","","","",""
"html-keyboard-response","103","313014","0.0-7.0-4.13","61088f97759a1199340202e9","bdp_wmem","Wed Jul 27 2022 23:41:17 GMT-0500 (Central Daylight Time)","654627","Match,No Match","","1354","","","","","","<div class='trialBorder'><div class='targDiv'><div class='tc'><img class='introPic' src='trustrating_stim/white_mw078.bmp'><br><font color='green'><strong>Share</strong></font></div></div><div class='respDiv'><div class='respDivL'>Match<br>(e)</div><div class='respDivR'>No Match<br>(i)</div></div></div>","i","TARGET","3","trustrating_stim/white_mw070.bmp,trustrating_stim/white_mw091.bmp,trustrating_stim/white_mw078.bmp","0,1,0","noMatchOutcome","i","4500","trustrating_stim/white_mw078.bmp","green","Share","REAL","1"
"html-keyboard-response","104","313514","0.0-7.0-5.13","61088f97759a1199340202e9","bdp_wmem","Wed Jul 27 2022 23:41:17 GMT-0500 (Central Daylight Time)","654627","Match,No Match","","null","","","","","","<div class='trialBorder'><div class='vertical-center'><img src='img/correct.jpg'></div><div class='respDiv'><div class='respDivL'>Match<br>(e)</div><div class='respDivR'><font style='color:orange'>No Match<br>(i)</font></div></div></div>","null","FEEDBACK","","","","","","","","","","",""
"html-keyboard-response","105","314016","0.0-7.0-1.14","61088f97759a1199340202e9","bdp_wmem","Wed Jul 27 2022 23:41:17 GMT-0500 (Central Daylight Time)","654627","Match,No Match","","null","","","","","","<div class='trialBorder'><div class='vertical-center'><img src='img/fixation2_sml.jpg'</img></div></div>","null","FIX","","","","","","","","","","",""
"html-keyboard-response","106","315517","0.0-7.0-2.14","61088f97759a1199340202e9","bdp_wmem","Wed Jul 27 2022 23:41:17 GMT-0500 (Central Daylight Time)","654627","Match,No Match","","null","","","","","","<div class='trialBorder'><div class='vertical-center'><img style='vertical-align:center; align:center' src='img/fixation2_sml.jpg'></div><div class='arrayDiv1'><div class='tc'><img class='introPic' src='trustrating_stim/white_mw091.bmp'><br><font color='green'><strong>Share</strong></font></div></div></div>","null","ARRAY","1","trustrating_stim/white_mw091.bmp","1","Match","e","1500","","","","",""
"html-keyboard-response","107","319518","0.0-7.0-3.14","61088f97759a1199340202e9","bdp_wmem","Wed Jul 27 2022 23:41:17 GMT-0500 (Central Daylight Time)","654627","Match,No Match","","null","","","","","","<div class='trialBorder'><div class='vertical-center'><img src='img/fixation2_sml.jpg'</img></div></div>","null","DELAY","","","","","","","","","","",""
"html-keyboard-response","108","320365","0.0-7.0-4.14","61088f97759a1199340202e9","bdp_wmem","Wed Jul 27 2022 23:41:17 GMT-0500 (Central Daylight Time)","654627","Match,No Match","","846","","","","","","<div class='trialBorder'><div class='targDiv'><div class='tc'><img class='introPic' src='trustrating_stim/white_mw091.bmp'><br><font color='green'><strong>Share</strong></font></div></div><div class='respDiv'><div class='respDivL'>Match<br>(e)</div><div class='respDivR'>No Match<br>(i)</div></div></div>","e","TARGET","1","trustrating_stim/white_mw091.bmp","1","Match","e","1500","trustrating_stim/white_mw091.bmp","green","Share","REAL","1"
"html-keyboard-response","109","320866","0.0-7.0-5.14","61088f97759a1199340202e9","bdp_wmem","Wed Jul 27 2022 23:41:17 GMT-0500 (Central Daylight Time)","654627","Match,No Match","","null","","","","","","<div class='trialBorder'><div class='vertical-center'><img src='img/correct.jpg'></div><div class='respDiv'><div class='respDivL'><font style='color:orange'>Match<br>(e)</font></div><div class='respDivR'>No Match<br>(i)</div></div></div>","null","FEEDBACK","","","","","","","","","","",""
"html-keyboard-response","110","321367","0.0-7.0-1.15","61088f97759a1199340202e9","bdp_wmem","Wed Jul 27 2022 23:41:17 GMT-0500 (Central Daylight Time)","654627","Match,No Match","","null","","","","","","<div class='trialBorder'><div class='vertical-center'><img src='img/fixation2_sml.jpg'</img></div></div>","null","FIX","","","","","","","","","","",""
"html-keyboard-response","111","322869","0.0-7.0-2.15","61088f97759a1199340202e9","bdp_wmem","Wed Jul 27 2022 23:41:17 GMT-0500 (Central Daylight Time)","654627","Match,No Match","","null","","","","","","<div class='trialBorder'><div class='vertical-center'><img style='vertical-align:center; align:center' src='img/fixation2_sml.jpg'></div><div class='arrayDiv1'><div class='tc'><img class='introPic' src='trustrating_stim/white_mw038.bmp'><br><font color='red'><strong>Keep</strong></font></div></div></div>","null","ARRAY","1","trustrating_stim/white_mw038.bmp","0","noMatchOutcome","i","1500","","","","",""
"html-keyboard-response","112","326869","0.0-7.0-3.15","61088f97759a1199340202e9","bdp_wmem","Wed Jul 27 2022 23:41:17 GMT-0500 (Central Daylight Time)","654627","Match,No Match","","null","","","","","","<div class='trialBorder'><div class='vertical-center'><img src='img/fixation2_sml.jpg'</img></div></div>","null","DELAY","","","","","","","","","","",""
"html-keyboard-response","113","328687","0.0-7.0-4.15","61088f97759a1199340202e9","bdp_wmem","Wed Jul 27 2022 23:41:17 GMT-0500 (Central Daylight Time)","654627","Match,No Match","","1817","","","","","","<div class='trialBorder'><div class='targDiv'><div class='tc'><img class='introPic' src='trustrating_stim/white_mw038.bmp'><br><font color='green'><strong>Share</strong></font></div></div><div class='respDiv'><div class='respDivL'>Match<br>(e)</div><div class='respDivR'>No Match<br>(i)</div></div></div>","i","TARGET","1","trustrating_stim/white_mw038.bmp","0","noMatchOutcome","i","1500","trustrating_stim/white_mw038.bmp","green","Share","REAL","1"
"html-keyboard-response","114","329188","0.0-7.0-5.15","61088f97759a1199340202e9","bdp_wmem","Wed Jul 27 2022 23:41:17 GMT-0500 (Central Daylight Time)","654627","Match,No Match","","null","","","","","","<div class='trialBorder'><div class='vertical-center'><img src='img/correct.jpg'></div><div class='respDiv'><div class='respDivL'>Match<br>(e)</div><div class='respDivR'><font style='color:orange'>No Match<br>(i)</font></div></div></div>","null","FEEDBACK","","","","","","","","","","",""
"html-keyboard-response","115","329689","0.0-7.0-1.16","61088f97759a1199340202e9","bdp_wmem","Wed Jul 27 2022 23:41:17 GMT-0500 (Central Daylight Time)","654627","Match,No Match","","null","","","","","","<div class='trialBorder'><div class='vertical-center'><img src='img/fixation2_sml.jpg'</img></div></div>","null","FIX","","","","","","","","","","",""
"html-keyboard-response","116","332691","0.0-7.0-2.16","61088f97759a1199340202e9","bdp_wmem","Wed Jul 27 2022 23:41:17 GMT-0500 (Central Daylight Time)","654627","Match,No Match","","null","","","","","","<div class='trialBorder'><div class='vertical-center'><img style='vertical-align:center; align:center' src='img/fixation2_sml.jpg'></div><div class='arrayDiv2'><div class='tl'><img class='introPic' src='trustrating_stim/white_mw010.bmp'><br><font color='red'><strong>Keep</strong></font></div><div class='tr'><img class='introPic' src='trustrating_stim/white_mw078.bmp'><br><font color='green'><strong>Share</strong></font></div></div></div>","null","ARRAY","2","trustrating_stim/white_mw010.bmp,trustrating_stim/white_mw078.bmp","0,1","Match","e","3000","","","","",""
"html-keyboard-response","117","336693","0.0-7.0-3.16","61088f97759a1199340202e9","bdp_wmem","Wed Jul 27 2022 23:41:17 GMT-0500 (Central Daylight Time)","654627","Match,No Match","","null","","","","","","<div class='trialBorder'><div class='vertical-center'><img src='img/fixation2_sml.jpg'</img></div></div>","null","DELAY","","","","","","","","","","",""
"html-keyboard-response","118","339696","0.0-7.0-4.16","61088f97759a1199340202e9","bdp_wmem","Wed Jul 27 2022 23:41:17 GMT-0500 (Central Daylight Time)","654627","Match,No Match","","3003","","","","","","<div class='trialBorder'><div class='targDiv'><div class='tc'><img class='introPic' src='trustrating_stim/white_mw010.bmp'><br><font color='red'><strong>Keep</strong></font></div></div><div class='respDiv'><div class='respDivL'>Match<br>(e)</div><div class='respDivR'>No Match<br>(i)</div></div></div>","e","TARGET","2","trustrating_stim/white_mw010.bmp,trustrating_stim/white_mw078.bmp","0,1","Match","e","3000","trustrating_stim/white_mw010.bmp","red","Keep","REAL","1"
"html-keyboard-response","119","340197","0.0-7.0-5.16","61088f97759a1199340202e9","bdp_wmem","Wed Jul 27 2022 23:41:17 GMT-0500 (Central Daylight Time)","654627","Match,No Match","","null","","","","","","<div class='trialBorder'><div class='vertical-center'><img src='img/correct.jpg'></div><div class='respDiv'><div class='respDivL'><font style='color:orange'>Match<br>(e)</font></div><div class='respDivR'>No Match<br>(i)</div></div></div>","null","FEEDBACK","","","","","","","","","","",""
"html-keyboard-response","120","340698","0.0-7.0-1.17","61088f97759a1199340202e9","bdp_wmem","Wed Jul 27 2022 23:41:17 GMT-0500 (Central Daylight Time)","654627","Match,No Match","","null","","","","","","<div class='trialBorder'><div class='vertical-center'><img src='img/fixation2_sml.jpg'</img></div></div>","null","FIX","","","","","","","","","","",""
"html-keyboard-response","121","342199","0.0-7.0-2.17","61088f97759a1199340202e9","bdp_wmem","Wed Jul 27 2022 23:41:17 GMT-0500 (Central Daylight Time)","654627","Match,No Match","","null","","","","","","<div class='trialBorder'><div class='vertical-center'><img style='vertical-align:center; align:center' src='img/fixation2_sml.jpg'></div><div class='arrayDiv1'><div class='tc'><img class='introPic' src='trustrating_stim/white_mw010.bmp'><br><font color='green'><strong>Share</strong></font></div></div></div>","null","ARRAY","1","trustrating_stim/white_mw010.bmp","1","noMatchFace","i","1500","","","","",""
"html-keyboard-response","122","346200","0.0-7.0-3.17","61088f97759a1199340202e9","bdp_wmem","Wed Jul 27 2022 23:41:17 GMT-0500 (Central Daylight Time)","654627","Match,No Match","","null","","","","","","<div class='trialBorder'><div class='vertical-center'><img src='img/fixation2_sml.jpg'</img></div></div>","null","DELAY","","","","","","","","","","",""
"html-keyboard-response","123","347165","0.0-7.0-4.17","61088f97759a1199340202e9","bdp_wmem","Wed Jul 27 2022 23:41:17 GMT-0500 (Central Daylight Time)","654627","Match,No Match","","964","","","","","","<div class='trialBorder'><div class='targDiv'><div class='tc'><img class='introPic' src='trustrating_stim/white_mw070.bmp'><br><font color='green'><strong>Share</strong></font></div></div><div class='respDiv'><div class='respDivL'>Match<br>(e)</div><div class='respDivR'>No Match<br>(i)</div></div></div>","i","TARGET","1","trustrating_stim/white_mw010.bmp","1","noMatchFace","i","1500","trustrating_stim/white_mw070.bmp","green","Share","REAL","1"
"html-keyboard-response","124","347667","0.0-7.0-5.17","61088f97759a1199340202e9","bdp_wmem","Wed Jul 27 2022 23:41:17 GMT-0500 (Central Daylight Time)","654627","Match,No Match","","null","","","","","","<div class='trialBorder'><div class='vertical-center'><img src='img/correct.jpg'></div><div class='respDiv'><div class='respDivL'>Match<br>(e)</div><div class='respDivR'><font style='color:orange'>No Match<br>(i)</font></div></div></div>","null","FEEDBACK","","","","","","","","","","",""
"html-keyboard-response","125","348168","0.0-7.0-1.18","61088f97759a1199340202e9","bdp_wmem","Wed Jul 27 2022 23:41:17 GMT-0500 (Central Daylight Time)","654627","Match,No Match","","null","","","","","","<div class='trialBorder'><div class='vertical-center'><img src='img/fixation2_sml.jpg'</img></div></div>","null","FIX","","","","","","","","","","",""
"html-keyboard-response","126","352669","0.0-7.0-2.18","61088f97759a1199340202e9","bdp_wmem","Wed Jul 27 2022 23:41:17 GMT-0500 (Central Daylight Time)","654627","Match,No Match","","null","","","","","","<div class='trialBorder'><div class='vertical-center'><img style='vertical-align:center; align:center' src='img/fixation2_sml.jpg'></div><div class='arrayDiv3'><div class='tl'><img class='introPic' src='trustrating_stim/white_mw078.bmp'><br><font color='green'><strong>Share</strong></font></div><div class='tc'><img class='introPic' src='trustrating_stim/white_mw085.bmp'><br><font color='red'><strong>Keep</strong></font></div><div class='tr'><img class='introPic' src='trustrating_stim/white_mw003.bmp'><br><font color='red'><strong>Keep</strong></font></div></div></div>","null","ARRAY","3","trustrating_stim/white_mw078.bmp,trustrating_stim/white_mw085.bmp,trustrating_stim/white_mw003.bmp","1,0,0","Match","e","4500","","","","",""
"html-keyboard-response","127","356670","0.0-7.0-3.18","61088f97759a1199340202e9","bdp_wmem","Wed Jul 27 2022 23:41:17 GMT-0500 (Central Daylight Time)","654627","Match,No Match","","null","","","","","","<div class='trialBorder'><div class='vertical-center'><img src='img/fixation2_sml.jpg'</img></div></div>","null","DELAY","","","","","","","","","","",""
"html-keyboard-response","128","357895","0.0-7.0-4.18","61088f97759a1199340202e9","bdp_wmem","Wed Jul 27 2022 23:41:17 GMT-0500 (Central Daylight Time)","654627","Match,No Match","","1224","","","","","","<div class='trialBorder'><div class='targDiv'><div class='tc'><img class='introPic' src='trustrating_stim/white_mw003.bmp'><br><font color='red'><strong>Keep</strong></font></div></div><div class='respDiv'><div class='respDivL'>Match<br>(e)</div><div class='respDivR'>No Match<br>(i)</div></div></div>","i","TARGET","3","trustrating_stim/white_mw078.bmp,trustrating_stim/white_mw085.bmp,trustrating_stim/white_mw003.bmp","1,0,0","Match","e","4500","trustrating_stim/white_mw003.bmp","red","Keep","REAL","0"
"html-keyboard-response","129","358396","0.0-7.0-5.18","61088f97759a1199340202e9","bdp_wmem","Wed Jul 27 2022 23:41:17 GMT-0500 (Central Daylight Time)","654627","Match,No Match","","null","","","","","","<div class='trialBorder'><div class='vertical-center'><img src='img/error.jpg'></div><div class='respDiv'><div class='respDivL'>Match<br>(e)</div><div class='respDivR'><font style='color:orange'>No Match<br>(i)</font></div></div></div>","null","FEEDBACK","","","","","","","","","","",""
"html-keyboard-response","130","358897","0.0-7.0-1.19","61088f97759a1199340202e9","bdp_wmem","Wed Jul 27 2022 23:41:17 GMT-0500 (Central Daylight Time)","654627","Match,No Match","","null","","","","","","<div class='trialBorder'><div class='vertical-center'><img src='img/fixation2_sml.jpg'</img></div></div>","null","FIX","","","","","","","","","","",""
"html-keyboard-response","131","360399","0.0-7.0-2.19","61088f97759a1199340202e9","bdp_wmem","Wed Jul 27 2022 23:41:17 GMT-0500 (Central Daylight Time)","654627","Match,No Match","","null","","","","","","<div class='trialBorder'><div class='vertical-center'><img style='vertical-align:center; align:center' src='img/fixation2_sml.jpg'></div><div class='arrayDiv1'><div class='tc'><img class='introPic' src='trustrating_stim/white_mw013.bmp'><br><font color='red'><strong>Keep</strong></font></div></div></div>","null","ARRAY","1","trustrating_stim/white_mw013.bmp","0","noMatchOutcome","i","1500","","","","",""
"html-keyboard-response","132","364399","0.0-7.0-3.19","61088f97759a1199340202e9","bdp_wmem","Wed Jul 27 2022 23:41:17 GMT-0500 (Central Daylight Time)","654627","Match,No Match","","null","","","","","","<div class='trialBorder'><div class='vertical-center'><img src='img/fixation2_sml.jpg'</img></div></div>","null","DELAY","","","","","","","","","","",""
"html-keyboard-response","133","365473","0.0-7.0-4.19","61088f97759a1199340202e9","bdp_wmem","Wed Jul 27 2022 23:41:17 GMT-0500 (Central Daylight Time)","654627","Match,No Match","","1072","","","","","","<div class='trialBorder'><div class='targDiv'><div class='tc'><img class='introPic' src='trustrating_stim/white_mw013.bmp'><br><font color='green'><strong>Share</strong></font></div></div><div class='respDiv'><div class='respDivL'>Match<br>(e)</div><div class='respDivR'>No Match<br>(i)</div></div></div>","i","TARGET","1","trustrating_stim/white_mw013.bmp","0","noMatchOutcome","i","1500","trustrating_stim/white_mw013.bmp","green","Share","REAL","1"
"html-keyboard-response","134","365973","0.0-7.0-5.19","61088f97759a1199340202e9","bdp_wmem","Wed Jul 27 2022 23:41:17 GMT-0500 (Central Daylight Time)","654627","Match,No Match","","null","","","","","","<div class='trialBorder'><div class='vertical-center'><img src='img/correct.jpg'></div><div class='respDiv'><div class='respDivL'>Match<br>(e)</div><div class='respDivR'><font style='color:orange'>No Match<br>(i)</font></div></div></div>","null","FEEDBACK","","","","","","","","","","",""
"html-keyboard-response","135","366474","0.0-7.0-1.20","61088f97759a1199340202e9","bdp_wmem","Wed Jul 27 2022 23:41:17 GMT-0500 (Central Daylight Time)","654627","Match,No Match","","null","","","","","","<div class='trialBorder'><div class='vertical-center'><img src='img/fixation2_sml.jpg'</img></div></div>","null","FIX","","","","","","","","","","",""
"html-keyboard-response","136","370975","0.0-7.0-2.20","61088f97759a1199340202e9","bdp_wmem","Wed Jul 27 2022 23:41:17 GMT-0500 (Central Daylight Time)","654627","Match,No Match","","null","","","","","","<div class='trialBorder'><div class='vertical-center'><img style='vertical-align:center; align:center' src='img/fixation2_sml.jpg'></div><div class='arrayDiv3'><div class='tl'><img class='introPic' src='trustrating_stim/white_mw042.bmp'><br><font color='red'><strong>Keep</strong></font></div><div class='tc'><img class='introPic' src='trustrating_stim/white_mw003.bmp'><br><font color='green'><strong>Share</strong></font></div><div class='tr'><img class='introPic' src='trustrating_stim/white_mw012.bmp'><br><font color='green'><strong>Share</strong></font></div></div></div>","null","ARRAY","3","trustrating_stim/white_mw042.bmp,trustrating_stim/white_mw003.bmp,trustrating_stim/white_mw012.bmp","0,1,1","noMatchOutcome","i","4500","","","","",""
"html-keyboard-response","137","374976","0.0-7.0-3.20","61088f97759a1199340202e9","bdp_wmem","Wed Jul 27 2022 23:41:17 GMT-0500 (Central Daylight Time)","654627","Match,No Match","","null","","","","","","<div class='trialBorder'><div class='vertical-center'><img src='img/fixation2_sml.jpg'</img></div></div>","null","DELAY","","","","","","","","","","",""
"html-keyboard-response","138","376963","0.0-7.0-4.20","61088f97759a1199340202e9","bdp_wmem","Wed Jul 27 2022 23:41:17 GMT-0500 (Central Daylight Time)","654627","Match,No Match","","1986","","","","","","<div class='trialBorder'><div class='targDiv'><div class='tc'><img class='introPic' src='trustrating_stim/white_mw012.bmp'><br><font color='red'><strong>Keep</strong></font></div></div><div class='respDiv'><div class='respDivL'>Match<br>(e)</div><div class='respDivR'>No Match<br>(i)</div></div></div>","i","TARGET","3","trustrating_stim/white_mw042.bmp,trustrating_stim/white_mw003.bmp,trustrating_stim/white_mw012.bmp","0,1,1","noMatchOutcome","i","4500","trustrating_stim/white_mw012.bmp","red","Keep","REAL","1"
"html-keyboard-response","139","377464","0.0-7.0-5.20","61088f97759a1199340202e9","bdp_wmem","Wed Jul 27 2022 23:41:17 GMT-0500 (Central Daylight Time)","654627","Match,No Match","","null","","","","","","<div class='trialBorder'><div class='vertical-center'><img src='img/correct.jpg'></div><div class='respDiv'><div class='respDivL'>Match<br>(e)</div><div class='respDivR'><font style='color:orange'>No Match<br>(i)</font></div></div></div>","null","FEEDBACK","","","","","","","","","","",""
"html-keyboard-response","140","377965","0.0-7.0-1.21","61088f97759a1199340202e9","bdp_wmem","Wed Jul 27 2022 23:41:17 GMT-0500 (Central Daylight Time)","654627","Match,No Match","","null","","","","","","<div class='trialBorder'><div class='vertical-center'><img src='img/fixation2_sml.jpg'</img></div></div>","null","FIX","","","","","","","","","","",""
"html-keyboard-response","141","380966","0.0-7.0-2.21","61088f97759a1199340202e9","bdp_wmem","Wed Jul 27 2022 23:41:17 GMT-0500 (Central Daylight Time)","654627","Match,No Match","","null","","","","","","<div class='trialBorder'><div class='vertical-center'><img style='vertical-align:center; align:center' src='img/fixation2_sml.jpg'></div><div class='arrayDiv2'><div class='tl'><img class='introPic' src='trustrating_stim/white_mw042.bmp'><br><font color='green'><strong>Share</strong></font></div><div class='tr'><img class='introPic' src='trustrating_stim/white_mw070.bmp'><br><font color='red'><strong>Keep</strong></font></div></div></div>","null","ARRAY","2","trustrating_stim/white_mw042.bmp,trustrating_stim/white_mw070.bmp","1,0","noMatchFace","i","3000","","","","",""
"html-keyboard-response","142","384967","0.0-7.0-3.21","61088f97759a1199340202e9","bdp_wmem","Wed Jul 27 2022 23:41:17 GMT-0500 (Central Daylight Time)","654627","Match,No Match","","null","","","","","","<div class='trialBorder'><div class='vertical-center'><img src='img/fixation2_sml.jpg'</img></div></div>","null","DELAY","","","","","","","","","","",""
"html-keyboard-response","143","386215","0.0-7.0-4.21","61088f97759a1199340202e9","bdp_wmem","Wed Jul 27 2022 23:41:17 GMT-0500 (Central Daylight Time)","654627","Match,No Match","","1247","","","","","","<div class='trialBorder'><div class='targDiv'><div class='tc'><img class='introPic' src='trustrating_stim/white_mw038.bmp'><br><font color='green'><strong>Share</strong></font></div></div><div class='respDiv'><div class='respDivL'>Match<br>(e)</div><div class='respDivR'>No Match<br>(i)</div></div></div>","i","TARGET","2","trustrating_stim/white_mw042.bmp,trustrating_stim/white_mw070.bmp","1,0","noMatchFace","i","3000","trustrating_stim/white_mw038.bmp","green","Share","REAL","1"
"html-keyboard-response","144","386715","0.0-7.0-5.21","61088f97759a1199340202e9","bdp_wmem","Wed Jul 27 2022 23:41:17 GMT-0500 (Central Daylight Time)","654627","Match,No Match","","null","","","","","","<div class='trialBorder'><div class='vertical-center'><img src='img/correct.jpg'></div><div class='respDiv'><div class='respDivL'>Match<br>(e)</div><div class='respDivR'><font style='color:orange'>No Match<br>(i)</font></div></div></div>","null","FEEDBACK","","","","","","","","","","",""
"html-keyboard-response","145","387217","0.0-7.0-1.22","61088f97759a1199340202e9","bdp_wmem","Wed Jul 27 2022 23:41:17 GMT-0500 (Central Daylight Time)","654627","Match,No Match","","null","","","","","","<div class='trialBorder'><div class='vertical-center'><img src='img/fixation2_sml.jpg'</img></div></div>","null","FIX","","","","","","","","","","",""
"html-keyboard-response","146","391719","0.0-7.0-2.22","61088f97759a1199340202e9","bdp_wmem","Wed Jul 27 2022 23:41:17 GMT-0500 (Central Daylight Time)","654627","Match,No Match","","null","","","","","","<div class='trialBorder'><div class='vertical-center'><img style='vertical-align:center; align:center' src='img/fixation2_sml.jpg'></div><div class='arrayDiv3'><div class='tl'><img class='introPic' src='trustrating_stim/white_mw070.bmp'><br><font color='green'><strong>Share</strong></font></div><div class='tc'><img class='introPic' src='trustrating_stim/white_mw092.bmp'><br><font color='red'><strong>Keep</strong></font></div><div class='tr'><img class='introPic' src='trustrating_stim/white_mw010.bmp'><br><font color='green'><strong>Share</strong></font></div></div></div>","null","ARRAY","3","trustrating_stim/white_mw070.bmp,trustrating_stim/white_mw092.bmp,trustrating_stim/white_mw010.bmp","1,0,1","noMatchOutcome","i","4500","","","","",""
"html-keyboard-response","147","395719","0.0-7.0-3.22","61088f97759a1199340202e9","bdp_wmem","Wed Jul 27 2022 23:41:17 GMT-0500 (Central Daylight Time)","654627","Match,No Match","","null","","","","","","<div class='trialBorder'><div class='vertical-center'><img src='img/fixation2_sml.jpg'</img></div></div>","null","DELAY","","","","","","","","","","",""
"html-keyboard-response","148","399477","0.0-7.0-4.22","61088f97759a1199340202e9","bdp_wmem","Wed Jul 27 2022 23:41:17 GMT-0500 (Central Daylight Time)","654627","Match,No Match","","3757","","","","","","<div class='trialBorder'><div class='targDiv'><div class='tc'><img class='introPic' src='trustrating_stim/white_mw010.bmp'><br><font color='red'><strong>Keep</strong></font></div></div><div class='respDiv'><div class='respDivL'>Match<br>(e)</div><div class='respDivR'>No Match<br>(i)</div></div></div>","i","TARGET","3","trustrating_stim/white_mw070.bmp,trustrating_stim/white_mw092.bmp,trustrating_stim/white_mw010.bmp","1,0,1","noMatchOutcome","i","4500","trustrating_stim/white_mw010.bmp","red","Keep","REAL","1"
"html-keyboard-response","149","399980","0.0-7.0-5.22","61088f97759a1199340202e9","bdp_wmem","Wed Jul 27 2022 23:41:17 GMT-0500 (Central Daylight Time)","654627","Match,No Match","","null","","","","","","<div class='trialBorder'><div class='vertical-center'><img src='img/correct.jpg'></div><div class='respDiv'><div class='respDivL'>Match<br>(e)</div><div class='respDivR'><font style='color:orange'>No Match<br>(i)</font></div></div></div>","null","FEEDBACK","","","","","","","","","","",""
"html-keyboard-response","150","400481","0.0-7.0-1.23","61088f97759a1199340202e9","bdp_wmem","Wed Jul 27 2022 23:41:17 GMT-0500 (Central Daylight Time)","654627","Match,No Match","","null","","","","","","<div class='trialBorder'><div class='vertical-center'><img src='img/fixation2_sml.jpg'</img></div></div>","null","FIX","","","","","","","","","","",""
"html-keyboard-response","151","403483","0.0-7.0-2.23","61088f97759a1199340202e9","bdp_wmem","Wed Jul 27 2022 23:41:17 GMT-0500 (Central Daylight Time)","654627","Match,No Match","","null","","","","","","<div class='trialBorder'><div class='vertical-center'><img style='vertical-align:center; align:center' src='img/fixation2_sml.jpg'></div><div class='arrayDiv2'><div class='tl'><img class='introPic' src='trustrating_stim/white_mw013.bmp'><br><font color='red'><strong>Keep</strong></font></div><div class='tr'><img class='introPic' src='trustrating_stim/white_mw085.bmp'><br><font color='green'><strong>Share</strong></font></div></div></div>","null","ARRAY","2","trustrating_stim/white_mw013.bmp,trustrating_stim/white_mw085.bmp","0,1","Match","e","3000","","","","",""
"html-keyboard-response","152","407484","0.0-7.0-3.23","61088f97759a1199340202e9","bdp_wmem","Wed Jul 27 2022 23:41:17 GMT-0500 (Central Daylight Time)","654627","Match,No Match","","null","","","","","","<div class='trialBorder'><div class='vertical-center'><img src='img/fixation2_sml.jpg'</img></div></div>","null","DELAY","","","","","","","","","","",""
"html-keyboard-response","153","409326","0.0-7.0-4.23","61088f97759a1199340202e9","bdp_wmem","Wed Jul 27 2022 23:41:17 GMT-0500 (Central Daylight Time)","654627","Match,No Match","","1841","","","","","","<div class='trialBorder'><div class='targDiv'><div class='tc'><img class='introPic' src='trustrating_stim/white_mw013.bmp'><br><font color='red'><strong>Keep</strong></font></div></div><div class='respDiv'><div class='respDivL'>Match<br>(e)</div><div class='respDivR'>No Match<br>(i)</div></div></div>","i","TARGET","2","trustrating_stim/white_mw013.bmp,trustrating_stim/white_mw085.bmp","0,1","Match","e","3000","trustrating_stim/white_mw013.bmp","red","Keep","REAL","0"
"html-keyboard-response","154","409827","0.0-7.0-5.23","61088f97759a1199340202e9","bdp_wmem","Wed Jul 27 2022 23:41:17 GMT-0500 (Central Daylight Time)","654627","Match,No Match","","null","","","","","","<div class='trialBorder'><div class='vertical-center'><img src='img/error.jpg'></div><div class='respDiv'><div class='respDivL'>Match<br>(e)</div><div class='respDivR'><font style='color:orange'>No Match<br>(i)</font></div></div></div>","null","FEEDBACK","","","","","","","","","","",""
"html-keyboard-response","155","410328","0.0-7.0-1.24","61088f97759a1199340202e9","bdp_wmem","Wed Jul 27 2022 23:41:17 GMT-0500 (Central Daylight Time)","654627","Match,No Match","","null","","","","","","<div class='trialBorder'><div class='vertical-center'><img src='img/fixation2_sml.jpg'</img></div></div>","null","FIX","","","","","","","","","","",""
"html-keyboard-response","156","413329","0.0-7.0-2.24","61088f97759a1199340202e9","bdp_wmem","Wed Jul 27 2022 23:41:17 GMT-0500 (Central Daylight Time)","654627","Match,No Match","","null","","","","","","<div class='trialBorder'><div class='vertical-center'><img style='vertical-align:center; align:center' src='img/fixation2_sml.jpg'></div><div class='arrayDiv2'><div class='tl'><img class='introPic' src='trustrating_stim/white_mw085.bmp'><br><font color='red'><strong>Keep</strong></font></div><div class='tr'><img class='introPic' src='trustrating_stim/white_mw042.bmp'><br><font color='green'><strong>Share</strong></font></div></div></div>","null","ARRAY","2","trustrating_stim/white_mw085.bmp,trustrating_stim/white_mw042.bmp","0,1","Match","e","3000","","","","",""
"html-keyboard-response","157","417330","0.0-7.0-3.24","61088f97759a1199340202e9","bdp_wmem","Wed Jul 27 2022 23:41:17 GMT-0500 (Central Daylight Time)","654627","Match,No Match","","null","","","","","","<div class='trialBorder'><div class='vertical-center'><img src='img/fixation2_sml.jpg'</img></div></div>","null","DELAY","","","","","","","","","","",""
"html-keyboard-response","158","419650","0.0-7.0-4.24","61088f97759a1199340202e9","bdp_wmem","Wed Jul 27 2022 23:41:17 GMT-0500 (Central Daylight Time)","654627","Match,No Match","","2319","","","","","","<div class='trialBorder'><div class='targDiv'><div class='tc'><img class='introPic' src='trustrating_stim/white_mw042.bmp'><br><font color='green'><strong>Share</strong></font></div></div><div class='respDiv'><div class='respDivL'>Match<br>(e)</div><div class='respDivR'>No Match<br>(i)</div></div></div>","e","TARGET","2","trustrating_stim/white_mw085.bmp,trustrating_stim/white_mw042.bmp","0,1","Match","e","3000","trustrating_stim/white_mw042.bmp","green","Share","REAL","1"
"html-keyboard-response","159","420151","0.0-7.0-5.24","61088f97759a1199340202e9","bdp_wmem","Wed Jul 27 2022 23:41:17 GMT-0500 (Central Daylight Time)","654627","Match,No Match","","null","","","","","","<div class='trialBorder'><div class='vertical-center'><img src='img/correct.jpg'></div><div class='respDiv'><div class='respDivL'><font style='color:orange'>Match<br>(e)</font></div><div class='respDivR'>No Match<br>(i)</div></div></div>","null","FEEDBACK","","","","","","","","","","",""
"html-keyboard-response","160","420653","0.0-7.0-1.25","61088f97759a1199340202e9","bdp_wmem","Wed Jul 27 2022 23:41:17 GMT-0500 (Central Daylight Time)","654627","Match,No Match","","null","","","","","","<div class='trialBorder'><div class='vertical-center'><img src='img/fixation2_sml.jpg'</img></div></div>","null","FIX","","","","","","","","","","",""
"html-keyboard-response","161","422153","0.0-7.0-2.25","61088f97759a1199340202e9","bdp_wmem","Wed Jul 27 2022 23:41:17 GMT-0500 (Central Daylight Time)","654627","Match,No Match","","null","","","","","","<div class='trialBorder'><div class='vertical-center'><img style='vertical-align:center; align:center' src='img/fixation2_sml.jpg'></div><div class='arrayDiv1'><div class='tc'><img class='introPic' src='trustrating_stim/white_mw078.bmp'><br><font color='green'><strong>Share</strong></font></div></div></div>","null","ARRAY","1","trustrating_stim/white_mw078.bmp","1","Match","e","1500","","","","",""
"html-keyboard-response","162","426155","0.0-7.0-3.25","61088f97759a1199340202e9","bdp_wmem","Wed Jul 27 2022 23:41:17 GMT-0500 (Central Daylight Time)","654627","Match,No Match","","null","","","","","","<div class='trialBorder'><div class='vertical-center'><img src='img/fixation2_sml.jpg'</img></div></div>","null","DELAY","","","","","","","","","","",""
"html-keyboard-response","163","428106","0.0-7.0-4.25","61088f97759a1199340202e9","bdp_wmem","Wed Jul 27 2022 23:41:17 GMT-0500 (Central Daylight Time)","654627","Match,No Match","","1951","","","","","","<div class='trialBorder'><div class='targDiv'><div class='tc'><img class='introPic' src='trustrating_stim/white_mw078.bmp'><br><font color='green'><strong>Share</strong></font></div></div><div class='respDiv'><div class='respDivL'>Match<br>(e)</div><div class='respDivR'>No Match<br>(i)</div></div></div>","i","TARGET","1","trustrating_stim/white_mw078.bmp","1","Match","e","1500","trustrating_stim/white_mw078.bmp","green","Share","REAL","0"
"html-keyboard-response","164","428607","0.0-7.0-5.25","61088f97759a1199340202e9","bdp_wmem","Wed Jul 27 2022 23:41:17 GMT-0500 (Central Daylight Time)","654627","Match,No Match","","null","","","","","","<div class='trialBorder'><div class='vertical-center'><img src='img/error.jpg'></div><div class='respDiv'><div class='respDivL'>Match<br>(e)</div><div class='respDivR'><font style='color:orange'>No Match<br>(i)</font></div></div></div>","null","FEEDBACK","","","","","","","","","","",""
"html-keyboard-response","165","429109","0.0-7.0-1.26","61088f97759a1199340202e9","bdp_wmem","Wed Jul 27 2022 23:41:17 GMT-0500 (Central Daylight Time)","654627","Match,No Match","","null","","","","","","<div class='trialBorder'><div class='vertical-center'><img src='img/fixation2_sml.jpg'</img></div></div>","null","FIX","","","","","","","","","","",""
"html-keyboard-response","166","432110","0.0-7.0-2.26","61088f97759a1199340202e9","bdp_wmem","Wed Jul 27 2022 23:41:17 GMT-0500 (Central Daylight Time)","654627","Match,No Match","","null","","","","","","<div class='trialBorder'><div class='vertical-center'><img style='vertical-align:center; align:center' src='img/fixation2_sml.jpg'></div><div class='arrayDiv2'><div class='tl'><img class='introPic' src='trustrating_stim/white_mw013.bmp'><br><font color='green'><strong>Share</strong></font></div><div class='tr'><img class='introPic' src='trustrating_stim/white_mw085.bmp'><br><font color='red'><strong>Keep</strong></font></div></div></div>","null","ARRAY","2","trustrating_stim/white_mw013.bmp,trustrating_stim/white_mw085.bmp","1,0","noMatchOutcome","i","3000","","","","",""
"html-keyboard-response","167","436111","0.0-7.0-3.26","61088f97759a1199340202e9","bdp_wmem","Wed Jul 27 2022 23:41:17 GMT-0500 (Central Daylight Time)","654627","Match,No Match","","null","","","","","","<div class='trialBorder'><div class='vertical-center'><img src='img/fixation2_sml.jpg'</img></div></div>","null","DELAY","","","","","","","","","","",""
"html-keyboard-response","168","438881","0.0-7.0-4.26","61088f97759a1199340202e9","bdp_wmem","Wed Jul 27 2022 23:41:17 GMT-0500 (Central Daylight Time)","654627","Match,No Match","","2769","","","","","","<div class='trialBorder'><div class='targDiv'><div class='tc'><img class='introPic' src='trustrating_stim/white_mw085.bmp'><br><font color='green'><strong>Share</strong></font></div></div><div class='respDiv'><div class='respDivL'>Match<br>(e)</div><div class='respDivR'>No Match<br>(i)</div></div></div>","e","TARGET","2","trustrating_stim/white_mw013.bmp,trustrating_stim/white_mw085.bmp","1,0","noMatchOutcome","i","3000","trustrating_stim/white_mw085.bmp","green","Share","REAL","0"
"html-keyboard-response","169","439382","0.0-7.0-5.26","61088f97759a1199340202e9","bdp_wmem","Wed Jul 27 2022 23:41:17 GMT-0500 (Central Daylight Time)","654627","Match,No Match","","null","","","","","","<div class='trialBorder'><div class='vertical-center'><img src='img/error.jpg'></div><div class='respDiv'><div class='respDivL'><font style='color:orange'>Match<br>(e)</font></div><div class='respDivR'>No Match<br>(i)</div></div></div>","null","FEEDBACK","","","","","","","","","","",""
"html-keyboard-response","170","439883","0.0-7.0-1.27","61088f97759a1199340202e9","bdp_wmem","Wed Jul 27 2022 23:41:17 GMT-0500 (Central Daylight Time)","654627","Match,No Match","","null","","","","","","<div class='trialBorder'><div class='vertical-center'><img src='img/fixation2_sml.jpg'</img></div></div>","null","FIX","","","","","","","","","","",""
"html-keyboard-response","171","441385","0.0-7.0-2.27","61088f97759a1199340202e9","bdp_wmem","Wed Jul 27 2022 23:41:17 GMT-0500 (Central Daylight Time)","654627","Match,No Match","","null","","","","","","<div class='trialBorder'><div class='vertical-center'><img style='vertical-align:center; align:center' src='img/fixation2_sml.jpg'></div><div class='arrayDiv1'><div class='tc'><img class='introPic' src='trustrating_stim/white_mw091.bmp'><br><font color='green'><strong>Share</strong></font></div></div></div>","null","ARRAY","1","trustrating_stim/white_mw091.bmp","1","Match","e","1500","","","","",""
"html-keyboard-response","172","445386","0.0-7.0-3.27","61088f97759a1199340202e9","bdp_wmem","Wed Jul 27 2022 23:41:17 GMT-0500 (Central Daylight Time)","654627","Match,No Match","","null","","","","","","<div class='trialBorder'><div class='vertical-center'><img src='img/fixation2_sml.jpg'</img></div></div>","null","DELAY","","","","","","","","","","",""
"html-keyboard-response","173","446790","0.0-7.0-4.27","61088f97759a1199340202e9","bdp_wmem","Wed Jul 27 2022 23:41:17 GMT-0500 (Central Daylight Time)","654627","Match,No Match","","1403","","","","","","<div class='trialBorder'><div class='targDiv'><div class='tc'><img class='introPic' src='trustrating_stim/white_mw091.bmp'><br><font color='green'><strong>Share</strong></font></div></div><div class='respDiv'><div class='respDivL'>Match<br>(e)</div><div class='respDivR'>No Match<br>(i)</div></div></div>","e","TARGET","1","trustrating_stim/white_mw091.bmp","1","Match","e","1500","trustrating_stim/white_mw091.bmp","green","Share","REAL","1"
"html-keyboard-response","174","447291","0.0-7.0-5.27","61088f97759a1199340202e9","bdp_wmem","Wed Jul 27 2022 23:41:17 GMT-0500 (Central Daylight Time)","654627","Match,No Match","","null","","","","","","<div class='trialBorder'><div class='vertical-center'><img src='img/correct.jpg'></div><div class='respDiv'><div class='respDivL'><font style='color:orange'>Match<br>(e)</font></div><div class='respDivR'>No Match<br>(i)</div></div></div>","null","FEEDBACK","","","","","","","","","","",""
"html-keyboard-response","175","447793","0.0-7.0-1.28","61088f97759a1199340202e9","bdp_wmem","Wed Jul 27 2022 23:41:17 GMT-0500 (Central Daylight Time)","654627","Match,No Match","","null","","","","","","<div class='trialBorder'><div class='vertical-center'><img src='img/fixation2_sml.jpg'</img></div></div>","null","FIX","","","","","","","","","","",""
"html-keyboard-response","176","452294","0.0-7.0-2.28","61088f97759a1199340202e9","bdp_wmem","Wed Jul 27 2022 23:41:17 GMT-0500 (Central Daylight Time)","654627","Match,No Match","","null","","","","","","<div class='trialBorder'><div class='vertical-center'><img style='vertical-align:center; align:center' src='img/fixation2_sml.jpg'></div><div class='arrayDiv3'><div class='tl'><img class='introPic' src='trustrating_stim/white_mw012.bmp'><br><font color='green'><strong>Share</strong></font></div><div class='tc'><img class='introPic' src='trustrating_stim/white_mw038.bmp'><br><font color='green'><strong>Share</strong></font></div><div class='tr'><img class='introPic' src='trustrating_stim/white_mw092.bmp'><br><font color='red'><strong>Keep</strong></font></div></div></div>","null","ARRAY","3","trustrating_stim/white_mw012.bmp,trustrating_stim/white_mw038.bmp,trustrating_stim/white_mw092.bmp","1,1,0","Match","e","4500","","","","",""
"html-keyboard-response","177","456295","0.0-7.0-3.28","61088f97759a1199340202e9","bdp_wmem","Wed Jul 27 2022 23:41:17 GMT-0500 (Central Daylight Time)","654627","Match,No Match","","null","","","","","","<div class='trialBorder'><div class='vertical-center'><img src='img/fixation2_sml.jpg'</img></div></div>","null","DELAY","","","","","","","","","","",""
"html-keyboard-response","178","458000","0.0-7.0-4.28","61088f97759a1199340202e9","bdp_wmem","Wed Jul 27 2022 23:41:17 GMT-0500 (Central Daylight Time)","654627","Match,No Match","","1704","","","","","","<div class='trialBorder'><div class='targDiv'><div class='tc'><img class='introPic' src='trustrating_stim/white_mw038.bmp'><br><font color='green'><strong>Share</strong></font></div></div><div class='respDiv'><div class='respDivL'>Match<br>(e)</div><div class='respDivR'>No Match<br>(i)</div></div></div>","e","TARGET","3","trustrating_stim/white_mw012.bmp,trustrating_stim/white_mw038.bmp,trustrating_stim/white_mw092.bmp","1,1,0","Match","e","4500","trustrating_stim/white_mw038.bmp","green","Share","REAL","1"
"html-keyboard-response","179","458502","0.0-7.0-5.28","61088f97759a1199340202e9","bdp_wmem","Wed Jul 27 2022 23:41:17 GMT-0500 (Central Daylight Time)","654627","Match,No Match","","null","","","","","","<div class='trialBorder'><div class='vertical-center'><img src='img/correct.jpg'></div><div class='respDiv'><div class='respDivL'><font style='color:orange'>Match<br>(e)</font></div><div class='respDivR'>No Match<br>(i)</div></div></div>","null","FEEDBACK","","","","","","","","","","",""
"html-keyboard-response","180","459003","0.0-7.0-1.29","61088f97759a1199340202e9","bdp_wmem","Wed Jul 27 2022 23:41:17 GMT-0500 (Central Daylight Time)","654627","Match,No Match","","null","","","","","","<div class='trialBorder'><div class='vertical-center'><img src='img/fixation2_sml.jpg'</img></div></div>","null","FIX","","","","","","","","","","",""
"html-keyboard-response","181","463504","0.0-7.0-2.29","61088f97759a1199340202e9","bdp_wmem","Wed Jul 27 2022 23:41:17 GMT-0500 (Central Daylight Time)","654627","Match,No Match","","null","","","","","","<div class='trialBorder'><div class='vertical-center'><img style='vertical-align:center; align:center' src='img/fixation2_sml.jpg'></div><div class='arrayDiv3'><div class='tl'><img class='introPic' src='trustrating_stim/white_mw070.bmp'><br><font color='red'><strong>Keep</strong></font></div><div class='tc'><img class='introPic' src='trustrating_stim/white_mw040.bmp'><br><font color='green'><strong>Share</strong></font></div><div class='tr'><img class='introPic' src='trustrating_stim/white_mw091.bmp'><br><font color='green'><strong>Share</strong></font></div></div></div>","null","ARRAY","3","trustrating_stim/white_mw070.bmp,trustrating_stim/white_mw040.bmp,trustrating_stim/white_mw091.bmp","0,1,1","noMatchFace","i","4500","","","","",""
"html-keyboard-response","182","467505","0.0-7.0-3.29","61088f97759a1199340202e9","bdp_wmem","Wed Jul 27 2022 23:41:17 GMT-0500 (Central Daylight Time)","654627","Match,No Match","","null","","","","","","<div class='trialBorder'><div class='vertical-center'><img src='img/fixation2_sml.jpg'</img></div></div>","null","DELAY","","","","","","","","","","",""
"html-keyboard-response","183","470131","0.0-7.0-4.29","61088f97759a1199340202e9","bdp_wmem","Wed Jul 27 2022 23:41:17 GMT-0500 (Central Daylight Time)","654627","Match,No Match","","2625","","","","","","<div class='trialBorder'><div class='targDiv'><div class='tc'><img class='introPic' src='trustrating_stim/white_mw013.bmp'><br><font color='green'><strong>Share</strong></font></div></div><div class='respDiv'><div class='respDivL'>Match<br>(e)</div><div class='respDivR'>No Match<br>(i)</div></div></div>","e","TARGET","3","trustrating_stim/white_mw070.bmp,trustrating_stim/white_mw040.bmp,trustrating_stim/white_mw091.bmp","0,1,1","noMatchFace","i","4500","trustrating_stim/white_mw013.bmp","green","Share","REAL","0"
"html-keyboard-response","184","470632","0.0-7.0-5.29","61088f97759a1199340202e9","bdp_wmem","Wed Jul 27 2022 23:41:17 GMT-0500 (Central Daylight Time)","654627","Match,No Match","","null","","","","","","<div class='trialBorder'><div class='vertical-center'><img src='img/error.jpg'></div><div class='respDiv'><div class='respDivL'><font style='color:orange'>Match<br>(e)</font></div><div class='respDivR'>No Match<br>(i)</div></div></div>","null","FEEDBACK","","","","","","","","","","",""
"html-keyboard-response","185","471133","0.0-7.0-1.30","61088f97759a1199340202e9","bdp_wmem","Wed Jul 27 2022 23:41:17 GMT-0500 (Central Daylight Time)","654627","Match,No Match","","null","","","","","","<div class='trialBorder'><div class='vertical-center'><img src='img/fixation2_sml.jpg'</img></div></div>","null","FIX","","","","","","","","","","",""
"html-keyboard-response","186","475635","0.0-7.0-2.30","61088f97759a1199340202e9","bdp_wmem","Wed Jul 27 2022 23:41:17 GMT-0500 (Central Daylight Time)","654627","Match,No Match","","null","","","","","","<div class='trialBorder'><div class='vertical-center'><img style='vertical-align:center; align:center' src='img/fixation2_sml.jpg'></div><div class='arrayDiv3'><div class='tl'><img class='introPic' src='trustrating_stim/white_mw085.bmp'><br><font color='red'><strong>Keep</strong></font></div><div class='tc'><img class='introPic' src='trustrating_stim/white_mw092.bmp'><br><font color='green'><strong>Share</strong></font></div><div class='tr'><img class='introPic' src='trustrating_stim/white_mw070.bmp'><br><font color='green'><strong>Share</strong></font></div></div></div>","null","ARRAY","3","trustrating_stim/white_mw085.bmp,trustrating_stim/white_mw092.bmp,trustrating_stim/white_mw070.bmp","0,1,1","Match","e","4500","","","","",""
"html-keyboard-response","187","479636","0.0-7.0-3.30","61088f97759a1199340202e9","bdp_wmem","Wed Jul 27 2022 23:41:17 GMT-0500 (Central Daylight Time)","654627","Match,No Match","","null","","","","","","<div class='trialBorder'><div class='vertical-center'><img src='img/fixation2_sml.jpg'</img></div></div>","null","DELAY","","","","","","","","","","",""
"html-keyboard-response","188","482492","0.0-7.0-4.30","61088f97759a1199340202e9","bdp_wmem","Wed Jul 27 2022 23:41:17 GMT-0500 (Central Daylight Time)","654627","Match,No Match","","2855","","","","","","<div class='trialBorder'><div class='targDiv'><div class='tc'><img class='introPic' src='trustrating_stim/white_mw092.bmp'><br><font color='green'><strong>Share</strong></font></div></div><div class='respDiv'><div class='respDivL'>Match<br>(e)</div><div class='respDivR'>No Match<br>(i)</div></div></div>","e","TARGET","3","trustrating_stim/white_mw085.bmp,trustrating_stim/white_mw092.bmp,trustrating_stim/white_mw070.bmp","0,1,1","Match","e","4500","trustrating_stim/white_mw092.bmp","green","Share","REAL","1"
