"trial_type","trial_index","time_elapsed","internal_node_id","subject_id","task","startTime","totalTime","labels","view_history","rt","event","trial","time","trialtype","success","stimulus","key_press","stimType","arraySize","arrayFaces","arrayOutcomes","matchType","corrResp","arrayDur","targFace","targCol","targOutcome","trialType","corr"
"pavlovia","0","2","0.0-0.0","5d3bcf190e510a001b3df200","bdp_wmem","Wed Mar 15 2023 14:07:46 GMT-0500 (Central Daylight Time)","576268","Match,No Match","","","","","","","","","","","","","","","","","","","","",""
"instructions","1","1975","0.0-1.0","5d3bcf190e510a001b3df200","bdp_wmem","Wed Mar 15 2023 14:07:46 GMT-0500 (Central Daylight Time)","576268","Match,No Match","[{""page_index"":0,""viewing_time"":1972}]","1972","","","","","","","","","","","","","","","","","","",""
"","","","","5d3bcf190e510a001b3df200","bdp_wmem","Wed Mar 15 2023 14:07:46 GMT-0500 (Central Daylight Time)","576268","Match,No Match","","","fullscreenenter","2","3552","fullscreenenter","","","","","","","","","","","","","","",""
"fullscreen","2","4538","0.0-2.0","5d3bcf190e510a001b3df200","bdp_wmem","Wed Mar 15 2023 14:07:46 GMT-0500 (Central Daylight Time)","576268","Match,No Match","","","","","","","true","","","","","","","","","","","","","",""
"instructions","3","86573","0.0-4.0","5d3bcf190e510a001b3df200","bdp_wmem","Wed Mar 15 2023 14:07:46 GMT-0500 (Central Daylight Time)","576268","Match,No Match","[{""page_index"":0,""viewing_time"":13916},{""page_index"":1,""viewing_time"":41976},{""page_index"":2,""viewing_time"":17664},{""page_index"":3,""viewing_time"":2613},{""page_index"":4,""viewing_time"":5864}]","82034","","","","","","","","","","","","","","","","","","",""
"html-keyboard-response","4","87081","0.0-5.0-1.0","5d3bcf190e510a001b3df200","bdp_wmem","Wed Mar 15 2023 14:07:46 GMT-0500 (Central Daylight Time)","576268","Match,No Match","","null","","","","","","<div class='trialBorder'><div class='vertical-center'><img src='img/fixation2_sml.jpg'</img></div></div>","null","FIX","","","","","","","","","","",""
"html-keyboard-response","5","91590","0.0-5.0-2.0","5d3bcf190e510a001b3df200","bdp_wmem","Wed Mar 15 2023 14:07:46 GMT-0500 (Central Daylight Time)","576268","Match,No Match","","null","","","","","","<div class='trialBorder'><div class='vertical-center'><img style='vertical-align:center; align:center' src='img/fixation2_sml.jpg'></div><div class='arrayDiv3'><div class='tl'><img class='introPic' src='trustrating_stim/white_mw038.bmp'><br><font color='red'><strong>Keep</strong></font></div><div class='tc'><img class='introPic' src='trustrating_stim/white_mw042.bmp'><br><font color='red'><strong>Keep</strong></font></div><div class='tr'><img class='introPic' src='trustrating_stim/white_mw012.bmp'><br><font color='green'><strong>Share</strong></font></div></div></div>","null","ARRAY","3","trustrating_stim/white_mw038.bmp,trustrating_stim/white_mw042.bmp,trustrating_stim/white_mw012.bmp","0,0,1","noMatchOutcome","i","4500","","","","",""
"html-keyboard-response","6","95595","0.0-5.0-3.0","5d3bcf190e510a001b3df200","bdp_wmem","Wed Mar 15 2023 14:07:46 GMT-0500 (Central Daylight Time)","576268","Match,No Match","","null","","","","","","<div class='trialBorder'><div class='vertical-center'><img src='img/fixation2_sml.jpg'</img></div></div>","null","DELAY","","","","","","","","","","",""
"html-keyboard-response","7","97180","0.0-5.0-4.0","5d3bcf190e510a001b3df200","bdp_wmem","Wed Mar 15 2023 14:07:46 GMT-0500 (Central Daylight Time)","576268","Match,No Match","","1582","","","","","","<div class='trialBorder'><div class='targDiv'><div class='tc'><img class='introPic' src='trustrating_stim/white_mw012.bmp'><br><font color='red'><strong>Keep</strong></font></div></div><div class='respDiv'><div class='respDivL'>Match<br>(e)</div><div class='respDivR'>No Match<br>(i)</div></div></div>","e","TARGET","3","trustrating_stim/white_mw038.bmp,trustrating_stim/white_mw042.bmp,trustrating_stim/white_mw012.bmp","0,0,1","noMatchOutcome","i","4500","trustrating_stim/white_mw012.bmp","red","Keep","PRACTICE","0"
"html-keyboard-response","8","97689","0.0-5.0-5.0","5d3bcf190e510a001b3df200","bdp_wmem","Wed Mar 15 2023 14:07:46 GMT-0500 (Central Daylight Time)","576268","Match,No Match","","null","","","","","","<div class='trialBorder'><div class='vertical-center'><img src='img/error.jpg'></div><div class='respDiv'><div class='respDivL'><font style='color:orange'>Match<br>(e)</font></div><div class='respDivR'>No Match<br>(i)</div></div></div>","null","FEEDBACK","","","","","","","","","","",""
"html-keyboard-response","9","98196","0.0-5.0-1.1","5d3bcf190e510a001b3df200","bdp_wmem","Wed Mar 15 2023 14:07:46 GMT-0500 (Central Daylight Time)","576268","Match,No Match","","null","","","","","","<div class='trialBorder'><div class='vertical-center'><img src='img/fixation2_sml.jpg'</img></div></div>","null","FIX","","","","","","","","","","",""
"html-keyboard-response","10","101201","0.0-5.0-2.1","5d3bcf190e510a001b3df200","bdp_wmem","Wed Mar 15 2023 14:07:46 GMT-0500 (Central Daylight Time)","576268","Match,No Match","","null","","","","","","<div class='trialBorder'><div class='vertical-center'><img style='vertical-align:center; align:center' src='img/fixation2_sml.jpg'></div><div class='arrayDiv2'><div class='tl'><img class='introPic' src='trustrating_stim/white_mw070.bmp'><br><font color='red'><strong>Keep</strong></font></div><div class='tr'><img class='introPic' src='trustrating_stim/white_mw003.bmp'><br><font color='green'><strong>Share</strong></font></div></div></div>","null","ARRAY","2","trustrating_stim/white_mw070.bmp,trustrating_stim/white_mw003.bmp","0,1","Match","e","3000","","","","",""
"html-keyboard-response","11","105204","0.0-5.0-3.1","5d3bcf190e510a001b3df200","bdp_wmem","Wed Mar 15 2023 14:07:46 GMT-0500 (Central Daylight Time)","576268","Match,No Match","","null","","","","","","<div class='trialBorder'><div class='vertical-center'><img src='img/fixation2_sml.jpg'</img></div></div>","null","DELAY","","","","","","","","","","",""
"html-keyboard-response","12","107132","0.0-5.0-4.1","5d3bcf190e510a001b3df200","bdp_wmem","Wed Mar 15 2023 14:07:46 GMT-0500 (Central Daylight Time)","576268","Match,No Match","","1926","","","","","","<div class='trialBorder'><div class='targDiv'><div class='tc'><img class='introPic' src='trustrating_stim/white_mw070.bmp'><br><font color='red'><strong>Keep</strong></font></div></div><div class='respDiv'><div class='respDivL'>Match<br>(e)</div><div class='respDivR'>No Match<br>(i)</div></div></div>","e","TARGET","2","trustrating_stim/white_mw070.bmp,trustrating_stim/white_mw003.bmp","0,1","Match","e","3000","trustrating_stim/white_mw070.bmp","red","Keep","PRACTICE","1"
"html-keyboard-response","13","107635","0.0-5.0-5.1","5d3bcf190e510a001b3df200","bdp_wmem","Wed Mar 15 2023 14:07:46 GMT-0500 (Central Daylight Time)","576268","Match,No Match","","null","","","","","","<div class='trialBorder'><div class='vertical-center'><img src='img/correct.jpg'></div><div class='respDiv'><div class='respDivL'><font style='color:orange'>Match<br>(e)</font></div><div class='respDivR'>No Match<br>(i)</div></div></div>","null","FEEDBACK","","","","","","","","","","",""
"html-keyboard-response","14","108142","0.0-5.0-1.2","5d3bcf190e510a001b3df200","bdp_wmem","Wed Mar 15 2023 14:07:46 GMT-0500 (Central Daylight Time)","576268","Match,No Match","","null","","","","","","<div class='trialBorder'><div class='vertical-center'><img src='img/fixation2_sml.jpg'</img></div></div>","null","FIX","","","","","","","","","","",""
"html-keyboard-response","15","109646","0.0-5.0-2.2","5d3bcf190e510a001b3df200","bdp_wmem","Wed Mar 15 2023 14:07:46 GMT-0500 (Central Daylight Time)","576268","Match,No Match","","null","","","","","","<div class='trialBorder'><div class='vertical-center'><img style='vertical-align:center; align:center' src='img/fixation2_sml.jpg'></div><div class='arrayDiv1'><div class='tc'><img class='introPic' src='trustrating_stim/white_mw091.bmp'><br><font color='green'><strong>Share</strong></font></div></div></div>","null","ARRAY","1","trustrating_stim/white_mw091.bmp","1","noMatchFace","i","1500","","","","",""
"html-keyboard-response","16","113652","0.0-5.0-3.2","5d3bcf190e510a001b3df200","bdp_wmem","Wed Mar 15 2023 14:07:46 GMT-0500 (Central Daylight Time)","576268","Match,No Match","","null","","","","","","<div class='trialBorder'><div class='vertical-center'><img src='img/fixation2_sml.jpg'</img></div></div>","null","DELAY","","","","","","","","","","",""
"html-keyboard-response","17","114463","0.0-5.0-4.2","5d3bcf190e510a001b3df200","bdp_wmem","Wed Mar 15 2023 14:07:46 GMT-0500 (Central Daylight Time)","576268","Match,No Match","","809","","","","","","<div class='trialBorder'><div class='targDiv'><div class='tc'><img class='introPic' src='trustrating_stim/white_mw012.bmp'><br><font color='green'><strong>Share</strong></font></div></div><div class='respDiv'><div class='respDivL'>Match<br>(e)</div><div class='respDivR'>No Match<br>(i)</div></div></div>","i","TARGET","1","trustrating_stim/white_mw091.bmp","1","noMatchFace","i","1500","trustrating_stim/white_mw012.bmp","green","Share","PRACTICE","1"
"html-keyboard-response","18","114967","0.0-5.0-5.2","5d3bcf190e510a001b3df200","bdp_wmem","Wed Mar 15 2023 14:07:46 GMT-0500 (Central Daylight Time)","576268","Match,No Match","","null","","","","","","<div class='trialBorder'><div class='vertical-center'><img src='img/correct.jpg'></div><div class='respDiv'><div class='respDivL'>Match<br>(e)</div><div class='respDivR'><font style='color:orange'>No Match<br>(i)</font></div></div></div>","null","FEEDBACK","","","","","","","","","","",""
"html-keyboard-response","19","115471","0.0-5.0-1.3","5d3bcf190e510a001b3df200","bdp_wmem","Wed Mar 15 2023 14:07:46 GMT-0500 (Central Daylight Time)","576268","Match,No Match","","null","","","","","","<div class='trialBorder'><div class='vertical-center'><img src='img/fixation2_sml.jpg'</img></div></div>","null","FIX","","","","","","","","","","",""
"html-keyboard-response","20","119979","0.0-5.0-2.3","5d3bcf190e510a001b3df200","bdp_wmem","Wed Mar 15 2023 14:07:46 GMT-0500 (Central Daylight Time)","576268","Match,No Match","","null","","","","","","<div class='trialBorder'><div class='vertical-center'><img style='vertical-align:center; align:center' src='img/fixation2_sml.jpg'></div><div class='arrayDiv3'><div class='tl'><img class='introPic' src='trustrating_stim/white_mw092.bmp'><br><font color='green'><strong>Share</strong></font></div><div class='tc'><img class='introPic' src='trustrating_stim/white_mw042.bmp'><br><font color='red'><strong>Keep</strong></font></div><div class='tr'><img class='introPic' src='trustrating_stim/white_mw085.bmp'><br><font color='green'><strong>Share</strong></font></div></div></div>","null","ARRAY","3","trustrating_stim/white_mw092.bmp,trustrating_stim/white_mw042.bmp,trustrating_stim/white_mw085.bmp","1,0,1","Match","e","4500","","","","",""
"html-keyboard-response","21","123991","0.0-5.0-3.3","5d3bcf190e510a001b3df200","bdp_wmem","Wed Mar 15 2023 14:07:46 GMT-0500 (Central Daylight Time)","576268","Match,No Match","","null","","","","","","<div class='trialBorder'><div class='vertical-center'><img src='img/fixation2_sml.jpg'</img></div></div>","null","DELAY","","","","","","","","","","",""
"html-keyboard-response","22","125017","0.0-5.0-4.3","5d3bcf190e510a001b3df200","bdp_wmem","Wed Mar 15 2023 14:07:46 GMT-0500 (Central Daylight Time)","576268","Match,No Match","","1024","","","","","","<div class='trialBorder'><div class='targDiv'><div class='tc'><img class='introPic' src='trustrating_stim/white_mw085.bmp'><br><font color='green'><strong>Share</strong></font></div></div><div class='respDiv'><div class='respDivL'>Match<br>(e)</div><div class='respDivR'>No Match<br>(i)</div></div></div>","i","TARGET","3","trustrating_stim/white_mw092.bmp,trustrating_stim/white_mw042.bmp,trustrating_stim/white_mw085.bmp","1,0,1","Match","e","4500","trustrating_stim/white_mw085.bmp","green","Share","PRACTICE","0"
"html-keyboard-response","23","125518","0.0-5.0-5.3","5d3bcf190e510a001b3df200","bdp_wmem","Wed Mar 15 2023 14:07:46 GMT-0500 (Central Daylight Time)","576268","Match,No Match","","null","","","","","","<div class='trialBorder'><div class='vertical-center'><img src='img/error.jpg'></div><div class='respDiv'><div class='respDivL'>Match<br>(e)</div><div class='respDivR'><font style='color:orange'>No Match<br>(i)</font></div></div></div>","null","FEEDBACK","","","","","","","","","","",""
"html-keyboard-response","24","126026","0.0-5.0-1.4","5d3bcf190e510a001b3df200","bdp_wmem","Wed Mar 15 2023 14:07:46 GMT-0500 (Central Daylight Time)","576268","Match,No Match","","null","","","","","","<div class='trialBorder'><div class='vertical-center'><img src='img/fixation2_sml.jpg'</img></div></div>","null","FIX","","","","","","","","","","",""
"html-keyboard-response","25","129032","0.0-5.0-2.4","5d3bcf190e510a001b3df200","bdp_wmem","Wed Mar 15 2023 14:07:46 GMT-0500 (Central Daylight Time)","576268","Match,No Match","","null","","","","","","<div class='trialBorder'><div class='vertical-center'><img style='vertical-align:center; align:center' src='img/fixation2_sml.jpg'></div><div class='arrayDiv2'><div class='tl'><img class='introPic' src='trustrating_stim/white_mw085.bmp'><br><font color='red'><strong>Keep</strong></font></div><div class='tr'><img class='introPic' src='trustrating_stim/white_mw042.bmp'><br><font color='green'><strong>Share</strong></font></div></div></div>","null","ARRAY","2","trustrating_stim/white_mw085.bmp,trustrating_stim/white_mw042.bmp","0,1","noMatchFace","i","3000","","","","",""
"html-keyboard-response","26","133043","0.0-5.0-3.4","5d3bcf190e510a001b3df200","bdp_wmem","Wed Mar 15 2023 14:07:46 GMT-0500 (Central Daylight Time)","576268","Match,No Match","","null","","","","","","<div class='trialBorder'><div class='vertical-center'><img src='img/fixation2_sml.jpg'</img></div></div>","null","DELAY","","","","","","","","","","",""
"html-keyboard-response","27","133856","0.0-5.0-4.4","5d3bcf190e510a001b3df200","bdp_wmem","Wed Mar 15 2023 14:07:46 GMT-0500 (Central Daylight Time)","576268","Match,No Match","","811","","","","","","<div class='trialBorder'><div class='targDiv'><div class='tc'><img class='introPic' src='trustrating_stim/white_mw010.bmp'><br><font color='green'><strong>Share</strong></font></div></div><div class='respDiv'><div class='respDivL'>Match<br>(e)</div><div class='respDivR'>No Match<br>(i)</div></div></div>","i","TARGET","2","trustrating_stim/white_mw085.bmp,trustrating_stim/white_mw042.bmp","0,1","noMatchFace","i","3000","trustrating_stim/white_mw010.bmp","green","Share","PRACTICE","1"
"html-keyboard-response","28","134363","0.0-5.0-5.4","5d3bcf190e510a001b3df200","bdp_wmem","Wed Mar 15 2023 14:07:46 GMT-0500 (Central Daylight Time)","576268","Match,No Match","","null","","","","","","<div class='trialBorder'><div class='vertical-center'><img src='img/correct.jpg'></div><div class='respDiv'><div class='respDivL'>Match<br>(e)</div><div class='respDivR'><font style='color:orange'>No Match<br>(i)</font></div></div></div>","null","FEEDBACK","","","","","","","","","","",""
"html-keyboard-response","29","134870","0.0-5.0-1.5","5d3bcf190e510a001b3df200","bdp_wmem","Wed Mar 15 2023 14:07:46 GMT-0500 (Central Daylight Time)","576268","Match,No Match","","null","","","","","","<div class='trialBorder'><div class='vertical-center'><img src='img/fixation2_sml.jpg'</img></div></div>","null","FIX","","","","","","","","","","",""
"html-keyboard-response","30","136376","0.0-5.0-2.5","5d3bcf190e510a001b3df200","bdp_wmem","Wed Mar 15 2023 14:07:46 GMT-0500 (Central Daylight Time)","576268","Match,No Match","","null","","","","","","<div class='trialBorder'><div class='vertical-center'><img style='vertical-align:center; align:center' src='img/fixation2_sml.jpg'></div><div class='arrayDiv1'><div class='tc'><img class='introPic' src='trustrating_stim/white_mw012.bmp'><br><font color='red'><strong>Keep</strong></font></div></div></div>","null","ARRAY","1","trustrating_stim/white_mw012.bmp","0","Match","e","1500","","","","",""
"html-keyboard-response","31","140385","0.0-5.0-3.5","5d3bcf190e510a001b3df200","bdp_wmem","Wed Mar 15 2023 14:07:46 GMT-0500 (Central Daylight Time)","576268","Match,No Match","","null","","","","","","<div class='trialBorder'><div class='vertical-center'><img src='img/fixation2_sml.jpg'</img></div></div>","null","DELAY","","","","","","","","","","",""
"html-keyboard-response","32","141808","0.0-5.0-4.5","5d3bcf190e510a001b3df200","bdp_wmem","Wed Mar 15 2023 14:07:46 GMT-0500 (Central Daylight Time)","576268","Match,No Match","","1421","","","","","","<div class='trialBorder'><div class='targDiv'><div class='tc'><img class='introPic' src='trustrating_stim/white_mw012.bmp'><br><font color='red'><strong>Keep</strong></font></div></div><div class='respDiv'><div class='respDivL'>Match<br>(e)</div><div class='respDivR'>No Match<br>(i)</div></div></div>","e","TARGET","1","trustrating_stim/white_mw012.bmp","0","Match","e","1500","trustrating_stim/white_mw012.bmp","red","Keep","PRACTICE","1"
"html-keyboard-response","33","142315","0.0-5.0-5.5","5d3bcf190e510a001b3df200","bdp_wmem","Wed Mar 15 2023 14:07:46 GMT-0500 (Central Daylight Time)","576268","Match,No Match","","null","","","","","","<div class='trialBorder'><div class='vertical-center'><img src='img/correct.jpg'></div><div class='respDiv'><div class='respDivL'><font style='color:orange'>Match<br>(e)</font></div><div class='respDivR'>No Match<br>(i)</div></div></div>","null","FEEDBACK","","","","","","","","","","",""
"instructions","34","144604","0.0-6.0","5d3bcf190e510a001b3df200","bdp_wmem","Wed Mar 15 2023 14:07:46 GMT-0500 (Central Daylight Time)","576268","Match,No Match","[{""page_index"":0,""viewing_time"":2289}]","2289","","","","","","","","","","","","","","","","","","",""
"html-keyboard-response","35","145109","0.0-7.0-1.0","5d3bcf190e510a001b3df200","bdp_wmem","Wed Mar 15 2023 14:07:46 GMT-0500 (Central Daylight Time)","576268","Match,No Match","","null","","","","","","<div class='trialBorder'><div class='vertical-center'><img src='img/fixation2_sml.jpg'</img></div></div>","null","FIX","","","","","","","","","","",""
"html-keyboard-response","36","149614","0.0-7.0-2.0","5d3bcf190e510a001b3df200","bdp_wmem","Wed Mar 15 2023 14:07:46 GMT-0500 (Central Daylight Time)","576268","Match,No Match","","null","","","","","","<div class='trialBorder'><div class='vertical-center'><img style='vertical-align:center; align:center' src='img/fixation2_sml.jpg'></div><div class='arrayDiv3'><div class='tl'><img class='introPic' src='trustrating_stim/white_mw003.bmp'><br><font color='green'><strong>Share</strong></font></div><div class='tc'><img class='introPic' src='trustrating_stim/white_mw070.bmp'><br><font color='green'><strong>Share</strong></font></div><div class='tr'><img class='introPic' src='trustrating_stim/white_mw010.bmp'><br><font color='red'><strong>Keep</strong></font></div></div></div>","null","ARRAY","3","trustrating_stim/white_mw003.bmp,trustrating_stim/white_mw070.bmp,trustrating_stim/white_mw010.bmp","1,1,0","noMatchOutcome","i","4500","","","","",""
"html-keyboard-response","37","153624","0.0-7.0-3.0","5d3bcf190e510a001b3df200","bdp_wmem","Wed Mar 15 2023 14:07:46 GMT-0500 (Central Daylight Time)","576268","Match,No Match","","null","","","","","","<div class='trialBorder'><div class='vertical-center'><img src='img/fixation2_sml.jpg'</img></div></div>","null","DELAY","","","","","","","","","","",""
"html-keyboard-response","38","155106","0.0-7.0-4.0","5d3bcf190e510a001b3df200","bdp_wmem","Wed Mar 15 2023 14:07:46 GMT-0500 (Central Daylight Time)","576268","Match,No Match","","1481","","","","","","<div class='trialBorder'><div class='targDiv'><div class='tc'><img class='introPic' src='trustrating_stim/white_mw003.bmp'><br><font color='red'><strong>Keep</strong></font></div></div><div class='respDiv'><div class='respDivL'>Match<br>(e)</div><div class='respDivR'>No Match<br>(i)</div></div></div>","i","TARGET","3","trustrating_stim/white_mw003.bmp,trustrating_stim/white_mw070.bmp,trustrating_stim/white_mw010.bmp","1,1,0","noMatchOutcome","i","4500","trustrating_stim/white_mw003.bmp","red","Keep","REAL","1"
"html-keyboard-response","39","155615","0.0-7.0-5.0","5d3bcf190e510a001b3df200","bdp_wmem","Wed Mar 15 2023 14:07:46 GMT-0500 (Central Daylight Time)","576268","Match,No Match","","null","","","","","","<div class='trialBorder'><div class='vertical-center'><img src='img/correct.jpg'></div><div class='respDiv'><div class='respDivL'>Match<br>(e)</div><div class='respDivR'><font style='color:orange'>No Match<br>(i)</font></div></div></div>","null","FEEDBACK","","","","","","","","","","",""
"html-keyboard-response","40","156123","0.0-7.0-1.1","5d3bcf190e510a001b3df200","bdp_wmem","Wed Mar 15 2023 14:07:46 GMT-0500 (Central Daylight Time)","576268","Match,No Match","","null","","","","","","<div class='trialBorder'><div class='vertical-center'><img src='img/fixation2_sml.jpg'</img></div></div>","null","FIX","","","","","","","","","","",""
"html-keyboard-response","41","157630","0.0-7.0-2.1","5d3bcf190e510a001b3df200","bdp_wmem","Wed Mar 15 2023 14:07:46 GMT-0500 (Central Daylight Time)","576268","Match,No Match","","null","","","","","","<div class='trialBorder'><div class='vertical-center'><img style='vertical-align:center; align:center' src='img/fixation2_sml.jpg'></div><div class='arrayDiv1'><div class='tc'><img class='introPic' src='trustrating_stim/white_mw012.bmp'><br><font color='green'><strong>Share</strong></font></div></div></div>","null","ARRAY","1","trustrating_stim/white_mw012.bmp","1","noMatchOutcome","i","1500","","","","",""
"html-keyboard-response","42","161639","0.0-7.0-3.1","5d3bcf190e510a001b3df200","bdp_wmem","Wed Mar 15 2023 14:07:46 GMT-0500 (Central Daylight Time)","576268","Match,No Match","","null","","","","","","<div class='trialBorder'><div class='vertical-center'><img src='img/fixation2_sml.jpg'</img></div></div>","null","DELAY","","","","","","","","","","",""
"html-keyboard-response","43","162314","0.0-7.0-4.1","5d3bcf190e510a001b3df200","bdp_wmem","Wed Mar 15 2023 14:07:46 GMT-0500 (Central Daylight Time)","576268","Match,No Match","","674","","","","","","<div class='trialBorder'><div class='targDiv'><div class='tc'><img class='introPic' src='trustrating_stim/white_mw012.bmp'><br><font color='red'><strong>Keep</strong></font></div></div><div class='respDiv'><div class='respDivL'>Match<br>(e)</div><div class='respDivR'>No Match<br>(i)</div></div></div>","i","TARGET","1","trustrating_stim/white_mw012.bmp","1","noMatchOutcome","i","1500","trustrating_stim/white_mw012.bmp","red","Keep","REAL","1"
"html-keyboard-response","44","162825","0.0-7.0-5.1","5d3bcf190e510a001b3df200","bdp_wmem","Wed Mar 15 2023 14:07:46 GMT-0500 (Central Daylight Time)","576268","Match,No Match","","null","","","","","","<div class='trialBorder'><div class='vertical-center'><img src='img/correct.jpg'></div><div class='respDiv'><div class='respDivL'>Match<br>(e)</div><div class='respDivR'><font style='color:orange'>No Match<br>(i)</font></div></div></div>","null","FEEDBACK","","","","","","","","","","",""
"html-keyboard-response","45","163333","0.0-7.0-1.2","5d3bcf190e510a001b3df200","bdp_wmem","Wed Mar 15 2023 14:07:46 GMT-0500 (Central Daylight Time)","576268","Match,No Match","","null","","","","","","<div class='trialBorder'><div class='vertical-center'><img src='img/fixation2_sml.jpg'</img></div></div>","null","FIX","","","","","","","","","","",""
"html-keyboard-response","46","167841","0.0-7.0-2.2","5d3bcf190e510a001b3df200","bdp_wmem","Wed Mar 15 2023 14:07:46 GMT-0500 (Central Daylight Time)","576268","Match,No Match","","null","","","","","","<div class='trialBorder'><div class='vertical-center'><img style='vertical-align:center; align:center' src='img/fixation2_sml.jpg'></div><div class='arrayDiv3'><div class='tl'><img class='introPic' src='trustrating_stim/white_mw078.bmp'><br><font color='green'><strong>Share</strong></font></div><div class='tc'><img class='introPic' src='trustrating_stim/white_mw092.bmp'><br><font color='red'><strong>Keep</strong></font></div><div class='tr'><img class='introPic' src='trustrating_stim/white_mw091.bmp'><br><font color='green'><strong>Share</strong></font></div></div></div>","null","ARRAY","3","trustrating_stim/white_mw078.bmp,trustrating_stim/white_mw092.bmp,trustrating_stim/white_mw091.bmp","1,0,1","Match","e","4500","","","","",""
"html-keyboard-response","47","171851","0.0-7.0-3.2","5d3bcf190e510a001b3df200","bdp_wmem","Wed Mar 15 2023 14:07:46 GMT-0500 (Central Daylight Time)","576268","Match,No Match","","null","","","","","","<div class='trialBorder'><div class='vertical-center'><img src='img/fixation2_sml.jpg'</img></div></div>","null","DELAY","","","","","","","","","","",""
"html-keyboard-response","48","173244","0.0-7.0-4.2","5d3bcf190e510a001b3df200","bdp_wmem","Wed Mar 15 2023 14:07:46 GMT-0500 (Central Daylight Time)","576268","Match,No Match","","1392","","","","","","<div class='trialBorder'><div class='targDiv'><div class='tc'><img class='introPic' src='trustrating_stim/white_mw078.bmp'><br><font color='green'><strong>Share</strong></font></div></div><div class='respDiv'><div class='respDivL'>Match<br>(e)</div><div class='respDivR'>No Match<br>(i)</div></div></div>","e","TARGET","3","trustrating_stim/white_mw078.bmp,trustrating_stim/white_mw092.bmp,trustrating_stim/white_mw091.bmp","1,0,1","Match","e","4500","trustrating_stim/white_mw078.bmp","green","Share","REAL","1"
"html-keyboard-response","49","173752","0.0-7.0-5.2","5d3bcf190e510a001b3df200","bdp_wmem","Wed Mar 15 2023 14:07:46 GMT-0500 (Central Daylight Time)","576268","Match,No Match","","null","","","","","","<div class='trialBorder'><div class='vertical-center'><img src='img/correct.jpg'></div><div class='respDiv'><div class='respDivL'><font style='color:orange'>Match<br>(e)</font></div><div class='respDivR'>No Match<br>(i)</div></div></div>","null","FEEDBACK","","","","","","","","","","",""
"html-keyboard-response","50","174269","0.0-7.0-1.3","5d3bcf190e510a001b3df200","bdp_wmem","Wed Mar 15 2023 14:07:46 GMT-0500 (Central Daylight Time)","576268","Match,No Match","","null","","","","","","<div class='trialBorder'><div class='vertical-center'><img src='img/fixation2_sml.jpg'</img></div></div>","null","FIX","","","","","","","","","","",""
"html-keyboard-response","51","175775","0.0-7.0-2.3","5d3bcf190e510a001b3df200","bdp_wmem","Wed Mar 15 2023 14:07:46 GMT-0500 (Central Daylight Time)","576268","Match,No Match","","null","","","","","","<div class='trialBorder'><div class='vertical-center'><img style='vertical-align:center; align:center' src='img/fixation2_sml.jpg'></div><div class='arrayDiv1'><div class='tc'><img class='introPic' src='trustrating_stim/white_mw078.bmp'><br><font color='green'><strong>Share</strong></font></div></div></div>","null","ARRAY","1","trustrating_stim/white_mw078.bmp","1","Match","e","1500","","","","",""
"html-keyboard-response","52","179781","0.0-7.0-3.3","5d3bcf190e510a001b3df200","bdp_wmem","Wed Mar 15 2023 14:07:46 GMT-0500 (Central Daylight Time)","576268","Match,No Match","","null","","","","","","<div class='trialBorder'><div class='vertical-center'><img src='img/fixation2_sml.jpg'</img></div></div>","null","DELAY","","","","","","","","","","",""
"html-keyboard-response","53","180536","0.0-7.0-4.3","5d3bcf190e510a001b3df200","bdp_wmem","Wed Mar 15 2023 14:07:46 GMT-0500 (Central Daylight Time)","576268","Match,No Match","","753","","","","","","<div class='trialBorder'><div class='targDiv'><div class='tc'><img class='introPic' src='trustrating_stim/white_mw078.bmp'><br><font color='green'><strong>Share</strong></font></div></div><div class='respDiv'><div class='respDivL'>Match<br>(e)</div><div class='respDivR'>No Match<br>(i)</div></div></div>","e","TARGET","1","trustrating_stim/white_mw078.bmp","1","Match","e","1500","trustrating_stim/white_mw078.bmp","green","Share","REAL","1"
"html-keyboard-response","54","181041","0.0-7.0-5.3","5d3bcf190e510a001b3df200","bdp_wmem","Wed Mar 15 2023 14:07:46 GMT-0500 (Central Daylight Time)","576268","Match,No Match","","null","","","","","","<div class='trialBorder'><div class='vertical-center'><img src='img/correct.jpg'></div><div class='respDiv'><div class='respDivL'><font style='color:orange'>Match<br>(e)</font></div><div class='respDivR'>No Match<br>(i)</div></div></div>","null","FEEDBACK","","","","","","","","","","",""
"html-keyboard-response","55","181548","0.0-7.0-1.4","5d3bcf190e510a001b3df200","bdp_wmem","Wed Mar 15 2023 14:07:46 GMT-0500 (Central Daylight Time)","576268","Match,No Match","","null","","","","","","<div class='trialBorder'><div class='vertical-center'><img src='img/fixation2_sml.jpg'</img></div></div>","null","FIX","","","","","","","","","","",""
"html-keyboard-response","56","183052","0.0-7.0-2.4","5d3bcf190e510a001b3df200","bdp_wmem","Wed Mar 15 2023 14:07:46 GMT-0500 (Central Daylight Time)","576268","Match,No Match","","null","","","","","","<div class='trialBorder'><div class='vertical-center'><img style='vertical-align:center; align:center' src='img/fixation2_sml.jpg'></div><div class='arrayDiv1'><div class='tc'><img class='introPic' src='trustrating_stim/white_mw012.bmp'><br><font color='red'><strong>Keep</strong></font></div></div></div>","null","ARRAY","1","trustrating_stim/white_mw012.bmp","0","noMatchFace","i","1500","","","","",""
"html-keyboard-response","57","187056","0.0-7.0-3.4","5d3bcf190e510a001b3df200","bdp_wmem","Wed Mar 15 2023 14:07:46 GMT-0500 (Central Daylight Time)","576268","Match,No Match","","null","","","","","","<div class='trialBorder'><div class='vertical-center'><img src='img/fixation2_sml.jpg'</img></div></div>","null","DELAY","","","","","","","","","","",""
"html-keyboard-response","58","187865","0.0-7.0-4.4","5d3bcf190e510a001b3df200","bdp_wmem","Wed Mar 15 2023 14:07:46 GMT-0500 (Central Daylight Time)","576268","Match,No Match","","808","","","","","","<div class='trialBorder'><div class='targDiv'><div class='tc'><img class='introPic' src='trustrating_stim/white_mw040.bmp'><br><font color='red'><strong>Keep</strong></font></div></div><div class='respDiv'><div class='respDivL'>Match<br>(e)</div><div class='respDivR'>No Match<br>(i)</div></div></div>","i","TARGET","1","trustrating_stim/white_mw012.bmp","0","noMatchFace","i","1500","trustrating_stim/white_mw040.bmp","red","Keep","REAL","1"
"html-keyboard-response","59","188373","0.0-7.0-5.4","5d3bcf190e510a001b3df200","bdp_wmem","Wed Mar 15 2023 14:07:46 GMT-0500 (Central Daylight Time)","576268","Match,No Match","","null","","","","","","<div class='trialBorder'><div class='vertical-center'><img src='img/correct.jpg'></div><div class='respDiv'><div class='respDivL'>Match<br>(e)</div><div class='respDivR'><font style='color:orange'>No Match<br>(i)</font></div></div></div>","null","FEEDBACK","","","","","","","","","","",""
"html-keyboard-response","60","188878","0.0-7.0-1.5","5d3bcf190e510a001b3df200","bdp_wmem","Wed Mar 15 2023 14:07:46 GMT-0500 (Central Daylight Time)","576268","Match,No Match","","null","","","","","","<div class='trialBorder'><div class='vertical-center'><img src='img/fixation2_sml.jpg'</img></div></div>","null","FIX","","","","","","","","","","",""
"html-keyboard-response","61","191884","0.0-7.0-2.5","5d3bcf190e510a001b3df200","bdp_wmem","Wed Mar 15 2023 14:07:46 GMT-0500 (Central Daylight Time)","576268","Match,No Match","","null","","","","","","<div class='trialBorder'><div class='vertical-center'><img style='vertical-align:center; align:center' src='img/fixation2_sml.jpg'></div><div class='arrayDiv2'><div class='tl'><img class='introPic' src='trustrating_stim/white_mw092.bmp'><br><font color='green'><strong>Share</strong></font></div><div class='tr'><img class='introPic' src='trustrating_stim/white_mw003.bmp'><br><font color='red'><strong>Keep</strong></font></div></div></div>","null","ARRAY","2","trustrating_stim/white_mw092.bmp,trustrating_stim/white_mw003.bmp","1,0","Match","e","3000","","","","",""
"html-keyboard-response","62","195888","0.0-7.0-3.5","5d3bcf190e510a001b3df200","bdp_wmem","Wed Mar 15 2023 14:07:46 GMT-0500 (Central Daylight Time)","576268","Match,No Match","","null","","","","","","<div class='trialBorder'><div class='vertical-center'><img src='img/fixation2_sml.jpg'</img></div></div>","null","DELAY","","","","","","","","","","",""
"html-keyboard-response","63","196602","0.0-7.0-4.5","5d3bcf190e510a001b3df200","bdp_wmem","Wed Mar 15 2023 14:07:46 GMT-0500 (Central Daylight Time)","576268","Match,No Match","","712","","","","","","<div class='trialBorder'><div class='targDiv'><div class='tc'><img class='introPic' src='trustrating_stim/white_mw092.bmp'><br><font color='green'><strong>Share</strong></font></div></div><div class='respDiv'><div class='respDivL'>Match<br>(e)</div><div class='respDivR'>No Match<br>(i)</div></div></div>","e","TARGET","2","trustrating_stim/white_mw092.bmp,trustrating_stim/white_mw003.bmp","1,0","Match","e","3000","trustrating_stim/white_mw092.bmp","green","Share","REAL","1"
"html-keyboard-response","64","197110","0.0-7.0-5.5","5d3bcf190e510a001b3df200","bdp_wmem","Wed Mar 15 2023 14:07:46 GMT-0500 (Central Daylight Time)","576268","Match,No Match","","null","","","","","","<div class='trialBorder'><div class='vertical-center'><img src='img/correct.jpg'></div><div class='respDiv'><div class='respDivL'><font style='color:orange'>Match<br>(e)</font></div><div class='respDivR'>No Match<br>(i)</div></div></div>","null","FEEDBACK","","","","","","","","","","",""
"html-keyboard-response","65","197617","0.0-7.0-1.6","5d3bcf190e510a001b3df200","bdp_wmem","Wed Mar 15 2023 14:07:46 GMT-0500 (Central Daylight Time)","576268","Match,No Match","","null","","","","","","<div class='trialBorder'><div class='vertical-center'><img src='img/fixation2_sml.jpg'</img></div></div>","null","FIX","","","","","","","","","","",""
"html-keyboard-response","66","200624","0.0-7.0-2.6","5d3bcf190e510a001b3df200","bdp_wmem","Wed Mar 15 2023 14:07:46 GMT-0500 (Central Daylight Time)","576268","Match,No Match","","null","","","","","","<div class='trialBorder'><div class='vertical-center'><img style='vertical-align:center; align:center' src='img/fixation2_sml.jpg'></div><div class='arrayDiv2'><div class='tl'><img class='introPic' src='trustrating_stim/white_mw091.bmp'><br><font color='red'><strong>Keep</strong></font></div><div class='tr'><img class='introPic' src='trustrating_stim/white_mw042.bmp'><br><font color='green'><strong>Share</strong></font></div></div></div>","null","ARRAY","2","trustrating_stim/white_mw091.bmp,trustrating_stim/white_mw042.bmp","0,1","noMatchFace","i","3000","","","","",""
"html-keyboard-response","67","204632","0.0-7.0-3.6","5d3bcf190e510a001b3df200","bdp_wmem","Wed Mar 15 2023 14:07:46 GMT-0500 (Central Daylight Time)","576268","Match,No Match","","null","","","","","","<div class='trialBorder'><div class='vertical-center'><img src='img/fixation2_sml.jpg'</img></div></div>","null","DELAY","","","","","","","","","","",""
"html-keyboard-response","68","205476","0.0-7.0-4.6","5d3bcf190e510a001b3df200","bdp_wmem","Wed Mar 15 2023 14:07:46 GMT-0500 (Central Daylight Time)","576268","Match,No Match","","843","","","","","","<div class='trialBorder'><div class='targDiv'><div class='tc'><img class='introPic' src='trustrating_stim/white_mw012.bmp'><br><font color='green'><strong>Share</strong></font></div></div><div class='respDiv'><div class='respDivL'>Match<br>(e)</div><div class='respDivR'>No Match<br>(i)</div></div></div>","i","TARGET","2","trustrating_stim/white_mw091.bmp,trustrating_stim/white_mw042.bmp","0,1","noMatchFace","i","3000","trustrating_stim/white_mw012.bmp","green","Share","REAL","1"
"html-keyboard-response","69","205982","0.0-7.0-5.6","5d3bcf190e510a001b3df200","bdp_wmem","Wed Mar 15 2023 14:07:46 GMT-0500 (Central Daylight Time)","576268","Match,No Match","","null","","","","","","<div class='trialBorder'><div class='vertical-center'><img src='img/correct.jpg'></div><div class='respDiv'><div class='respDivL'>Match<br>(e)</div><div class='respDivR'><font style='color:orange'>No Match<br>(i)</font></div></div></div>","null","FEEDBACK","","","","","","","","","","",""
"html-keyboard-response","70","206498","0.0-7.0-1.7","5d3bcf190e510a001b3df200","bdp_wmem","Wed Mar 15 2023 14:07:46 GMT-0500 (Central Daylight Time)","576268","Match,No Match","","null","","","","","","<div class='trialBorder'><div class='vertical-center'><img src='img/fixation2_sml.jpg'</img></div></div>","null","FIX","","","","","","","","","","",""
"html-keyboard-response","71","211005","0.0-7.0-2.7","5d3bcf190e510a001b3df200","bdp_wmem","Wed Mar 15 2023 14:07:46 GMT-0500 (Central Daylight Time)","576268","Match,No Match","","null","","","","","","<div class='trialBorder'><div class='vertical-center'><img style='vertical-align:center; align:center' src='img/fixation2_sml.jpg'></div><div class='arrayDiv3'><div class='tl'><img class='introPic' src='trustrating_stim/white_mw042.bmp'><br><font color='green'><strong>Share</strong></font></div><div class='tc'><img class='introPic' src='trustrating_stim/white_mw040.bmp'><br><font color='red'><strong>Keep</strong></font></div><div class='tr'><img class='introPic' src='trustrating_stim/white_mw013.bmp'><br><font color='green'><strong>Share</strong></font></div></div></div>","null","ARRAY","3","trustrating_stim/white_mw042.bmp,trustrating_stim/white_mw040.bmp,trustrating_stim/white_mw013.bmp","1,0,1","Match","e","4500","","","","",""
"html-keyboard-response","72","215012","0.0-7.0-3.7","5d3bcf190e510a001b3df200","bdp_wmem","Wed Mar 15 2023 14:07:46 GMT-0500 (Central Daylight Time)","576268","Match,No Match","","null","","","","","","<div class='trialBorder'><div class='vertical-center'><img src='img/fixation2_sml.jpg'</img></div></div>","null","DELAY","","","","","","","","","","",""
"html-keyboard-response","73","216381","0.0-7.0-4.7","5d3bcf190e510a001b3df200","bdp_wmem","Wed Mar 15 2023 14:07:46 GMT-0500 (Central Daylight Time)","576268","Match,No Match","","1368","","","","","","<div class='trialBorder'><div class='targDiv'><div class='tc'><img class='introPic' src='trustrating_stim/white_mw040.bmp'><br><font color='red'><strong>Keep</strong></font></div></div><div class='respDiv'><div class='respDivL'>Match<br>(e)</div><div class='respDivR'>No Match<br>(i)</div></div></div>","e","TARGET","3","trustrating_stim/white_mw042.bmp,trustrating_stim/white_mw040.bmp,trustrating_stim/white_mw013.bmp","1,0,1","Match","e","4500","trustrating_stim/white_mw040.bmp","red","Keep","REAL","1"
"html-keyboard-response","74","216888","0.0-7.0-5.7","5d3bcf190e510a001b3df200","bdp_wmem","Wed Mar 15 2023 14:07:46 GMT-0500 (Central Daylight Time)","576268","Match,No Match","","null","","","","","","<div class='trialBorder'><div class='vertical-center'><img src='img/correct.jpg'></div><div class='respDiv'><div class='respDivL'><font style='color:orange'>Match<br>(e)</font></div><div class='respDivR'>No Match<br>(i)</div></div></div>","null","FEEDBACK","","","","","","","","","","",""
"html-keyboard-response","75","217395","0.0-7.0-1.8","5d3bcf190e510a001b3df200","bdp_wmem","Wed Mar 15 2023 14:07:46 GMT-0500 (Central Daylight Time)","576268","Match,No Match","","null","","","","","","<div class='trialBorder'><div class='vertical-center'><img src='img/fixation2_sml.jpg'</img></div></div>","null","FIX","","","","","","","","","","",""
"html-keyboard-response","76","220405","0.0-7.0-2.8","5d3bcf190e510a001b3df200","bdp_wmem","Wed Mar 15 2023 14:07:46 GMT-0500 (Central Daylight Time)","576268","Match,No Match","","null","","","","","","<div class='trialBorder'><div class='vertical-center'><img style='vertical-align:center; align:center' src='img/fixation2_sml.jpg'></div><div class='arrayDiv2'><div class='tl'><img class='introPic' src='trustrating_stim/white_mw038.bmp'><br><font color='green'><strong>Share</strong></font></div><div class='tr'><img class='introPic' src='trustrating_stim/white_mw042.bmp'><br><font color='red'><strong>Keep</strong></font></div></div></div>","null","ARRAY","2","trustrating_stim/white_mw038.bmp,trustrating_stim/white_mw042.bmp","1,0","Match","e","3000","","","","",""
"html-keyboard-response","77","224414","0.0-7.0-3.8","5d3bcf190e510a001b3df200","bdp_wmem","Wed Mar 15 2023 14:07:46 GMT-0500 (Central Daylight Time)","576268","Match,No Match","","null","","","","","","<div class='trialBorder'><div class='vertical-center'><img src='img/fixation2_sml.jpg'</img></div></div>","null","DELAY","","","","","","","","","","",""
"html-keyboard-response","78","225302","0.0-7.0-4.8","5d3bcf190e510a001b3df200","bdp_wmem","Wed Mar 15 2023 14:07:46 GMT-0500 (Central Daylight Time)","576268","Match,No Match","","886","","","","","","<div class='trialBorder'><div class='targDiv'><div class='tc'><img class='introPic' src='trustrating_stim/white_mw042.bmp'><br><font color='red'><strong>Keep</strong></font></div></div><div class='respDiv'><div class='respDivL'>Match<br>(e)</div><div class='respDivR'>No Match<br>(i)</div></div></div>","e","TARGET","2","trustrating_stim/white_mw038.bmp,trustrating_stim/white_mw042.bmp","1,0","Match","e","3000","trustrating_stim/white_mw042.bmp","red","Keep","REAL","1"
"html-keyboard-response","79","225810","0.0-7.0-5.8","5d3bcf190e510a001b3df200","bdp_wmem","Wed Mar 15 2023 14:07:46 GMT-0500 (Central Daylight Time)","576268","Match,No Match","","null","","","","","","<div class='trialBorder'><div class='vertical-center'><img src='img/correct.jpg'></div><div class='respDiv'><div class='respDivL'><font style='color:orange'>Match<br>(e)</font></div><div class='respDivR'>No Match<br>(i)</div></div></div>","null","FEEDBACK","","","","","","","","","","",""
"html-keyboard-response","80","226317","0.0-7.0-1.9","5d3bcf190e510a001b3df200","bdp_wmem","Wed Mar 15 2023 14:07:46 GMT-0500 (Central Daylight Time)","576268","Match,No Match","","null","","","","","","<div class='trialBorder'><div class='vertical-center'><img src='img/fixation2_sml.jpg'</img></div></div>","null","FIX","","","","","","","","","","",""
"html-keyboard-response","81","230824","0.0-7.0-2.9","5d3bcf190e510a001b3df200","bdp_wmem","Wed Mar 15 2023 14:07:46 GMT-0500 (Central Daylight Time)","576268","Match,No Match","","null","","","","","","<div class='trialBorder'><div class='vertical-center'><img style='vertical-align:center; align:center' src='img/fixation2_sml.jpg'></div><div class='arrayDiv3'><div class='tl'><img class='introPic' src='trustrating_stim/white_mw091.bmp'><br><font color='green'><strong>Share</strong></font></div><div class='tc'><img class='introPic' src='trustrating_stim/white_mw078.bmp'><br><font color='red'><strong>Keep</strong></font></div><div class='tr'><img class='introPic' src='trustrating_stim/white_mw003.bmp'><br><font color='red'><strong>Keep</strong></font></div></div></div>","null","ARRAY","3","trustrating_stim/white_mw091.bmp,trustrating_stim/white_mw078.bmp,trustrating_stim/white_mw003.bmp","1,0,0","Match","e","4500","","","","",""
"html-keyboard-response","82","234834","0.0-7.0-3.9","5d3bcf190e510a001b3df200","bdp_wmem","Wed Mar 15 2023 14:07:46 GMT-0500 (Central Daylight Time)","576268","Match,No Match","","null","","","","","","<div class='trialBorder'><div class='vertical-center'><img src='img/fixation2_sml.jpg'</img></div></div>","null","DELAY","","","","","","","","","","",""
"html-keyboard-response","83","235601","0.0-7.0-4.9","5d3bcf190e510a001b3df200","bdp_wmem","Wed Mar 15 2023 14:07:46 GMT-0500 (Central Daylight Time)","576268","Match,No Match","","765","","","","","","<div class='trialBorder'><div class='targDiv'><div class='tc'><img class='introPic' src='trustrating_stim/white_mw078.bmp'><br><font color='red'><strong>Keep</strong></font></div></div><div class='respDiv'><div class='respDivL'>Match<br>(e)</div><div class='respDivR'>No Match<br>(i)</div></div></div>","e","TARGET","3","trustrating_stim/white_mw091.bmp,trustrating_stim/white_mw078.bmp,trustrating_stim/white_mw003.bmp","1,0,0","Match","e","4500","trustrating_stim/white_mw078.bmp","red","Keep","REAL","1"
"html-keyboard-response","84","236114","0.0-7.0-5.9","5d3bcf190e510a001b3df200","bdp_wmem","Wed Mar 15 2023 14:07:46 GMT-0500 (Central Daylight Time)","576268","Match,No Match","","null","","","","","","<div class='trialBorder'><div class='vertical-center'><img src='img/correct.jpg'></div><div class='respDiv'><div class='respDivL'><font style='color:orange'>Match<br>(e)</font></div><div class='respDivR'>No Match<br>(i)</div></div></div>","null","FEEDBACK","","","","","","","","","","",""
"html-keyboard-response","85","236622","0.0-7.0-1.10","5d3bcf190e510a001b3df200","bdp_wmem","Wed Mar 15 2023 14:07:46 GMT-0500 (Central Daylight Time)","576268","Match,No Match","","null","","","","","","<div class='trialBorder'><div class='vertical-center'><img src='img/fixation2_sml.jpg'</img></div></div>","null","FIX","","","","","","","","","","",""
"html-keyboard-response","86","239626","0.0-7.0-2.10","5d3bcf190e510a001b3df200","bdp_wmem","Wed Mar 15 2023 14:07:46 GMT-0500 (Central Daylight Time)","576268","Match,No Match","","null","","","","","","<div class='trialBorder'><div class='vertical-center'><img style='vertical-align:center; align:center' src='img/fixation2_sml.jpg'></div><div class='arrayDiv2'><div class='tl'><img class='introPic' src='trustrating_stim/white_mw042.bmp'><br><font color='green'><strong>Share</strong></font></div><div class='tr'><img class='introPic' src='trustrating_stim/white_mw013.bmp'><br><font color='red'><strong>Keep</strong></font></div></div></div>","null","ARRAY","2","trustrating_stim/white_mw042.bmp,trustrating_stim/white_mw013.bmp","1,0","noMatchOutcome","i","3000","","","","",""
"html-keyboard-response","87","243629","0.0-7.0-3.10","5d3bcf190e510a001b3df200","bdp_wmem","Wed Mar 15 2023 14:07:46 GMT-0500 (Central Daylight Time)","576268","Match,No Match","","null","","","","","","<div class='trialBorder'><div class='vertical-center'><img src='img/fixation2_sml.jpg'</img></div></div>","null","DELAY","","","","","","","","","","",""
"html-keyboard-response","88","244777","0.0-7.0-4.10","5d3bcf190e510a001b3df200","bdp_wmem","Wed Mar 15 2023 14:07:46 GMT-0500 (Central Daylight Time)","576268","Match,No Match","","1145","","","","","","<div class='trialBorder'><div class='targDiv'><div class='tc'><img class='introPic' src='trustrating_stim/white_mw013.bmp'><br><font color='green'><strong>Share</strong></font></div></div><div class='respDiv'><div class='respDivL'>Match<br>(e)</div><div class='respDivR'>No Match<br>(i)</div></div></div>","i","TARGET","2","trustrating_stim/white_mw042.bmp,trustrating_stim/white_mw013.bmp","1,0","noMatchOutcome","i","3000","trustrating_stim/white_mw013.bmp","green","Share","REAL","1"
"html-keyboard-response","89","245284","0.0-7.0-5.10","5d3bcf190e510a001b3df200","bdp_wmem","Wed Mar 15 2023 14:07:46 GMT-0500 (Central Daylight Time)","576268","Match,No Match","","null","","","","","","<div class='trialBorder'><div class='vertical-center'><img src='img/correct.jpg'></div><div class='respDiv'><div class='respDivL'>Match<br>(e)</div><div class='respDivR'><font style='color:orange'>No Match<br>(i)</font></div></div></div>","null","FEEDBACK","","","","","","","","","","",""
"html-keyboard-response","90","245791","0.0-7.0-1.11","5d3bcf190e510a001b3df200","bdp_wmem","Wed Mar 15 2023 14:07:46 GMT-0500 (Central Daylight Time)","576268","Match,No Match","","null","","","","","","<div class='trialBorder'><div class='vertical-center'><img src='img/fixation2_sml.jpg'</img></div></div>","null","FIX","","","","","","","","","","",""
"html-keyboard-response","91","248794","0.0-7.0-2.11","5d3bcf190e510a001b3df200","bdp_wmem","Wed Mar 15 2023 14:07:46 GMT-0500 (Central Daylight Time)","576268","Match,No Match","","null","","","","","","<div class='trialBorder'><div class='vertical-center'><img style='vertical-align:center; align:center' src='img/fixation2_sml.jpg'></div><div class='arrayDiv2'><div class='tl'><img class='introPic' src='trustrating_stim/white_mw012.bmp'><br><font color='red'><strong>Keep</strong></font></div><div class='tr'><img class='introPic' src='trustrating_stim/white_mw040.bmp'><br><font color='green'><strong>Share</strong></font></div></div></div>","null","ARRAY","2","trustrating_stim/white_mw012.bmp,trustrating_stim/white_mw040.bmp","0,1","noMatchFace","i","3000","","","","",""
"html-keyboard-response","92","252800","0.0-7.0-3.11","5d3bcf190e510a001b3df200","bdp_wmem","Wed Mar 15 2023 14:07:46 GMT-0500 (Central Daylight Time)","576268","Match,No Match","","null","","","","","","<div class='trialBorder'><div class='vertical-center'><img src='img/fixation2_sml.jpg'</img></div></div>","null","DELAY","","","","","","","","","","",""
"html-keyboard-response","93","253612","0.0-7.0-4.11","5d3bcf190e510a001b3df200","bdp_wmem","Wed Mar 15 2023 14:07:46 GMT-0500 (Central Daylight Time)","576268","Match,No Match","","810","","","","","","<div class='trialBorder'><div class='targDiv'><div class='tc'><img class='introPic' src='trustrating_stim/white_mw003.bmp'><br><font color='green'><strong>Share</strong></font></div></div><div class='respDiv'><div class='respDivL'>Match<br>(e)</div><div class='respDivR'>No Match<br>(i)</div></div></div>","i","TARGET","2","trustrating_stim/white_mw012.bmp,trustrating_stim/white_mw040.bmp","0,1","noMatchFace","i","3000","trustrating_stim/white_mw003.bmp","green","Share","REAL","1"
"html-keyboard-response","94","254117","0.0-7.0-5.11","5d3bcf190e510a001b3df200","bdp_wmem","Wed Mar 15 2023 14:07:46 GMT-0500 (Central Daylight Time)","576268","Match,No Match","","null","","","","","","<div class='trialBorder'><div class='vertical-center'><img src='img/correct.jpg'></div><div class='respDiv'><div class='respDivL'>Match<br>(e)</div><div class='respDivR'><font style='color:orange'>No Match<br>(i)</font></div></div></div>","null","FEEDBACK","","","","","","","","","","",""
"html-keyboard-response","95","254624","0.0-7.0-1.12","5d3bcf190e510a001b3df200","bdp_wmem","Wed Mar 15 2023 14:07:46 GMT-0500 (Central Daylight Time)","576268","Match,No Match","","null","","","","","","<div class='trialBorder'><div class='vertical-center'><img src='img/fixation2_sml.jpg'</img></div></div>","null","FIX","","","","","","","","","","",""
"html-keyboard-response","96","256131","0.0-7.0-2.12","5d3bcf190e510a001b3df200","bdp_wmem","Wed Mar 15 2023 14:07:46 GMT-0500 (Central Daylight Time)","576268","Match,No Match","","null","","","","","","<div class='trialBorder'><div class='vertical-center'><img style='vertical-align:center; align:center' src='img/fixation2_sml.jpg'></div><div class='arrayDiv1'><div class='tc'><img class='introPic' src='trustrating_stim/white_mw010.bmp'><br><font color='green'><strong>Share</strong></font></div></div></div>","null","ARRAY","1","trustrating_stim/white_mw010.bmp","1","noMatchFace","i","1500","","","","",""
"html-keyboard-response","97","260134","0.0-7.0-3.12","5d3bcf190e510a001b3df200","bdp_wmem","Wed Mar 15 2023 14:07:46 GMT-0500 (Central Daylight Time)","576268","Match,No Match","","null","","","","","","<div class='trialBorder'><div class='vertical-center'><img src='img/fixation2_sml.jpg'</img></div></div>","null","DELAY","","","","","","","","","","",""
"html-keyboard-response","98","260872","0.0-7.0-4.12","5d3bcf190e510a001b3df200","bdp_wmem","Wed Mar 15 2023 14:07:46 GMT-0500 (Central Daylight Time)","576268","Match,No Match","","737","","","","","","<div class='trialBorder'><div class='targDiv'><div class='tc'><img class='introPic' src='trustrating_stim/white_mw091.bmp'><br><font color='green'><strong>Share</strong></font></div></div><div class='respDiv'><div class='respDivL'>Match<br>(e)</div><div class='respDivR'>No Match<br>(i)</div></div></div>","i","TARGET","1","trustrating_stim/white_mw010.bmp","1","noMatchFace","i","1500","trustrating_stim/white_mw091.bmp","green","Share","REAL","1"
"html-keyboard-response","99","261380","0.0-7.0-5.12","5d3bcf190e510a001b3df200","bdp_wmem","Wed Mar 15 2023 14:07:46 GMT-0500 (Central Daylight Time)","576268","Match,No Match","","null","","","","","","<div class='trialBorder'><div class='vertical-center'><img src='img/correct.jpg'></div><div class='respDiv'><div class='respDivL'>Match<br>(e)</div><div class='respDivR'><font style='color:orange'>No Match<br>(i)</font></div></div></div>","null","FEEDBACK","","","","","","","","","","",""
"html-keyboard-response","100","261888","0.0-7.0-1.13","5d3bcf190e510a001b3df200","bdp_wmem","Wed Mar 15 2023 14:07:46 GMT-0500 (Central Daylight Time)","576268","Match,No Match","","null","","","","","","<div class='trialBorder'><div class='vertical-center'><img src='img/fixation2_sml.jpg'</img></div></div>","null","FIX","","","","","","","","","","",""
"html-keyboard-response","101","263396","0.0-7.0-2.13","5d3bcf190e510a001b3df200","bdp_wmem","Wed Mar 15 2023 14:07:46 GMT-0500 (Central Daylight Time)","576268","Match,No Match","","null","","","","","","<div class='trialBorder'><div class='vertical-center'><img style='vertical-align:center; align:center' src='img/fixation2_sml.jpg'></div><div class='arrayDiv1'><div class='tc'><img class='introPic' src='trustrating_stim/white_mw010.bmp'><br><font color='red'><strong>Keep</strong></font></div></div></div>","null","ARRAY","1","trustrating_stim/white_mw010.bmp","0","Match","e","1500","","","","",""
"html-keyboard-response","102","267397","0.0-7.0-3.13","5d3bcf190e510a001b3df200","bdp_wmem","Wed Mar 15 2023 14:07:46 GMT-0500 (Central Daylight Time)","576268","Match,No Match","","null","","","","","","<div class='trialBorder'><div class='vertical-center'><img src='img/fixation2_sml.jpg'</img></div></div>","null","DELAY","","","","","","","","","","",""
"html-keyboard-response","103","268169","0.0-7.0-4.13","5d3bcf190e510a001b3df200","bdp_wmem","Wed Mar 15 2023 14:07:46 GMT-0500 (Central Daylight Time)","576268","Match,No Match","","770","","","","","","<div class='trialBorder'><div class='targDiv'><div class='tc'><img class='introPic' src='trustrating_stim/white_mw010.bmp'><br><font color='red'><strong>Keep</strong></font></div></div><div class='respDiv'><div class='respDivL'>Match<br>(e)</div><div class='respDivR'>No Match<br>(i)</div></div></div>","e","TARGET","1","trustrating_stim/white_mw010.bmp","0","Match","e","1500","trustrating_stim/white_mw010.bmp","red","Keep","REAL","1"
"html-keyboard-response","104","268675","0.0-7.0-5.13","5d3bcf190e510a001b3df200","bdp_wmem","Wed Mar 15 2023 14:07:46 GMT-0500 (Central Daylight Time)","576268","Match,No Match","","null","","","","","","<div class='trialBorder'><div class='vertical-center'><img src='img/correct.jpg'></div><div class='respDiv'><div class='respDivL'><font style='color:orange'>Match<br>(e)</font></div><div class='respDivR'>No Match<br>(i)</div></div></div>","null","FEEDBACK","","","","","","","","","","",""
"html-keyboard-response","105","269182","0.0-7.0-1.14","5d3bcf190e510a001b3df200","bdp_wmem","Wed Mar 15 2023 14:07:46 GMT-0500 (Central Daylight Time)","576268","Match,No Match","","null","","","","","","<div class='trialBorder'><div class='vertical-center'><img src='img/fixation2_sml.jpg'</img></div></div>","null","FIX","","","","","","","","","","",""
"html-keyboard-response","106","270686","0.0-7.0-2.14","5d3bcf190e510a001b3df200","bdp_wmem","Wed Mar 15 2023 14:07:46 GMT-0500 (Central Daylight Time)","576268","Match,No Match","","null","","","","","","<div class='trialBorder'><div class='vertical-center'><img style='vertical-align:center; align:center' src='img/fixation2_sml.jpg'></div><div class='arrayDiv1'><div class='tc'><img class='introPic' src='trustrating_stim/white_mw078.bmp'><br><font color='green'><strong>Share</strong></font></div></div></div>","null","ARRAY","1","trustrating_stim/white_mw078.bmp","1","Match","e","1500","","","","",""
"html-keyboard-response","107","274693","0.0-7.0-3.14","5d3bcf190e510a001b3df200","bdp_wmem","Wed Mar 15 2023 14:07:46 GMT-0500 (Central Daylight Time)","576268","Match,No Match","","null","","","","","","<div class='trialBorder'><div class='vertical-center'><img src='img/fixation2_sml.jpg'</img></div></div>","null","DELAY","","","","","","","","","","",""
"html-keyboard-response","108","275308","0.0-7.0-4.14","5d3bcf190e510a001b3df200","bdp_wmem","Wed Mar 15 2023 14:07:46 GMT-0500 (Central Daylight Time)","576268","Match,No Match","","613","","","","","","<div class='trialBorder'><div class='targDiv'><div class='tc'><img class='introPic' src='trustrating_stim/white_mw078.bmp'><br><font color='green'><strong>Share</strong></font></div></div><div class='respDiv'><div class='respDivL'>Match<br>(e)</div><div class='respDivR'>No Match<br>(i)</div></div></div>","e","TARGET","1","trustrating_stim/white_mw078.bmp","1","Match","e","1500","trustrating_stim/white_mw078.bmp","green","Share","REAL","1"
"html-keyboard-response","109","275813","0.0-7.0-5.14","5d3bcf190e510a001b3df200","bdp_wmem","Wed Mar 15 2023 14:07:46 GMT-0500 (Central Daylight Time)","576268","Match,No Match","","null","","","","","","<div class='trialBorder'><div class='vertical-center'><img src='img/correct.jpg'></div><div class='respDiv'><div class='respDivL'><font style='color:orange'>Match<br>(e)</font></div><div class='respDivR'>No Match<br>(i)</div></div></div>","null","FEEDBACK","","","","","","","","","","",""
"html-keyboard-response","110","276320","0.0-7.0-1.15","5d3bcf190e510a001b3df200","bdp_wmem","Wed Mar 15 2023 14:07:46 GMT-0500 (Central Daylight Time)","576268","Match,No Match","","null","","","","","","<div class='trialBorder'><div class='vertical-center'><img src='img/fixation2_sml.jpg'</img></div></div>","null","FIX","","","","","","","","","","",""
"html-keyboard-response","111","280830","0.0-7.0-2.15","5d3bcf190e510a001b3df200","bdp_wmem","Wed Mar 15 2023 14:07:46 GMT-0500 (Central Daylight Time)","576268","Match,No Match","","null","","","","","","<div class='trialBorder'><div class='vertical-center'><img style='vertical-align:center; align:center' src='img/fixation2_sml.jpg'></div><div class='arrayDiv3'><div class='tl'><img class='introPic' src='trustrating_stim/white_mw085.bmp'><br><font color='green'><strong>Share</strong></font></div><div class='tc'><img class='introPic' src='trustrating_stim/white_mw013.bmp'><br><font color='green'><strong>Share</strong></font></div><div class='tr'><img class='introPic' src='trustrating_stim/white_mw012.bmp'><br><font color='red'><strong>Keep</strong></font></div></div></div>","null","ARRAY","3","trustrating_stim/white_mw085.bmp,trustrating_stim/white_mw013.bmp,trustrating_stim/white_mw012.bmp","1,1,0","noMatchOutcome","i","4500","","","","",""
"html-keyboard-response","112","284832","0.0-7.0-3.15","5d3bcf190e510a001b3df200","bdp_wmem","Wed Mar 15 2023 14:07:46 GMT-0500 (Central Daylight Time)","576268","Match,No Match","","null","","","","","","<div class='trialBorder'><div class='vertical-center'><img src='img/fixation2_sml.jpg'</img></div></div>","null","DELAY","","","","","","","","","","",""
"html-keyboard-response","113","285937","0.0-7.0-4.15","5d3bcf190e510a001b3df200","bdp_wmem","Wed Mar 15 2023 14:07:46 GMT-0500 (Central Daylight Time)","576268","Match,No Match","","1103","","","","","","<div class='trialBorder'><div class='targDiv'><div class='tc'><img class='introPic' src='trustrating_stim/white_mw013.bmp'><br><font color='red'><strong>Keep</strong></font></div></div><div class='respDiv'><div class='respDivL'>Match<br>(e)</div><div class='respDivR'>No Match<br>(i)</div></div></div>","e","TARGET","3","trustrating_stim/white_mw085.bmp,trustrating_stim/white_mw013.bmp,trustrating_stim/white_mw012.bmp","1,1,0","noMatchOutcome","i","4500","trustrating_stim/white_mw013.bmp","red","Keep","REAL","0"
"html-keyboard-response","114","286441","0.0-7.0-5.15","5d3bcf190e510a001b3df200","bdp_wmem","Wed Mar 15 2023 14:07:46 GMT-0500 (Central Daylight Time)","576268","Match,No Match","","null","","","","","","<div class='trialBorder'><div class='vertical-center'><img src='img/error.jpg'></div><div class='respDiv'><div class='respDivL'><font style='color:orange'>Match<br>(e)</font></div><div class='respDivR'>No Match<br>(i)</div></div></div>","null","FEEDBACK","","","","","","","","","","",""
"html-keyboard-response","115","286943","0.0-7.0-1.16","5d3bcf190e510a001b3df200","bdp_wmem","Wed Mar 15 2023 14:07:46 GMT-0500 (Central Daylight Time)","576268","Match,No Match","","null","","","","","","<div class='trialBorder'><div class='vertical-center'><img src='img/fixation2_sml.jpg'</img></div></div>","null","FIX","","","","","","","","","","",""
"html-keyboard-response","116","289951","0.0-7.0-2.16","5d3bcf190e510a001b3df200","bdp_wmem","Wed Mar 15 2023 14:07:46 GMT-0500 (Central Daylight Time)","576268","Match,No Match","","null","","","","","","<div class='trialBorder'><div class='vertical-center'><img style='vertical-align:center; align:center' src='img/fixation2_sml.jpg'></div><div class='arrayDiv2'><div class='tl'><img class='introPic' src='trustrating_stim/white_mw010.bmp'><br><font color='green'><strong>Share</strong></font></div><div class='tr'><img class='introPic' src='trustrating_stim/white_mw042.bmp'><br><font color='red'><strong>Keep</strong></font></div></div></div>","null","ARRAY","2","trustrating_stim/white_mw010.bmp,trustrating_stim/white_mw042.bmp","1,0","noMatchFace","i","3000","","","","",""
"html-keyboard-response","117","293957","0.0-7.0-3.16","5d3bcf190e510a001b3df200","bdp_wmem","Wed Mar 15 2023 14:07:46 GMT-0500 (Central Daylight Time)","576268","Match,No Match","","null","","","","","","<div class='trialBorder'><div class='vertical-center'><img src='img/fixation2_sml.jpg'</img></div></div>","null","DELAY","","","","","","","","","","",""
"html-keyboard-response","118","294770","0.0-7.0-4.16","5d3bcf190e510a001b3df200","bdp_wmem","Wed Mar 15 2023 14:07:46 GMT-0500 (Central Daylight Time)","576268","Match,No Match","","810","","","","","","<div class='trialBorder'><div class='targDiv'><div class='tc'><img class='introPic' src='trustrating_stim/white_mw070.bmp'><br><font color='green'><strong>Share</strong></font></div></div><div class='respDiv'><div class='respDivL'>Match<br>(e)</div><div class='respDivR'>No Match<br>(i)</div></div></div>","i","TARGET","2","trustrating_stim/white_mw010.bmp,trustrating_stim/white_mw042.bmp","1,0","noMatchFace","i","3000","trustrating_stim/white_mw070.bmp","green","Share","REAL","1"
"html-keyboard-response","119","295273","0.0-7.0-5.16","5d3bcf190e510a001b3df200","bdp_wmem","Wed Mar 15 2023 14:07:46 GMT-0500 (Central Daylight Time)","576268","Match,No Match","","null","","","","","","<div class='trialBorder'><div class='vertical-center'><img src='img/correct.jpg'></div><div class='respDiv'><div class='respDivL'>Match<br>(e)</div><div class='respDivR'><font style='color:orange'>No Match<br>(i)</font></div></div></div>","null","FEEDBACK","","","","","","","","","","",""
"html-keyboard-response","120","295780","0.0-7.0-1.17","5d3bcf190e510a001b3df200","bdp_wmem","Wed Mar 15 2023 14:07:46 GMT-0500 (Central Daylight Time)","576268","Match,No Match","","null","","","","","","<div class='trialBorder'><div class='vertical-center'><img src='img/fixation2_sml.jpg'</img></div></div>","null","FIX","","","","","","","","","","",""
"html-keyboard-response","121","297283","0.0-7.0-2.17","5d3bcf190e510a001b3df200","bdp_wmem","Wed Mar 15 2023 14:07:46 GMT-0500 (Central Daylight Time)","576268","Match,No Match","","null","","","","","","<div class='trialBorder'><div class='vertical-center'><img style='vertical-align:center; align:center' src='img/fixation2_sml.jpg'></div><div class='arrayDiv1'><div class='tc'><img class='introPic' src='trustrating_stim/white_mw070.bmp'><br><font color='green'><strong>Share</strong></font></div></div></div>","null","ARRAY","1","trustrating_stim/white_mw070.bmp","1","Match","e","1500","","","","",""
"html-keyboard-response","122","301287","0.0-7.0-3.17","5d3bcf190e510a001b3df200","bdp_wmem","Wed Mar 15 2023 14:07:46 GMT-0500 (Central Daylight Time)","576268","Match,No Match","","null","","","","","","<div class='trialBorder'><div class='vertical-center'><img src='img/fixation2_sml.jpg'</img></div></div>","null","DELAY","","","","","","","","","","",""
"html-keyboard-response","123","301861","0.0-7.0-4.17","5d3bcf190e510a001b3df200","bdp_wmem","Wed Mar 15 2023 14:07:46 GMT-0500 (Central Daylight Time)","576268","Match,No Match","","572","","","","","","<div class='trialBorder'><div class='targDiv'><div class='tc'><img class='introPic' src='trustrating_stim/white_mw070.bmp'><br><font color='green'><strong>Share</strong></font></div></div><div class='respDiv'><div class='respDivL'>Match<br>(e)</div><div class='respDivR'>No Match<br>(i)</div></div></div>","e","TARGET","1","trustrating_stim/white_mw070.bmp","1","Match","e","1500","trustrating_stim/white_mw070.bmp","green","Share","REAL","1"
"html-keyboard-response","124","302365","0.0-7.0-5.17","5d3bcf190e510a001b3df200","bdp_wmem","Wed Mar 15 2023 14:07:46 GMT-0500 (Central Daylight Time)","576268","Match,No Match","","null","","","","","","<div class='trialBorder'><div class='vertical-center'><img src='img/correct.jpg'></div><div class='respDiv'><div class='respDivL'><font style='color:orange'>Match<br>(e)</font></div><div class='respDivR'>No Match<br>(i)</div></div></div>","null","FEEDBACK","","","","","","","","","","",""
"html-keyboard-response","125","302873","0.0-7.0-1.18","5d3bcf190e510a001b3df200","bdp_wmem","Wed Mar 15 2023 14:07:46 GMT-0500 (Central Daylight Time)","576268","Match,No Match","","null","","","","","","<div class='trialBorder'><div class='vertical-center'><img src='img/fixation2_sml.jpg'</img></div></div>","null","FIX","","","","","","","","","","",""
"html-keyboard-response","126","307383","0.0-7.0-2.18","5d3bcf190e510a001b3df200","bdp_wmem","Wed Mar 15 2023 14:07:46 GMT-0500 (Central Daylight Time)","576268","Match,No Match","","null","","","","","","<div class='trialBorder'><div class='vertical-center'><img style='vertical-align:center; align:center' src='img/fixation2_sml.jpg'></div><div class='arrayDiv3'><div class='tl'><img class='introPic' src='trustrating_stim/white_mw070.bmp'><br><font color='red'><strong>Keep</strong></font></div><div class='tc'><img class='introPic' src='trustrating_stim/white_mw091.bmp'><br><font color='red'><strong>Keep</strong></font></div><div class='tr'><img class='introPic' src='trustrating_stim/white_mw078.bmp'><br><font color='green'><strong>Share</strong></font></div></div></div>","null","ARRAY","3","trustrating_stim/white_mw070.bmp,trustrating_stim/white_mw091.bmp,trustrating_stim/white_mw078.bmp","0,0,1","Match","e","4500","","","","",""
"html-keyboard-response","127","311393","0.0-7.0-3.18","5d3bcf190e510a001b3df200","bdp_wmem","Wed Mar 15 2023 14:07:46 GMT-0500 (Central Daylight Time)","576268","Match,No Match","","null","","","","","","<div class='trialBorder'><div class='vertical-center'><img src='img/fixation2_sml.jpg'</img></div></div>","null","DELAY","","","","","","","","","","",""
"html-keyboard-response","128","311959","0.0-7.0-4.18","5d3bcf190e510a001b3df200","bdp_wmem","Wed Mar 15 2023 14:07:46 GMT-0500 (Central Daylight Time)","576268","Match,No Match","","564","","","","","","<div class='trialBorder'><div class='targDiv'><div class='tc'><img class='introPic' src='trustrating_stim/white_mw070.bmp'><br><font color='red'><strong>Keep</strong></font></div></div><div class='respDiv'><div class='respDivL'>Match<br>(e)</div><div class='respDivR'>No Match<br>(i)</div></div></div>","e","TARGET","3","trustrating_stim/white_mw070.bmp,trustrating_stim/white_mw091.bmp,trustrating_stim/white_mw078.bmp","0,0,1","Match","e","4500","trustrating_stim/white_mw070.bmp","red","Keep","REAL","1"
"html-keyboard-response","129","312467","0.0-7.0-5.18","5d3bcf190e510a001b3df200","bdp_wmem","Wed Mar 15 2023 14:07:46 GMT-0500 (Central Daylight Time)","576268","Match,No Match","","null","","","","","","<div class='trialBorder'><div class='vertical-center'><img src='img/correct.jpg'></div><div class='respDiv'><div class='respDivL'><font style='color:orange'>Match<br>(e)</font></div><div class='respDivR'>No Match<br>(i)</div></div></div>","null","FEEDBACK","","","","","","","","","","",""
"html-keyboard-response","130","312974","0.0-7.0-1.19","5d3bcf190e510a001b3df200","bdp_wmem","Wed Mar 15 2023 14:07:46 GMT-0500 (Central Daylight Time)","576268","Match,No Match","","null","","","","","","<div class='trialBorder'><div class='vertical-center'><img src='img/fixation2_sml.jpg'</img></div></div>","null","FIX","","","","","","","","","","",""
"html-keyboard-response","131","314482","0.0-7.0-2.19","5d3bcf190e510a001b3df200","bdp_wmem","Wed Mar 15 2023 14:07:46 GMT-0500 (Central Daylight Time)","576268","Match,No Match","","null","","","","","","<div class='trialBorder'><div class='vertical-center'><img style='vertical-align:center; align:center' src='img/fixation2_sml.jpg'></div><div class='arrayDiv1'><div class='tc'><img class='introPic' src='trustrating_stim/white_mw038.bmp'><br><font color='red'><strong>Keep</strong></font></div></div></div>","null","ARRAY","1","trustrating_stim/white_mw038.bmp","0","Match","e","1500","","","","",""
"html-keyboard-response","132","318485","0.0-7.0-3.19","5d3bcf190e510a001b3df200","bdp_wmem","Wed Mar 15 2023 14:07:46 GMT-0500 (Central Daylight Time)","576268","Match,No Match","","null","","","","","","<div class='trialBorder'><div class='vertical-center'><img src='img/fixation2_sml.jpg'</img></div></div>","null","DELAY","","","","","","","","","","",""
"html-keyboard-response","133","318940","0.0-7.0-4.19","5d3bcf190e510a001b3df200","bdp_wmem","Wed Mar 15 2023 14:07:46 GMT-0500 (Central Daylight Time)","576268","Match,No Match","","451","","","","","","<div class='trialBorder'><div class='targDiv'><div class='tc'><img class='introPic' src='trustrating_stim/white_mw038.bmp'><br><font color='red'><strong>Keep</strong></font></div></div><div class='respDiv'><div class='respDivL'>Match<br>(e)</div><div class='respDivR'>No Match<br>(i)</div></div></div>","e","TARGET","1","trustrating_stim/white_mw038.bmp","0","Match","e","1500","trustrating_stim/white_mw038.bmp","red","Keep","REAL","1"
"html-keyboard-response","134","319443","0.0-7.0-5.19","5d3bcf190e510a001b3df200","bdp_wmem","Wed Mar 15 2023 14:07:46 GMT-0500 (Central Daylight Time)","576268","Match,No Match","","null","","","","","","<div class='trialBorder'><div class='vertical-center'><img src='img/correct.jpg'></div><div class='respDiv'><div class='respDivL'><font style='color:orange'>Match<br>(e)</font></div><div class='respDivR'>No Match<br>(i)</div></div></div>","null","FEEDBACK","","","","","","","","","","",""
"html-keyboard-response","135","319951","0.0-7.0-1.20","5d3bcf190e510a001b3df200","bdp_wmem","Wed Mar 15 2023 14:07:46 GMT-0500 (Central Daylight Time)","576268","Match,No Match","","null","","","","","","<div class='trialBorder'><div class='vertical-center'><img src='img/fixation2_sml.jpg'</img></div></div>","null","FIX","","","","","","","","","","",""
"html-keyboard-response","136","322957","0.0-7.0-2.20","5d3bcf190e510a001b3df200","bdp_wmem","Wed Mar 15 2023 14:07:46 GMT-0500 (Central Daylight Time)","576268","Match,No Match","","null","","","","","","<div class='trialBorder'><div class='vertical-center'><img style='vertical-align:center; align:center' src='img/fixation2_sml.jpg'></div><div class='arrayDiv2'><div class='tl'><img class='introPic' src='trustrating_stim/white_mw092.bmp'><br><font color='red'><strong>Keep</strong></font></div><div class='tr'><img class='introPic' src='trustrating_stim/white_mw013.bmp'><br><font color='green'><strong>Share</strong></font></div></div></div>","null","ARRAY","2","trustrating_stim/white_mw092.bmp,trustrating_stim/white_mw013.bmp","0,1","Match","e","3000","","","","",""
"html-keyboard-response","137","326962","0.0-7.0-3.20","5d3bcf190e510a001b3df200","bdp_wmem","Wed Mar 15 2023 14:07:46 GMT-0500 (Central Daylight Time)","576268","Match,No Match","","null","","","","","","<div class='trialBorder'><div class='vertical-center'><img src='img/fixation2_sml.jpg'</img></div></div>","null","DELAY","","","","","","","","","","",""
"html-keyboard-response","138","328385","0.0-7.0-4.20","5d3bcf190e510a001b3df200","bdp_wmem","Wed Mar 15 2023 14:07:46 GMT-0500 (Central Daylight Time)","576268","Match,No Match","","1421","","","","","","<div class='trialBorder'><div class='targDiv'><div class='tc'><img class='introPic' src='trustrating_stim/white_mw013.bmp'><br><font color='green'><strong>Share</strong></font></div></div><div class='respDiv'><div class='respDivL'>Match<br>(e)</div><div class='respDivR'>No Match<br>(i)</div></div></div>","e","TARGET","2","trustrating_stim/white_mw092.bmp,trustrating_stim/white_mw013.bmp","0,1","Match","e","3000","trustrating_stim/white_mw013.bmp","green","Share","REAL","1"
"html-keyboard-response","139","328899","0.0-7.0-5.20","5d3bcf190e510a001b3df200","bdp_wmem","Wed Mar 15 2023 14:07:46 GMT-0500 (Central Daylight Time)","576268","Match,No Match","","null","","","","","","<div class='trialBorder'><div class='vertical-center'><img src='img/correct.jpg'></div><div class='respDiv'><div class='respDivL'><font style='color:orange'>Match<br>(e)</font></div><div class='respDivR'>No Match<br>(i)</div></div></div>","null","FEEDBACK","","","","","","","","","","",""
"html-keyboard-response","140","329406","0.0-7.0-1.21","5d3bcf190e510a001b3df200","bdp_wmem","Wed Mar 15 2023 14:07:46 GMT-0500 (Central Daylight Time)","576268","Match,No Match","","null","","","","","","<div class='trialBorder'><div class='vertical-center'><img src='img/fixation2_sml.jpg'</img></div></div>","null","FIX","","","","","","","","","","",""
"html-keyboard-response","141","333920","0.0-7.0-2.21","5d3bcf190e510a001b3df200","bdp_wmem","Wed Mar 15 2023 14:07:46 GMT-0500 (Central Daylight Time)","576268","Match,No Match","","null","","","","","","<div class='trialBorder'><div class='vertical-center'><img style='vertical-align:center; align:center' src='img/fixation2_sml.jpg'></div><div class='arrayDiv3'><div class='tl'><img class='introPic' src='trustrating_stim/white_mw078.bmp'><br><font color='green'><strong>Share</strong></font></div><div class='tc'><img class='introPic' src='trustrating_stim/white_mw010.bmp'><br><font color='red'><strong>Keep</strong></font></div><div class='tr'><img class='introPic' src='trustrating_stim/white_mw042.bmp'><br><font color='red'><strong>Keep</strong></font></div></div></div>","null","ARRAY","3","trustrating_stim/white_mw078.bmp,trustrating_stim/white_mw010.bmp,trustrating_stim/white_mw042.bmp","1,0,0","noMatchOutcome","i","4500","","","","",""
"html-keyboard-response","142","337927","0.0-7.0-3.21","5d3bcf190e510a001b3df200","bdp_wmem","Wed Mar 15 2023 14:07:46 GMT-0500 (Central Daylight Time)","576268","Match,No Match","","null","","","","","","<div class='trialBorder'><div class='vertical-center'><img src='img/fixation2_sml.jpg'</img></div></div>","null","DELAY","","","","","","","","","","",""
"html-keyboard-response","143","338943","0.0-7.0-4.21","5d3bcf190e510a001b3df200","bdp_wmem","Wed Mar 15 2023 14:07:46 GMT-0500 (Central Daylight Time)","576268","Match,No Match","","1015","","","","","","<div class='trialBorder'><div class='targDiv'><div class='tc'><img class='introPic' src='trustrating_stim/white_mw042.bmp'><br><font color='green'><strong>Share</strong></font></div></div><div class='respDiv'><div class='respDivL'>Match<br>(e)</div><div class='respDivR'>No Match<br>(i)</div></div></div>","i","TARGET","3","trustrating_stim/white_mw078.bmp,trustrating_stim/white_mw010.bmp,trustrating_stim/white_mw042.bmp","1,0,0","noMatchOutcome","i","4500","trustrating_stim/white_mw042.bmp","green","Share","REAL","1"
"html-keyboard-response","144","339453","0.0-7.0-5.21","5d3bcf190e510a001b3df200","bdp_wmem","Wed Mar 15 2023 14:07:46 GMT-0500 (Central Daylight Time)","576268","Match,No Match","","null","","","","","","<div class='trialBorder'><div class='vertical-center'><img src='img/correct.jpg'></div><div class='respDiv'><div class='respDivL'>Match<br>(e)</div><div class='respDivR'><font style='color:orange'>No Match<br>(i)</font></div></div></div>","null","FEEDBACK","","","","","","","","","","",""
"html-keyboard-response","145","339959","0.0-7.0-1.22","5d3bcf190e510a001b3df200","bdp_wmem","Wed Mar 15 2023 14:07:46 GMT-0500 (Central Daylight Time)","576268","Match,No Match","","null","","","","","","<div class='trialBorder'><div class='vertical-center'><img src='img/fixation2_sml.jpg'</img></div></div>","null","FIX","","","","","","","","","","",""
"html-keyboard-response","146","342964","0.0-7.0-2.22","5d3bcf190e510a001b3df200","bdp_wmem","Wed Mar 15 2023 14:07:46 GMT-0500 (Central Daylight Time)","576268","Match,No Match","","null","","","","","","<div class='trialBorder'><div class='vertical-center'><img style='vertical-align:center; align:center' src='img/fixation2_sml.jpg'></div><div class='arrayDiv2'><div class='tl'><img class='introPic' src='trustrating_stim/white_mw040.bmp'><br><font color='green'><strong>Share</strong></font></div><div class='tr'><img class='introPic' src='trustrating_stim/white_mw013.bmp'><br><font color='red'><strong>Keep</strong></font></div></div></div>","null","ARRAY","2","trustrating_stim/white_mw040.bmp,trustrating_stim/white_mw013.bmp","1,0","noMatchOutcome","i","3000","","","","",""
"html-keyboard-response","147","346973","0.0-7.0-3.22","5d3bcf190e510a001b3df200","bdp_wmem","Wed Mar 15 2023 14:07:46 GMT-0500 (Central Daylight Time)","576268","Match,No Match","","null","","","","","","<div class='trialBorder'><div class='vertical-center'><img src='img/fixation2_sml.jpg'</img></div></div>","null","DELAY","","","","","","","","","","",""
"html-keyboard-response","148","347900","0.0-7.0-4.22","5d3bcf190e510a001b3df200","bdp_wmem","Wed Mar 15 2023 14:07:46 GMT-0500 (Central Daylight Time)","576268","Match,No Match","","925","","","","","","<div class='trialBorder'><div class='targDiv'><div class='tc'><img class='introPic' src='trustrating_stim/white_mw013.bmp'><br><font color='green'><strong>Share</strong></font></div></div><div class='respDiv'><div class='respDivL'>Match<br>(e)</div><div class='respDivR'>No Match<br>(i)</div></div></div>","i","TARGET","2","trustrating_stim/white_mw040.bmp,trustrating_stim/white_mw013.bmp","1,0","noMatchOutcome","i","3000","trustrating_stim/white_mw013.bmp","green","Share","REAL","1"
"html-keyboard-response","149","348415","0.0-7.0-5.22","5d3bcf190e510a001b3df200","bdp_wmem","Wed Mar 15 2023 14:07:46 GMT-0500 (Central Daylight Time)","576268","Match,No Match","","null","","","","","","<div class='trialBorder'><div class='vertical-center'><img src='img/correct.jpg'></div><div class='respDiv'><div class='respDivL'>Match<br>(e)</div><div class='respDivR'><font style='color:orange'>No Match<br>(i)</font></div></div></div>","null","FEEDBACK","","","","","","","","","","",""
"html-keyboard-response","150","348921","0.0-7.0-1.23","5d3bcf190e510a001b3df200","bdp_wmem","Wed Mar 15 2023 14:07:46 GMT-0500 (Central Daylight Time)","576268","Match,No Match","","null","","","","","","<div class='trialBorder'><div class='vertical-center'><img src='img/fixation2_sml.jpg'</img></div></div>","null","FIX","","","","","","","","","","",""
"html-keyboard-response","151","350425","0.0-7.0-2.23","5d3bcf190e510a001b3df200","bdp_wmem","Wed Mar 15 2023 14:07:46 GMT-0500 (Central Daylight Time)","576268","Match,No Match","","null","","","","","","<div class='trialBorder'><div class='vertical-center'><img style='vertical-align:center; align:center' src='img/fixation2_sml.jpg'></div><div class='arrayDiv1'><div class='tc'><img class='introPic' src='trustrating_stim/white_mw078.bmp'><br><font color='green'><strong>Share</strong></font></div></div></div>","null","ARRAY","1","trustrating_stim/white_mw078.bmp","1","Match","e","1500","","","","",""
"html-keyboard-response","152","354431","0.0-7.0-3.23","5d3bcf190e510a001b3df200","bdp_wmem","Wed Mar 15 2023 14:07:46 GMT-0500 (Central Daylight Time)","576268","Match,No Match","","null","","","","","","<div class='trialBorder'><div class='vertical-center'><img src='img/fixation2_sml.jpg'</img></div></div>","null","DELAY","","","","","","","","","","",""
"html-keyboard-response","153","354851","0.0-7.0-4.23","5d3bcf190e510a001b3df200","bdp_wmem","Wed Mar 15 2023 14:07:46 GMT-0500 (Central Daylight Time)","576268","Match,No Match","","418","","","","","","<div class='trialBorder'><div class='targDiv'><div class='tc'><img class='introPic' src='trustrating_stim/white_mw078.bmp'><br><font color='green'><strong>Share</strong></font></div></div><div class='respDiv'><div class='respDivL'>Match<br>(e)</div><div class='respDivR'>No Match<br>(i)</div></div></div>","e","TARGET","1","trustrating_stim/white_mw078.bmp","1","Match","e","1500","trustrating_stim/white_mw078.bmp","green","Share","REAL","1"
"html-keyboard-response","154","355356","0.0-7.0-5.23","5d3bcf190e510a001b3df200","bdp_wmem","Wed Mar 15 2023 14:07:46 GMT-0500 (Central Daylight Time)","576268","Match,No Match","","null","","","","","","<div class='trialBorder'><div class='vertical-center'><img src='img/correct.jpg'></div><div class='respDiv'><div class='respDivL'><font style='color:orange'>Match<br>(e)</font></div><div class='respDivR'>No Match<br>(i)</div></div></div>","null","FEEDBACK","","","","","","","","","","",""
"html-keyboard-response","155","355864","0.0-7.0-1.24","5d3bcf190e510a001b3df200","bdp_wmem","Wed Mar 15 2023 14:07:46 GMT-0500 (Central Daylight Time)","576268","Match,No Match","","null","","","","","","<div class='trialBorder'><div class='vertical-center'><img src='img/fixation2_sml.jpg'</img></div></div>","null","FIX","","","","","","","","","","",""
"html-keyboard-response","156","358868","0.0-7.0-2.24","5d3bcf190e510a001b3df200","bdp_wmem","Wed Mar 15 2023 14:07:46 GMT-0500 (Central Daylight Time)","576268","Match,No Match","","null","","","","","","<div class='trialBorder'><div class='vertical-center'><img style='vertical-align:center; align:center' src='img/fixation2_sml.jpg'></div><div class='arrayDiv2'><div class='tl'><img class='introPic' src='trustrating_stim/white_mw010.bmp'><br><font color='green'><strong>Share</strong></font></div><div class='tr'><img class='introPic' src='trustrating_stim/white_mw092.bmp'><br><font color='red'><strong>Keep</strong></font></div></div></div>","null","ARRAY","2","trustrating_stim/white_mw010.bmp,trustrating_stim/white_mw092.bmp","1,0","Match","e","3000","","","","",""
"html-keyboard-response","157","362870","0.0-7.0-3.24","5d3bcf190e510a001b3df200","bdp_wmem","Wed Mar 15 2023 14:07:46 GMT-0500 (Central Daylight Time)","576268","Match,No Match","","null","","","","","","<div class='trialBorder'><div class='vertical-center'><img src='img/fixation2_sml.jpg'</img></div></div>","null","DELAY","","","","","","","","","","",""
"html-keyboard-response","158","363494","0.0-7.0-4.24","5d3bcf190e510a001b3df200","bdp_wmem","Wed Mar 15 2023 14:07:46 GMT-0500 (Central Daylight Time)","576268","Match,No Match","","621","","","","","","<div class='trialBorder'><div class='targDiv'><div class='tc'><img class='introPic' src='trustrating_stim/white_mw092.bmp'><br><font color='red'><strong>Keep</strong></font></div></div><div class='respDiv'><div class='respDivL'>Match<br>(e)</div><div class='respDivR'>No Match<br>(i)</div></div></div>","i","TARGET","2","trustrating_stim/white_mw010.bmp,trustrating_stim/white_mw092.bmp","1,0","Match","e","3000","trustrating_stim/white_mw092.bmp","red","Keep","REAL","0"
"html-keyboard-response","159","363997","0.0-7.0-5.24","5d3bcf190e510a001b3df200","bdp_wmem","Wed Mar 15 2023 14:07:46 GMT-0500 (Central Daylight Time)","576268","Match,No Match","","null","","","","","","<div class='trialBorder'><div class='vertical-center'><img src='img/error.jpg'></div><div class='respDiv'><div class='respDivL'>Match<br>(e)</div><div class='respDivR'><font style='color:orange'>No Match<br>(i)</font></div></div></div>","null","FEEDBACK","","","","","","","","","","",""
"html-keyboard-response","160","364503","0.0-7.0-1.25","5d3bcf190e510a001b3df200","bdp_wmem","Wed Mar 15 2023 14:07:46 GMT-0500 (Central Daylight Time)","576268","Match,No Match","","null","","","","","","<div class='trialBorder'><div class='vertical-center'><img src='img/fixation2_sml.jpg'</img></div></div>","null","FIX","","","","","","","","","","",""
"html-keyboard-response","161","369006","0.0-7.0-2.25","5d3bcf190e510a001b3df200","bdp_wmem","Wed Mar 15 2023 14:07:46 GMT-0500 (Central Daylight Time)","576268","Match,No Match","","null","","","","","","<div class='trialBorder'><div class='vertical-center'><img style='vertical-align:center; align:center' src='img/fixation2_sml.jpg'></div><div class='arrayDiv3'><div class='tl'><img class='introPic' src='trustrating_stim/white_mw085.bmp'><br><font color='red'><strong>Keep</strong></font></div><div class='tc'><img class='introPic' src='trustrating_stim/white_mw012.bmp'><br><font color='red'><strong>Keep</strong></font></div><div class='tr'><img class='introPic' src='trustrating_stim/white_mw040.bmp'><br><font color='green'><strong>Share</strong></font></div></div></div>","null","ARRAY","3","trustrating_stim/white_mw085.bmp,trustrating_stim/white_mw012.bmp,trustrating_stim/white_mw040.bmp","0,0,1","Match","e","4500","","","","",""
"html-keyboard-response","162","373010","0.0-7.0-3.25","5d3bcf190e510a001b3df200","bdp_wmem","Wed Mar 15 2023 14:07:46 GMT-0500 (Central Daylight Time)","576268","Match,No Match","","null","","","","","","<div class='trialBorder'><div class='vertical-center'><img src='img/fixation2_sml.jpg'</img></div></div>","null","DELAY","","","","","","","","","","",""
"html-keyboard-response","163","373921","0.0-7.0-4.25","5d3bcf190e510a001b3df200","bdp_wmem","Wed Mar 15 2023 14:07:46 GMT-0500 (Central Daylight Time)","576268","Match,No Match","","908","","","","","","<div class='trialBorder'><div class='targDiv'><div class='tc'><img class='introPic' src='trustrating_stim/white_mw040.bmp'><br><font color='green'><strong>Share</strong></font></div></div><div class='respDiv'><div class='respDivL'>Match<br>(e)</div><div class='respDivR'>No Match<br>(i)</div></div></div>","e","TARGET","3","trustrating_stim/white_mw085.bmp,trustrating_stim/white_mw012.bmp,trustrating_stim/white_mw040.bmp","0,0,1","Match","e","4500","trustrating_stim/white_mw040.bmp","green","Share","REAL","1"
"html-keyboard-response","164","374426","0.0-7.0-5.25","5d3bcf190e510a001b3df200","bdp_wmem","Wed Mar 15 2023 14:07:46 GMT-0500 (Central Daylight Time)","576268","Match,No Match","","null","","","","","","<div class='trialBorder'><div class='vertical-center'><img src='img/correct.jpg'></div><div class='respDiv'><div class='respDivL'><font style='color:orange'>Match<br>(e)</font></div><div class='respDivR'>No Match<br>(i)</div></div></div>","null","FEEDBACK","","","","","","","","","","",""
"html-keyboard-response","165","374934","0.0-7.0-1.26","5d3bcf190e510a001b3df200","bdp_wmem","Wed Mar 15 2023 14:07:46 GMT-0500 (Central Daylight Time)","576268","Match,No Match","","null","","","","","","<div class='trialBorder'><div class='vertical-center'><img src='img/fixation2_sml.jpg'</img></div></div>","null","FIX","","","","","","","","","","",""
"html-keyboard-response","166","377943","0.0-7.0-2.26","5d3bcf190e510a001b3df200","bdp_wmem","Wed Mar 15 2023 14:07:46 GMT-0500 (Central Daylight Time)","576268","Match,No Match","","null","","","","","","<div class='trialBorder'><div class='vertical-center'><img style='vertical-align:center; align:center' src='img/fixation2_sml.jpg'></div><div class='arrayDiv2'><div class='tl'><img class='introPic' src='trustrating_stim/white_mw010.bmp'><br><font color='green'><strong>Share</strong></font></div><div class='tr'><img class='introPic' src='trustrating_stim/white_mw070.bmp'><br><font color='red'><strong>Keep</strong></font></div></div></div>","null","ARRAY","2","trustrating_stim/white_mw010.bmp,trustrating_stim/white_mw070.bmp","1,0","Match","e","3000","","","","",""
"html-keyboard-response","167","381947","0.0-7.0-3.26","5d3bcf190e510a001b3df200","bdp_wmem","Wed Mar 15 2023 14:07:46 GMT-0500 (Central Daylight Time)","576268","Match,No Match","","null","","","","","","<div class='trialBorder'><div class='vertical-center'><img src='img/fixation2_sml.jpg'</img></div></div>","null","DELAY","","","","","","","","","","",""
"html-keyboard-response","168","382899","0.0-7.0-4.26","5d3bcf190e510a001b3df200","bdp_wmem","Wed Mar 15 2023 14:07:46 GMT-0500 (Central Daylight Time)","576268","Match,No Match","","949","","","","","","<div class='trialBorder'><div class='targDiv'><div class='tc'><img class='introPic' src='trustrating_stim/white_mw010.bmp'><br><font color='green'><strong>Share</strong></font></div></div><div class='respDiv'><div class='respDivL'>Match<br>(e)</div><div class='respDivR'>No Match<br>(i)</div></div></div>","e","TARGET","2","trustrating_stim/white_mw010.bmp,trustrating_stim/white_mw070.bmp","1,0","Match","e","3000","trustrating_stim/white_mw010.bmp","green","Share","REAL","1"
"html-keyboard-response","169","383407","0.0-7.0-5.26","5d3bcf190e510a001b3df200","bdp_wmem","Wed Mar 15 2023 14:07:46 GMT-0500 (Central Daylight Time)","576268","Match,No Match","","null","","","","","","<div class='trialBorder'><div class='vertical-center'><img src='img/correct.jpg'></div><div class='respDiv'><div class='respDivL'><font style='color:orange'>Match<br>(e)</font></div><div class='respDivR'>No Match<br>(i)</div></div></div>","null","FEEDBACK","","","","","","","","","","",""
"html-keyboard-response","170","383914","0.0-7.0-1.27","5d3bcf190e510a001b3df200","bdp_wmem","Wed Mar 15 2023 14:07:46 GMT-0500 (Central Daylight Time)","576268","Match,No Match","","null","","","","","","<div class='trialBorder'><div class='vertical-center'><img src='img/fixation2_sml.jpg'</img></div></div>","null","FIX","","","","","","","","","","",""
"html-keyboard-response","171","386924","0.0-7.0-2.27","5d3bcf190e510a001b3df200","bdp_wmem","Wed Mar 15 2023 14:07:46 GMT-0500 (Central Daylight Time)","576268","Match,No Match","","null","","","","","","<div class='trialBorder'><div class='vertical-center'><img style='vertical-align:center; align:center' src='img/fixation2_sml.jpg'></div><div class='arrayDiv2'><div class='tl'><img class='introPic' src='trustrating_stim/white_mw092.bmp'><br><font color='red'><strong>Keep</strong></font></div><div class='tr'><img class='introPic' src='trustrating_stim/white_mw085.bmp'><br><font color='green'><strong>Share</strong></font></div></div></div>","null","ARRAY","2","trustrating_stim/white_mw092.bmp,trustrating_stim/white_mw085.bmp","0,1","noMatchFace","i","3000","","","","",""
"html-keyboard-response","172","390928","0.0-7.0-3.27","5d3bcf190e510a001b3df200","bdp_wmem","Wed Mar 15 2023 14:07:46 GMT-0500 (Central Daylight Time)","576268","Match,No Match","","null","","","","","","<div class='trialBorder'><div class='vertical-center'><img src='img/fixation2_sml.jpg'</img></div></div>","null","DELAY","","","","","","","","","","",""
"html-keyboard-response","173","392315","0.0-7.0-4.27","5d3bcf190e510a001b3df200","bdp_wmem","Wed Mar 15 2023 14:07:46 GMT-0500 (Central Daylight Time)","576268","Match,No Match","","1385","","","","","","<div class='trialBorder'><div class='targDiv'><div class='tc'><img class='introPic' src='trustrating_stim/white_mw070.bmp'><br><font color='green'><strong>Share</strong></font></div></div><div class='respDiv'><div class='respDivL'>Match<br>(e)</div><div class='respDivR'>No Match<br>(i)</div></div></div>","e","TARGET","2","trustrating_stim/white_mw092.bmp,trustrating_stim/white_mw085.bmp","0,1","noMatchFace","i","3000","trustrating_stim/white_mw070.bmp","green","Share","REAL","0"
"html-keyboard-response","174","392816","0.0-7.0-5.27","5d3bcf190e510a001b3df200","bdp_wmem","Wed Mar 15 2023 14:07:46 GMT-0500 (Central Daylight Time)","576268","Match,No Match","","null","","","","","","<div class='trialBorder'><div class='vertical-center'><img src='img/error.jpg'></div><div class='respDiv'><div class='respDivL'><font style='color:orange'>Match<br>(e)</font></div><div class='respDivR'>No Match<br>(i)</div></div></div>","null","FEEDBACK","","","","","","","","","","",""
"html-keyboard-response","175","393322","0.0-7.0-1.28","5d3bcf190e510a001b3df200","bdp_wmem","Wed Mar 15 2023 14:07:46 GMT-0500 (Central Daylight Time)","576268","Match,No Match","","null","","","","","","<div class='trialBorder'><div class='vertical-center'><img src='img/fixation2_sml.jpg'</img></div></div>","null","FIX","","","","","","","","","","",""
"html-keyboard-response","176","394834","0.0-7.0-2.28","5d3bcf190e510a001b3df200","bdp_wmem","Wed Mar 15 2023 14:07:46 GMT-0500 (Central Daylight Time)","576268","Match,No Match","","null","","","","","","<div class='trialBorder'><div class='vertical-center'><img style='vertical-align:center; align:center' src='img/fixation2_sml.jpg'></div><div class='arrayDiv1'><div class='tc'><img class='introPic' src='trustrating_stim/white_mw070.bmp'><br><font color='green'><strong>Share</strong></font></div></div></div>","null","ARRAY","1","trustrating_stim/white_mw070.bmp","1","Match","e","1500","","","","",""
"html-keyboard-response","177","398838","0.0-7.0-3.28","5d3bcf190e510a001b3df200","bdp_wmem","Wed Mar 15 2023 14:07:46 GMT-0500 (Central Daylight Time)","576268","Match,No Match","","null","","","","","","<div class='trialBorder'><div class='vertical-center'><img src='img/fixation2_sml.jpg'</img></div></div>","null","DELAY","","","","","","","","","","",""
"html-keyboard-response","178","399321","0.0-7.0-4.28","5d3bcf190e510a001b3df200","bdp_wmem","Wed Mar 15 2023 14:07:46 GMT-0500 (Central Daylight Time)","576268","Match,No Match","","480","","","","","","<div class='trialBorder'><div class='targDiv'><div class='tc'><img class='introPic' src='trustrating_stim/white_mw070.bmp'><br><font color='green'><strong>Share</strong></font></div></div><div class='respDiv'><div class='respDivL'>Match<br>(e)</div><div class='respDivR'>No Match<br>(i)</div></div></div>","e","TARGET","1","trustrating_stim/white_mw070.bmp","1","Match","e","1500","trustrating_stim/white_mw070.bmp","green","Share","REAL","1"
"html-keyboard-response","179","399825","0.0-7.0-5.28","5d3bcf190e510a001b3df200","bdp_wmem","Wed Mar 15 2023 14:07:46 GMT-0500 (Central Daylight Time)","576268","Match,No Match","","null","","","","","","<div class='trialBorder'><div class='vertical-center'><img src='img/correct.jpg'></div><div class='respDiv'><div class='respDivL'><font style='color:orange'>Match<br>(e)</font></div><div class='respDivR'>No Match<br>(i)</div></div></div>","null","FEEDBACK","","","","","","","","","","",""
"html-keyboard-response","180","400339","0.0-7.0-1.29","5d3bcf190e510a001b3df200","bdp_wmem","Wed Mar 15 2023 14:07:46 GMT-0500 (Central Daylight Time)","576268","Match,No Match","","null","","","","","","<div class='trialBorder'><div class='vertical-center'><img src='img/fixation2_sml.jpg'</img></div></div>","null","FIX","","","","","","","","","","",""
"html-keyboard-response","181","404849","0.0-7.0-2.29","5d3bcf190e510a001b3df200","bdp_wmem","Wed Mar 15 2023 14:07:46 GMT-0500 (Central Daylight Time)","576268","Match,No Match","","null","","","","","","<div class='trialBorder'><div class='vertical-center'><img style='vertical-align:center; align:center' src='img/fixation2_sml.jpg'></div><div class='arrayDiv3'><div class='tl'><img class='introPic' src='trustrating_stim/white_mw070.bmp'><br><font color='green'><strong>Share</strong></font></div><div class='tc'><img class='introPic' src='trustrating_stim/white_mw042.bmp'><br><font color='red'><strong>Keep</strong></font></div><div class='tr'><img class='introPic' src='trustrating_stim/white_mw085.bmp'><br><font color='green'><strong>Share</strong></font></div></div></div>","null","ARRAY","3","trustrating_stim/white_mw070.bmp,trustrating_stim/white_mw042.bmp,trustrating_stim/white_mw085.bmp","1,0,1","noMatchOutcome","i","4500","","","","",""
"html-keyboard-response","182","408857","0.0-7.0-3.29","5d3bcf190e510a001b3df200","bdp_wmem","Wed Mar 15 2023 14:07:46 GMT-0500 (Central Daylight Time)","576268","Match,No Match","","null","","","","","","<div class='trialBorder'><div class='vertical-center'><img src='img/fixation2_sml.jpg'</img></div></div>","null","DELAY","","","","","","","","","","",""
"html-keyboard-response","183","411209","0.0-7.0-4.29","5d3bcf190e510a001b3df200","bdp_wmem","Wed Mar 15 2023 14:07:46 GMT-0500 (Central Daylight Time)","576268","Match,No Match","","2350","","","","","","<div class='trialBorder'><div class='targDiv'><div class='tc'><img class='introPic' src='trustrating_stim/white_mw085.bmp'><br><font color='red'><strong>Keep</strong></font></div></div><div class='respDiv'><div class='respDivL'>Match<br>(e)</div><div class='respDivR'>No Match<br>(i)</div></div></div>","e","TARGET","3","trustrating_stim/white_mw070.bmp,trustrating_stim/white_mw042.bmp,trustrating_stim/white_mw085.bmp","1,0,1","noMatchOutcome","i","4500","trustrating_stim/white_mw085.bmp","red","Keep","REAL","0"
"html-keyboard-response","184","411723","0.0-7.0-5.29","5d3bcf190e510a001b3df200","bdp_wmem","Wed Mar 15 2023 14:07:46 GMT-0500 (Central Daylight Time)","576268","Match,No Match","","null","","","","","","<div class='trialBorder'><div class='vertical-center'><img src='img/error.jpg'></div><div class='respDiv'><div class='respDivL'><font style='color:orange'>Match<br>(e)</font></div><div class='respDivR'>No Match<br>(i)</div></div></div>","null","FEEDBACK","","","","","","","","","","",""
"html-keyboard-response","185","412230","0.0-7.0-1.30","5d3bcf190e510a001b3df200","bdp_wmem","Wed Mar 15 2023 14:07:46 GMT-0500 (Central Daylight Time)","576268","Match,No Match","","null","","","","","","<div class='trialBorder'><div class='vertical-center'><img src='img/fixation2_sml.jpg'</img></div></div>","null","FIX","","","","","","","","","","",""
"html-keyboard-response","186","416739","0.0-7.0-2.30","5d3bcf190e510a001b3df200","bdp_wmem","Wed Mar 15 2023 14:07:46 GMT-0500 (Central Daylight Time)","576268","Match,No Match","","null","","","","","","<div class='trialBorder'><div class='vertical-center'><img style='vertical-align:center; align:center' src='img/fixation2_sml.jpg'></div><div class='arrayDiv3'><div class='tl'><img class='introPic' src='trustrating_stim/white_mw012.bmp'><br><font color='red'><strong>Keep</strong></font></div><div class='tc'><img class='introPic' src='trustrating_stim/white_mw040.bmp'><br><font color='red'><strong>Keep</strong></font></div><div class='tr'><img class='introPic' src='trustrating_stim/white_mw042.bmp'><br><font color='green'><strong>Share</strong></font></div></div></div>","null","ARRAY","3","trustrating_stim/white_mw012.bmp,trustrating_stim/white_mw040.bmp,trustrating_stim/white_mw042.bmp","0,0,1","Match","e","4500","","","","",""
"html-keyboard-response","187","420748","0.0-7.0-3.30","5d3bcf190e510a001b3df200","bdp_wmem","Wed Mar 15 2023 14:07:46 GMT-0500 (Central Daylight Time)","576268","Match,No Match","","null","","","","","","<div class='trialBorder'><div class='vertical-center'><img src='img/fixation2_sml.jpg'</img></div></div>","null","DELAY","","","","","","","","","","",""
