"event","trial","time","trialtype","subject_id","task","startTime","totalTime","labels","trial_type","trial_index","time_elapsed","internal_node_id","view_history","rt","success","stimulus","key_press","stimType","arraySize","arrayFaces","arrayOutcomes","matchType","corrResp","arrayDur","targFace","targCol","targOutcome","trialType","corr"
"focus","0","0","focusevent","5bbc4bd1f83ac60001fe665e","bdp_wmem","Mon Mar 13 2023 12:05:34 GMT-0700 (Pacific Daylight Time)","623241","Match,No Match","","","","","","","","","","","","","","","","","","","","",""
"","","","","5bbc4bd1f83ac60001fe665e","bdp_wmem","Mon Mar 13 2023 12:05:34 GMT-0700 (Pacific Daylight Time)","623241","Match,No Match","pavlovia","0","5","0.0-0.0","","","","","","","","","","","","","","","","",""
"","","","","5bbc4bd1f83ac60001fe665e","bdp_wmem","Mon Mar 13 2023 12:05:34 GMT-0700 (Pacific Daylight Time)","623241","Match,No Match","instructions","1","2983","0.0-1.0","[{""page_index"":0,""viewing_time"":2976}]","2977","","","","","","","","","","","","","","",""
"fullscreenexit","2","6563","fullscreenexit","5bbc4bd1f83ac60001fe665e","bdp_wmem","Mon Mar 13 2023 12:05:34 GMT-0700 (Pacific Daylight Time)","623241","Match,No Match","","","","","","","","","","","","","","","","","","","","",""
"","","","","5bbc4bd1f83ac60001fe665e","bdp_wmem","Mon Mar 13 2023 12:05:34 GMT-0700 (Pacific Daylight Time)","623241","Match,No Match","fullscreen","2","7275","0.0-2.0","","","true","","","","","","","","","","","","","",""
"","","","fullscreenfail","5bbc4bd1f83ac60001fe665e","bdp_wmem","Mon Mar 13 2023 12:05:34 GMT-0700 (Pacific Daylight Time)","623241","Match,No Match","image-keyboard-response","3","8189","0.0-3.0-0.0","","912","","","32","","","","","","","","","","","",""
"","","","","5bbc4bd1f83ac60001fe665e","bdp_wmem","Mon Mar 13 2023 12:05:34 GMT-0700 (Pacific Daylight Time)","623241","Match,No Match","instructions","4","97335","0.0-4.0","[{""page_index"":0,""viewing_time"":18929},{""page_index"":1,""viewing_time"":31996},{""page_index"":2,""viewing_time"":18740},{""page_index"":3,""viewing_time"":7541},{""page_index"":4,""viewing_time"":11683}]","88889","","","","","","","","","","","","","","",""
"","","","","5bbc4bd1f83ac60001fe665e","bdp_wmem","Mon Mar 13 2023 12:05:34 GMT-0700 (Pacific Daylight Time)","623241","Match,No Match","html-keyboard-response","5","97843","0.0-5.0-1.0","","null","","<div class='trialBorder'><div class='vertical-center'><img src='img/fixation2_sml.jpg'</img></div></div>","null","FIX","","","","","","","","","","",""
"","","","","5bbc4bd1f83ac60001fe665e","bdp_wmem","Mon Mar 13 2023 12:05:34 GMT-0700 (Pacific Daylight Time)","623241","Match,No Match","html-keyboard-response","6","100855","0.0-5.0-2.0","","null","","<div class='trialBorder'><div class='vertical-center'><img style='vertical-align:center; align:center' src='img/fixation2_sml.jpg'></div><div class='arrayDiv2'><div class='tl'><img class='introPic' src='trustrating_stim/white_mw010.bmp'><br><font color='red'><strong>Keep</strong></font></div><div class='tr'><img class='introPic' src='trustrating_stim/white_mw092.bmp'><br><font color='green'><strong>Share</strong></font></div></div></div>","null","ARRAY","2","trustrating_stim/white_mw010.bmp,trustrating_stim/white_mw092.bmp","0,1","noMatchFace","i","3000","","","","",""
"","","","","5bbc4bd1f83ac60001fe665e","bdp_wmem","Mon Mar 13 2023 12:05:34 GMT-0700 (Pacific Daylight Time)","623241","Match,No Match","html-keyboard-response","7","104864","0.0-5.0-3.0","","null","","<div class='trialBorder'><div class='vertical-center'><img src='img/fixation2_sml.jpg'</img></div></div>","null","DELAY","","","","","","","","","","",""
"","","","","5bbc4bd1f83ac60001fe665e","bdp_wmem","Mon Mar 13 2023 12:05:34 GMT-0700 (Pacific Daylight Time)","623241","Match,No Match","html-keyboard-response","8","107170","0.0-5.0-4.0","","2305","","<div class='trialBorder'><div class='targDiv'><div class='tc'><img class='introPic' src='trustrating_stim/white_mw078.bmp'><br><font color='red'><strong>Keep</strong></font></div></div><div class='respDiv'><div class='respDivL'>Match<br>(e)</div><div class='respDivR'>No Match<br>(i)</div></div></div>","i","TARGET","2","trustrating_stim/white_mw010.bmp,trustrating_stim/white_mw092.bmp","0,1","noMatchFace","i","3000","trustrating_stim/white_mw078.bmp","red","Keep","PRACTICE","1"
"","","","","5bbc4bd1f83ac60001fe665e","bdp_wmem","Mon Mar 13 2023 12:05:34 GMT-0700 (Pacific Daylight Time)","623241","Match,No Match","html-keyboard-response","9","107681","0.0-5.0-5.0","","null","","<div class='trialBorder'><div class='vertical-center'><img src='img/correct.jpg'></div><div class='respDiv'><div class='respDivL'>Match<br>(e)</div><div class='respDivR'><font style='color:orange'>No Match<br>(i)</font></div></div></div>","null","FEEDBACK","","","","","","","","","","",""
"","","","","5bbc4bd1f83ac60001fe665e","bdp_wmem","Mon Mar 13 2023 12:05:34 GMT-0700 (Pacific Daylight Time)","623241","Match,No Match","html-keyboard-response","10","108184","0.0-5.0-1.1","","null","","<div class='trialBorder'><div class='vertical-center'><img src='img/fixation2_sml.jpg'</img></div></div>","null","FIX","","","","","","","","","","",""
"","","","","5bbc4bd1f83ac60001fe665e","bdp_wmem","Mon Mar 13 2023 12:05:34 GMT-0700 (Pacific Daylight Time)","623241","Match,No Match","html-keyboard-response","11","112693","0.0-5.0-2.1","","null","","<div class='trialBorder'><div class='vertical-center'><img style='vertical-align:center; align:center' src='img/fixation2_sml.jpg'></div><div class='arrayDiv3'><div class='tl'><img class='introPic' src='trustrating_stim/white_mw012.bmp'><br><font color='green'><strong>Share</strong></font></div><div class='tc'><img class='introPic' src='trustrating_stim/white_mw010.bmp'><br><font color='red'><strong>Keep</strong></font></div><div class='tr'><img class='introPic' src='trustrating_stim/white_mw085.bmp'><br><font color='red'><strong>Keep</strong></font></div></div></div>","null","ARRAY","3","trustrating_stim/white_mw012.bmp,trustrating_stim/white_mw010.bmp,trustrating_stim/white_mw085.bmp","1,0,0","noMatchOutcome","i","4500","","","","",""
"","","","","5bbc4bd1f83ac60001fe665e","bdp_wmem","Mon Mar 13 2023 12:05:34 GMT-0700 (Pacific Daylight Time)","623241","Match,No Match","html-keyboard-response","12","116706","0.0-5.0-3.1","","null","","<div class='trialBorder'><div class='vertical-center'><img src='img/fixation2_sml.jpg'</img></div></div>","null","DELAY","","","","","","","","","","",""
"","","","","5bbc4bd1f83ac60001fe665e","bdp_wmem","Mon Mar 13 2023 12:05:34 GMT-0700 (Pacific Daylight Time)","623241","Match,No Match","html-keyboard-response","13","118981","0.0-5.0-4.1","","2274","","<div class='trialBorder'><div class='targDiv'><div class='tc'><img class='introPic' src='trustrating_stim/white_mw085.bmp'><br><font color='green'><strong>Share</strong></font></div></div><div class='respDiv'><div class='respDivL'>Match<br>(e)</div><div class='respDivR'>No Match<br>(i)</div></div></div>","i","TARGET","3","trustrating_stim/white_mw012.bmp,trustrating_stim/white_mw010.bmp,trustrating_stim/white_mw085.bmp","1,0,0","noMatchOutcome","i","4500","trustrating_stim/white_mw085.bmp","green","Share","PRACTICE","1"
"","","","","5bbc4bd1f83ac60001fe665e","bdp_wmem","Mon Mar 13 2023 12:05:34 GMT-0700 (Pacific Daylight Time)","623241","Match,No Match","html-keyboard-response","14","119498","0.0-5.0-5.1","","null","","<div class='trialBorder'><div class='vertical-center'><img src='img/correct.jpg'></div><div class='respDiv'><div class='respDivL'>Match<br>(e)</div><div class='respDivR'><font style='color:orange'>No Match<br>(i)</font></div></div></div>","null","FEEDBACK","","","","","","","","","","",""
"","","","","5bbc4bd1f83ac60001fe665e","bdp_wmem","Mon Mar 13 2023 12:05:34 GMT-0700 (Pacific Daylight Time)","623241","Match,No Match","html-keyboard-response","15","120002","0.0-5.0-1.2","","null","","<div class='trialBorder'><div class='vertical-center'><img src='img/fixation2_sml.jpg'</img></div></div>","null","FIX","","","","","","","","","","",""
"","","","","5bbc4bd1f83ac60001fe665e","bdp_wmem","Mon Mar 13 2023 12:05:34 GMT-0700 (Pacific Daylight Time)","623241","Match,No Match","html-keyboard-response","16","123011","0.0-5.0-2.2","","null","","<div class='trialBorder'><div class='vertical-center'><img style='vertical-align:center; align:center' src='img/fixation2_sml.jpg'></div><div class='arrayDiv2'><div class='tl'><img class='introPic' src='trustrating_stim/white_mw038.bmp'><br><font color='green'><strong>Share</strong></font></div><div class='tr'><img class='introPic' src='trustrating_stim/white_mw078.bmp'><br><font color='red'><strong>Keep</strong></font></div></div></div>","null","ARRAY","2","trustrating_stim/white_mw038.bmp,trustrating_stim/white_mw078.bmp","1,0","Match","e","3000","","","","",""
"","","","","5bbc4bd1f83ac60001fe665e","bdp_wmem","Mon Mar 13 2023 12:05:34 GMT-0700 (Pacific Daylight Time)","623241","Match,No Match","html-keyboard-response","17","127025","0.0-5.0-3.2","","null","","<div class='trialBorder'><div class='vertical-center'><img src='img/fixation2_sml.jpg'</img></div></div>","null","DELAY","","","","","","","","","","",""
"","","","","5bbc4bd1f83ac60001fe665e","bdp_wmem","Mon Mar 13 2023 12:05:34 GMT-0700 (Pacific Daylight Time)","623241","Match,No Match","html-keyboard-response","18","129062","0.0-5.0-4.2","","2036","","<div class='trialBorder'><div class='targDiv'><div class='tc'><img class='introPic' src='trustrating_stim/white_mw078.bmp'><br><font color='red'><strong>Keep</strong></font></div></div><div class='respDiv'><div class='respDivL'>Match<br>(e)</div><div class='respDivR'>No Match<br>(i)</div></div></div>","e","TARGET","2","trustrating_stim/white_mw038.bmp,trustrating_stim/white_mw078.bmp","1,0","Match","e","3000","trustrating_stim/white_mw078.bmp","red","Keep","PRACTICE","1"
"","","","","5bbc4bd1f83ac60001fe665e","bdp_wmem","Mon Mar 13 2023 12:05:34 GMT-0700 (Pacific Daylight Time)","623241","Match,No Match","html-keyboard-response","19","129570","0.0-5.0-5.2","","null","","<div class='trialBorder'><div class='vertical-center'><img src='img/correct.jpg'></div><div class='respDiv'><div class='respDivL'><font style='color:orange'>Match<br>(e)</font></div><div class='respDivR'>No Match<br>(i)</div></div></div>","null","FEEDBACK","","","","","","","","","","",""
"","","","","5bbc4bd1f83ac60001fe665e","bdp_wmem","Mon Mar 13 2023 12:05:34 GMT-0700 (Pacific Daylight Time)","623241","Match,No Match","html-keyboard-response","20","130087","0.0-5.0-1.3","","null","","<div class='trialBorder'><div class='vertical-center'><img src='img/fixation2_sml.jpg'</img></div></div>","null","FIX","","","","","","","","","","",""
"","","","","5bbc4bd1f83ac60001fe665e","bdp_wmem","Mon Mar 13 2023 12:05:34 GMT-0700 (Pacific Daylight Time)","623241","Match,No Match","html-keyboard-response","21","131588","0.0-5.0-2.3","","null","","<div class='trialBorder'><div class='vertical-center'><img style='vertical-align:center; align:center' src='img/fixation2_sml.jpg'></div><div class='arrayDiv1'><div class='tc'><img class='introPic' src='trustrating_stim/white_mw078.bmp'><br><font color='green'><strong>Share</strong></font></div></div></div>","null","ARRAY","1","trustrating_stim/white_mw078.bmp","1","Match","e","1500","","","","",""
"","","","","5bbc4bd1f83ac60001fe665e","bdp_wmem","Mon Mar 13 2023 12:05:34 GMT-0700 (Pacific Daylight Time)","623241","Match,No Match","html-keyboard-response","22","135603","0.0-5.0-3.3","","null","","<div class='trialBorder'><div class='vertical-center'><img src='img/fixation2_sml.jpg'</img></div></div>","null","DELAY","","","","","","","","","","",""
"","","","","5bbc4bd1f83ac60001fe665e","bdp_wmem","Mon Mar 13 2023 12:05:34 GMT-0700 (Pacific Daylight Time)","623241","Match,No Match","html-keyboard-response","23","136649","0.0-5.0-4.3","","1045","","<div class='trialBorder'><div class='targDiv'><div class='tc'><img class='introPic' src='trustrating_stim/white_mw078.bmp'><br><font color='green'><strong>Share</strong></font></div></div><div class='respDiv'><div class='respDivL'>Match<br>(e)</div><div class='respDivR'>No Match<br>(i)</div></div></div>","e","TARGET","1","trustrating_stim/white_mw078.bmp","1","Match","e","1500","trustrating_stim/white_mw078.bmp","green","Share","PRACTICE","1"
"","","","","5bbc4bd1f83ac60001fe665e","bdp_wmem","Mon Mar 13 2023 12:05:34 GMT-0700 (Pacific Daylight Time)","623241","Match,No Match","html-keyboard-response","24","137162","0.0-5.0-5.3","","null","","<div class='trialBorder'><div class='vertical-center'><img src='img/correct.jpg'></div><div class='respDiv'><div class='respDivL'><font style='color:orange'>Match<br>(e)</font></div><div class='respDivR'>No Match<br>(i)</div></div></div>","null","FEEDBACK","","","","","","","","","","",""
"","","","","5bbc4bd1f83ac60001fe665e","bdp_wmem","Mon Mar 13 2023 12:05:34 GMT-0700 (Pacific Daylight Time)","623241","Match,No Match","html-keyboard-response","25","137673","0.0-5.0-1.4","","null","","<div class='trialBorder'><div class='vertical-center'><img src='img/fixation2_sml.jpg'</img></div></div>","null","FIX","","","","","","","","","","",""
"","","","","5bbc4bd1f83ac60001fe665e","bdp_wmem","Mon Mar 13 2023 12:05:34 GMT-0700 (Pacific Daylight Time)","623241","Match,No Match","html-keyboard-response","26","139187","0.0-5.0-2.4","","null","","<div class='trialBorder'><div class='vertical-center'><img style='vertical-align:center; align:center' src='img/fixation2_sml.jpg'></div><div class='arrayDiv1'><div class='tc'><img class='introPic' src='trustrating_stim/white_mw003.bmp'><br><font color='green'><strong>Share</strong></font></div></div></div>","null","ARRAY","1","trustrating_stim/white_mw003.bmp","1","noMatchFace","i","1500","","","","",""
"","","","","5bbc4bd1f83ac60001fe665e","bdp_wmem","Mon Mar 13 2023 12:05:34 GMT-0700 (Pacific Daylight Time)","623241","Match,No Match","html-keyboard-response","27","143202","0.0-5.0-3.4","","null","","<div class='trialBorder'><div class='vertical-center'><img src='img/fixation2_sml.jpg'</img></div></div>","null","DELAY","","","","","","","","","","",""
"","","","","5bbc4bd1f83ac60001fe665e","bdp_wmem","Mon Mar 13 2023 12:05:34 GMT-0700 (Pacific Daylight Time)","623241","Match,No Match","html-keyboard-response","28","144411","0.0-5.0-4.4","","1208","","<div class='trialBorder'><div class='targDiv'><div class='tc'><img class='introPic' src='trustrating_stim/white_mw012.bmp'><br><font color='green'><strong>Share</strong></font></div></div><div class='respDiv'><div class='respDivL'>Match<br>(e)</div><div class='respDivR'>No Match<br>(i)</div></div></div>","i","TARGET","1","trustrating_stim/white_mw003.bmp","1","noMatchFace","i","1500","trustrating_stim/white_mw012.bmp","green","Share","PRACTICE","1"
"","","","","5bbc4bd1f83ac60001fe665e","bdp_wmem","Mon Mar 13 2023 12:05:34 GMT-0700 (Pacific Daylight Time)","623241","Match,No Match","html-keyboard-response","29","144924","0.0-5.0-5.4","","null","","<div class='trialBorder'><div class='vertical-center'><img src='img/correct.jpg'></div><div class='respDiv'><div class='respDivL'>Match<br>(e)</div><div class='respDivR'><font style='color:orange'>No Match<br>(i)</font></div></div></div>","null","FEEDBACK","","","","","","","","","","",""
"","","","","5bbc4bd1f83ac60001fe665e","bdp_wmem","Mon Mar 13 2023 12:05:34 GMT-0700 (Pacific Daylight Time)","623241","Match,No Match","html-keyboard-response","30","145430","0.0-5.0-1.5","","null","","<div class='trialBorder'><div class='vertical-center'><img src='img/fixation2_sml.jpg'</img></div></div>","null","FIX","","","","","","","","","","",""
"","","","","5bbc4bd1f83ac60001fe665e","bdp_wmem","Mon Mar 13 2023 12:05:34 GMT-0700 (Pacific Daylight Time)","623241","Match,No Match","html-keyboard-response","31","149939","0.0-5.0-2.5","","null","","<div class='trialBorder'><div class='vertical-center'><img style='vertical-align:center; align:center' src='img/fixation2_sml.jpg'></div><div class='arrayDiv3'><div class='tl'><img class='introPic' src='trustrating_stim/white_mw012.bmp'><br><font color='green'><strong>Share</strong></font></div><div class='tc'><img class='introPic' src='trustrating_stim/white_mw085.bmp'><br><font color='red'><strong>Keep</strong></font></div><div class='tr'><img class='introPic' src='trustrating_stim/white_mw013.bmp'><br><font color='red'><strong>Keep</strong></font></div></div></div>","null","ARRAY","3","trustrating_stim/white_mw012.bmp,trustrating_stim/white_mw085.bmp,trustrating_stim/white_mw013.bmp","1,0,0","Match","e","4500","","","","",""
"","","","","5bbc4bd1f83ac60001fe665e","bdp_wmem","Mon Mar 13 2023 12:05:34 GMT-0700 (Pacific Daylight Time)","623241","Match,No Match","html-keyboard-response","32","153952","0.0-5.0-3.5","","null","","<div class='trialBorder'><div class='vertical-center'><img src='img/fixation2_sml.jpg'</img></div></div>","null","DELAY","","","","","","","","","","",""
"","","","","5bbc4bd1f83ac60001fe665e","bdp_wmem","Mon Mar 13 2023 12:05:34 GMT-0700 (Pacific Daylight Time)","623241","Match,No Match","html-keyboard-response","33","156284","0.0-5.0-4.5","","2329","","<div class='trialBorder'><div class='targDiv'><div class='tc'><img class='introPic' src='trustrating_stim/white_mw012.bmp'><br><font color='green'><strong>Share</strong></font></div></div><div class='respDiv'><div class='respDivL'>Match<br>(e)</div><div class='respDivR'>No Match<br>(i)</div></div></div>","e","TARGET","3","trustrating_stim/white_mw012.bmp,trustrating_stim/white_mw085.bmp,trustrating_stim/white_mw013.bmp","1,0,0","Match","e","4500","trustrating_stim/white_mw012.bmp","green","Share","PRACTICE","1"
"","","","","5bbc4bd1f83ac60001fe665e","bdp_wmem","Mon Mar 13 2023 12:05:34 GMT-0700 (Pacific Daylight Time)","623241","Match,No Match","html-keyboard-response","34","156790","0.0-5.0-5.5","","null","","<div class='trialBorder'><div class='vertical-center'><img src='img/correct.jpg'></div><div class='respDiv'><div class='respDivL'><font style='color:orange'>Match<br>(e)</font></div><div class='respDivR'>No Match<br>(i)</div></div></div>","null","FEEDBACK","","","","","","","","","","",""
"","","","","5bbc4bd1f83ac60001fe665e","bdp_wmem","Mon Mar 13 2023 12:05:34 GMT-0700 (Pacific Daylight Time)","623241","Match,No Match","instructions","35","164552","0.0-6.0","[{""page_index"":0,""viewing_time"":7761}]","7762","","","","","","","","","","","","","","",""
"","","","","5bbc4bd1f83ac60001fe665e","bdp_wmem","Mon Mar 13 2023 12:05:34 GMT-0700 (Pacific Daylight Time)","623241","Match,No Match","html-keyboard-response","36","165056","0.0-7.0-1.0","","null","","<div class='trialBorder'><div class='vertical-center'><img src='img/fixation2_sml.jpg'</img></div></div>","null","FIX","","","","","","","","","","",""
"","","","","5bbc4bd1f83ac60001fe665e","bdp_wmem","Mon Mar 13 2023 12:05:34 GMT-0700 (Pacific Daylight Time)","623241","Match,No Match","html-keyboard-response","37","169563","0.0-7.0-2.0","","null","","<div class='trialBorder'><div class='vertical-center'><img style='vertical-align:center; align:center' src='img/fixation2_sml.jpg'></div><div class='arrayDiv3'><div class='tl'><img class='introPic' src='trustrating_stim/white_mw013.bmp'><br><font color='red'><strong>Keep</strong></font></div><div class='tc'><img class='introPic' src='trustrating_stim/white_mw078.bmp'><br><font color='green'><strong>Share</strong></font></div><div class='tr'><img class='introPic' src='trustrating_stim/white_mw092.bmp'><br><font color='green'><strong>Share</strong></font></div></div></div>","null","ARRAY","3","trustrating_stim/white_mw013.bmp,trustrating_stim/white_mw078.bmp,trustrating_stim/white_mw092.bmp","0,1,1","Match","e","4500","","","","",""
"","","","","5bbc4bd1f83ac60001fe665e","bdp_wmem","Mon Mar 13 2023 12:05:34 GMT-0700 (Pacific Daylight Time)","623241","Match,No Match","html-keyboard-response","38","173573","0.0-7.0-3.0","","null","","<div class='trialBorder'><div class='vertical-center'><img src='img/fixation2_sml.jpg'</img></div></div>","null","DELAY","","","","","","","","","","",""
"","","","","5bbc4bd1f83ac60001fe665e","bdp_wmem","Mon Mar 13 2023 12:05:34 GMT-0700 (Pacific Daylight Time)","623241","Match,No Match","html-keyboard-response","39","175912","0.0-7.0-4.0","","2338","","<div class='trialBorder'><div class='targDiv'><div class='tc'><img class='introPic' src='trustrating_stim/white_mw092.bmp'><br><font color='green'><strong>Share</strong></font></div></div><div class='respDiv'><div class='respDivL'>Match<br>(e)</div><div class='respDivR'>No Match<br>(i)</div></div></div>","i","TARGET","3","trustrating_stim/white_mw013.bmp,trustrating_stim/white_mw078.bmp,trustrating_stim/white_mw092.bmp","0,1,1","Match","e","4500","trustrating_stim/white_mw092.bmp","green","Share","REAL","0"
"","","","","5bbc4bd1f83ac60001fe665e","bdp_wmem","Mon Mar 13 2023 12:05:34 GMT-0700 (Pacific Daylight Time)","623241","Match,No Match","html-keyboard-response","40","176417","0.0-7.0-5.0","","null","","<div class='trialBorder'><div class='vertical-center'><img src='img/error.jpg'></div><div class='respDiv'><div class='respDivL'>Match<br>(e)</div><div class='respDivR'><font style='color:orange'>No Match<br>(i)</font></div></div></div>","null","FEEDBACK","","","","","","","","","","",""
"","","","","5bbc4bd1f83ac60001fe665e","bdp_wmem","Mon Mar 13 2023 12:05:34 GMT-0700 (Pacific Daylight Time)","623241","Match,No Match","html-keyboard-response","41","176918","0.0-7.0-1.1","","null","","<div class='trialBorder'><div class='vertical-center'><img src='img/fixation2_sml.jpg'</img></div></div>","null","FIX","","","","","","","","","","",""
"","","","","5bbc4bd1f83ac60001fe665e","bdp_wmem","Mon Mar 13 2023 12:05:34 GMT-0700 (Pacific Daylight Time)","623241","Match,No Match","html-keyboard-response","42","178425","0.0-7.0-2.1","","null","","<div class='trialBorder'><div class='vertical-center'><img style='vertical-align:center; align:center' src='img/fixation2_sml.jpg'></div><div class='arrayDiv1'><div class='tc'><img class='introPic' src='trustrating_stim/white_mw078.bmp'><br><font color='green'><strong>Share</strong></font></div></div></div>","null","ARRAY","1","trustrating_stim/white_mw078.bmp","1","noMatchFace","i","1500","","","","",""
"","","","","5bbc4bd1f83ac60001fe665e","bdp_wmem","Mon Mar 13 2023 12:05:34 GMT-0700 (Pacific Daylight Time)","623241","Match,No Match","html-keyboard-response","43","182438","0.0-7.0-3.1","","null","","<div class='trialBorder'><div class='vertical-center'><img src='img/fixation2_sml.jpg'</img></div></div>","null","DELAY","","","","","","","","","","",""
"","","","","5bbc4bd1f83ac60001fe665e","bdp_wmem","Mon Mar 13 2023 12:05:34 GMT-0700 (Pacific Daylight Time)","623241","Match,No Match","html-keyboard-response","44","183810","0.0-7.0-4.1","","1372","","<div class='trialBorder'><div class='targDiv'><div class='tc'><img class='introPic' src='trustrating_stim/white_mw042.bmp'><br><font color='green'><strong>Share</strong></font></div></div><div class='respDiv'><div class='respDivL'>Match<br>(e)</div><div class='respDivR'>No Match<br>(i)</div></div></div>","i","TARGET","1","trustrating_stim/white_mw078.bmp","1","noMatchFace","i","1500","trustrating_stim/white_mw042.bmp","green","Share","REAL","1"
"","","","","5bbc4bd1f83ac60001fe665e","bdp_wmem","Mon Mar 13 2023 12:05:34 GMT-0700 (Pacific Daylight Time)","623241","Match,No Match","html-keyboard-response","45","184318","0.0-7.0-5.1","","null","","<div class='trialBorder'><div class='vertical-center'><img src='img/correct.jpg'></div><div class='respDiv'><div class='respDivL'>Match<br>(e)</div><div class='respDivR'><font style='color:orange'>No Match<br>(i)</font></div></div></div>","null","FEEDBACK","","","","","","","","","","",""
"","","","","5bbc4bd1f83ac60001fe665e","bdp_wmem","Mon Mar 13 2023 12:05:34 GMT-0700 (Pacific Daylight Time)","623241","Match,No Match","html-keyboard-response","46","184820","0.0-7.0-1.2","","null","","<div class='trialBorder'><div class='vertical-center'><img src='img/fixation2_sml.jpg'</img></div></div>","null","FIX","","","","","","","","","","",""
"","","","","5bbc4bd1f83ac60001fe665e","bdp_wmem","Mon Mar 13 2023 12:05:34 GMT-0700 (Pacific Daylight Time)","623241","Match,No Match","html-keyboard-response","47","189332","0.0-7.0-2.2","","null","","<div class='trialBorder'><div class='vertical-center'><img style='vertical-align:center; align:center' src='img/fixation2_sml.jpg'></div><div class='arrayDiv3'><div class='tl'><img class='introPic' src='trustrating_stim/white_mw091.bmp'><br><font color='red'><strong>Keep</strong></font></div><div class='tc'><img class='introPic' src='trustrating_stim/white_mw040.bmp'><br><font color='green'><strong>Share</strong></font></div><div class='tr'><img class='introPic' src='trustrating_stim/white_mw013.bmp'><br><font color='green'><strong>Share</strong></font></div></div></div>","null","ARRAY","3","trustrating_stim/white_mw091.bmp,trustrating_stim/white_mw040.bmp,trustrating_stim/white_mw013.bmp","0,1,1","noMatchOutcome","i","4500","","","","",""
"","","","","5bbc4bd1f83ac60001fe665e","bdp_wmem","Mon Mar 13 2023 12:05:34 GMT-0700 (Pacific Daylight Time)","623241","Match,No Match","html-keyboard-response","48","193341","0.0-7.0-3.2","","null","","<div class='trialBorder'><div class='vertical-center'><img src='img/fixation2_sml.jpg'</img></div></div>","null","DELAY","","","","","","","","","","",""
"","","","","5bbc4bd1f83ac60001fe665e","bdp_wmem","Mon Mar 13 2023 12:05:34 GMT-0700 (Pacific Daylight Time)","623241","Match,No Match","html-keyboard-response","49","196491","0.0-7.0-4.2","","3150","","<div class='trialBorder'><div class='targDiv'><div class='tc'><img class='introPic' src='trustrating_stim/white_mw040.bmp'><br><font color='red'><strong>Keep</strong></font></div></div><div class='respDiv'><div class='respDivL'>Match<br>(e)</div><div class='respDivR'>No Match<br>(i)</div></div></div>","i","TARGET","3","trustrating_stim/white_mw091.bmp,trustrating_stim/white_mw040.bmp,trustrating_stim/white_mw013.bmp","0,1,1","noMatchOutcome","i","4500","trustrating_stim/white_mw040.bmp","red","Keep","REAL","1"
"","","","","5bbc4bd1f83ac60001fe665e","bdp_wmem","Mon Mar 13 2023 12:05:34 GMT-0700 (Pacific Daylight Time)","623241","Match,No Match","html-keyboard-response","50","196991","0.0-7.0-5.2","","null","","<div class='trialBorder'><div class='vertical-center'><img src='img/correct.jpg'></div><div class='respDiv'><div class='respDivL'>Match<br>(e)</div><div class='respDivR'><font style='color:orange'>No Match<br>(i)</font></div></div></div>","null","FEEDBACK","","","","","","","","","","",""
"","","","","5bbc4bd1f83ac60001fe665e","bdp_wmem","Mon Mar 13 2023 12:05:34 GMT-0700 (Pacific Daylight Time)","623241","Match,No Match","html-keyboard-response","51","197494","0.0-7.0-1.3","","null","","<div class='trialBorder'><div class='vertical-center'><img src='img/fixation2_sml.jpg'</img></div></div>","null","FIX","","","","","","","","","","",""
"","","","","5bbc4bd1f83ac60001fe665e","bdp_wmem","Mon Mar 13 2023 12:05:34 GMT-0700 (Pacific Daylight Time)","623241","Match,No Match","html-keyboard-response","52","200499","0.0-7.0-2.3","","null","","<div class='trialBorder'><div class='vertical-center'><img style='vertical-align:center; align:center' src='img/fixation2_sml.jpg'></div><div class='arrayDiv2'><div class='tl'><img class='introPic' src='trustrating_stim/white_mw091.bmp'><br><font color='green'><strong>Share</strong></font></div><div class='tr'><img class='introPic' src='trustrating_stim/white_mw078.bmp'><br><font color='red'><strong>Keep</strong></font></div></div></div>","null","ARRAY","2","trustrating_stim/white_mw091.bmp,trustrating_stim/white_mw078.bmp","1,0","Match","e","3000","","","","",""
"","","","","5bbc4bd1f83ac60001fe665e","bdp_wmem","Mon Mar 13 2023 12:05:34 GMT-0700 (Pacific Daylight Time)","623241","Match,No Match","html-keyboard-response","53","204507","0.0-7.0-3.3","","null","","<div class='trialBorder'><div class='vertical-center'><img src='img/fixation2_sml.jpg'</img></div></div>","null","DELAY","","","","","","","","","","",""
"","","","","5bbc4bd1f83ac60001fe665e","bdp_wmem","Mon Mar 13 2023 12:05:34 GMT-0700 (Pacific Daylight Time)","623241","Match,No Match","html-keyboard-response","54","205603","0.0-7.0-4.3","","1094","","<div class='trialBorder'><div class='targDiv'><div class='tc'><img class='introPic' src='trustrating_stim/white_mw091.bmp'><br><font color='green'><strong>Share</strong></font></div></div><div class='respDiv'><div class='respDivL'>Match<br>(e)</div><div class='respDivR'>No Match<br>(i)</div></div></div>","e","TARGET","2","trustrating_stim/white_mw091.bmp,trustrating_stim/white_mw078.bmp","1,0","Match","e","3000","trustrating_stim/white_mw091.bmp","green","Share","REAL","1"
"","","","","5bbc4bd1f83ac60001fe665e","bdp_wmem","Mon Mar 13 2023 12:05:34 GMT-0700 (Pacific Daylight Time)","623241","Match,No Match","html-keyboard-response","55","206120","0.0-7.0-5.3","","null","","<div class='trialBorder'><div class='vertical-center'><img src='img/correct.jpg'></div><div class='respDiv'><div class='respDivL'><font style='color:orange'>Match<br>(e)</font></div><div class='respDivR'>No Match<br>(i)</div></div></div>","null","FEEDBACK","","","","","","","","","","",""
"","","","","5bbc4bd1f83ac60001fe665e","bdp_wmem","Mon Mar 13 2023 12:05:34 GMT-0700 (Pacific Daylight Time)","623241","Match,No Match","html-keyboard-response","56","206626","0.0-7.0-1.4","","null","","<div class='trialBorder'><div class='vertical-center'><img src='img/fixation2_sml.jpg'</img></div></div>","null","FIX","","","","","","","","","","",""
"","","","","5bbc4bd1f83ac60001fe665e","bdp_wmem","Mon Mar 13 2023 12:05:34 GMT-0700 (Pacific Daylight Time)","623241","Match,No Match","html-keyboard-response","57","209641","0.0-7.0-2.4","","null","","<div class='trialBorder'><div class='vertical-center'><img style='vertical-align:center; align:center' src='img/fixation2_sml.jpg'></div><div class='arrayDiv2'><div class='tl'><img class='introPic' src='trustrating_stim/white_mw092.bmp'><br><font color='green'><strong>Share</strong></font></div><div class='tr'><img class='introPic' src='trustrating_stim/white_mw040.bmp'><br><font color='red'><strong>Keep</strong></font></div></div></div>","null","ARRAY","2","trustrating_stim/white_mw092.bmp,trustrating_stim/white_mw040.bmp","1,0","noMatchFace","i","3000","","","","",""
"","","","","5bbc4bd1f83ac60001fe665e","bdp_wmem","Mon Mar 13 2023 12:05:34 GMT-0700 (Pacific Daylight Time)","623241","Match,No Match","html-keyboard-response","58","213648","0.0-7.0-3.4","","null","","<div class='trialBorder'><div class='vertical-center'><img src='img/fixation2_sml.jpg'</img></div></div>","null","DELAY","","","","","","","","","","",""
"","","","","5bbc4bd1f83ac60001fe665e","bdp_wmem","Mon Mar 13 2023 12:05:34 GMT-0700 (Pacific Daylight Time)","623241","Match,No Match","html-keyboard-response","59","214835","0.0-7.0-4.4","","1184","","<div class='trialBorder'><div class='targDiv'><div class='tc'><img class='introPic' src='trustrating_stim/white_mw038.bmp'><br><font color='red'><strong>Keep</strong></font></div></div><div class='respDiv'><div class='respDivL'>Match<br>(e)</div><div class='respDivR'>No Match<br>(i)</div></div></div>","i","TARGET","2","trustrating_stim/white_mw092.bmp,trustrating_stim/white_mw040.bmp","1,0","noMatchFace","i","3000","trustrating_stim/white_mw038.bmp","red","Keep","REAL","1"
"","","","","5bbc4bd1f83ac60001fe665e","bdp_wmem","Mon Mar 13 2023 12:05:34 GMT-0700 (Pacific Daylight Time)","623241","Match,No Match","html-keyboard-response","60","215338","0.0-7.0-5.4","","null","","<div class='trialBorder'><div class='vertical-center'><img src='img/correct.jpg'></div><div class='respDiv'><div class='respDivL'>Match<br>(e)</div><div class='respDivR'><font style='color:orange'>No Match<br>(i)</font></div></div></div>","null","FEEDBACK","","","","","","","","","","",""
"","","","","5bbc4bd1f83ac60001fe665e","bdp_wmem","Mon Mar 13 2023 12:05:34 GMT-0700 (Pacific Daylight Time)","623241","Match,No Match","html-keyboard-response","61","215842","0.0-7.0-1.5","","null","","<div class='trialBorder'><div class='vertical-center'><img src='img/fixation2_sml.jpg'</img></div></div>","null","FIX","","","","","","","","","","",""
"","","","","5bbc4bd1f83ac60001fe665e","bdp_wmem","Mon Mar 13 2023 12:05:34 GMT-0700 (Pacific Daylight Time)","623241","Match,No Match","html-keyboard-response","62","220349","0.0-7.0-2.5","","null","","<div class='trialBorder'><div class='vertical-center'><img style='vertical-align:center; align:center' src='img/fixation2_sml.jpg'></div><div class='arrayDiv3'><div class='tl'><img class='introPic' src='trustrating_stim/white_mw040.bmp'><br><font color='green'><strong>Share</strong></font></div><div class='tc'><img class='introPic' src='trustrating_stim/white_mw070.bmp'><br><font color='red'><strong>Keep</strong></font></div><div class='tr'><img class='introPic' src='trustrating_stim/white_mw078.bmp'><br><font color='green'><strong>Share</strong></font></div></div></div>","null","ARRAY","3","trustrating_stim/white_mw040.bmp,trustrating_stim/white_mw070.bmp,trustrating_stim/white_mw078.bmp","1,0,1","noMatchFace","i","4500","","","","",""
"","","","","5bbc4bd1f83ac60001fe665e","bdp_wmem","Mon Mar 13 2023 12:05:34 GMT-0700 (Pacific Daylight Time)","623241","Match,No Match","html-keyboard-response","63","224362","0.0-7.0-3.5","","null","","<div class='trialBorder'><div class='vertical-center'><img src='img/fixation2_sml.jpg'</img></div></div>","null","DELAY","","","","","","","","","","",""
"","","","","5bbc4bd1f83ac60001fe665e","bdp_wmem","Mon Mar 13 2023 12:05:34 GMT-0700 (Pacific Daylight Time)","623241","Match,No Match","html-keyboard-response","64","226014","0.0-7.0-4.5","","1650","","<div class='trialBorder'><div class='targDiv'><div class='tc'><img class='introPic' src='trustrating_stim/white_mw092.bmp'><br><font color='green'><strong>Share</strong></font></div></div><div class='respDiv'><div class='respDivL'>Match<br>(e)</div><div class='respDivR'>No Match<br>(i)</div></div></div>","i","TARGET","3","trustrating_stim/white_mw040.bmp,trustrating_stim/white_mw070.bmp,trustrating_stim/white_mw078.bmp","1,0,1","noMatchFace","i","4500","trustrating_stim/white_mw092.bmp","green","Share","REAL","1"
"","","","","5bbc4bd1f83ac60001fe665e","bdp_wmem","Mon Mar 13 2023 12:05:34 GMT-0700 (Pacific Daylight Time)","623241","Match,No Match","html-keyboard-response","65","226529","0.0-7.0-5.5","","null","","<div class='trialBorder'><div class='vertical-center'><img src='img/correct.jpg'></div><div class='respDiv'><div class='respDivL'>Match<br>(e)</div><div class='respDivR'><font style='color:orange'>No Match<br>(i)</font></div></div></div>","null","FEEDBACK","","","","","","","","","","",""
"","","","","5bbc4bd1f83ac60001fe665e","bdp_wmem","Mon Mar 13 2023 12:05:34 GMT-0700 (Pacific Daylight Time)","623241","Match,No Match","html-keyboard-response","66","227031","0.0-7.0-1.6","","null","","<div class='trialBorder'><div class='vertical-center'><img src='img/fixation2_sml.jpg'</img></div></div>","null","FIX","","","","","","","","","","",""
"","","","","5bbc4bd1f83ac60001fe665e","bdp_wmem","Mon Mar 13 2023 12:05:34 GMT-0700 (Pacific Daylight Time)","623241","Match,No Match","html-keyboard-response","67","231549","0.0-7.0-2.6","","null","","<div class='trialBorder'><div class='vertical-center'><img style='vertical-align:center; align:center' src='img/fixation2_sml.jpg'></div><div class='arrayDiv3'><div class='tl'><img class='introPic' src='trustrating_stim/white_mw013.bmp'><br><font color='red'><strong>Keep</strong></font></div><div class='tc'><img class='introPic' src='trustrating_stim/white_mw042.bmp'><br><font color='green'><strong>Share</strong></font></div><div class='tr'><img class='introPic' src='trustrating_stim/white_mw010.bmp'><br><font color='red'><strong>Keep</strong></font></div></div></div>","null","ARRAY","3","trustrating_stim/white_mw013.bmp,trustrating_stim/white_mw042.bmp,trustrating_stim/white_mw010.bmp","0,1,0","noMatchFace","i","4500","","","","",""
"","","","","5bbc4bd1f83ac60001fe665e","bdp_wmem","Mon Mar 13 2023 12:05:34 GMT-0700 (Pacific Daylight Time)","623241","Match,No Match","html-keyboard-response","68","235563","0.0-7.0-3.6","","null","","<div class='trialBorder'><div class='vertical-center'><img src='img/fixation2_sml.jpg'</img></div></div>","null","DELAY","","","","","","","","","","",""
"","","","","5bbc4bd1f83ac60001fe665e","bdp_wmem","Mon Mar 13 2023 12:05:34 GMT-0700 (Pacific Daylight Time)","623241","Match,No Match","html-keyboard-response","69","236916","0.0-7.0-4.6","","1351","","<div class='trialBorder'><div class='targDiv'><div class='tc'><img class='introPic' src='trustrating_stim/white_mw070.bmp'><br><font color='green'><strong>Share</strong></font></div></div><div class='respDiv'><div class='respDivL'>Match<br>(e)</div><div class='respDivR'>No Match<br>(i)</div></div></div>","i","TARGET","3","trustrating_stim/white_mw013.bmp,trustrating_stim/white_mw042.bmp,trustrating_stim/white_mw010.bmp","0,1,0","noMatchFace","i","4500","trustrating_stim/white_mw070.bmp","green","Share","REAL","1"
"","","","","5bbc4bd1f83ac60001fe665e","bdp_wmem","Mon Mar 13 2023 12:05:34 GMT-0700 (Pacific Daylight Time)","623241","Match,No Match","html-keyboard-response","70","237433","0.0-7.0-5.6","","null","","<div class='trialBorder'><div class='vertical-center'><img src='img/correct.jpg'></div><div class='respDiv'><div class='respDivL'>Match<br>(e)</div><div class='respDivR'><font style='color:orange'>No Match<br>(i)</font></div></div></div>","null","FEEDBACK","","","","","","","","","","",""
"","","","","5bbc4bd1f83ac60001fe665e","bdp_wmem","Mon Mar 13 2023 12:05:34 GMT-0700 (Pacific Daylight Time)","623241","Match,No Match","html-keyboard-response","71","237937","0.0-7.0-1.7","","null","","<div class='trialBorder'><div class='vertical-center'><img src='img/fixation2_sml.jpg'</img></div></div>","null","FIX","","","","","","","","","","",""
"","","","","5bbc4bd1f83ac60001fe665e","bdp_wmem","Mon Mar 13 2023 12:05:34 GMT-0700 (Pacific Daylight Time)","623241","Match,No Match","html-keyboard-response","72","240948","0.0-7.0-2.7","","null","","<div class='trialBorder'><div class='vertical-center'><img style='vertical-align:center; align:center' src='img/fixation2_sml.jpg'></div><div class='arrayDiv2'><div class='tl'><img class='introPic' src='trustrating_stim/white_mw078.bmp'><br><font color='red'><strong>Keep</strong></font></div><div class='tr'><img class='introPic' src='trustrating_stim/white_mw003.bmp'><br><font color='green'><strong>Share</strong></font></div></div></div>","null","ARRAY","2","trustrating_stim/white_mw078.bmp,trustrating_stim/white_mw003.bmp","0,1","noMatchOutcome","i","3000","","","","",""
"","","","","5bbc4bd1f83ac60001fe665e","bdp_wmem","Mon Mar 13 2023 12:05:34 GMT-0700 (Pacific Daylight Time)","623241","Match,No Match","html-keyboard-response","73","244960","0.0-7.0-3.7","","null","","<div class='trialBorder'><div class='vertical-center'><img src='img/fixation2_sml.jpg'</img></div></div>","null","DELAY","","","","","","","","","","",""
"","","","","5bbc4bd1f83ac60001fe665e","bdp_wmem","Mon Mar 13 2023 12:05:34 GMT-0700 (Pacific Daylight Time)","623241","Match,No Match","html-keyboard-response","74","246185","0.0-7.0-4.7","","1223","","<div class='trialBorder'><div class='targDiv'><div class='tc'><img class='introPic' src='trustrating_stim/white_mw003.bmp'><br><font color='red'><strong>Keep</strong></font></div></div><div class='respDiv'><div class='respDivL'>Match<br>(e)</div><div class='respDivR'>No Match<br>(i)</div></div></div>","i","TARGET","2","trustrating_stim/white_mw078.bmp,trustrating_stim/white_mw003.bmp","0,1","noMatchOutcome","i","3000","trustrating_stim/white_mw003.bmp","red","Keep","REAL","1"
"","","","","5bbc4bd1f83ac60001fe665e","bdp_wmem","Mon Mar 13 2023 12:05:34 GMT-0700 (Pacific Daylight Time)","623241","Match,No Match","html-keyboard-response","75","246688","0.0-7.0-5.7","","null","","<div class='trialBorder'><div class='vertical-center'><img src='img/correct.jpg'></div><div class='respDiv'><div class='respDivL'>Match<br>(e)</div><div class='respDivR'><font style='color:orange'>No Match<br>(i)</font></div></div></div>","null","FEEDBACK","","","","","","","","","","",""
"","","","","5bbc4bd1f83ac60001fe665e","bdp_wmem","Mon Mar 13 2023 12:05:34 GMT-0700 (Pacific Daylight Time)","623241","Match,No Match","html-keyboard-response","76","247206","0.0-7.0-1.8","","null","","<div class='trialBorder'><div class='vertical-center'><img src='img/fixation2_sml.jpg'</img></div></div>","null","FIX","","","","","","","","","","",""
"","","","","5bbc4bd1f83ac60001fe665e","bdp_wmem","Mon Mar 13 2023 12:05:34 GMT-0700 (Pacific Daylight Time)","623241","Match,No Match","html-keyboard-response","77","250223","0.0-7.0-2.8","","null","","<div class='trialBorder'><div class='vertical-center'><img style='vertical-align:center; align:center' src='img/fixation2_sml.jpg'></div><div class='arrayDiv2'><div class='tl'><img class='introPic' src='trustrating_stim/white_mw003.bmp'><br><font color='red'><strong>Keep</strong></font></div><div class='tr'><img class='introPic' src='trustrating_stim/white_mw038.bmp'><br><font color='green'><strong>Share</strong></font></div></div></div>","null","ARRAY","2","trustrating_stim/white_mw003.bmp,trustrating_stim/white_mw038.bmp","0,1","noMatchFace","i","3000","","","","",""
"","","","","5bbc4bd1f83ac60001fe665e","bdp_wmem","Mon Mar 13 2023 12:05:34 GMT-0700 (Pacific Daylight Time)","623241","Match,No Match","html-keyboard-response","78","254231","0.0-7.0-3.8","","null","","<div class='trialBorder'><div class='vertical-center'><img src='img/fixation2_sml.jpg'</img></div></div>","null","DELAY","","","","","","","","","","",""
"","","","","5bbc4bd1f83ac60001fe665e","bdp_wmem","Mon Mar 13 2023 12:05:34 GMT-0700 (Pacific Daylight Time)","623241","Match,No Match","html-keyboard-response","79","255224","0.0-7.0-4.8","","992","","<div class='trialBorder'><div class='targDiv'><div class='tc'><img class='introPic' src='trustrating_stim/white_mw078.bmp'><br><font color='red'><strong>Keep</strong></font></div></div><div class='respDiv'><div class='respDivL'>Match<br>(e)</div><div class='respDivR'>No Match<br>(i)</div></div></div>","i","TARGET","2","trustrating_stim/white_mw003.bmp,trustrating_stim/white_mw038.bmp","0,1","noMatchFace","i","3000","trustrating_stim/white_mw078.bmp","red","Keep","REAL","1"
"","","","","5bbc4bd1f83ac60001fe665e","bdp_wmem","Mon Mar 13 2023 12:05:34 GMT-0700 (Pacific Daylight Time)","623241","Match,No Match","html-keyboard-response","80","255732","0.0-7.0-5.8","","null","","<div class='trialBorder'><div class='vertical-center'><img src='img/correct.jpg'></div><div class='respDiv'><div class='respDivL'>Match<br>(e)</div><div class='respDivR'><font style='color:orange'>No Match<br>(i)</font></div></div></div>","null","FEEDBACK","","","","","","","","","","",""
"","","","","5bbc4bd1f83ac60001fe665e","bdp_wmem","Mon Mar 13 2023 12:05:34 GMT-0700 (Pacific Daylight Time)","623241","Match,No Match","html-keyboard-response","81","256237","0.0-7.0-1.9","","null","","<div class='trialBorder'><div class='vertical-center'><img src='img/fixation2_sml.jpg'</img></div></div>","null","FIX","","","","","","","","","","",""
"","","","","5bbc4bd1f83ac60001fe665e","bdp_wmem","Mon Mar 13 2023 12:05:34 GMT-0700 (Pacific Daylight Time)","623241","Match,No Match","html-keyboard-response","82","260751","0.0-7.0-2.9","","null","","<div class='trialBorder'><div class='vertical-center'><img style='vertical-align:center; align:center' src='img/fixation2_sml.jpg'></div><div class='arrayDiv3'><div class='tl'><img class='introPic' src='trustrating_stim/white_mw012.bmp'><br><font color='red'><strong>Keep</strong></font></div><div class='tc'><img class='introPic' src='trustrating_stim/white_mw010.bmp'><br><font color='green'><strong>Share</strong></font></div><div class='tr'><img class='introPic' src='trustrating_stim/white_mw003.bmp'><br><font color='green'><strong>Share</strong></font></div></div></div>","null","ARRAY","3","trustrating_stim/white_mw012.bmp,trustrating_stim/white_mw010.bmp,trustrating_stim/white_mw003.bmp","0,1,1","Match","e","4500","","","","",""
"","","","","5bbc4bd1f83ac60001fe665e","bdp_wmem","Mon Mar 13 2023 12:05:34 GMT-0700 (Pacific Daylight Time)","623241","Match,No Match","html-keyboard-response","83","264767","0.0-7.0-3.9","","null","","<div class='trialBorder'><div class='vertical-center'><img src='img/fixation2_sml.jpg'</img></div></div>","null","DELAY","","","","","","","","","","",""
"","","","","5bbc4bd1f83ac60001fe665e","bdp_wmem","Mon Mar 13 2023 12:05:34 GMT-0700 (Pacific Daylight Time)","623241","Match,No Match","html-keyboard-response","84","266683","0.0-7.0-4.9","","1916","","<div class='trialBorder'><div class='targDiv'><div class='tc'><img class='introPic' src='trustrating_stim/white_mw003.bmp'><br><font color='green'><strong>Share</strong></font></div></div><div class='respDiv'><div class='respDivL'>Match<br>(e)</div><div class='respDivR'>No Match<br>(i)</div></div></div>","e","TARGET","3","trustrating_stim/white_mw012.bmp,trustrating_stim/white_mw010.bmp,trustrating_stim/white_mw003.bmp","0,1,1","Match","e","4500","trustrating_stim/white_mw003.bmp","green","Share","REAL","1"
"","","","","5bbc4bd1f83ac60001fe665e","bdp_wmem","Mon Mar 13 2023 12:05:34 GMT-0700 (Pacific Daylight Time)","623241","Match,No Match","html-keyboard-response","85","267185","0.0-7.0-5.9","","null","","<div class='trialBorder'><div class='vertical-center'><img src='img/correct.jpg'></div><div class='respDiv'><div class='respDivL'><font style='color:orange'>Match<br>(e)</font></div><div class='respDivR'>No Match<br>(i)</div></div></div>","null","FEEDBACK","","","","","","","","","","",""
"","","","","5bbc4bd1f83ac60001fe665e","bdp_wmem","Mon Mar 13 2023 12:05:34 GMT-0700 (Pacific Daylight Time)","623241","Match,No Match","html-keyboard-response","86","267692","0.0-7.0-1.10","","null","","<div class='trialBorder'><div class='vertical-center'><img src='img/fixation2_sml.jpg'</img></div></div>","null","FIX","","","","","","","","","","",""
"","","","","5bbc4bd1f83ac60001fe665e","bdp_wmem","Mon Mar 13 2023 12:05:34 GMT-0700 (Pacific Daylight Time)","623241","Match,No Match","html-keyboard-response","87","270702","0.0-7.0-2.10","","null","","<div class='trialBorder'><div class='vertical-center'><img style='vertical-align:center; align:center' src='img/fixation2_sml.jpg'></div><div class='arrayDiv2'><div class='tl'><img class='introPic' src='trustrating_stim/white_mw040.bmp'><br><font color='red'><strong>Keep</strong></font></div><div class='tr'><img class='introPic' src='trustrating_stim/white_mw003.bmp'><br><font color='green'><strong>Share</strong></font></div></div></div>","null","ARRAY","2","trustrating_stim/white_mw040.bmp,trustrating_stim/white_mw003.bmp","0,1","noMatchFace","i","3000","","","","",""
"","","","","5bbc4bd1f83ac60001fe665e","bdp_wmem","Mon Mar 13 2023 12:05:34 GMT-0700 (Pacific Daylight Time)","623241","Match,No Match","html-keyboard-response","88","274711","0.0-7.0-3.10","","null","","<div class='trialBorder'><div class='vertical-center'><img src='img/fixation2_sml.jpg'</img></div></div>","null","DELAY","","","","","","","","","","",""
"","","","","5bbc4bd1f83ac60001fe665e","bdp_wmem","Mon Mar 13 2023 12:05:34 GMT-0700 (Pacific Daylight Time)","623241","Match,No Match","html-keyboard-response","89","275722","0.0-7.0-4.10","","1010","","<div class='trialBorder'><div class='targDiv'><div class='tc'><img class='introPic' src='trustrating_stim/white_mw078.bmp'><br><font color='red'><strong>Keep</strong></font></div></div><div class='respDiv'><div class='respDivL'>Match<br>(e)</div><div class='respDivR'>No Match<br>(i)</div></div></div>","i","TARGET","2","trustrating_stim/white_mw040.bmp,trustrating_stim/white_mw003.bmp","0,1","noMatchFace","i","3000","trustrating_stim/white_mw078.bmp","red","Keep","REAL","1"
"","","","","5bbc4bd1f83ac60001fe665e","bdp_wmem","Mon Mar 13 2023 12:05:34 GMT-0700 (Pacific Daylight Time)","623241","Match,No Match","html-keyboard-response","90","276226","0.0-7.0-5.10","","null","","<div class='trialBorder'><div class='vertical-center'><img src='img/correct.jpg'></div><div class='respDiv'><div class='respDivL'>Match<br>(e)</div><div class='respDivR'><font style='color:orange'>No Match<br>(i)</font></div></div></div>","null","FEEDBACK","","","","","","","","","","",""
"","","","","5bbc4bd1f83ac60001fe665e","bdp_wmem","Mon Mar 13 2023 12:05:34 GMT-0700 (Pacific Daylight Time)","623241","Match,No Match","html-keyboard-response","91","276727","0.0-7.0-1.11","","null","","<div class='trialBorder'><div class='vertical-center'><img src='img/fixation2_sml.jpg'</img></div></div>","null","FIX","","","","","","","","","","",""
"","","","","5bbc4bd1f83ac60001fe665e","bdp_wmem","Mon Mar 13 2023 12:05:34 GMT-0700 (Pacific Daylight Time)","623241","Match,No Match","html-keyboard-response","92","279734","0.0-7.0-2.11","","null","","<div class='trialBorder'><div class='vertical-center'><img style='vertical-align:center; align:center' src='img/fixation2_sml.jpg'></div><div class='arrayDiv2'><div class='tl'><img class='introPic' src='trustrating_stim/white_mw012.bmp'><br><font color='red'><strong>Keep</strong></font></div><div class='tr'><img class='introPic' src='trustrating_stim/white_mw078.bmp'><br><font color='green'><strong>Share</strong></font></div></div></div>","null","ARRAY","2","trustrating_stim/white_mw012.bmp,trustrating_stim/white_mw078.bmp","0,1","noMatchOutcome","i","3000","","","","",""
"","","","","5bbc4bd1f83ac60001fe665e","bdp_wmem","Mon Mar 13 2023 12:05:34 GMT-0700 (Pacific Daylight Time)","623241","Match,No Match","html-keyboard-response","93","283742","0.0-7.0-3.11","","null","","<div class='trialBorder'><div class='vertical-center'><img src='img/fixation2_sml.jpg'</img></div></div>","null","DELAY","","","","","","","","","","",""
"","","","","5bbc4bd1f83ac60001fe665e","bdp_wmem","Mon Mar 13 2023 12:05:34 GMT-0700 (Pacific Daylight Time)","623241","Match,No Match","html-keyboard-response","94","284851","0.0-7.0-4.11","","1109","","<div class='trialBorder'><div class='targDiv'><div class='tc'><img class='introPic' src='trustrating_stim/white_mw012.bmp'><br><font color='green'><strong>Share</strong></font></div></div><div class='respDiv'><div class='respDivL'>Match<br>(e)</div><div class='respDivR'>No Match<br>(i)</div></div></div>","i","TARGET","2","trustrating_stim/white_mw012.bmp,trustrating_stim/white_mw078.bmp","0,1","noMatchOutcome","i","3000","trustrating_stim/white_mw012.bmp","green","Share","REAL","1"
"","","","","5bbc4bd1f83ac60001fe665e","bdp_wmem","Mon Mar 13 2023 12:05:34 GMT-0700 (Pacific Daylight Time)","623241","Match,No Match","html-keyboard-response","95","285353","0.0-7.0-5.11","","null","","<div class='trialBorder'><div class='vertical-center'><img src='img/correct.jpg'></div><div class='respDiv'><div class='respDivL'>Match<br>(e)</div><div class='respDivR'><font style='color:orange'>No Match<br>(i)</font></div></div></div>","null","FEEDBACK","","","","","","","","","","",""
"","","","","5bbc4bd1f83ac60001fe665e","bdp_wmem","Mon Mar 13 2023 12:05:34 GMT-0700 (Pacific Daylight Time)","623241","Match,No Match","html-keyboard-response","96","285860","0.0-7.0-1.12","","null","","<div class='trialBorder'><div class='vertical-center'><img src='img/fixation2_sml.jpg'</img></div></div>","null","FIX","","","","","","","","","","",""
"","","","","5bbc4bd1f83ac60001fe665e","bdp_wmem","Mon Mar 13 2023 12:05:34 GMT-0700 (Pacific Daylight Time)","623241","Match,No Match","html-keyboard-response","97","290364","0.0-7.0-2.12","","null","","<div class='trialBorder'><div class='vertical-center'><img style='vertical-align:center; align:center' src='img/fixation2_sml.jpg'></div><div class='arrayDiv3'><div class='tl'><img class='introPic' src='trustrating_stim/white_mw070.bmp'><br><font color='red'><strong>Keep</strong></font></div><div class='tc'><img class='introPic' src='trustrating_stim/white_mw040.bmp'><br><font color='red'><strong>Keep</strong></font></div><div class='tr'><img class='introPic' src='trustrating_stim/white_mw078.bmp'><br><font color='green'><strong>Share</strong></font></div></div></div>","null","ARRAY","3","trustrating_stim/white_mw070.bmp,trustrating_stim/white_mw040.bmp,trustrating_stim/white_mw078.bmp","0,0,1","Match","e","4500","","","","",""
"","","","","5bbc4bd1f83ac60001fe665e","bdp_wmem","Mon Mar 13 2023 12:05:34 GMT-0700 (Pacific Daylight Time)","623241","Match,No Match","html-keyboard-response","98","294377","0.0-7.0-3.12","","null","","<div class='trialBorder'><div class='vertical-center'><img src='img/fixation2_sml.jpg'</img></div></div>","null","DELAY","","","","","","","","","","",""
"","","","","5bbc4bd1f83ac60001fe665e","bdp_wmem","Mon Mar 13 2023 12:05:34 GMT-0700 (Pacific Daylight Time)","623241","Match,No Match","html-keyboard-response","99","297405","0.0-7.0-4.12","","3028","","<div class='trialBorder'><div class='targDiv'><div class='tc'><img class='introPic' src='trustrating_stim/white_mw070.bmp'><br><font color='red'><strong>Keep</strong></font></div></div><div class='respDiv'><div class='respDivL'>Match<br>(e)</div><div class='respDivR'>No Match<br>(i)</div></div></div>","i","TARGET","3","trustrating_stim/white_mw070.bmp,trustrating_stim/white_mw040.bmp,trustrating_stim/white_mw078.bmp","0,0,1","Match","e","4500","trustrating_stim/white_mw070.bmp","red","Keep","REAL","0"
"","","","","5bbc4bd1f83ac60001fe665e","bdp_wmem","Mon Mar 13 2023 12:05:34 GMT-0700 (Pacific Daylight Time)","623241","Match,No Match","html-keyboard-response","100","297915","0.0-7.0-5.12","","null","","<div class='trialBorder'><div class='vertical-center'><img src='img/error.jpg'></div><div class='respDiv'><div class='respDivL'>Match<br>(e)</div><div class='respDivR'><font style='color:orange'>No Match<br>(i)</font></div></div></div>","null","FEEDBACK","","","","","","","","","","",""
"","","","","5bbc4bd1f83ac60001fe665e","bdp_wmem","Mon Mar 13 2023 12:05:34 GMT-0700 (Pacific Daylight Time)","623241","Match,No Match","html-keyboard-response","101","298428","0.0-7.0-1.13","","null","","<div class='trialBorder'><div class='vertical-center'><img src='img/fixation2_sml.jpg'</img></div></div>","null","FIX","","","","","","","","","","",""
"","","","","5bbc4bd1f83ac60001fe665e","bdp_wmem","Mon Mar 13 2023 12:05:34 GMT-0700 (Pacific Daylight Time)","623241","Match,No Match","html-keyboard-response","102","301430","0.0-7.0-2.13","","null","","<div class='trialBorder'><div class='vertical-center'><img style='vertical-align:center; align:center' src='img/fixation2_sml.jpg'></div><div class='arrayDiv2'><div class='tl'><img class='introPic' src='trustrating_stim/white_mw092.bmp'><br><font color='red'><strong>Keep</strong></font></div><div class='tr'><img class='introPic' src='trustrating_stim/white_mw042.bmp'><br><font color='green'><strong>Share</strong></font></div></div></div>","null","ARRAY","2","trustrating_stim/white_mw092.bmp,trustrating_stim/white_mw042.bmp","0,1","Match","e","3000","","","","",""
"","","","","5bbc4bd1f83ac60001fe665e","bdp_wmem","Mon Mar 13 2023 12:05:34 GMT-0700 (Pacific Daylight Time)","623241","Match,No Match","html-keyboard-response","103","305436","0.0-7.0-3.13","","null","","<div class='trialBorder'><div class='vertical-center'><img src='img/fixation2_sml.jpg'</img></div></div>","null","DELAY","","","","","","","","","","",""
"","","","","5bbc4bd1f83ac60001fe665e","bdp_wmem","Mon Mar 13 2023 12:05:34 GMT-0700 (Pacific Daylight Time)","623241","Match,No Match","html-keyboard-response","104","307304","0.0-7.0-4.13","","1866","","<div class='trialBorder'><div class='targDiv'><div class='tc'><img class='introPic' src='trustrating_stim/white_mw042.bmp'><br><font color='green'><strong>Share</strong></font></div></div><div class='respDiv'><div class='respDivL'>Match<br>(e)</div><div class='respDivR'>No Match<br>(i)</div></div></div>","e","TARGET","2","trustrating_stim/white_mw092.bmp,trustrating_stim/white_mw042.bmp","0,1","Match","e","3000","trustrating_stim/white_mw042.bmp","green","Share","REAL","1"
"","","","","5bbc4bd1f83ac60001fe665e","bdp_wmem","Mon Mar 13 2023 12:05:34 GMT-0700 (Pacific Daylight Time)","623241","Match,No Match","html-keyboard-response","105","307806","0.0-7.0-5.13","","null","","<div class='trialBorder'><div class='vertical-center'><img src='img/correct.jpg'></div><div class='respDiv'><div class='respDivL'><font style='color:orange'>Match<br>(e)</font></div><div class='respDivR'>No Match<br>(i)</div></div></div>","null","FEEDBACK","","","","","","","","","","",""
"","","","","5bbc4bd1f83ac60001fe665e","bdp_wmem","Mon Mar 13 2023 12:05:34 GMT-0700 (Pacific Daylight Time)","623241","Match,No Match","html-keyboard-response","106","308308","0.0-7.0-1.14","","null","","<div class='trialBorder'><div class='vertical-center'><img src='img/fixation2_sml.jpg'</img></div></div>","null","FIX","","","","","","","","","","",""
"","","","","5bbc4bd1f83ac60001fe665e","bdp_wmem","Mon Mar 13 2023 12:05:34 GMT-0700 (Pacific Daylight Time)","623241","Match,No Match","html-keyboard-response","107","311322","0.0-7.0-2.14","","null","","<div class='trialBorder'><div class='vertical-center'><img style='vertical-align:center; align:center' src='img/fixation2_sml.jpg'></div><div class='arrayDiv2'><div class='tl'><img class='introPic' src='trustrating_stim/white_mw042.bmp'><br><font color='red'><strong>Keep</strong></font></div><div class='tr'><img class='introPic' src='trustrating_stim/white_mw085.bmp'><br><font color='green'><strong>Share</strong></font></div></div></div>","null","ARRAY","2","trustrating_stim/white_mw042.bmp,trustrating_stim/white_mw085.bmp","0,1","noMatchOutcome","i","3000","","","","",""
"","","","","5bbc4bd1f83ac60001fe665e","bdp_wmem","Mon Mar 13 2023 12:05:34 GMT-0700 (Pacific Daylight Time)","623241","Match,No Match","html-keyboard-response","108","315331","0.0-7.0-3.14","","null","","<div class='trialBorder'><div class='vertical-center'><img src='img/fixation2_sml.jpg'</img></div></div>","null","DELAY","","","","","","","","","","",""
"","","","","5bbc4bd1f83ac60001fe665e","bdp_wmem","Mon Mar 13 2023 12:05:34 GMT-0700 (Pacific Daylight Time)","623241","Match,No Match","html-keyboard-response","109","316635","0.0-7.0-4.14","","1302","","<div class='trialBorder'><div class='targDiv'><div class='tc'><img class='introPic' src='trustrating_stim/white_mw042.bmp'><br><font color='green'><strong>Share</strong></font></div></div><div class='respDiv'><div class='respDivL'>Match<br>(e)</div><div class='respDivR'>No Match<br>(i)</div></div></div>","i","TARGET","2","trustrating_stim/white_mw042.bmp,trustrating_stim/white_mw085.bmp","0,1","noMatchOutcome","i","3000","trustrating_stim/white_mw042.bmp","green","Share","REAL","1"
"","","","","5bbc4bd1f83ac60001fe665e","bdp_wmem","Mon Mar 13 2023 12:05:34 GMT-0700 (Pacific Daylight Time)","623241","Match,No Match","html-keyboard-response","110","317147","0.0-7.0-5.14","","null","","<div class='trialBorder'><div class='vertical-center'><img src='img/correct.jpg'></div><div class='respDiv'><div class='respDivL'>Match<br>(e)</div><div class='respDivR'><font style='color:orange'>No Match<br>(i)</font></div></div></div>","null","FEEDBACK","","","","","","","","","","",""
"","","","","5bbc4bd1f83ac60001fe665e","bdp_wmem","Mon Mar 13 2023 12:05:34 GMT-0700 (Pacific Daylight Time)","623241","Match,No Match","html-keyboard-response","111","317650","0.0-7.0-1.15","","null","","<div class='trialBorder'><div class='vertical-center'><img src='img/fixation2_sml.jpg'</img></div></div>","null","FIX","","","","","","","","","","",""
"","","","","5bbc4bd1f83ac60001fe665e","bdp_wmem","Mon Mar 13 2023 12:05:34 GMT-0700 (Pacific Daylight Time)","623241","Match,No Match","html-keyboard-response","112","322151","0.0-7.0-2.15","","null","","<div class='trialBorder'><div class='vertical-center'><img style='vertical-align:center; align:center' src='img/fixation2_sml.jpg'></div><div class='arrayDiv3'><div class='tl'><img class='introPic' src='trustrating_stim/white_mw010.bmp'><br><font color='red'><strong>Keep</strong></font></div><div class='tc'><img class='introPic' src='trustrating_stim/white_mw091.bmp'><br><font color='red'><strong>Keep</strong></font></div><div class='tr'><img class='introPic' src='trustrating_stim/white_mw038.bmp'><br><font color='green'><strong>Share</strong></font></div></div></div>","null","ARRAY","3","trustrating_stim/white_mw010.bmp,trustrating_stim/white_mw091.bmp,trustrating_stim/white_mw038.bmp","0,0,1","Match","e","4500","","","","",""
"","","","","5bbc4bd1f83ac60001fe665e","bdp_wmem","Mon Mar 13 2023 12:05:34 GMT-0700 (Pacific Daylight Time)","623241","Match,No Match","html-keyboard-response","113","326163","0.0-7.0-3.15","","null","","<div class='trialBorder'><div class='vertical-center'><img src='img/fixation2_sml.jpg'</img></div></div>","null","DELAY","","","","","","","","","","",""
"","","","","5bbc4bd1f83ac60001fe665e","bdp_wmem","Mon Mar 13 2023 12:05:34 GMT-0700 (Pacific Daylight Time)","623241","Match,No Match","html-keyboard-response","114","327446","0.0-7.0-4.15","","1282","","<div class='trialBorder'><div class='targDiv'><div class='tc'><img class='introPic' src='trustrating_stim/white_mw091.bmp'><br><font color='red'><strong>Keep</strong></font></div></div><div class='respDiv'><div class='respDivL'>Match<br>(e)</div><div class='respDivR'>No Match<br>(i)</div></div></div>","e","TARGET","3","trustrating_stim/white_mw010.bmp,trustrating_stim/white_mw091.bmp,trustrating_stim/white_mw038.bmp","0,0,1","Match","e","4500","trustrating_stim/white_mw091.bmp","red","Keep","REAL","1"
"","","","","5bbc4bd1f83ac60001fe665e","bdp_wmem","Mon Mar 13 2023 12:05:34 GMT-0700 (Pacific Daylight Time)","623241","Match,No Match","html-keyboard-response","115","327960","0.0-7.0-5.15","","null","","<div class='trialBorder'><div class='vertical-center'><img src='img/correct.jpg'></div><div class='respDiv'><div class='respDivL'><font style='color:orange'>Match<br>(e)</font></div><div class='respDivR'>No Match<br>(i)</div></div></div>","null","FEEDBACK","","","","","","","","","","",""
"","","","","5bbc4bd1f83ac60001fe665e","bdp_wmem","Mon Mar 13 2023 12:05:34 GMT-0700 (Pacific Daylight Time)","623241","Match,No Match","html-keyboard-response","116","328475","0.0-7.0-1.16","","null","","<div class='trialBorder'><div class='vertical-center'><img src='img/fixation2_sml.jpg'</img></div></div>","null","FIX","","","","","","","","","","",""
"","","","","5bbc4bd1f83ac60001fe665e","bdp_wmem","Mon Mar 13 2023 12:05:34 GMT-0700 (Pacific Daylight Time)","623241","Match,No Match","html-keyboard-response","117","329989","0.0-7.0-2.16","","null","","<div class='trialBorder'><div class='vertical-center'><img style='vertical-align:center; align:center' src='img/fixation2_sml.jpg'></div><div class='arrayDiv1'><div class='tc'><img class='introPic' src='trustrating_stim/white_mw092.bmp'><br><font color='green'><strong>Share</strong></font></div></div></div>","null","ARRAY","1","trustrating_stim/white_mw092.bmp","1","noMatchFace","i","1500","","","","",""
"","","","","5bbc4bd1f83ac60001fe665e","bdp_wmem","Mon Mar 13 2023 12:05:34 GMT-0700 (Pacific Daylight Time)","623241","Match,No Match","html-keyboard-response","118","333995","0.0-7.0-3.16","","null","","<div class='trialBorder'><div class='vertical-center'><img src='img/fixation2_sml.jpg'</img></div></div>","null","DELAY","","","","","","","","","","",""
"","","","","5bbc4bd1f83ac60001fe665e","bdp_wmem","Mon Mar 13 2023 12:05:34 GMT-0700 (Pacific Daylight Time)","623241","Match,No Match","html-keyboard-response","119","335143","0.0-7.0-4.16","","1147","","<div class='trialBorder'><div class='targDiv'><div class='tc'><img class='introPic' src='trustrating_stim/white_mw013.bmp'><br><font color='green'><strong>Share</strong></font></div></div><div class='respDiv'><div class='respDivL'>Match<br>(e)</div><div class='respDivR'>No Match<br>(i)</div></div></div>","i","TARGET","1","trustrating_stim/white_mw092.bmp","1","noMatchFace","i","1500","trustrating_stim/white_mw013.bmp","green","Share","REAL","1"
"","","","","5bbc4bd1f83ac60001fe665e","bdp_wmem","Mon Mar 13 2023 12:05:34 GMT-0700 (Pacific Daylight Time)","623241","Match,No Match","html-keyboard-response","120","335658","0.0-7.0-5.16","","null","","<div class='trialBorder'><div class='vertical-center'><img src='img/correct.jpg'></div><div class='respDiv'><div class='respDivL'>Match<br>(e)</div><div class='respDivR'><font style='color:orange'>No Match<br>(i)</font></div></div></div>","null","FEEDBACK","","","","","","","","","","",""
"","","","","5bbc4bd1f83ac60001fe665e","bdp_wmem","Mon Mar 13 2023 12:05:34 GMT-0700 (Pacific Daylight Time)","623241","Match,No Match","html-keyboard-response","121","336166","0.0-7.0-1.17","","null","","<div class='trialBorder'><div class='vertical-center'><img src='img/fixation2_sml.jpg'</img></div></div>","null","FIX","","","","","","","","","","",""
"","","","","5bbc4bd1f83ac60001fe665e","bdp_wmem","Mon Mar 13 2023 12:05:34 GMT-0700 (Pacific Daylight Time)","623241","Match,No Match","html-keyboard-response","122","337677","0.0-7.0-2.17","","null","","<div class='trialBorder'><div class='vertical-center'><img style='vertical-align:center; align:center' src='img/fixation2_sml.jpg'></div><div class='arrayDiv1'><div class='tc'><img class='introPic' src='trustrating_stim/white_mw013.bmp'><br><font color='red'><strong>Keep</strong></font></div></div></div>","null","ARRAY","1","trustrating_stim/white_mw013.bmp","0","Match","e","1500","","","","",""
"","","","","5bbc4bd1f83ac60001fe665e","bdp_wmem","Mon Mar 13 2023 12:05:34 GMT-0700 (Pacific Daylight Time)","623241","Match,No Match","html-keyboard-response","123","341686","0.0-7.0-3.17","","null","","<div class='trialBorder'><div class='vertical-center'><img src='img/fixation2_sml.jpg'</img></div></div>","null","DELAY","","","","","","","","","","",""
"","","","","5bbc4bd1f83ac60001fe665e","bdp_wmem","Mon Mar 13 2023 12:05:34 GMT-0700 (Pacific Daylight Time)","623241","Match,No Match","html-keyboard-response","124","342807","0.0-7.0-4.17","","1119","","<div class='trialBorder'><div class='targDiv'><div class='tc'><img class='introPic' src='trustrating_stim/white_mw013.bmp'><br><font color='red'><strong>Keep</strong></font></div></div><div class='respDiv'><div class='respDivL'>Match<br>(e)</div><div class='respDivR'>No Match<br>(i)</div></div></div>","e","TARGET","1","trustrating_stim/white_mw013.bmp","0","Match","e","1500","trustrating_stim/white_mw013.bmp","red","Keep","REAL","1"
"","","","","5bbc4bd1f83ac60001fe665e","bdp_wmem","Mon Mar 13 2023 12:05:34 GMT-0700 (Pacific Daylight Time)","623241","Match,No Match","html-keyboard-response","125","343318","0.0-7.0-5.17","","null","","<div class='trialBorder'><div class='vertical-center'><img src='img/correct.jpg'></div><div class='respDiv'><div class='respDivL'><font style='color:orange'>Match<br>(e)</font></div><div class='respDivR'>No Match<br>(i)</div></div></div>","null","FEEDBACK","","","","","","","","","","",""
"","","","","5bbc4bd1f83ac60001fe665e","bdp_wmem","Mon Mar 13 2023 12:05:34 GMT-0700 (Pacific Daylight Time)","623241","Match,No Match","html-keyboard-response","126","343834","0.0-7.0-1.18","","null","","<div class='trialBorder'><div class='vertical-center'><img src='img/fixation2_sml.jpg'</img></div></div>","null","FIX","","","","","","","","","","",""
"","","","","5bbc4bd1f83ac60001fe665e","bdp_wmem","Mon Mar 13 2023 12:05:34 GMT-0700 (Pacific Daylight Time)","623241","Match,No Match","html-keyboard-response","127","348346","0.0-7.0-2.18","","null","","<div class='trialBorder'><div class='vertical-center'><img style='vertical-align:center; align:center' src='img/fixation2_sml.jpg'></div><div class='arrayDiv3'><div class='tl'><img class='introPic' src='trustrating_stim/white_mw078.bmp'><br><font color='red'><strong>Keep</strong></font></div><div class='tc'><img class='introPic' src='trustrating_stim/white_mw013.bmp'><br><font color='green'><strong>Share</strong></font></div><div class='tr'><img class='introPic' src='trustrating_stim/white_mw092.bmp'><br><font color='red'><strong>Keep</strong></font></div></div></div>","null","ARRAY","3","trustrating_stim/white_mw078.bmp,trustrating_stim/white_mw013.bmp,trustrating_stim/white_mw092.bmp","0,1,0","noMatchFace","i","4500","","","","",""
"","","","","5bbc4bd1f83ac60001fe665e","bdp_wmem","Mon Mar 13 2023 12:05:34 GMT-0700 (Pacific Daylight Time)","623241","Match,No Match","html-keyboard-response","128","352349","0.0-7.0-3.18","","null","","<div class='trialBorder'><div class='vertical-center'><img src='img/fixation2_sml.jpg'</img></div></div>","null","DELAY","","","","","","","","","","",""
"","","","","5bbc4bd1f83ac60001fe665e","bdp_wmem","Mon Mar 13 2023 12:05:34 GMT-0700 (Pacific Daylight Time)","623241","Match,No Match","html-keyboard-response","129","353424","0.0-7.0-4.18","","1073","","<div class='trialBorder'><div class='targDiv'><div class='tc'><img class='introPic' src='trustrating_stim/white_mw091.bmp'><br><font color='red'><strong>Keep</strong></font></div></div><div class='respDiv'><div class='respDivL'>Match<br>(e)</div><div class='respDivR'>No Match<br>(i)</div></div></div>","i","TARGET","3","trustrating_stim/white_mw078.bmp,trustrating_stim/white_mw013.bmp,trustrating_stim/white_mw092.bmp","0,1,0","noMatchFace","i","4500","trustrating_stim/white_mw091.bmp","red","Keep","REAL","1"
"","","","","5bbc4bd1f83ac60001fe665e","bdp_wmem","Mon Mar 13 2023 12:05:34 GMT-0700 (Pacific Daylight Time)","623241","Match,No Match","html-keyboard-response","130","353926","0.0-7.0-5.18","","null","","<div class='trialBorder'><div class='vertical-center'><img src='img/correct.jpg'></div><div class='respDiv'><div class='respDivL'>Match<br>(e)</div><div class='respDivR'><font style='color:orange'>No Match<br>(i)</font></div></div></div>","null","FEEDBACK","","","","","","","","","","",""
"","","","","5bbc4bd1f83ac60001fe665e","bdp_wmem","Mon Mar 13 2023 12:05:34 GMT-0700 (Pacific Daylight Time)","623241","Match,No Match","html-keyboard-response","131","354428","0.0-7.0-1.19","","null","","<div class='trialBorder'><div class='vertical-center'><img src='img/fixation2_sml.jpg'</img></div></div>","null","FIX","","","","","","","","","","",""
"","","","","5bbc4bd1f83ac60001fe665e","bdp_wmem","Mon Mar 13 2023 12:05:34 GMT-0700 (Pacific Daylight Time)","623241","Match,No Match","html-keyboard-response","132","357433","0.0-7.0-2.19","","null","","<div class='trialBorder'><div class='vertical-center'><img style='vertical-align:center; align:center' src='img/fixation2_sml.jpg'></div><div class='arrayDiv2'><div class='tl'><img class='introPic' src='trustrating_stim/white_mw092.bmp'><br><font color='red'><strong>Keep</strong></font></div><div class='tr'><img class='introPic' src='trustrating_stim/white_mw040.bmp'><br><font color='green'><strong>Share</strong></font></div></div></div>","null","ARRAY","2","trustrating_stim/white_mw092.bmp,trustrating_stim/white_mw040.bmp","0,1","Match","e","3000","","","","",""
"","","","","5bbc4bd1f83ac60001fe665e","bdp_wmem","Mon Mar 13 2023 12:05:34 GMT-0700 (Pacific Daylight Time)","623241","Match,No Match","html-keyboard-response","133","361442","0.0-7.0-3.19","","null","","<div class='trialBorder'><div class='vertical-center'><img src='img/fixation2_sml.jpg'</img></div></div>","null","DELAY","","","","","","","","","","",""
"","","","","5bbc4bd1f83ac60001fe665e","bdp_wmem","Mon Mar 13 2023 12:05:34 GMT-0700 (Pacific Daylight Time)","623241","Match,No Match","html-keyboard-response","134","362907","0.0-7.0-4.19","","1464","","<div class='trialBorder'><div class='targDiv'><div class='tc'><img class='introPic' src='trustrating_stim/white_mw040.bmp'><br><font color='green'><strong>Share</strong></font></div></div><div class='respDiv'><div class='respDivL'>Match<br>(e)</div><div class='respDivR'>No Match<br>(i)</div></div></div>","e","TARGET","2","trustrating_stim/white_mw092.bmp,trustrating_stim/white_mw040.bmp","0,1","Match","e","3000","trustrating_stim/white_mw040.bmp","green","Share","REAL","1"
"","","","","5bbc4bd1f83ac60001fe665e","bdp_wmem","Mon Mar 13 2023 12:05:34 GMT-0700 (Pacific Daylight Time)","623241","Match,No Match","html-keyboard-response","135","363423","0.0-7.0-5.19","","null","","<div class='trialBorder'><div class='vertical-center'><img src='img/correct.jpg'></div><div class='respDiv'><div class='respDivL'><font style='color:orange'>Match<br>(e)</font></div><div class='respDivR'>No Match<br>(i)</div></div></div>","null","FEEDBACK","","","","","","","","","","",""
"","","","","5bbc4bd1f83ac60001fe665e","bdp_wmem","Mon Mar 13 2023 12:05:34 GMT-0700 (Pacific Daylight Time)","623241","Match,No Match","html-keyboard-response","136","363927","0.0-7.0-1.20","","null","","<div class='trialBorder'><div class='vertical-center'><img src='img/fixation2_sml.jpg'</img></div></div>","null","FIX","","","","","","","","","","",""
"","","","","5bbc4bd1f83ac60001fe665e","bdp_wmem","Mon Mar 13 2023 12:05:34 GMT-0700 (Pacific Daylight Time)","623241","Match,No Match","html-keyboard-response","137","368440","0.0-7.0-2.20","","null","","<div class='trialBorder'><div class='vertical-center'><img style='vertical-align:center; align:center' src='img/fixation2_sml.jpg'></div><div class='arrayDiv3'><div class='tl'><img class='introPic' src='trustrating_stim/white_mw085.bmp'><br><font color='red'><strong>Keep</strong></font></div><div class='tc'><img class='introPic' src='trustrating_stim/white_mw040.bmp'><br><font color='green'><strong>Share</strong></font></div><div class='tr'><img class='introPic' src='trustrating_stim/white_mw013.bmp'><br><font color='green'><strong>Share</strong></font></div></div></div>","null","ARRAY","3","trustrating_stim/white_mw085.bmp,trustrating_stim/white_mw040.bmp,trustrating_stim/white_mw013.bmp","0,1,1","Match","e","4500","","","","",""
"","","","","5bbc4bd1f83ac60001fe665e","bdp_wmem","Mon Mar 13 2023 12:05:34 GMT-0700 (Pacific Daylight Time)","623241","Match,No Match","html-keyboard-response","138","372454","0.0-7.0-3.20","","null","","<div class='trialBorder'><div class='vertical-center'><img src='img/fixation2_sml.jpg'</img></div></div>","null","DELAY","","","","","","","","","","",""
"","","","","5bbc4bd1f83ac60001fe665e","bdp_wmem","Mon Mar 13 2023 12:05:34 GMT-0700 (Pacific Daylight Time)","623241","Match,No Match","html-keyboard-response","139","374526","0.0-7.0-4.20","","2072","","<div class='trialBorder'><div class='targDiv'><div class='tc'><img class='introPic' src='trustrating_stim/white_mw013.bmp'><br><font color='green'><strong>Share</strong></font></div></div><div class='respDiv'><div class='respDivL'>Match<br>(e)</div><div class='respDivR'>No Match<br>(i)</div></div></div>","e","TARGET","3","trustrating_stim/white_mw085.bmp,trustrating_stim/white_mw040.bmp,trustrating_stim/white_mw013.bmp","0,1,1","Match","e","4500","trustrating_stim/white_mw013.bmp","green","Share","REAL","1"
"","","","","5bbc4bd1f83ac60001fe665e","bdp_wmem","Mon Mar 13 2023 12:05:34 GMT-0700 (Pacific Daylight Time)","623241","Match,No Match","html-keyboard-response","140","375039","0.0-7.0-5.20","","null","","<div class='trialBorder'><div class='vertical-center'><img src='img/correct.jpg'></div><div class='respDiv'><div class='respDivL'><font style='color:orange'>Match<br>(e)</font></div><div class='respDivR'>No Match<br>(i)</div></div></div>","null","FEEDBACK","","","","","","","","","","",""
"","","","","5bbc4bd1f83ac60001fe665e","bdp_wmem","Mon Mar 13 2023 12:05:34 GMT-0700 (Pacific Daylight Time)","623241","Match,No Match","html-keyboard-response","141","375545","0.0-7.0-1.21","","null","","<div class='trialBorder'><div class='vertical-center'><img src='img/fixation2_sml.jpg'</img></div></div>","null","FIX","","","","","","","","","","",""
"","","","","5bbc4bd1f83ac60001fe665e","bdp_wmem","Mon Mar 13 2023 12:05:34 GMT-0700 (Pacific Daylight Time)","623241","Match,No Match","html-keyboard-response","142","377062","0.0-7.0-2.21","","null","","<div class='trialBorder'><div class='vertical-center'><img style='vertical-align:center; align:center' src='img/fixation2_sml.jpg'></div><div class='arrayDiv1'><div class='tc'><img class='introPic' src='trustrating_stim/white_mw042.bmp'><br><font color='green'><strong>Share</strong></font></div></div></div>","null","ARRAY","1","trustrating_stim/white_mw042.bmp","1","Match","e","1500","","","","",""
"","","","","5bbc4bd1f83ac60001fe665e","bdp_wmem","Mon Mar 13 2023 12:05:34 GMT-0700 (Pacific Daylight Time)","623241","Match,No Match","html-keyboard-response","143","381074","0.0-7.0-3.21","","null","","<div class='trialBorder'><div class='vertical-center'><img src='img/fixation2_sml.jpg'</img></div></div>","null","DELAY","","","","","","","","","","",""
"","","","","5bbc4bd1f83ac60001fe665e","bdp_wmem","Mon Mar 13 2023 12:05:34 GMT-0700 (Pacific Daylight Time)","623241","Match,No Match","html-keyboard-response","144","382115","0.0-7.0-4.21","","1038","","<div class='trialBorder'><div class='targDiv'><div class='tc'><img class='introPic' src='trustrating_stim/white_mw042.bmp'><br><font color='green'><strong>Share</strong></font></div></div><div class='respDiv'><div class='respDivL'>Match<br>(e)</div><div class='respDivR'>No Match<br>(i)</div></div></div>","e","TARGET","1","trustrating_stim/white_mw042.bmp","1","Match","e","1500","trustrating_stim/white_mw042.bmp","green","Share","REAL","1"
"","","","","5bbc4bd1f83ac60001fe665e","bdp_wmem","Mon Mar 13 2023 12:05:34 GMT-0700 (Pacific Daylight Time)","623241","Match,No Match","html-keyboard-response","145","382620","0.0-7.0-5.21","","null","","<div class='trialBorder'><div class='vertical-center'><img src='img/correct.jpg'></div><div class='respDiv'><div class='respDivL'><font style='color:orange'>Match<br>(e)</font></div><div class='respDivR'>No Match<br>(i)</div></div></div>","null","FEEDBACK","","","","","","","","","","",""
"","","","","5bbc4bd1f83ac60001fe665e","bdp_wmem","Mon Mar 13 2023 12:05:34 GMT-0700 (Pacific Daylight Time)","623241","Match,No Match","html-keyboard-response","146","383125","0.0-7.0-1.22","","null","","<div class='trialBorder'><div class='vertical-center'><img src='img/fixation2_sml.jpg'</img></div></div>","null","FIX","","","","","","","","","","",""
"","","","","5bbc4bd1f83ac60001fe665e","bdp_wmem","Mon Mar 13 2023 12:05:34 GMT-0700 (Pacific Daylight Time)","623241","Match,No Match","html-keyboard-response","147","384628","0.0-7.0-2.22","","null","","<div class='trialBorder'><div class='vertical-center'><img style='vertical-align:center; align:center' src='img/fixation2_sml.jpg'></div><div class='arrayDiv1'><div class='tc'><img class='introPic' src='trustrating_stim/white_mw070.bmp'><br><font color='red'><strong>Keep</strong></font></div></div></div>","null","ARRAY","1","trustrating_stim/white_mw070.bmp","0","noMatchFace","i","1500","","","","",""
"","","","","5bbc4bd1f83ac60001fe665e","bdp_wmem","Mon Mar 13 2023 12:05:34 GMT-0700 (Pacific Daylight Time)","623241","Match,No Match","html-keyboard-response","148","388643","0.0-7.0-3.22","","null","","<div class='trialBorder'><div class='vertical-center'><img src='img/fixation2_sml.jpg'</img></div></div>","null","DELAY","","","","","","","","","","",""
"","","","","5bbc4bd1f83ac60001fe665e","bdp_wmem","Mon Mar 13 2023 12:05:34 GMT-0700 (Pacific Daylight Time)","623241","Match,No Match","html-keyboard-response","149","389763","0.0-7.0-4.22","","1119","","<div class='trialBorder'><div class='targDiv'><div class='tc'><img class='introPic' src='trustrating_stim/white_mw038.bmp'><br><font color='red'><strong>Keep</strong></font></div></div><div class='respDiv'><div class='respDivL'>Match<br>(e)</div><div class='respDivR'>No Match<br>(i)</div></div></div>","i","TARGET","1","trustrating_stim/white_mw070.bmp","0","noMatchFace","i","1500","trustrating_stim/white_mw038.bmp","red","Keep","REAL","1"
"","","","","5bbc4bd1f83ac60001fe665e","bdp_wmem","Mon Mar 13 2023 12:05:34 GMT-0700 (Pacific Daylight Time)","623241","Match,No Match","html-keyboard-response","150","390271","0.0-7.0-5.22","","null","","<div class='trialBorder'><div class='vertical-center'><img src='img/correct.jpg'></div><div class='respDiv'><div class='respDivL'>Match<br>(e)</div><div class='respDivR'><font style='color:orange'>No Match<br>(i)</font></div></div></div>","null","FEEDBACK","","","","","","","","","","",""
"","","","","5bbc4bd1f83ac60001fe665e","bdp_wmem","Mon Mar 13 2023 12:05:34 GMT-0700 (Pacific Daylight Time)","623241","Match,No Match","html-keyboard-response","151","390777","0.0-7.0-1.23","","null","","<div class='trialBorder'><div class='vertical-center'><img src='img/fixation2_sml.jpg'</img></div></div>","null","FIX","","","","","","","","","","",""
"","","","","5bbc4bd1f83ac60001fe665e","bdp_wmem","Mon Mar 13 2023 12:05:34 GMT-0700 (Pacific Daylight Time)","623241","Match,No Match","html-keyboard-response","152","395283","0.0-7.0-2.23","","null","","<div class='trialBorder'><div class='vertical-center'><img style='vertical-align:center; align:center' src='img/fixation2_sml.jpg'></div><div class='arrayDiv3'><div class='tl'><img class='introPic' src='trustrating_stim/white_mw092.bmp'><br><font color='red'><strong>Keep</strong></font></div><div class='tc'><img class='introPic' src='trustrating_stim/white_mw078.bmp'><br><font color='green'><strong>Share</strong></font></div><div class='tr'><img class='introPic' src='trustrating_stim/white_mw042.bmp'><br><font color='green'><strong>Share</strong></font></div></div></div>","null","ARRAY","3","trustrating_stim/white_mw092.bmp,trustrating_stim/white_mw078.bmp,trustrating_stim/white_mw042.bmp","0,1,1","noMatchOutcome","i","4500","","","","",""
"","","","","5bbc4bd1f83ac60001fe665e","bdp_wmem","Mon Mar 13 2023 12:05:34 GMT-0700 (Pacific Daylight Time)","623241","Match,No Match","html-keyboard-response","153","399299","0.0-7.0-3.23","","null","","<div class='trialBorder'><div class='vertical-center'><img src='img/fixation2_sml.jpg'</img></div></div>","null","DELAY","","","","","","","","","","",""
"","","","","5bbc4bd1f83ac60001fe665e","bdp_wmem","Mon Mar 13 2023 12:05:34 GMT-0700 (Pacific Daylight Time)","623241","Match,No Match","html-keyboard-response","154","401432","0.0-7.0-4.23","","2131","","<div class='trialBorder'><div class='targDiv'><div class='tc'><img class='introPic' src='trustrating_stim/white_mw042.bmp'><br><font color='red'><strong>Keep</strong></font></div></div><div class='respDiv'><div class='respDivL'>Match<br>(e)</div><div class='respDivR'>No Match<br>(i)</div></div></div>","e","TARGET","3","trustrating_stim/white_mw092.bmp,trustrating_stim/white_mw078.bmp,trustrating_stim/white_mw042.bmp","0,1,1","noMatchOutcome","i","4500","trustrating_stim/white_mw042.bmp","red","Keep","REAL","0"
"","","","","5bbc4bd1f83ac60001fe665e","bdp_wmem","Mon Mar 13 2023 12:05:34 GMT-0700 (Pacific Daylight Time)","623241","Match,No Match","html-keyboard-response","155","401944","0.0-7.0-5.23","","null","","<div class='trialBorder'><div class='vertical-center'><img src='img/error.jpg'></div><div class='respDiv'><div class='respDivL'><font style='color:orange'>Match<br>(e)</font></div><div class='respDivR'>No Match<br>(i)</div></div></div>","null","FEEDBACK","","","","","","","","","","",""
"","","","","5bbc4bd1f83ac60001fe665e","bdp_wmem","Mon Mar 13 2023 12:05:34 GMT-0700 (Pacific Daylight Time)","623241","Match,No Match","html-keyboard-response","156","402451","0.0-7.0-1.24","","null","","<div class='trialBorder'><div class='vertical-center'><img src='img/fixation2_sml.jpg'</img></div></div>","null","FIX","","","","","","","","","","",""
"","","","","5bbc4bd1f83ac60001fe665e","bdp_wmem","Mon Mar 13 2023 12:05:34 GMT-0700 (Pacific Daylight Time)","623241","Match,No Match","html-keyboard-response","157","406968","0.0-7.0-2.24","","null","","<div class='trialBorder'><div class='vertical-center'><img style='vertical-align:center; align:center' src='img/fixation2_sml.jpg'></div><div class='arrayDiv3'><div class='tl'><img class='introPic' src='trustrating_stim/white_mw042.bmp'><br><font color='red'><strong>Keep</strong></font></div><div class='tc'><img class='introPic' src='trustrating_stim/white_mw091.bmp'><br><font color='green'><strong>Share</strong></font></div><div class='tr'><img class='introPic' src='trustrating_stim/white_mw085.bmp'><br><font color='red'><strong>Keep</strong></font></div></div></div>","null","ARRAY","3","trustrating_stim/white_mw042.bmp,trustrating_stim/white_mw091.bmp,trustrating_stim/white_mw085.bmp","0,1,0","Match","e","4500","","","","",""
"","","","","5bbc4bd1f83ac60001fe665e","bdp_wmem","Mon Mar 13 2023 12:05:34 GMT-0700 (Pacific Daylight Time)","623241","Match,No Match","html-keyboard-response","158","410980","0.0-7.0-3.24","","null","","<div class='trialBorder'><div class='vertical-center'><img src='img/fixation2_sml.jpg'</img></div></div>","null","DELAY","","","","","","","","","","",""
"","","","","5bbc4bd1f83ac60001fe665e","bdp_wmem","Mon Mar 13 2023 12:05:34 GMT-0700 (Pacific Daylight Time)","623241","Match,No Match","html-keyboard-response","159","414813","0.0-7.0-4.24","","3832","","<div class='trialBorder'><div class='targDiv'><div class='tc'><img class='introPic' src='trustrating_stim/white_mw085.bmp'><br><font color='red'><strong>Keep</strong></font></div></div><div class='respDiv'><div class='respDivL'>Match<br>(e)</div><div class='respDivR'>No Match<br>(i)</div></div></div>","i","TARGET","3","trustrating_stim/white_mw042.bmp,trustrating_stim/white_mw091.bmp,trustrating_stim/white_mw085.bmp","0,1,0","Match","e","4500","trustrating_stim/white_mw085.bmp","red","Keep","REAL","0"
"","","","","5bbc4bd1f83ac60001fe665e","bdp_wmem","Mon Mar 13 2023 12:05:34 GMT-0700 (Pacific Daylight Time)","623241","Match,No Match","html-keyboard-response","160","415317","0.0-7.0-5.24","","null","","<div class='trialBorder'><div class='vertical-center'><img src='img/error.jpg'></div><div class='respDiv'><div class='respDivL'>Match<br>(e)</div><div class='respDivR'><font style='color:orange'>No Match<br>(i)</font></div></div></div>","null","FEEDBACK","","","","","","","","","","",""
"","","","","5bbc4bd1f83ac60001fe665e","bdp_wmem","Mon Mar 13 2023 12:05:34 GMT-0700 (Pacific Daylight Time)","623241","Match,No Match","html-keyboard-response","161","415823","0.0-7.0-1.25","","null","","<div class='trialBorder'><div class='vertical-center'><img src='img/fixation2_sml.jpg'</img></div></div>","null","FIX","","","","","","","","","","",""
"","","","","5bbc4bd1f83ac60001fe665e","bdp_wmem","Mon Mar 13 2023 12:05:34 GMT-0700 (Pacific Daylight Time)","623241","Match,No Match","html-keyboard-response","162","417332","0.0-7.0-2.25","","null","","<div class='trialBorder'><div class='vertical-center'><img style='vertical-align:center; align:center' src='img/fixation2_sml.jpg'></div><div class='arrayDiv1'><div class='tc'><img class='introPic' src='trustrating_stim/white_mw092.bmp'><br><font color='red'><strong>Keep</strong></font></div></div></div>","null","ARRAY","1","trustrating_stim/white_mw092.bmp","0","noMatchOutcome","i","1500","","","","",""
"","","","","5bbc4bd1f83ac60001fe665e","bdp_wmem","Mon Mar 13 2023 12:05:34 GMT-0700 (Pacific Daylight Time)","623241","Match,No Match","html-keyboard-response","163","421348","0.0-7.0-3.25","","null","","<div class='trialBorder'><div class='vertical-center'><img src='img/fixation2_sml.jpg'</img></div></div>","null","DELAY","","","","","","","","","","",""
"","","","","5bbc4bd1f83ac60001fe665e","bdp_wmem","Mon Mar 13 2023 12:05:34 GMT-0700 (Pacific Daylight Time)","623241","Match,No Match","html-keyboard-response","164","423773","0.0-7.0-4.25","","2424","","<div class='trialBorder'><div class='targDiv'><div class='tc'><img class='introPic' src='trustrating_stim/white_mw092.bmp'><br><font color='green'><strong>Share</strong></font></div></div><div class='respDiv'><div class='respDivL'>Match<br>(e)</div><div class='respDivR'>No Match<br>(i)</div></div></div>","i","TARGET","1","trustrating_stim/white_mw092.bmp","0","noMatchOutcome","i","1500","trustrating_stim/white_mw092.bmp","green","Share","REAL","1"
"","","","","5bbc4bd1f83ac60001fe665e","bdp_wmem","Mon Mar 13 2023 12:05:34 GMT-0700 (Pacific Daylight Time)","623241","Match,No Match","html-keyboard-response","165","424279","0.0-7.0-5.25","","null","","<div class='trialBorder'><div class='vertical-center'><img src='img/correct.jpg'></div><div class='respDiv'><div class='respDivL'>Match<br>(e)</div><div class='respDivR'><font style='color:orange'>No Match<br>(i)</font></div></div></div>","null","FEEDBACK","","","","","","","","","","",""
"","","","","5bbc4bd1f83ac60001fe665e","bdp_wmem","Mon Mar 13 2023 12:05:34 GMT-0700 (Pacific Daylight Time)","623241","Match,No Match","html-keyboard-response","166","424796","0.0-7.0-1.26","","null","","<div class='trialBorder'><div class='vertical-center'><img src='img/fixation2_sml.jpg'</img></div></div>","null","FIX","","","","","","","","","","",""
"","","","","5bbc4bd1f83ac60001fe665e","bdp_wmem","Mon Mar 13 2023 12:05:34 GMT-0700 (Pacific Daylight Time)","623241","Match,No Match","html-keyboard-response","167","429309","0.0-7.0-2.26","","null","","<div class='trialBorder'><div class='vertical-center'><img style='vertical-align:center; align:center' src='img/fixation2_sml.jpg'></div><div class='arrayDiv3'><div class='tl'><img class='introPic' src='trustrating_stim/white_mw010.bmp'><br><font color='red'><strong>Keep</strong></font></div><div class='tc'><img class='introPic' src='trustrating_stim/white_mw070.bmp'><br><font color='red'><strong>Keep</strong></font></div><div class='tr'><img class='introPic' src='trustrating_stim/white_mw013.bmp'><br><font color='green'><strong>Share</strong></font></div></div></div>","null","ARRAY","3","trustrating_stim/white_mw010.bmp,trustrating_stim/white_mw070.bmp,trustrating_stim/white_mw013.bmp","0,0,1","Match","e","4500","","","","",""
"","","","","5bbc4bd1f83ac60001fe665e","bdp_wmem","Mon Mar 13 2023 12:05:34 GMT-0700 (Pacific Daylight Time)","623241","Match,No Match","html-keyboard-response","168","433311","0.0-7.0-3.26","","null","","<div class='trialBorder'><div class='vertical-center'><img src='img/fixation2_sml.jpg'</img></div></div>","null","DELAY","","","","","","","","","","",""
"","","","","5bbc4bd1f83ac60001fe665e","bdp_wmem","Mon Mar 13 2023 12:05:34 GMT-0700 (Pacific Daylight Time)","623241","Match,No Match","html-keyboard-response","169","434737","0.0-7.0-4.26","","1424","","<div class='trialBorder'><div class='targDiv'><div class='tc'><img class='introPic' src='trustrating_stim/white_mw070.bmp'><br><font color='red'><strong>Keep</strong></font></div></div><div class='respDiv'><div class='respDivL'>Match<br>(e)</div><div class='respDivR'>No Match<br>(i)</div></div></div>","e","TARGET","3","trustrating_stim/white_mw010.bmp,trustrating_stim/white_mw070.bmp,trustrating_stim/white_mw013.bmp","0,0,1","Match","e","4500","trustrating_stim/white_mw070.bmp","red","Keep","REAL","1"
"","","","","5bbc4bd1f83ac60001fe665e","bdp_wmem","Mon Mar 13 2023 12:05:34 GMT-0700 (Pacific Daylight Time)","623241","Match,No Match","html-keyboard-response","170","435242","0.0-7.0-5.26","","null","","<div class='trialBorder'><div class='vertical-center'><img src='img/correct.jpg'></div><div class='respDiv'><div class='respDivL'><font style='color:orange'>Match<br>(e)</font></div><div class='respDivR'>No Match<br>(i)</div></div></div>","null","FEEDBACK","","","","","","","","","","",""
"","","","","5bbc4bd1f83ac60001fe665e","bdp_wmem","Mon Mar 13 2023 12:05:34 GMT-0700 (Pacific Daylight Time)","623241","Match,No Match","html-keyboard-response","171","435744","0.0-7.0-1.27","","null","","<div class='trialBorder'><div class='vertical-center'><img src='img/fixation2_sml.jpg'</img></div></div>","null","FIX","","","","","","","","","","",""
"","","","","5bbc4bd1f83ac60001fe665e","bdp_wmem","Mon Mar 13 2023 12:05:34 GMT-0700 (Pacific Daylight Time)","623241","Match,No Match","html-keyboard-response","172","440258","0.0-7.0-2.27","","null","","<div class='trialBorder'><div class='vertical-center'><img style='vertical-align:center; align:center' src='img/fixation2_sml.jpg'></div><div class='arrayDiv3'><div class='tl'><img class='introPic' src='trustrating_stim/white_mw038.bmp'><br><font color='red'><strong>Keep</strong></font></div><div class='tc'><img class='introPic' src='trustrating_stim/white_mw078.bmp'><br><font color='green'><strong>Share</strong></font></div><div class='tr'><img class='introPic' src='trustrating_stim/white_mw010.bmp'><br><font color='red'><strong>Keep</strong></font></div></div></div>","null","ARRAY","3","trustrating_stim/white_mw038.bmp,trustrating_stim/white_mw078.bmp,trustrating_stim/white_mw010.bmp","0,1,0","noMatchFace","i","4500","","","","",""
"","","","","5bbc4bd1f83ac60001fe665e","bdp_wmem","Mon Mar 13 2023 12:05:34 GMT-0700 (Pacific Daylight Time)","623241","Match,No Match","html-keyboard-response","173","444262","0.0-7.0-3.27","","null","","<div class='trialBorder'><div class='vertical-center'><img src='img/fixation2_sml.jpg'</img></div></div>","null","DELAY","","","","","","","","","","",""
"","","","","5bbc4bd1f83ac60001fe665e","bdp_wmem","Mon Mar 13 2023 12:05:34 GMT-0700 (Pacific Daylight Time)","623241","Match,No Match","html-keyboard-response","174","445524","0.0-7.0-4.27","","1261","","<div class='trialBorder'><div class='targDiv'><div class='tc'><img class='introPic' src='trustrating_stim/white_mw085.bmp'><br><font color='red'><strong>Keep</strong></font></div></div><div class='respDiv'><div class='respDivL'>Match<br>(e)</div><div class='respDivR'>No Match<br>(i)</div></div></div>","i","TARGET","3","trustrating_stim/white_mw038.bmp,trustrating_stim/white_mw078.bmp,trustrating_stim/white_mw010.bmp","0,1,0","noMatchFace","i","4500","trustrating_stim/white_mw085.bmp","red","Keep","REAL","1"
"","","","","5bbc4bd1f83ac60001fe665e","bdp_wmem","Mon Mar 13 2023 12:05:34 GMT-0700 (Pacific Daylight Time)","623241","Match,No Match","html-keyboard-response","175","446028","0.0-7.0-5.27","","null","","<div class='trialBorder'><div class='vertical-center'><img src='img/correct.jpg'></div><div class='respDiv'><div class='respDivL'>Match<br>(e)</div><div class='respDivR'><font style='color:orange'>No Match<br>(i)</font></div></div></div>","null","FEEDBACK","","","","","","","","","","",""
"","","","","5bbc4bd1f83ac60001fe665e","bdp_wmem","Mon Mar 13 2023 12:05:34 GMT-0700 (Pacific Daylight Time)","623241","Match,No Match","html-keyboard-response","176","446534","0.0-7.0-1.28","","null","","<div class='trialBorder'><div class='vertical-center'><img src='img/fixation2_sml.jpg'</img></div></div>","null","FIX","","","","","","","","","","",""
"","","","","5bbc4bd1f83ac60001fe665e","bdp_wmem","Mon Mar 13 2023 12:05:34 GMT-0700 (Pacific Daylight Time)","623241","Match,No Match","html-keyboard-response","177","448037","0.0-7.0-2.28","","null","","<div class='trialBorder'><div class='vertical-center'><img style='vertical-align:center; align:center' src='img/fixation2_sml.jpg'></div><div class='arrayDiv1'><div class='tc'><img class='introPic' src='trustrating_stim/white_mw012.bmp'><br><font color='green'><strong>Share</strong></font></div></div></div>","null","ARRAY","1","trustrating_stim/white_mw012.bmp","1","Match","e","1500","","","","",""
"","","","","5bbc4bd1f83ac60001fe665e","bdp_wmem","Mon Mar 13 2023 12:05:34 GMT-0700 (Pacific Daylight Time)","623241","Match,No Match","html-keyboard-response","178","452054","0.0-7.0-3.28","","null","","<div class='trialBorder'><div class='vertical-center'><img src='img/fixation2_sml.jpg'</img></div></div>","null","DELAY","","","","","","","","","","",""
"","","","","5bbc4bd1f83ac60001fe665e","bdp_wmem","Mon Mar 13 2023 12:05:34 GMT-0700 (Pacific Daylight Time)","623241","Match,No Match","html-keyboard-response","179","453163","0.0-7.0-4.28","","1107","","<div class='trialBorder'><div class='targDiv'><div class='tc'><img class='introPic' src='trustrating_stim/white_mw012.bmp'><br><font color='green'><strong>Share</strong></font></div></div><div class='respDiv'><div class='respDivL'>Match<br>(e)</div><div class='respDivR'>No Match<br>(i)</div></div></div>","e","TARGET","1","trustrating_stim/white_mw012.bmp","1","Match","e","1500","trustrating_stim/white_mw012.bmp","green","Share","REAL","1"
"","","","","5bbc4bd1f83ac60001fe665e","bdp_wmem","Mon Mar 13 2023 12:05:34 GMT-0700 (Pacific Daylight Time)","623241","Match,No Match","html-keyboard-response","180","453678","0.0-7.0-5.28","","null","","<div class='trialBorder'><div class='vertical-center'><img src='img/correct.jpg'></div><div class='respDiv'><div class='respDivL'><font style='color:orange'>Match<br>(e)</font></div><div class='respDivR'>No Match<br>(i)</div></div></div>","null","FEEDBACK","","","","","","","","","","",""
"","","","","5bbc4bd1f83ac60001fe665e","bdp_wmem","Mon Mar 13 2023 12:05:34 GMT-0700 (Pacific Daylight Time)","623241","Match,No Match","html-keyboard-response","181","454183","0.0-7.0-1.29","","null","","<div class='trialBorder'><div class='vertical-center'><img src='img/fixation2_sml.jpg'</img></div></div>","null","FIX","","","","","","","","","","",""
"","","","","5bbc4bd1f83ac60001fe665e","bdp_wmem","Mon Mar 13 2023 12:05:34 GMT-0700 (Pacific Daylight Time)","623241","Match,No Match","html-keyboard-response","182","455689","0.0-7.0-2.29","","null","","<div class='trialBorder'><div class='vertical-center'><img style='vertical-align:center; align:center' src='img/fixation2_sml.jpg'></div><div class='arrayDiv1'><div class='tc'><img class='introPic' src='trustrating_stim/white_mw013.bmp'><br><font color='green'><strong>Share</strong></font></div></div></div>","null","ARRAY","1","trustrating_stim/white_mw013.bmp","1","Match","e","1500","","","","",""
"","","","","5bbc4bd1f83ac60001fe665e","bdp_wmem","Mon Mar 13 2023 12:05:34 GMT-0700 (Pacific Daylight Time)","623241","Match,No Match","html-keyboard-response","183","459698","0.0-7.0-3.29","","null","","<div class='trialBorder'><div class='vertical-center'><img src='img/fixation2_sml.jpg'</img></div></div>","null","DELAY","","","","","","","","","","",""
"","","","","5bbc4bd1f83ac60001fe665e","bdp_wmem","Mon Mar 13 2023 12:05:34 GMT-0700 (Pacific Daylight Time)","623241","Match,No Match","html-keyboard-response","184","460464","0.0-7.0-4.29","","766","","<div class='trialBorder'><div class='targDiv'><div class='tc'><img class='introPic' src='trustrating_stim/white_mw013.bmp'><br><font color='green'><strong>Share</strong></font></div></div><div class='respDiv'><div class='respDivL'>Match<br>(e)</div><div class='respDivR'>No Match<br>(i)</div></div></div>","e","TARGET","1","trustrating_stim/white_mw013.bmp","1","Match","e","1500","trustrating_stim/white_mw013.bmp","green","Share","REAL","1"
"","","","","5bbc4bd1f83ac60001fe665e","bdp_wmem","Mon Mar 13 2023 12:05:34 GMT-0700 (Pacific Daylight Time)","623241","Match,No Match","html-keyboard-response","185","460972","0.0-7.0-5.29","","null","","<div class='trialBorder'><div class='vertical-center'><img src='img/correct.jpg'></div><div class='respDiv'><div class='respDivL'><font style='color:orange'>Match<br>(e)</font></div><div class='respDivR'>No Match<br>(i)</div></div></div>","null","FEEDBACK","","","","","","","","","","",""
"","","","","5bbc4bd1f83ac60001fe665e","bdp_wmem","Mon Mar 13 2023 12:05:34 GMT-0700 (Pacific Daylight Time)","623241","Match,No Match","html-keyboard-response","186","461489","0.0-7.0-1.30","","null","","<div class='trialBorder'><div class='vertical-center'><img src='img/fixation2_sml.jpg'</img></div></div>","null","FIX","","","","","","","","","","",""
