"event","trial","time","trialtype","subject_id","task","startTime","totalTime","labels","trial_type","trial_index","time_elapsed","internal_node_id","view_history","rt","success","stimulus","key_press","stimType","arraySize","arrayFaces","arrayOutcomes","matchType","corrResp","arrayDur","targFace","targCol","targOutcome","trialType","corr"
"focus","0","0","focusevent","63e885e4e1fc973179d56f63","bdp_wmem","Sat Apr 08 2023 11:44:48 GMT-0500 (Central Daylight Time)","630108","Match,No Match","","","","","","","","","","","","","","","","","","","","",""
"","","","","63e885e4e1fc973179d56f63","bdp_wmem","Sat Apr 08 2023 11:44:48 GMT-0500 (Central Daylight Time)","630108","Match,No Match","pavlovia","0","9","0.0-0.0","","","","","","","","","","","","","","","","",""
"","","","","63e885e4e1fc973179d56f63","bdp_wmem","Sat Apr 08 2023 11:44:48 GMT-0500 (Central Daylight Time)","630108","Match,No Match","instructions","1","4831","0.0-1.0","[{""page_index"":0,""viewing_time"":4820}]","4821","","","","","","","","","","","","","","",""
"fullscreenexit","2","7429","fullscreenexit","63e885e4e1fc973179d56f63","bdp_wmem","Sat Apr 08 2023 11:44:48 GMT-0500 (Central Daylight Time)","630108","Match,No Match","","","","","","","","","","","","","","","","","","","","",""
"","","","","63e885e4e1fc973179d56f63","bdp_wmem","Sat Apr 08 2023 11:44:48 GMT-0500 (Central Daylight Time)","630108","Match,No Match","fullscreen","2","8193","0.0-2.0","","","true","","","","","","","","","","","","","",""
"","","","fullscreenfail","63e885e4e1fc973179d56f63","bdp_wmem","Sat Apr 08 2023 11:44:48 GMT-0500 (Central Daylight Time)","630108","Match,No Match","image-keyboard-response","3","9759","0.0-3.0-0.0","","1560","","","32","","","","","","","","","","","",""
"","","","","63e885e4e1fc973179d56f63","bdp_wmem","Sat Apr 08 2023 11:44:48 GMT-0500 (Central Daylight Time)","630108","Match,No Match","instructions","4","112897","0.0-4.0","[{""page_index"":0,""viewing_time"":29534},{""page_index"":1,""viewing_time"":48336},{""page_index"":2,""viewing_time"":14847},{""page_index"":3,""viewing_time"":7789},{""page_index"":4,""viewing_time"":2374}]","102881","","","","","","","","","","","","","","",""
"","","","","63e885e4e1fc973179d56f63","bdp_wmem","Sat Apr 08 2023 11:44:48 GMT-0500 (Central Daylight Time)","630108","Match,No Match","html-keyboard-response","5","113424","0.0-5.0-1.0","","null","","<div class='trialBorder'><div class='vertical-center'><img src='img/fixation2_sml.jpg'</img></div></div>","null","FIX","","","","","","","","","","",""
"","","","","63e885e4e1fc973179d56f63","bdp_wmem","Sat Apr 08 2023 11:44:48 GMT-0500 (Central Daylight Time)","630108","Match,No Match","html-keyboard-response","6","116442","0.0-5.0-2.0","","null","","<div class='trialBorder'><div class='vertical-center'><img style='vertical-align:center; align:center' src='img/fixation2_sml.jpg'></div><div class='arrayDiv2'><div class='tl'><img class='introPic' src='trustrating_stim/white_mw085.bmp'><br><font color='green'><strong>Share</strong></font></div><div class='tr'><img class='introPic' src='trustrating_stim/white_mw091.bmp'><br><font color='red'><strong>Keep</strong></font></div></div></div>","null","ARRAY","2","trustrating_stim/white_mw085.bmp,trustrating_stim/white_mw091.bmp","1,0","Match","e","3000","","","","",""
"","","","","63e885e4e1fc973179d56f63","bdp_wmem","Sat Apr 08 2023 11:44:48 GMT-0500 (Central Daylight Time)","630108","Match,No Match","html-keyboard-response","7","120447","0.0-5.0-3.0","","null","","<div class='trialBorder'><div class='vertical-center'><img src='img/fixation2_sml.jpg'</img></div></div>","null","DELAY","","","","","","","","","","",""
"","","","","63e885e4e1fc973179d56f63","bdp_wmem","Sat Apr 08 2023 11:44:48 GMT-0500 (Central Daylight Time)","630108","Match,No Match","html-keyboard-response","8","122356","0.0-5.0-4.0","","1907","","<div class='trialBorder'><div class='targDiv'><div class='tc'><img class='introPic' src='trustrating_stim/white_mw085.bmp'><br><font color='green'><strong>Share</strong></font></div></div><div class='respDiv'><div class='respDivL'>Match<br>(e)</div><div class='respDivR'>No Match<br>(i)</div></div></div>","i","TARGET","2","trustrating_stim/white_mw085.bmp,trustrating_stim/white_mw091.bmp","1,0","Match","e","3000","trustrating_stim/white_mw085.bmp","green","Share","PRACTICE","0"
"","","","","63e885e4e1fc973179d56f63","bdp_wmem","Sat Apr 08 2023 11:44:48 GMT-0500 (Central Daylight Time)","630108","Match,No Match","html-keyboard-response","9","122863","0.0-5.0-5.0","","null","","<div class='trialBorder'><div class='vertical-center'><img src='img/error.jpg'></div><div class='respDiv'><div class='respDivL'>Match<br>(e)</div><div class='respDivR'><font style='color:orange'>No Match<br>(i)</font></div></div></div>","null","FEEDBACK","","","","","","","","","","",""
"","","","","63e885e4e1fc973179d56f63","bdp_wmem","Sat Apr 08 2023 11:44:48 GMT-0500 (Central Daylight Time)","630108","Match,No Match","html-keyboard-response","10","123384","0.0-5.0-1.1","","null","","<div class='trialBorder'><div class='vertical-center'><img src='img/fixation2_sml.jpg'</img></div></div>","null","FIX","","","","","","","","","","",""
"","","","","63e885e4e1fc973179d56f63","bdp_wmem","Sat Apr 08 2023 11:44:48 GMT-0500 (Central Daylight Time)","630108","Match,No Match","html-keyboard-response","11","124903","0.0-5.0-2.1","","null","","<div class='trialBorder'><div class='vertical-center'><img style='vertical-align:center; align:center' src='img/fixation2_sml.jpg'></div><div class='arrayDiv1'><div class='tc'><img class='introPic' src='trustrating_stim/white_mw091.bmp'><br><font color='red'><strong>Keep</strong></font></div></div></div>","null","ARRAY","1","trustrating_stim/white_mw091.bmp","0","Match","e","1500","","","","",""
"","","","","63e885e4e1fc973179d56f63","bdp_wmem","Sat Apr 08 2023 11:44:48 GMT-0500 (Central Daylight Time)","630108","Match,No Match","html-keyboard-response","12","128912","0.0-5.0-3.1","","null","","<div class='trialBorder'><div class='vertical-center'><img src='img/fixation2_sml.jpg'</img></div></div>","null","DELAY","","","","","","","","","","",""
"","","","","63e885e4e1fc973179d56f63","bdp_wmem","Sat Apr 08 2023 11:44:48 GMT-0500 (Central Daylight Time)","630108","Match,No Match","html-keyboard-response","13","131396","0.0-5.0-4.1","","2482","","<div class='trialBorder'><div class='targDiv'><div class='tc'><img class='introPic' src='trustrating_stim/white_mw091.bmp'><br><font color='red'><strong>Keep</strong></font></div></div><div class='respDiv'><div class='respDivL'>Match<br>(e)</div><div class='respDivR'>No Match<br>(i)</div></div></div>","e","TARGET","1","trustrating_stim/white_mw091.bmp","0","Match","e","1500","trustrating_stim/white_mw091.bmp","red","Keep","PRACTICE","1"
"","","","","63e885e4e1fc973179d56f63","bdp_wmem","Sat Apr 08 2023 11:44:48 GMT-0500 (Central Daylight Time)","630108","Match,No Match","html-keyboard-response","14","131901","0.0-5.0-5.1","","null","","<div class='trialBorder'><div class='vertical-center'><img src='img/correct.jpg'></div><div class='respDiv'><div class='respDivL'><font style='color:orange'>Match<br>(e)</font></div><div class='respDivR'>No Match<br>(i)</div></div></div>","null","FEEDBACK","","","","","","","","","","",""
"","","","","63e885e4e1fc973179d56f63","bdp_wmem","Sat Apr 08 2023 11:44:48 GMT-0500 (Central Daylight Time)","630108","Match,No Match","html-keyboard-response","15","132405","0.0-5.0-1.2","","null","","<div class='trialBorder'><div class='vertical-center'><img src='img/fixation2_sml.jpg'</img></div></div>","null","FIX","","","","","","","","","","",""
"","","","","63e885e4e1fc973179d56f63","bdp_wmem","Sat Apr 08 2023 11:44:48 GMT-0500 (Central Daylight Time)","630108","Match,No Match","html-keyboard-response","16","133908","0.0-5.0-2.2","","null","","<div class='trialBorder'><div class='vertical-center'><img style='vertical-align:center; align:center' src='img/fixation2_sml.jpg'></div><div class='arrayDiv1'><div class='tc'><img class='introPic' src='trustrating_stim/white_mw040.bmp'><br><font color='red'><strong>Keep</strong></font></div></div></div>","null","ARRAY","1","trustrating_stim/white_mw040.bmp","0","noMatchFace","i","1500","","","","",""
"","","","","63e885e4e1fc973179d56f63","bdp_wmem","Sat Apr 08 2023 11:44:48 GMT-0500 (Central Daylight Time)","630108","Match,No Match","html-keyboard-response","17","137923","0.0-5.0-3.2","","null","","<div class='trialBorder'><div class='vertical-center'><img src='img/fixation2_sml.jpg'</img></div></div>","null","DELAY","","","","","","","","","","",""
"","","","","63e885e4e1fc973179d56f63","bdp_wmem","Sat Apr 08 2023 11:44:48 GMT-0500 (Central Daylight Time)","630108","Match,No Match","html-keyboard-response","18","139395","0.0-5.0-4.2","","1468","","<div class='trialBorder'><div class='targDiv'><div class='tc'><img class='introPic' src='trustrating_stim/white_mw010.bmp'><br><font color='red'><strong>Keep</strong></font></div></div><div class='respDiv'><div class='respDivL'>Match<br>(e)</div><div class='respDivR'>No Match<br>(i)</div></div></div>","i","TARGET","1","trustrating_stim/white_mw040.bmp","0","noMatchFace","i","1500","trustrating_stim/white_mw010.bmp","red","Keep","PRACTICE","1"
"","","","","63e885e4e1fc973179d56f63","bdp_wmem","Sat Apr 08 2023 11:44:48 GMT-0500 (Central Daylight Time)","630108","Match,No Match","html-keyboard-response","19","139905","0.0-5.0-5.2","","null","","<div class='trialBorder'><div class='vertical-center'><img src='img/correct.jpg'></div><div class='respDiv'><div class='respDivL'>Match<br>(e)</div><div class='respDivR'><font style='color:orange'>No Match<br>(i)</font></div></div></div>","null","FEEDBACK","","","","","","","","","","",""
"","","","","63e885e4e1fc973179d56f63","bdp_wmem","Sat Apr 08 2023 11:44:48 GMT-0500 (Central Daylight Time)","630108","Match,No Match","html-keyboard-response","20","140422","0.0-5.0-1.3","","null","","<div class='trialBorder'><div class='vertical-center'><img src='img/fixation2_sml.jpg'</img></div></div>","null","FIX","","","","","","","","","","",""
"","","","","63e885e4e1fc973179d56f63","bdp_wmem","Sat Apr 08 2023 11:44:48 GMT-0500 (Central Daylight Time)","630108","Match,No Match","html-keyboard-response","21","143433","0.0-5.0-2.3","","null","","<div class='trialBorder'><div class='vertical-center'><img style='vertical-align:center; align:center' src='img/fixation2_sml.jpg'></div><div class='arrayDiv2'><div class='tl'><img class='introPic' src='trustrating_stim/white_mw070.bmp'><br><font color='green'><strong>Share</strong></font></div><div class='tr'><img class='introPic' src='trustrating_stim/white_mw013.bmp'><br><font color='red'><strong>Keep</strong></font></div></div></div>","null","ARRAY","2","trustrating_stim/white_mw070.bmp,trustrating_stim/white_mw013.bmp","1,0","noMatchOutcome","i","3000","","","","",""
"","","","","63e885e4e1fc973179d56f63","bdp_wmem","Sat Apr 08 2023 11:44:48 GMT-0500 (Central Daylight Time)","630108","Match,No Match","html-keyboard-response","22","147453","0.0-5.0-3.3","","null","","<div class='trialBorder'><div class='vertical-center'><img src='img/fixation2_sml.jpg'</img></div></div>","null","DELAY","","","","","","","","","","",""
"","","","","63e885e4e1fc973179d56f63","bdp_wmem","Sat Apr 08 2023 11:44:48 GMT-0500 (Central Daylight Time)","630108","Match,No Match","html-keyboard-response","23","150445","0.0-5.0-4.3","","2990","","<div class='trialBorder'><div class='targDiv'><div class='tc'><img class='introPic' src='trustrating_stim/white_mw070.bmp'><br><font color='red'><strong>Keep</strong></font></div></div><div class='respDiv'><div class='respDivL'>Match<br>(e)</div><div class='respDivR'>No Match<br>(i)</div></div></div>","i","TARGET","2","trustrating_stim/white_mw070.bmp,trustrating_stim/white_mw013.bmp","1,0","noMatchOutcome","i","3000","trustrating_stim/white_mw070.bmp","red","Keep","PRACTICE","1"
"","","","","63e885e4e1fc973179d56f63","bdp_wmem","Sat Apr 08 2023 11:44:48 GMT-0500 (Central Daylight Time)","630108","Match,No Match","html-keyboard-response","24","150963","0.0-5.0-5.3","","null","","<div class='trialBorder'><div class='vertical-center'><img src='img/correct.jpg'></div><div class='respDiv'><div class='respDivL'>Match<br>(e)</div><div class='respDivR'><font style='color:orange'>No Match<br>(i)</font></div></div></div>","null","FEEDBACK","","","","","","","","","","",""
"","","","","63e885e4e1fc973179d56f63","bdp_wmem","Sat Apr 08 2023 11:44:48 GMT-0500 (Central Daylight Time)","630108","Match,No Match","html-keyboard-response","25","151475","0.0-5.0-1.4","","null","","<div class='trialBorder'><div class='vertical-center'><img src='img/fixation2_sml.jpg'</img></div></div>","null","FIX","","","","","","","","","","",""
"","","","","63e885e4e1fc973179d56f63","bdp_wmem","Sat Apr 08 2023 11:44:48 GMT-0500 (Central Daylight Time)","630108","Match,No Match","html-keyboard-response","26","155994","0.0-5.0-2.4","","null","","<div class='trialBorder'><div class='vertical-center'><img style='vertical-align:center; align:center' src='img/fixation2_sml.jpg'></div><div class='arrayDiv3'><div class='tl'><img class='introPic' src='trustrating_stim/white_mw070.bmp'><br><font color='green'><strong>Share</strong></font></div><div class='tc'><img class='introPic' src='trustrating_stim/white_mw078.bmp'><br><font color='red'><strong>Keep</strong></font></div><div class='tr'><img class='introPic' src='trustrating_stim/white_mw091.bmp'><br><font color='green'><strong>Share</strong></font></div></div></div>","null","ARRAY","3","trustrating_stim/white_mw070.bmp,trustrating_stim/white_mw078.bmp,trustrating_stim/white_mw091.bmp","1,0,1","Match","e","4500","","","","",""
"","","","","63e885e4e1fc973179d56f63","bdp_wmem","Sat Apr 08 2023 11:44:48 GMT-0500 (Central Daylight Time)","630108","Match,No Match","html-keyboard-response","27","160001","0.0-5.0-3.4","","null","","<div class='trialBorder'><div class='vertical-center'><img src='img/fixation2_sml.jpg'</img></div></div>","null","DELAY","","","","","","","","","","",""
"","","","","63e885e4e1fc973179d56f63","bdp_wmem","Sat Apr 08 2023 11:44:48 GMT-0500 (Central Daylight Time)","630108","Match,No Match","html-keyboard-response","28","162101","0.0-5.0-4.4","","2097","","<div class='trialBorder'><div class='targDiv'><div class='tc'><img class='introPic' src='trustrating_stim/white_mw070.bmp'><br><font color='green'><strong>Share</strong></font></div></div><div class='respDiv'><div class='respDivL'>Match<br>(e)</div><div class='respDivR'>No Match<br>(i)</div></div></div>","e","TARGET","3","trustrating_stim/white_mw070.bmp,trustrating_stim/white_mw078.bmp,trustrating_stim/white_mw091.bmp","1,0,1","Match","e","4500","trustrating_stim/white_mw070.bmp","green","Share","PRACTICE","1"
"","","","","63e885e4e1fc973179d56f63","bdp_wmem","Sat Apr 08 2023 11:44:48 GMT-0500 (Central Daylight Time)","630108","Match,No Match","html-keyboard-response","29","162618","0.0-5.0-5.4","","null","","<div class='trialBorder'><div class='vertical-center'><img src='img/correct.jpg'></div><div class='respDiv'><div class='respDivL'><font style='color:orange'>Match<br>(e)</font></div><div class='respDivR'>No Match<br>(i)</div></div></div>","null","FEEDBACK","","","","","","","","","","",""
"","","","","63e885e4e1fc973179d56f63","bdp_wmem","Sat Apr 08 2023 11:44:48 GMT-0500 (Central Daylight Time)","630108","Match,No Match","html-keyboard-response","30","163126","0.0-5.0-1.5","","null","","<div class='trialBorder'><div class='vertical-center'><img src='img/fixation2_sml.jpg'</img></div></div>","null","FIX","","","","","","","","","","",""
"","","","","63e885e4e1fc973179d56f63","bdp_wmem","Sat Apr 08 2023 11:44:48 GMT-0500 (Central Daylight Time)","630108","Match,No Match","html-keyboard-response","31","167636","0.0-5.0-2.5","","null","","<div class='trialBorder'><div class='vertical-center'><img style='vertical-align:center; align:center' src='img/fixation2_sml.jpg'></div><div class='arrayDiv3'><div class='tl'><img class='introPic' src='trustrating_stim/white_mw040.bmp'><br><font color='red'><strong>Keep</strong></font></div><div class='tc'><img class='introPic' src='trustrating_stim/white_mw078.bmp'><br><font color='red'><strong>Keep</strong></font></div><div class='tr'><img class='introPic' src='trustrating_stim/white_mw038.bmp'><br><font color='green'><strong>Share</strong></font></div></div></div>","null","ARRAY","3","trustrating_stim/white_mw040.bmp,trustrating_stim/white_mw078.bmp,trustrating_stim/white_mw038.bmp","0,0,1","noMatchOutcome","i","4500","","","","",""
"","","","","63e885e4e1fc973179d56f63","bdp_wmem","Sat Apr 08 2023 11:44:48 GMT-0500 (Central Daylight Time)","630108","Match,No Match","html-keyboard-response","32","171650","0.0-5.0-3.5","","null","","<div class='trialBorder'><div class='vertical-center'><img src='img/fixation2_sml.jpg'</img></div></div>","null","DELAY","","","","","","","","","","",""
"","","","","63e885e4e1fc973179d56f63","bdp_wmem","Sat Apr 08 2023 11:44:48 GMT-0500 (Central Daylight Time)","630108","Match,No Match","html-keyboard-response","33","174711","0.0-5.0-4.5","","3061","","<div class='trialBorder'><div class='targDiv'><div class='tc'><img class='introPic' src='trustrating_stim/white_mw078.bmp'><br><font color='green'><strong>Share</strong></font></div></div><div class='respDiv'><div class='respDivL'>Match<br>(e)</div><div class='respDivR'>No Match<br>(i)</div></div></div>","e","TARGET","3","trustrating_stim/white_mw040.bmp,trustrating_stim/white_mw078.bmp,trustrating_stim/white_mw038.bmp","0,0,1","noMatchOutcome","i","4500","trustrating_stim/white_mw078.bmp","green","Share","PRACTICE","0"
"","","","","63e885e4e1fc973179d56f63","bdp_wmem","Sat Apr 08 2023 11:44:48 GMT-0500 (Central Daylight Time)","630108","Match,No Match","html-keyboard-response","34","175229","0.0-5.0-5.5","","null","","<div class='trialBorder'><div class='vertical-center'><img src='img/error.jpg'></div><div class='respDiv'><div class='respDivL'><font style='color:orange'>Match<br>(e)</font></div><div class='respDivR'>No Match<br>(i)</div></div></div>","null","FEEDBACK","","","","","","","","","","",""
"","","","","63e885e4e1fc973179d56f63","bdp_wmem","Sat Apr 08 2023 11:44:48 GMT-0500 (Central Daylight Time)","630108","Match,No Match","instructions","35","179287","0.0-6.0","[{""page_index"":0,""viewing_time"":4058}]","4058","","","","","","","","","","","","","","",""
"","","","","63e885e4e1fc973179d56f63","bdp_wmem","Sat Apr 08 2023 11:44:48 GMT-0500 (Central Daylight Time)","630108","Match,No Match","html-keyboard-response","36","179791","0.0-7.0-1.0","","null","","<div class='trialBorder'><div class='vertical-center'><img src='img/fixation2_sml.jpg'</img></div></div>","null","FIX","","","","","","","","","","",""
"","","","","63e885e4e1fc973179d56f63","bdp_wmem","Sat Apr 08 2023 11:44:48 GMT-0500 (Central Daylight Time)","630108","Match,No Match","html-keyboard-response","37","184308","0.0-7.0-2.0","","null","","<div class='trialBorder'><div class='vertical-center'><img style='vertical-align:center; align:center' src='img/fixation2_sml.jpg'></div><div class='arrayDiv3'><div class='tl'><img class='introPic' src='trustrating_stim/white_mw070.bmp'><br><font color='red'><strong>Keep</strong></font></div><div class='tc'><img class='introPic' src='trustrating_stim/white_mw092.bmp'><br><font color='green'><strong>Share</strong></font></div><div class='tr'><img class='introPic' src='trustrating_stim/white_mw013.bmp'><br><font color='red'><strong>Keep</strong></font></div></div></div>","null","ARRAY","3","trustrating_stim/white_mw070.bmp,trustrating_stim/white_mw092.bmp,trustrating_stim/white_mw013.bmp","0,1,0","Match","e","4500","","","","",""
"","","","","63e885e4e1fc973179d56f63","bdp_wmem","Sat Apr 08 2023 11:44:48 GMT-0500 (Central Daylight Time)","630108","Match,No Match","html-keyboard-response","38","188311","0.0-7.0-3.0","","null","","<div class='trialBorder'><div class='vertical-center'><img src='img/fixation2_sml.jpg'</img></div></div>","null","DELAY","","","","","","","","","","",""
"","","","","63e885e4e1fc973179d56f63","bdp_wmem","Sat Apr 08 2023 11:44:48 GMT-0500 (Central Daylight Time)","630108","Match,No Match","html-keyboard-response","39","199317","0.0-7.0-4.0","","11003","","<div class='trialBorder'><div class='targDiv'><div class='tc'><img class='introPic' src='trustrating_stim/white_mw092.bmp'><br><font color='green'><strong>Share</strong></font></div></div><div class='respDiv'><div class='respDivL'>Match<br>(e)</div><div class='respDivR'>No Match<br>(i)</div></div></div>","e","TARGET","3","trustrating_stim/white_mw070.bmp,trustrating_stim/white_mw092.bmp,trustrating_stim/white_mw013.bmp","0,1,0","Match","e","4500","trustrating_stim/white_mw092.bmp","green","Share","REAL","1"
"","","","","63e885e4e1fc973179d56f63","bdp_wmem","Sat Apr 08 2023 11:44:48 GMT-0500 (Central Daylight Time)","630108","Match,No Match","html-keyboard-response","40","199830","0.0-7.0-5.0","","null","","<div class='trialBorder'><div class='vertical-center'><img src='img/correct.jpg'></div><div class='respDiv'><div class='respDivL'><font style='color:orange'>Match<br>(e)</font></div><div class='respDivR'>No Match<br>(i)</div></div></div>","null","FEEDBACK","","","","","","","","","","",""
"","","","","63e885e4e1fc973179d56f63","bdp_wmem","Sat Apr 08 2023 11:44:48 GMT-0500 (Central Daylight Time)","630108","Match,No Match","html-keyboard-response","41","200331","0.0-7.0-1.1","","null","","<div class='trialBorder'><div class='vertical-center'><img src='img/fixation2_sml.jpg'</img></div></div>","null","FIX","","","","","","","","","","",""
"","","","","63e885e4e1fc973179d56f63","bdp_wmem","Sat Apr 08 2023 11:44:48 GMT-0500 (Central Daylight Time)","630108","Match,No Match","html-keyboard-response","42","201842","0.0-7.0-2.1","","null","","<div class='trialBorder'><div class='vertical-center'><img style='vertical-align:center; align:center' src='img/fixation2_sml.jpg'></div><div class='arrayDiv1'><div class='tc'><img class='introPic' src='trustrating_stim/white_mw091.bmp'><br><font color='green'><strong>Share</strong></font></div></div></div>","null","ARRAY","1","trustrating_stim/white_mw091.bmp","1","Match","e","1500","","","","",""
"","","","","63e885e4e1fc973179d56f63","bdp_wmem","Sat Apr 08 2023 11:44:48 GMT-0500 (Central Daylight Time)","630108","Match,No Match","html-keyboard-response","43","205851","0.0-7.0-3.1","","null","","<div class='trialBorder'><div class='vertical-center'><img src='img/fixation2_sml.jpg'</img></div></div>","null","DELAY","","","","","","","","","","",""
"","","","","63e885e4e1fc973179d56f63","bdp_wmem","Sat Apr 08 2023 11:44:48 GMT-0500 (Central Daylight Time)","630108","Match,No Match","html-keyboard-response","44","207012","0.0-7.0-4.1","","1159","","<div class='trialBorder'><div class='targDiv'><div class='tc'><img class='introPic' src='trustrating_stim/white_mw091.bmp'><br><font color='green'><strong>Share</strong></font></div></div><div class='respDiv'><div class='respDivL'>Match<br>(e)</div><div class='respDivR'>No Match<br>(i)</div></div></div>","i","TARGET","1","trustrating_stim/white_mw091.bmp","1","Match","e","1500","trustrating_stim/white_mw091.bmp","green","Share","REAL","0"
"","","","","63e885e4e1fc973179d56f63","bdp_wmem","Sat Apr 08 2023 11:44:48 GMT-0500 (Central Daylight Time)","630108","Match,No Match","html-keyboard-response","45","207532","0.0-7.0-5.1","","null","","<div class='trialBorder'><div class='vertical-center'><img src='img/error.jpg'></div><div class='respDiv'><div class='respDivL'>Match<br>(e)</div><div class='respDivR'><font style='color:orange'>No Match<br>(i)</font></div></div></div>","null","FEEDBACK","","","","","","","","","","",""
"","","","","63e885e4e1fc973179d56f63","bdp_wmem","Sat Apr 08 2023 11:44:48 GMT-0500 (Central Daylight Time)","630108","Match,No Match","html-keyboard-response","46","208052","0.0-7.0-1.2","","null","","<div class='trialBorder'><div class='vertical-center'><img src='img/fixation2_sml.jpg'</img></div></div>","null","FIX","","","","","","","","","","",""
"","","","","63e885e4e1fc973179d56f63","bdp_wmem","Sat Apr 08 2023 11:44:48 GMT-0500 (Central Daylight Time)","630108","Match,No Match","html-keyboard-response","47","209562","0.0-7.0-2.2","","null","","<div class='trialBorder'><div class='vertical-center'><img style='vertical-align:center; align:center' src='img/fixation2_sml.jpg'></div><div class='arrayDiv1'><div class='tc'><img class='introPic' src='trustrating_stim/white_mw003.bmp'><br><font color='red'><strong>Keep</strong></font></div></div></div>","null","ARRAY","1","trustrating_stim/white_mw003.bmp","0","Match","e","1500","","","","",""
"","","","","63e885e4e1fc973179d56f63","bdp_wmem","Sat Apr 08 2023 11:44:48 GMT-0500 (Central Daylight Time)","630108","Match,No Match","html-keyboard-response","48","213573","0.0-7.0-3.2","","null","","<div class='trialBorder'><div class='vertical-center'><img src='img/fixation2_sml.jpg'</img></div></div>","null","DELAY","","","","","","","","","","",""
"","","","","63e885e4e1fc973179d56f63","bdp_wmem","Sat Apr 08 2023 11:44:48 GMT-0500 (Central Daylight Time)","630108","Match,No Match","html-keyboard-response","49","216676","0.0-7.0-4.2","","3098","","<div class='trialBorder'><div class='targDiv'><div class='tc'><img class='introPic' src='trustrating_stim/white_mw003.bmp'><br><font color='red'><strong>Keep</strong></font></div></div><div class='respDiv'><div class='respDivL'>Match<br>(e)</div><div class='respDivR'>No Match<br>(i)</div></div></div>","i","TARGET","1","trustrating_stim/white_mw003.bmp","0","Match","e","1500","trustrating_stim/white_mw003.bmp","red","Keep","REAL","0"
"","","","","63e885e4e1fc973179d56f63","bdp_wmem","Sat Apr 08 2023 11:44:48 GMT-0500 (Central Daylight Time)","630108","Match,No Match","html-keyboard-response","50","217196","0.0-7.0-5.2","","null","","<div class='trialBorder'><div class='vertical-center'><img src='img/error.jpg'></div><div class='respDiv'><div class='respDivL'>Match<br>(e)</div><div class='respDivR'><font style='color:orange'>No Match<br>(i)</font></div></div></div>","null","FEEDBACK","","","","","","","","","","",""
"","","","","63e885e4e1fc973179d56f63","bdp_wmem","Sat Apr 08 2023 11:44:48 GMT-0500 (Central Daylight Time)","630108","Match,No Match","html-keyboard-response","51","217708","0.0-7.0-1.3","","null","","<div class='trialBorder'><div class='vertical-center'><img src='img/fixation2_sml.jpg'</img></div></div>","null","FIX","","","","","","","","","","",""
"","","","","63e885e4e1fc973179d56f63","bdp_wmem","Sat Apr 08 2023 11:44:48 GMT-0500 (Central Daylight Time)","630108","Match,No Match","html-keyboard-response","52","222211","0.0-7.0-2.3","","null","","<div class='trialBorder'><div class='vertical-center'><img style='vertical-align:center; align:center' src='img/fixation2_sml.jpg'></div><div class='arrayDiv3'><div class='tl'><img class='introPic' src='trustrating_stim/white_mw078.bmp'><br><font color='red'><strong>Keep</strong></font></div><div class='tc'><img class='introPic' src='trustrating_stim/white_mw085.bmp'><br><font color='red'><strong>Keep</strong></font></div><div class='tr'><img class='introPic' src='trustrating_stim/white_mw040.bmp'><br><font color='green'><strong>Share</strong></font></div></div></div>","null","ARRAY","3","trustrating_stim/white_mw078.bmp,trustrating_stim/white_mw085.bmp,trustrating_stim/white_mw040.bmp","0,0,1","noMatchOutcome","i","4500","","","","",""
"","","","","63e885e4e1fc973179d56f63","bdp_wmem","Sat Apr 08 2023 11:44:48 GMT-0500 (Central Daylight Time)","630108","Match,No Match","html-keyboard-response","53","226221","0.0-7.0-3.3","","null","","<div class='trialBorder'><div class='vertical-center'><img src='img/fixation2_sml.jpg'</img></div></div>","null","DELAY","","","","","","","","","","",""
"","","","","63e885e4e1fc973179d56f63","bdp_wmem","Sat Apr 08 2023 11:44:48 GMT-0500 (Central Daylight Time)","630108","Match,No Match","html-keyboard-response","54","229076","0.0-7.0-4.3","","2851","","<div class='trialBorder'><div class='targDiv'><div class='tc'><img class='introPic' src='trustrating_stim/white_mw085.bmp'><br><font color='green'><strong>Share</strong></font></div></div><div class='respDiv'><div class='respDivL'>Match<br>(e)</div><div class='respDivR'>No Match<br>(i)</div></div></div>","i","TARGET","3","trustrating_stim/white_mw078.bmp,trustrating_stim/white_mw085.bmp,trustrating_stim/white_mw040.bmp","0,0,1","noMatchOutcome","i","4500","trustrating_stim/white_mw085.bmp","green","Share","REAL","1"
"","","","","63e885e4e1fc973179d56f63","bdp_wmem","Sat Apr 08 2023 11:44:48 GMT-0500 (Central Daylight Time)","630108","Match,No Match","html-keyboard-response","55","229584","0.0-7.0-5.3","","null","","<div class='trialBorder'><div class='vertical-center'><img src='img/correct.jpg'></div><div class='respDiv'><div class='respDivL'>Match<br>(e)</div><div class='respDivR'><font style='color:orange'>No Match<br>(i)</font></div></div></div>","null","FEEDBACK","","","","","","","","","","",""
"","","","","63e885e4e1fc973179d56f63","bdp_wmem","Sat Apr 08 2023 11:44:48 GMT-0500 (Central Daylight Time)","630108","Match,No Match","html-keyboard-response","56","230093","0.0-7.0-1.4","","null","","<div class='trialBorder'><div class='vertical-center'><img src='img/fixation2_sml.jpg'</img></div></div>","null","FIX","","","","","","","","","","",""
"","","","","63e885e4e1fc973179d56f63","bdp_wmem","Sat Apr 08 2023 11:44:48 GMT-0500 (Central Daylight Time)","630108","Match,No Match","html-keyboard-response","57","233103","0.0-7.0-2.4","","null","","<div class='trialBorder'><div class='vertical-center'><img style='vertical-align:center; align:center' src='img/fixation2_sml.jpg'></div><div class='arrayDiv2'><div class='tl'><img class='introPic' src='trustrating_stim/white_mw040.bmp'><br><font color='red'><strong>Keep</strong></font></div><div class='tr'><img class='introPic' src='trustrating_stim/white_mw085.bmp'><br><font color='green'><strong>Share</strong></font></div></div></div>","null","ARRAY","2","trustrating_stim/white_mw040.bmp,trustrating_stim/white_mw085.bmp","0,1","Match","e","3000","","","","",""
"","","","","63e885e4e1fc973179d56f63","bdp_wmem","Sat Apr 08 2023 11:44:48 GMT-0500 (Central Daylight Time)","630108","Match,No Match","html-keyboard-response","58","237111","0.0-7.0-3.4","","null","","<div class='trialBorder'><div class='vertical-center'><img src='img/fixation2_sml.jpg'</img></div></div>","null","DELAY","","","","","","","","","","",""
"","","","","63e885e4e1fc973179d56f63","bdp_wmem","Sat Apr 08 2023 11:44:48 GMT-0500 (Central Daylight Time)","630108","Match,No Match","html-keyboard-response","59","238932","0.0-7.0-4.4","","1819","","<div class='trialBorder'><div class='targDiv'><div class='tc'><img class='introPic' src='trustrating_stim/white_mw040.bmp'><br><font color='red'><strong>Keep</strong></font></div></div><div class='respDiv'><div class='respDivL'>Match<br>(e)</div><div class='respDivR'>No Match<br>(i)</div></div></div>","e","TARGET","2","trustrating_stim/white_mw040.bmp,trustrating_stim/white_mw085.bmp","0,1","Match","e","3000","trustrating_stim/white_mw040.bmp","red","Keep","REAL","1"
"","","","","63e885e4e1fc973179d56f63","bdp_wmem","Sat Apr 08 2023 11:44:48 GMT-0500 (Central Daylight Time)","630108","Match,No Match","html-keyboard-response","60","239442","0.0-7.0-5.4","","null","","<div class='trialBorder'><div class='vertical-center'><img src='img/correct.jpg'></div><div class='respDiv'><div class='respDivL'><font style='color:orange'>Match<br>(e)</font></div><div class='respDivR'>No Match<br>(i)</div></div></div>","null","FEEDBACK","","","","","","","","","","",""
"","","","","63e885e4e1fc973179d56f63","bdp_wmem","Sat Apr 08 2023 11:44:48 GMT-0500 (Central Daylight Time)","630108","Match,No Match","html-keyboard-response","61","239962","0.0-7.0-1.5","","null","","<div class='trialBorder'><div class='vertical-center'><img src='img/fixation2_sml.jpg'</img></div></div>","null","FIX","","","","","","","","","","",""
"","","","","63e885e4e1fc973179d56f63","bdp_wmem","Sat Apr 08 2023 11:44:48 GMT-0500 (Central Daylight Time)","630108","Match,No Match","html-keyboard-response","62","241482","0.0-7.0-2.5","","null","","<div class='trialBorder'><div class='vertical-center'><img style='vertical-align:center; align:center' src='img/fixation2_sml.jpg'></div><div class='arrayDiv1'><div class='tc'><img class='introPic' src='trustrating_stim/white_mw085.bmp'><br><font color='red'><strong>Keep</strong></font></div></div></div>","null","ARRAY","1","trustrating_stim/white_mw085.bmp","0","noMatchOutcome","i","1500","","","","",""
"","","","","63e885e4e1fc973179d56f63","bdp_wmem","Sat Apr 08 2023 11:44:48 GMT-0500 (Central Daylight Time)","630108","Match,No Match","html-keyboard-response","63","245502","0.0-7.0-3.5","","null","","<div class='trialBorder'><div class='vertical-center'><img src='img/fixation2_sml.jpg'</img></div></div>","null","DELAY","","","","","","","","","","",""
"","","","","63e885e4e1fc973179d56f63","bdp_wmem","Sat Apr 08 2023 11:44:48 GMT-0500 (Central Daylight Time)","630108","Match,No Match","html-keyboard-response","64","246119","0.0-7.0-4.5","","614","","<div class='trialBorder'><div class='targDiv'><div class='tc'><img class='introPic' src='trustrating_stim/white_mw085.bmp'><br><font color='green'><strong>Share</strong></font></div></div><div class='respDiv'><div class='respDivL'>Match<br>(e)</div><div class='respDivR'>No Match<br>(i)</div></div></div>","e","TARGET","1","trustrating_stim/white_mw085.bmp","0","noMatchOutcome","i","1500","trustrating_stim/white_mw085.bmp","green","Share","REAL","0"
"","","","","63e885e4e1fc973179d56f63","bdp_wmem","Sat Apr 08 2023 11:44:48 GMT-0500 (Central Daylight Time)","630108","Match,No Match","html-keyboard-response","65","246622","0.0-7.0-5.5","","null","","<div class='trialBorder'><div class='vertical-center'><img src='img/error.jpg'></div><div class='respDiv'><div class='respDivL'><font style='color:orange'>Match<br>(e)</font></div><div class='respDivR'>No Match<br>(i)</div></div></div>","null","FEEDBACK","","","","","","","","","","",""
"","","","","63e885e4e1fc973179d56f63","bdp_wmem","Sat Apr 08 2023 11:44:48 GMT-0500 (Central Daylight Time)","630108","Match,No Match","html-keyboard-response","66","247132","0.0-7.0-1.6","","null","","<div class='trialBorder'><div class='vertical-center'><img src='img/fixation2_sml.jpg'</img></div></div>","null","FIX","","","","","","","","","","",""
"","","","","63e885e4e1fc973179d56f63","bdp_wmem","Sat Apr 08 2023 11:44:48 GMT-0500 (Central Daylight Time)","630108","Match,No Match","html-keyboard-response","67","251642","0.0-7.0-2.6","","null","","<div class='trialBorder'><div class='vertical-center'><img style='vertical-align:center; align:center' src='img/fixation2_sml.jpg'></div><div class='arrayDiv3'><div class='tl'><img class='introPic' src='trustrating_stim/white_mw012.bmp'><br><font color='green'><strong>Share</strong></font></div><div class='tc'><img class='introPic' src='trustrating_stim/white_mw085.bmp'><br><font color='red'><strong>Keep</strong></font></div><div class='tr'><img class='introPic' src='trustrating_stim/white_mw091.bmp'><br><font color='red'><strong>Keep</strong></font></div></div></div>","null","ARRAY","3","trustrating_stim/white_mw012.bmp,trustrating_stim/white_mw085.bmp,trustrating_stim/white_mw091.bmp","1,0,0","Match","e","4500","","","","",""
"","","","","63e885e4e1fc973179d56f63","bdp_wmem","Sat Apr 08 2023 11:44:48 GMT-0500 (Central Daylight Time)","630108","Match,No Match","html-keyboard-response","68","255663","0.0-7.0-3.6","","null","","<div class='trialBorder'><div class='vertical-center'><img src='img/fixation2_sml.jpg'</img></div></div>","null","DELAY","","","","","","","","","","",""
"","","","","63e885e4e1fc973179d56f63","bdp_wmem","Sat Apr 08 2023 11:44:48 GMT-0500 (Central Daylight Time)","630108","Match,No Match","html-keyboard-response","69","256739","0.0-7.0-4.6","","1074","","<div class='trialBorder'><div class='targDiv'><div class='tc'><img class='introPic' src='trustrating_stim/white_mw085.bmp'><br><font color='red'><strong>Keep</strong></font></div></div><div class='respDiv'><div class='respDivL'>Match<br>(e)</div><div class='respDivR'>No Match<br>(i)</div></div></div>","i","TARGET","3","trustrating_stim/white_mw012.bmp,trustrating_stim/white_mw085.bmp,trustrating_stim/white_mw091.bmp","1,0,0","Match","e","4500","trustrating_stim/white_mw085.bmp","red","Keep","REAL","0"
"","","","","63e885e4e1fc973179d56f63","bdp_wmem","Sat Apr 08 2023 11:44:48 GMT-0500 (Central Daylight Time)","630108","Match,No Match","html-keyboard-response","70","257242","0.0-7.0-5.6","","null","","<div class='trialBorder'><div class='vertical-center'><img src='img/error.jpg'></div><div class='respDiv'><div class='respDivL'>Match<br>(e)</div><div class='respDivR'><font style='color:orange'>No Match<br>(i)</font></div></div></div>","null","FEEDBACK","","","","","","","","","","",""
"","","","","63e885e4e1fc973179d56f63","bdp_wmem","Sat Apr 08 2023 11:44:48 GMT-0500 (Central Daylight Time)","630108","Match,No Match","html-keyboard-response","71","257766","0.0-7.0-1.7","","null","","<div class='trialBorder'><div class='vertical-center'><img src='img/fixation2_sml.jpg'</img></div></div>","null","FIX","","","","","","","","","","",""
"","","","","63e885e4e1fc973179d56f63","bdp_wmem","Sat Apr 08 2023 11:44:48 GMT-0500 (Central Daylight Time)","630108","Match,No Match","html-keyboard-response","72","259282","0.0-7.0-2.7","","null","","<div class='trialBorder'><div class='vertical-center'><img style='vertical-align:center; align:center' src='img/fixation2_sml.jpg'></div><div class='arrayDiv1'><div class='tc'><img class='introPic' src='trustrating_stim/white_mw092.bmp'><br><font color='red'><strong>Keep</strong></font></div></div></div>","null","ARRAY","1","trustrating_stim/white_mw092.bmp","0","Match","e","1500","","","","",""
"","","","","63e885e4e1fc973179d56f63","bdp_wmem","Sat Apr 08 2023 11:44:48 GMT-0500 (Central Daylight Time)","630108","Match,No Match","html-keyboard-response","73","263297","0.0-7.0-3.7","","null","","<div class='trialBorder'><div class='vertical-center'><img src='img/fixation2_sml.jpg'</img></div></div>","null","DELAY","","","","","","","","","","",""
"","","","","63e885e4e1fc973179d56f63","bdp_wmem","Sat Apr 08 2023 11:44:48 GMT-0500 (Central Daylight Time)","630108","Match,No Match","html-keyboard-response","74","265754","0.0-7.0-4.7","","2455","","<div class='trialBorder'><div class='targDiv'><div class='tc'><img class='introPic' src='trustrating_stim/white_mw092.bmp'><br><font color='red'><strong>Keep</strong></font></div></div><div class='respDiv'><div class='respDivL'>Match<br>(e)</div><div class='respDivR'>No Match<br>(i)</div></div></div>","e","TARGET","1","trustrating_stim/white_mw092.bmp","0","Match","e","1500","trustrating_stim/white_mw092.bmp","red","Keep","REAL","1"
"","","","","63e885e4e1fc973179d56f63","bdp_wmem","Sat Apr 08 2023 11:44:48 GMT-0500 (Central Daylight Time)","630108","Match,No Match","html-keyboard-response","75","266271","0.0-7.0-5.7","","null","","<div class='trialBorder'><div class='vertical-center'><img src='img/correct.jpg'></div><div class='respDiv'><div class='respDivL'><font style='color:orange'>Match<br>(e)</font></div><div class='respDivR'>No Match<br>(i)</div></div></div>","null","FEEDBACK","","","","","","","","","","",""
"","","","","63e885e4e1fc973179d56f63","bdp_wmem","Sat Apr 08 2023 11:44:48 GMT-0500 (Central Daylight Time)","630108","Match,No Match","html-keyboard-response","76","266783","0.0-7.0-1.8","","null","","<div class='trialBorder'><div class='vertical-center'><img src='img/fixation2_sml.jpg'</img></div></div>","null","FIX","","","","","","","","","","",""
"","","","","63e885e4e1fc973179d56f63","bdp_wmem","Sat Apr 08 2023 11:44:48 GMT-0500 (Central Daylight Time)","630108","Match,No Match","html-keyboard-response","77","269793","0.0-7.0-2.8","","null","","<div class='trialBorder'><div class='vertical-center'><img style='vertical-align:center; align:center' src='img/fixation2_sml.jpg'></div><div class='arrayDiv2'><div class='tl'><img class='introPic' src='trustrating_stim/white_mw040.bmp'><br><font color='red'><strong>Keep</strong></font></div><div class='tr'><img class='introPic' src='trustrating_stim/white_mw085.bmp'><br><font color='green'><strong>Share</strong></font></div></div></div>","null","ARRAY","2","trustrating_stim/white_mw040.bmp,trustrating_stim/white_mw085.bmp","0,1","Match","e","3000","","","","",""
"","","","","63e885e4e1fc973179d56f63","bdp_wmem","Sat Apr 08 2023 11:44:48 GMT-0500 (Central Daylight Time)","630108","Match,No Match","html-keyboard-response","78","273808","0.0-7.0-3.8","","null","","<div class='trialBorder'><div class='vertical-center'><img src='img/fixation2_sml.jpg'</img></div></div>","null","DELAY","","","","","","","","","","",""
"","","","","63e885e4e1fc973179d56f63","bdp_wmem","Sat Apr 08 2023 11:44:48 GMT-0500 (Central Daylight Time)","630108","Match,No Match","html-keyboard-response","79","275116","0.0-7.0-4.8","","1305","","<div class='trialBorder'><div class='targDiv'><div class='tc'><img class='introPic' src='trustrating_stim/white_mw040.bmp'><br><font color='red'><strong>Keep</strong></font></div></div><div class='respDiv'><div class='respDivL'>Match<br>(e)</div><div class='respDivR'>No Match<br>(i)</div></div></div>","e","TARGET","2","trustrating_stim/white_mw040.bmp,trustrating_stim/white_mw085.bmp","0,1","Match","e","3000","trustrating_stim/white_mw040.bmp","red","Keep","REAL","1"
"","","","","63e885e4e1fc973179d56f63","bdp_wmem","Sat Apr 08 2023 11:44:48 GMT-0500 (Central Daylight Time)","630108","Match,No Match","html-keyboard-response","80","275623","0.0-7.0-5.8","","null","","<div class='trialBorder'><div class='vertical-center'><img src='img/correct.jpg'></div><div class='respDiv'><div class='respDivL'><font style='color:orange'>Match<br>(e)</font></div><div class='respDivR'>No Match<br>(i)</div></div></div>","null","FEEDBACK","","","","","","","","","","",""
"","","","","63e885e4e1fc973179d56f63","bdp_wmem","Sat Apr 08 2023 11:44:48 GMT-0500 (Central Daylight Time)","630108","Match,No Match","html-keyboard-response","81","276132","0.0-7.0-1.9","","null","","<div class='trialBorder'><div class='vertical-center'><img src='img/fixation2_sml.jpg'</img></div></div>","null","FIX","","","","","","","","","","",""
"","","","","63e885e4e1fc973179d56f63","bdp_wmem","Sat Apr 08 2023 11:44:48 GMT-0500 (Central Daylight Time)","630108","Match,No Match","html-keyboard-response","82","280652","0.0-7.0-2.9","","null","","<div class='trialBorder'><div class='vertical-center'><img style='vertical-align:center; align:center' src='img/fixation2_sml.jpg'></div><div class='arrayDiv3'><div class='tl'><img class='introPic' src='trustrating_stim/white_mw078.bmp'><br><font color='red'><strong>Keep</strong></font></div><div class='tc'><img class='introPic' src='trustrating_stim/white_mw092.bmp'><br><font color='red'><strong>Keep</strong></font></div><div class='tr'><img class='introPic' src='trustrating_stim/white_mw013.bmp'><br><font color='green'><strong>Share</strong></font></div></div></div>","null","ARRAY","3","trustrating_stim/white_mw078.bmp,trustrating_stim/white_mw092.bmp,trustrating_stim/white_mw013.bmp","0,0,1","noMatchFace","i","4500","","","","",""
"","","","","63e885e4e1fc973179d56f63","bdp_wmem","Sat Apr 08 2023 11:44:48 GMT-0500 (Central Daylight Time)","630108","Match,No Match","html-keyboard-response","83","284662","0.0-7.0-3.9","","null","","<div class='trialBorder'><div class='vertical-center'><img src='img/fixation2_sml.jpg'</img></div></div>","null","DELAY","","","","","","","","","","",""
"","","","","63e885e4e1fc973179d56f63","bdp_wmem","Sat Apr 08 2023 11:44:48 GMT-0500 (Central Daylight Time)","630108","Match,No Match","html-keyboard-response","84","285900","0.0-7.0-4.9","","1235","","<div class='trialBorder'><div class='targDiv'><div class='tc'><img class='introPic' src='trustrating_stim/white_mw010.bmp'><br><font color='red'><strong>Keep</strong></font></div></div><div class='respDiv'><div class='respDivL'>Match<br>(e)</div><div class='respDivR'>No Match<br>(i)</div></div></div>","i","TARGET","3","trustrating_stim/white_mw078.bmp,trustrating_stim/white_mw092.bmp,trustrating_stim/white_mw013.bmp","0,0,1","noMatchFace","i","4500","trustrating_stim/white_mw010.bmp","red","Keep","REAL","1"
"","","","","63e885e4e1fc973179d56f63","bdp_wmem","Sat Apr 08 2023 11:44:48 GMT-0500 (Central Daylight Time)","630108","Match,No Match","html-keyboard-response","85","286406","0.0-7.0-5.9","","null","","<div class='trialBorder'><div class='vertical-center'><img src='img/correct.jpg'></div><div class='respDiv'><div class='respDivL'>Match<br>(e)</div><div class='respDivR'><font style='color:orange'>No Match<br>(i)</font></div></div></div>","null","FEEDBACK","","","","","","","","","","",""
"","","","","63e885e4e1fc973179d56f63","bdp_wmem","Sat Apr 08 2023 11:44:48 GMT-0500 (Central Daylight Time)","630108","Match,No Match","html-keyboard-response","86","286916","0.0-7.0-1.10","","null","","<div class='trialBorder'><div class='vertical-center'><img src='img/fixation2_sml.jpg'</img></div></div>","null","FIX","","","","","","","","","","",""
"","","","","63e885e4e1fc973179d56f63","bdp_wmem","Sat Apr 08 2023 11:44:48 GMT-0500 (Central Daylight Time)","630108","Match,No Match","html-keyboard-response","87","288441","0.0-7.0-2.10","","null","","<div class='trialBorder'><div class='vertical-center'><img style='vertical-align:center; align:center' src='img/fixation2_sml.jpg'></div><div class='arrayDiv1'><div class='tc'><img class='introPic' src='trustrating_stim/white_mw038.bmp'><br><font color='green'><strong>Share</strong></font></div></div></div>","null","ARRAY","1","trustrating_stim/white_mw038.bmp","1","noMatchOutcome","i","1500","","","","",""
"","","","","63e885e4e1fc973179d56f63","bdp_wmem","Sat Apr 08 2023 11:44:48 GMT-0500 (Central Daylight Time)","630108","Match,No Match","html-keyboard-response","88","292456","0.0-7.0-3.10","","null","","<div class='trialBorder'><div class='vertical-center'><img src='img/fixation2_sml.jpg'</img></div></div>","null","DELAY","","","","","","","","","","",""
"","","","","63e885e4e1fc973179d56f63","bdp_wmem","Sat Apr 08 2023 11:44:48 GMT-0500 (Central Daylight Time)","630108","Match,No Match","html-keyboard-response","89","293505","0.0-7.0-4.10","","1047","","<div class='trialBorder'><div class='targDiv'><div class='tc'><img class='introPic' src='trustrating_stim/white_mw038.bmp'><br><font color='red'><strong>Keep</strong></font></div></div><div class='respDiv'><div class='respDivL'>Match<br>(e)</div><div class='respDivR'>No Match<br>(i)</div></div></div>","i","TARGET","1","trustrating_stim/white_mw038.bmp","1","noMatchOutcome","i","1500","trustrating_stim/white_mw038.bmp","red","Keep","REAL","1"
"","","","","63e885e4e1fc973179d56f63","bdp_wmem","Sat Apr 08 2023 11:44:48 GMT-0500 (Central Daylight Time)","630108","Match,No Match","html-keyboard-response","90","294025","0.0-7.0-5.10","","null","","<div class='trialBorder'><div class='vertical-center'><img src='img/correct.jpg'></div><div class='respDiv'><div class='respDivL'>Match<br>(e)</div><div class='respDivR'><font style='color:orange'>No Match<br>(i)</font></div></div></div>","null","FEEDBACK","","","","","","","","","","",""
"","","","","63e885e4e1fc973179d56f63","bdp_wmem","Sat Apr 08 2023 11:44:48 GMT-0500 (Central Daylight Time)","630108","Match,No Match","html-keyboard-response","91","294542","0.0-7.0-1.11","","null","","<div class='trialBorder'><div class='vertical-center'><img src='img/fixation2_sml.jpg'</img></div></div>","null","FIX","","","","","","","","","","",""
"","","","","63e885e4e1fc973179d56f63","bdp_wmem","Sat Apr 08 2023 11:44:48 GMT-0500 (Central Daylight Time)","630108","Match,No Match","html-keyboard-response","92","296062","0.0-7.0-2.11","","null","","<div class='trialBorder'><div class='vertical-center'><img style='vertical-align:center; align:center' src='img/fixation2_sml.jpg'></div><div class='arrayDiv1'><div class='tc'><img class='introPic' src='trustrating_stim/white_mw040.bmp'><br><font color='green'><strong>Share</strong></font></div></div></div>","null","ARRAY","1","trustrating_stim/white_mw040.bmp","1","noMatchOutcome","i","1500","","","","",""
"","","","","63e885e4e1fc973179d56f63","bdp_wmem","Sat Apr 08 2023 11:44:48 GMT-0500 (Central Daylight Time)","630108","Match,No Match","html-keyboard-response","93","300083","0.0-7.0-3.11","","null","","<div class='trialBorder'><div class='vertical-center'><img src='img/fixation2_sml.jpg'</img></div></div>","null","DELAY","","","","","","","","","","",""
"","","","","63e885e4e1fc973179d56f63","bdp_wmem","Sat Apr 08 2023 11:44:48 GMT-0500 (Central Daylight Time)","630108","Match,No Match","html-keyboard-response","94","300685","0.0-7.0-4.11","","599","","<div class='trialBorder'><div class='targDiv'><div class='tc'><img class='introPic' src='trustrating_stim/white_mw040.bmp'><br><font color='red'><strong>Keep</strong></font></div></div><div class='respDiv'><div class='respDivL'>Match<br>(e)</div><div class='respDivR'>No Match<br>(i)</div></div></div>","e","TARGET","1","trustrating_stim/white_mw040.bmp","1","noMatchOutcome","i","1500","trustrating_stim/white_mw040.bmp","red","Keep","REAL","0"
"","","","","63e885e4e1fc973179d56f63","bdp_wmem","Sat Apr 08 2023 11:44:48 GMT-0500 (Central Daylight Time)","630108","Match,No Match","html-keyboard-response","95","301201","0.0-7.0-5.11","","null","","<div class='trialBorder'><div class='vertical-center'><img src='img/error.jpg'></div><div class='respDiv'><div class='respDivL'><font style='color:orange'>Match<br>(e)</font></div><div class='respDivR'>No Match<br>(i)</div></div></div>","null","FEEDBACK","","","","","","","","","","",""
"","","","","63e885e4e1fc973179d56f63","bdp_wmem","Sat Apr 08 2023 11:44:48 GMT-0500 (Central Daylight Time)","630108","Match,No Match","html-keyboard-response","96","301723","0.0-7.0-1.12","","null","","<div class='trialBorder'><div class='vertical-center'><img src='img/fixation2_sml.jpg'</img></div></div>","null","FIX","","","","","","","","","","",""
"","","","","63e885e4e1fc973179d56f63","bdp_wmem","Sat Apr 08 2023 11:44:48 GMT-0500 (Central Daylight Time)","630108","Match,No Match","html-keyboard-response","97","303238","0.0-7.0-2.12","","null","","<div class='trialBorder'><div class='vertical-center'><img style='vertical-align:center; align:center' src='img/fixation2_sml.jpg'></div><div class='arrayDiv1'><div class='tc'><img class='introPic' src='trustrating_stim/white_mw085.bmp'><br><font color='green'><strong>Share</strong></font></div></div></div>","null","ARRAY","1","trustrating_stim/white_mw085.bmp","1","Match","e","1500","","","","",""
"","","","","63e885e4e1fc973179d56f63","bdp_wmem","Sat Apr 08 2023 11:44:48 GMT-0500 (Central Daylight Time)","630108","Match,No Match","html-keyboard-response","98","307255","0.0-7.0-3.12","","null","","<div class='trialBorder'><div class='vertical-center'><img src='img/fixation2_sml.jpg'</img></div></div>","null","DELAY","","","","","","","","","","",""
"","","","","63e885e4e1fc973179d56f63","bdp_wmem","Sat Apr 08 2023 11:44:48 GMT-0500 (Central Daylight Time)","630108","Match,No Match","html-keyboard-response","99","307888","0.0-7.0-4.12","","628","","<div class='trialBorder'><div class='targDiv'><div class='tc'><img class='introPic' src='trustrating_stim/white_mw085.bmp'><br><font color='green'><strong>Share</strong></font></div></div><div class='respDiv'><div class='respDivL'>Match<br>(e)</div><div class='respDivR'>No Match<br>(i)</div></div></div>","i","TARGET","1","trustrating_stim/white_mw085.bmp","1","Match","e","1500","trustrating_stim/white_mw085.bmp","green","Share","REAL","0"
"","","","","63e885e4e1fc973179d56f63","bdp_wmem","Sat Apr 08 2023 11:44:48 GMT-0500 (Central Daylight Time)","630108","Match,No Match","html-keyboard-response","100","308392","0.0-7.0-5.12","","null","","<div class='trialBorder'><div class='vertical-center'><img src='img/error.jpg'></div><div class='respDiv'><div class='respDivL'>Match<br>(e)</div><div class='respDivR'><font style='color:orange'>No Match<br>(i)</font></div></div></div>","null","FEEDBACK","","","","","","","","","","",""
"","","","","63e885e4e1fc973179d56f63","bdp_wmem","Sat Apr 08 2023 11:44:48 GMT-0500 (Central Daylight Time)","630108","Match,No Match","html-keyboard-response","101","308902","0.0-7.0-1.13","","null","","<div class='trialBorder'><div class='vertical-center'><img src='img/fixation2_sml.jpg'</img></div></div>","null","FIX","","","","","","","","","","",""
"","","","","63e885e4e1fc973179d56f63","bdp_wmem","Sat Apr 08 2023 11:44:48 GMT-0500 (Central Daylight Time)","630108","Match,No Match","html-keyboard-response","102","313423","0.0-7.0-2.13","","null","","<div class='trialBorder'><div class='vertical-center'><img style='vertical-align:center; align:center' src='img/fixation2_sml.jpg'></div><div class='arrayDiv3'><div class='tl'><img class='introPic' src='trustrating_stim/white_mw038.bmp'><br><font color='green'><strong>Share</strong></font></div><div class='tc'><img class='introPic' src='trustrating_stim/white_mw013.bmp'><br><font color='green'><strong>Share</strong></font></div><div class='tr'><img class='introPic' src='trustrating_stim/white_mw092.bmp'><br><font color='red'><strong>Keep</strong></font></div></div></div>","null","ARRAY","3","trustrating_stim/white_mw038.bmp,trustrating_stim/white_mw013.bmp,trustrating_stim/white_mw092.bmp","1,1,0","Match","e","4500","","","","",""
"","","","","63e885e4e1fc973179d56f63","bdp_wmem","Sat Apr 08 2023 11:44:48 GMT-0500 (Central Daylight Time)","630108","Match,No Match","html-keyboard-response","103","317432","0.0-7.0-3.13","","null","","<div class='trialBorder'><div class='vertical-center'><img src='img/fixation2_sml.jpg'</img></div></div>","null","DELAY","","","","","","","","","","",""
"","","","","63e885e4e1fc973179d56f63","bdp_wmem","Sat Apr 08 2023 11:44:48 GMT-0500 (Central Daylight Time)","630108","Match,No Match","html-keyboard-response","104","318157","0.0-7.0-4.13","","715","","<div class='trialBorder'><div class='targDiv'><div class='tc'><img class='introPic' src='trustrating_stim/white_mw038.bmp'><br><font color='green'><strong>Share</strong></font></div></div><div class='respDiv'><div class='respDivL'>Match<br>(e)</div><div class='respDivR'>No Match<br>(i)</div></div></div>","e","TARGET","3","trustrating_stim/white_mw038.bmp,trustrating_stim/white_mw013.bmp,trustrating_stim/white_mw092.bmp","1,1,0","Match","e","4500","trustrating_stim/white_mw038.bmp","green","Share","REAL","1"
"","","","","63e885e4e1fc973179d56f63","bdp_wmem","Sat Apr 08 2023 11:44:48 GMT-0500 (Central Daylight Time)","630108","Match,No Match","html-keyboard-response","105","318663","0.0-7.0-5.13","","null","","<div class='trialBorder'><div class='vertical-center'><img src='img/correct.jpg'></div><div class='respDiv'><div class='respDivL'><font style='color:orange'>Match<br>(e)</font></div><div class='respDivR'>No Match<br>(i)</div></div></div>","null","FEEDBACK","","","","","","","","","","",""
"","","","","63e885e4e1fc973179d56f63","bdp_wmem","Sat Apr 08 2023 11:44:48 GMT-0500 (Central Daylight Time)","630108","Match,No Match","html-keyboard-response","106","319168","0.0-7.0-1.14","","null","","<div class='trialBorder'><div class='vertical-center'><img src='img/fixation2_sml.jpg'</img></div></div>","null","FIX","","","","","","","","","","",""
"","","","","63e885e4e1fc973179d56f63","bdp_wmem","Sat Apr 08 2023 11:44:48 GMT-0500 (Central Daylight Time)","630108","Match,No Match","html-keyboard-response","107","322182","0.0-7.0-2.14","","null","","<div class='trialBorder'><div class='vertical-center'><img style='vertical-align:center; align:center' src='img/fixation2_sml.jpg'></div><div class='arrayDiv2'><div class='tl'><img class='introPic' src='trustrating_stim/white_mw003.bmp'><br><font color='red'><strong>Keep</strong></font></div><div class='tr'><img class='introPic' src='trustrating_stim/white_mw010.bmp'><br><font color='green'><strong>Share</strong></font></div></div></div>","null","ARRAY","2","trustrating_stim/white_mw003.bmp,trustrating_stim/white_mw010.bmp","0,1","noMatchOutcome","i","3000","","","","",""
"","","","","63e885e4e1fc973179d56f63","bdp_wmem","Sat Apr 08 2023 11:44:48 GMT-0500 (Central Daylight Time)","630108","Match,No Match","html-keyboard-response","108","326193","0.0-7.0-3.14","","null","","<div class='trialBorder'><div class='vertical-center'><img src='img/fixation2_sml.jpg'</img></div></div>","null","DELAY","","","","","","","","","","",""
"","","","","63e885e4e1fc973179d56f63","bdp_wmem","Sat Apr 08 2023 11:44:48 GMT-0500 (Central Daylight Time)","630108","Match,No Match","html-keyboard-response","109","326746","0.0-7.0-4.14","","548","","<div class='trialBorder'><div class='targDiv'><div class='tc'><img class='introPic' src='trustrating_stim/white_mw003.bmp'><br><font color='green'><strong>Share</strong></font></div></div><div class='respDiv'><div class='respDivL'>Match<br>(e)</div><div class='respDivR'>No Match<br>(i)</div></div></div>","e","TARGET","2","trustrating_stim/white_mw003.bmp,trustrating_stim/white_mw010.bmp","0,1","noMatchOutcome","i","3000","trustrating_stim/white_mw003.bmp","green","Share","REAL","0"
"","","","","63e885e4e1fc973179d56f63","bdp_wmem","Sat Apr 08 2023 11:44:48 GMT-0500 (Central Daylight Time)","630108","Match,No Match","html-keyboard-response","110","327263","0.0-7.0-5.14","","null","","<div class='trialBorder'><div class='vertical-center'><img src='img/error.jpg'></div><div class='respDiv'><div class='respDivL'><font style='color:orange'>Match<br>(e)</font></div><div class='respDivR'>No Match<br>(i)</div></div></div>","null","FEEDBACK","","","","","","","","","","",""
"","","","","63e885e4e1fc973179d56f63","bdp_wmem","Sat Apr 08 2023 11:44:48 GMT-0500 (Central Daylight Time)","630108","Match,No Match","html-keyboard-response","111","327777","0.0-7.0-1.15","","null","","<div class='trialBorder'><div class='vertical-center'><img src='img/fixation2_sml.jpg'</img></div></div>","null","FIX","","","","","","","","","","",""
"","","","","63e885e4e1fc973179d56f63","bdp_wmem","Sat Apr 08 2023 11:44:48 GMT-0500 (Central Daylight Time)","630108","Match,No Match","html-keyboard-response","112","329282","0.0-7.0-2.15","","null","","<div class='trialBorder'><div class='vertical-center'><img style='vertical-align:center; align:center' src='img/fixation2_sml.jpg'></div><div class='arrayDiv1'><div class='tc'><img class='introPic' src='trustrating_stim/white_mw012.bmp'><br><font color='red'><strong>Keep</strong></font></div></div></div>","null","ARRAY","1","trustrating_stim/white_mw012.bmp","0","Match","e","1500","","","","",""
"","","","","63e885e4e1fc973179d56f63","bdp_wmem","Sat Apr 08 2023 11:44:48 GMT-0500 (Central Daylight Time)","630108","Match,No Match","html-keyboard-response","113","333302","0.0-7.0-3.15","","null","","<div class='trialBorder'><div class='vertical-center'><img src='img/fixation2_sml.jpg'</img></div></div>","null","DELAY","","","","","","","","","","",""
"","","","","63e885e4e1fc973179d56f63","bdp_wmem","Sat Apr 08 2023 11:44:48 GMT-0500 (Central Daylight Time)","630108","Match,No Match","html-keyboard-response","114","333797","0.0-7.0-4.15","","491","","<div class='trialBorder'><div class='targDiv'><div class='tc'><img class='introPic' src='trustrating_stim/white_mw012.bmp'><br><font color='red'><strong>Keep</strong></font></div></div><div class='respDiv'><div class='respDivL'>Match<br>(e)</div><div class='respDivR'>No Match<br>(i)</div></div></div>","i","TARGET","1","trustrating_stim/white_mw012.bmp","0","Match","e","1500","trustrating_stim/white_mw012.bmp","red","Keep","REAL","0"
"","","","","63e885e4e1fc973179d56f63","bdp_wmem","Sat Apr 08 2023 11:44:48 GMT-0500 (Central Daylight Time)","630108","Match,No Match","html-keyboard-response","115","334311","0.0-7.0-5.15","","null","","<div class='trialBorder'><div class='vertical-center'><img src='img/error.jpg'></div><div class='respDiv'><div class='respDivL'>Match<br>(e)</div><div class='respDivR'><font style='color:orange'>No Match<br>(i)</font></div></div></div>","null","FEEDBACK","","","","","","","","","","",""
"","","","","63e885e4e1fc973179d56f63","bdp_wmem","Sat Apr 08 2023 11:44:48 GMT-0500 (Central Daylight Time)","630108","Match,No Match","html-keyboard-response","116","334819","0.0-7.0-1.16","","null","","<div class='trialBorder'><div class='vertical-center'><img src='img/fixation2_sml.jpg'</img></div></div>","null","FIX","","","","","","","","","","",""
"","","","","63e885e4e1fc973179d56f63","bdp_wmem","Sat Apr 08 2023 11:44:48 GMT-0500 (Central Daylight Time)","630108","Match,No Match","html-keyboard-response","117","336331","0.0-7.0-2.16","","null","","<div class='trialBorder'><div class='vertical-center'><img style='vertical-align:center; align:center' src='img/fixation2_sml.jpg'></div><div class='arrayDiv1'><div class='tc'><img class='introPic' src='trustrating_stim/white_mw078.bmp'><br><font color='green'><strong>Share</strong></font></div></div></div>","null","ARRAY","1","trustrating_stim/white_mw078.bmp","1","Match","e","1500","","","","",""
"","","","","63e885e4e1fc973179d56f63","bdp_wmem","Sat Apr 08 2023 11:44:48 GMT-0500 (Central Daylight Time)","630108","Match,No Match","html-keyboard-response","118","340337","0.0-7.0-3.16","","null","","<div class='trialBorder'><div class='vertical-center'><img src='img/fixation2_sml.jpg'</img></div></div>","null","DELAY","","","","","","","","","","",""
"","","","","63e885e4e1fc973179d56f63","bdp_wmem","Sat Apr 08 2023 11:44:48 GMT-0500 (Central Daylight Time)","630108","Match,No Match","html-keyboard-response","119","342161","0.0-7.0-4.16","","1823","","<div class='trialBorder'><div class='targDiv'><div class='tc'><img class='introPic' src='trustrating_stim/white_mw078.bmp'><br><font color='green'><strong>Share</strong></font></div></div><div class='respDiv'><div class='respDivL'>Match<br>(e)</div><div class='respDivR'>No Match<br>(i)</div></div></div>","e","TARGET","1","trustrating_stim/white_mw078.bmp","1","Match","e","1500","trustrating_stim/white_mw078.bmp","green","Share","REAL","1"
"","","","","63e885e4e1fc973179d56f63","bdp_wmem","Sat Apr 08 2023 11:44:48 GMT-0500 (Central Daylight Time)","630108","Match,No Match","html-keyboard-response","120","342680","0.0-7.0-5.16","","null","","<div class='trialBorder'><div class='vertical-center'><img src='img/correct.jpg'></div><div class='respDiv'><div class='respDivL'><font style='color:orange'>Match<br>(e)</font></div><div class='respDivR'>No Match<br>(i)</div></div></div>","null","FEEDBACK","","","","","","","","","","",""
"","","","","63e885e4e1fc973179d56f63","bdp_wmem","Sat Apr 08 2023 11:44:48 GMT-0500 (Central Daylight Time)","630108","Match,No Match","html-keyboard-response","121","343190","0.0-7.0-1.17","","null","","<div class='trialBorder'><div class='vertical-center'><img src='img/fixation2_sml.jpg'</img></div></div>","null","FIX","","","","","","","","","","",""
"","","","","63e885e4e1fc973179d56f63","bdp_wmem","Sat Apr 08 2023 11:44:48 GMT-0500 (Central Daylight Time)","630108","Match,No Match","html-keyboard-response","122","346209","0.0-7.0-2.17","","null","","<div class='trialBorder'><div class='vertical-center'><img style='vertical-align:center; align:center' src='img/fixation2_sml.jpg'></div><div class='arrayDiv2'><div class='tl'><img class='introPic' src='trustrating_stim/white_mw092.bmp'><br><font color='red'><strong>Keep</strong></font></div><div class='tr'><img class='introPic' src='trustrating_stim/white_mw040.bmp'><br><font color='green'><strong>Share</strong></font></div></div></div>","null","ARRAY","2","trustrating_stim/white_mw092.bmp,trustrating_stim/white_mw040.bmp","0,1","noMatchFace","i","3000","","","","",""
"","","","","63e885e4e1fc973179d56f63","bdp_wmem","Sat Apr 08 2023 11:44:48 GMT-0500 (Central Daylight Time)","630108","Match,No Match","html-keyboard-response","123","350221","0.0-7.0-3.17","","null","","<div class='trialBorder'><div class='vertical-center'><img src='img/fixation2_sml.jpg'</img></div></div>","null","DELAY","","","","","","","","","","",""
"","","","","63e885e4e1fc973179d56f63","bdp_wmem","Sat Apr 08 2023 11:44:48 GMT-0500 (Central Daylight Time)","630108","Match,No Match","html-keyboard-response","124","351128","0.0-7.0-4.17","","906","","<div class='trialBorder'><div class='targDiv'><div class='tc'><img class='introPic' src='trustrating_stim/white_mw038.bmp'><br><font color='green'><strong>Share</strong></font></div></div><div class='respDiv'><div class='respDivL'>Match<br>(e)</div><div class='respDivR'>No Match<br>(i)</div></div></div>","e","TARGET","2","trustrating_stim/white_mw092.bmp,trustrating_stim/white_mw040.bmp","0,1","noMatchFace","i","3000","trustrating_stim/white_mw038.bmp","green","Share","REAL","0"
"","","","","63e885e4e1fc973179d56f63","bdp_wmem","Sat Apr 08 2023 11:44:48 GMT-0500 (Central Daylight Time)","630108","Match,No Match","html-keyboard-response","125","351642","0.0-7.0-5.17","","null","","<div class='trialBorder'><div class='vertical-center'><img src='img/error.jpg'></div><div class='respDiv'><div class='respDivL'><font style='color:orange'>Match<br>(e)</font></div><div class='respDivR'>No Match<br>(i)</div></div></div>","null","FEEDBACK","","","","","","","","","","",""
"","","","","63e885e4e1fc973179d56f63","bdp_wmem","Sat Apr 08 2023 11:44:48 GMT-0500 (Central Daylight Time)","630108","Match,No Match","html-keyboard-response","126","352151","0.0-7.0-1.18","","null","","<div class='trialBorder'><div class='vertical-center'><img src='img/fixation2_sml.jpg'</img></div></div>","null","FIX","","","","","","","","","","",""
"","","","","63e885e4e1fc973179d56f63","bdp_wmem","Sat Apr 08 2023 11:44:48 GMT-0500 (Central Daylight Time)","630108","Match,No Match","html-keyboard-response","127","355173","0.0-7.0-2.18","","null","","<div class='trialBorder'><div class='vertical-center'><img style='vertical-align:center; align:center' src='img/fixation2_sml.jpg'></div><div class='arrayDiv2'><div class='tl'><img class='introPic' src='trustrating_stim/white_mw042.bmp'><br><font color='green'><strong>Share</strong></font></div><div class='tr'><img class='introPic' src='trustrating_stim/white_mw085.bmp'><br><font color='red'><strong>Keep</strong></font></div></div></div>","null","ARRAY","2","trustrating_stim/white_mw042.bmp,trustrating_stim/white_mw085.bmp","1,0","Match","e","3000","","","","",""
"","","","","63e885e4e1fc973179d56f63","bdp_wmem","Sat Apr 08 2023 11:44:48 GMT-0500 (Central Daylight Time)","630108","Match,No Match","html-keyboard-response","128","359181","0.0-7.0-3.18","","null","","<div class='trialBorder'><div class='vertical-center'><img src='img/fixation2_sml.jpg'</img></div></div>","null","DELAY","","","","","","","","","","",""
"","","","","63e885e4e1fc973179d56f63","bdp_wmem","Sat Apr 08 2023 11:44:48 GMT-0500 (Central Daylight Time)","630108","Match,No Match","html-keyboard-response","129","359730","0.0-7.0-4.18","","548","","<div class='trialBorder'><div class='targDiv'><div class='tc'><img class='introPic' src='trustrating_stim/white_mw085.bmp'><br><font color='red'><strong>Keep</strong></font></div></div><div class='respDiv'><div class='respDivL'>Match<br>(e)</div><div class='respDivR'>No Match<br>(i)</div></div></div>","i","TARGET","2","trustrating_stim/white_mw042.bmp,trustrating_stim/white_mw085.bmp","1,0","Match","e","3000","trustrating_stim/white_mw085.bmp","red","Keep","REAL","0"
"","","","","63e885e4e1fc973179d56f63","bdp_wmem","Sat Apr 08 2023 11:44:48 GMT-0500 (Central Daylight Time)","630108","Match,No Match","html-keyboard-response","130","360232","0.0-7.0-5.18","","null","","<div class='trialBorder'><div class='vertical-center'><img src='img/error.jpg'></div><div class='respDiv'><div class='respDivL'>Match<br>(e)</div><div class='respDivR'><font style='color:orange'>No Match<br>(i)</font></div></div></div>","null","FEEDBACK","","","","","","","","","","",""
"","","","","63e885e4e1fc973179d56f63","bdp_wmem","Sat Apr 08 2023 11:44:48 GMT-0500 (Central Daylight Time)","630108","Match,No Match","html-keyboard-response","131","360746","0.0-7.0-1.19","","null","","<div class='trialBorder'><div class='vertical-center'><img src='img/fixation2_sml.jpg'</img></div></div>","null","FIX","","","","","","","","","","",""
"","","","","63e885e4e1fc973179d56f63","bdp_wmem","Sat Apr 08 2023 11:44:48 GMT-0500 (Central Daylight Time)","630108","Match,No Match","html-keyboard-response","132","362258","0.0-7.0-2.19","","null","","<div class='trialBorder'><div class='vertical-center'><img style='vertical-align:center; align:center' src='img/fixation2_sml.jpg'></div><div class='arrayDiv1'><div class='tc'><img class='introPic' src='trustrating_stim/white_mw085.bmp'><br><font color='green'><strong>Share</strong></font></div></div></div>","null","ARRAY","1","trustrating_stim/white_mw085.bmp","1","noMatchFace","i","1500","","","","",""
"","","","","63e885e4e1fc973179d56f63","bdp_wmem","Sat Apr 08 2023 11:44:48 GMT-0500 (Central Daylight Time)","630108","Match,No Match","html-keyboard-response","133","366267","0.0-7.0-3.19","","null","","<div class='trialBorder'><div class='vertical-center'><img src='img/fixation2_sml.jpg'</img></div></div>","null","DELAY","","","","","","","","","","",""
"","","","","63e885e4e1fc973179d56f63","bdp_wmem","Sat Apr 08 2023 11:44:48 GMT-0500 (Central Daylight Time)","630108","Match,No Match","html-keyboard-response","134","367068","0.0-7.0-4.19","","798","","<div class='trialBorder'><div class='targDiv'><div class='tc'><img class='introPic' src='trustrating_stim/white_mw078.bmp'><br><font color='green'><strong>Share</strong></font></div></div><div class='respDiv'><div class='respDivL'>Match<br>(e)</div><div class='respDivR'>No Match<br>(i)</div></div></div>","e","TARGET","1","trustrating_stim/white_mw085.bmp","1","noMatchFace","i","1500","trustrating_stim/white_mw078.bmp","green","Share","REAL","0"
"","","","","63e885e4e1fc973179d56f63","bdp_wmem","Sat Apr 08 2023 11:44:48 GMT-0500 (Central Daylight Time)","630108","Match,No Match","html-keyboard-response","135","367573","0.0-7.0-5.19","","null","","<div class='trialBorder'><div class='vertical-center'><img src='img/error.jpg'></div><div class='respDiv'><div class='respDivL'><font style='color:orange'>Match<br>(e)</font></div><div class='respDivR'>No Match<br>(i)</div></div></div>","null","FEEDBACK","","","","","","","","","","",""
"","","","","63e885e4e1fc973179d56f63","bdp_wmem","Sat Apr 08 2023 11:44:48 GMT-0500 (Central Daylight Time)","630108","Match,No Match","html-keyboard-response","136","368085","0.0-7.0-1.20","","null","","<div class='trialBorder'><div class='vertical-center'><img src='img/fixation2_sml.jpg'</img></div></div>","null","FIX","","","","","","","","","","",""
"","","","","63e885e4e1fc973179d56f63","bdp_wmem","Sat Apr 08 2023 11:44:48 GMT-0500 (Central Daylight Time)","630108","Match,No Match","html-keyboard-response","137","371088","0.0-7.0-2.20","","null","","<div class='trialBorder'><div class='vertical-center'><img style='vertical-align:center; align:center' src='img/fixation2_sml.jpg'></div><div class='arrayDiv2'><div class='tl'><img class='introPic' src='trustrating_stim/white_mw085.bmp'><br><font color='red'><strong>Keep</strong></font></div><div class='tr'><img class='introPic' src='trustrating_stim/white_mw078.bmp'><br><font color='green'><strong>Share</strong></font></div></div></div>","null","ARRAY","2","trustrating_stim/white_mw085.bmp,trustrating_stim/white_mw078.bmp","0,1","noMatchOutcome","i","3000","","","","",""
"","","","","63e885e4e1fc973179d56f63","bdp_wmem","Sat Apr 08 2023 11:44:48 GMT-0500 (Central Daylight Time)","630108","Match,No Match","html-keyboard-response","138","375102","0.0-7.0-3.20","","null","","<div class='trialBorder'><div class='vertical-center'><img src='img/fixation2_sml.jpg'</img></div></div>","null","DELAY","","","","","","","","","","",""
"","","","","63e885e4e1fc973179d56f63","bdp_wmem","Sat Apr 08 2023 11:44:48 GMT-0500 (Central Daylight Time)","630108","Match,No Match","html-keyboard-response","139","375927","0.0-7.0-4.20","","822","","<div class='trialBorder'><div class='targDiv'><div class='tc'><img class='introPic' src='trustrating_stim/white_mw078.bmp'><br><font color='red'><strong>Keep</strong></font></div></div><div class='respDiv'><div class='respDivL'>Match<br>(e)</div><div class='respDivR'>No Match<br>(i)</div></div></div>","e","TARGET","2","trustrating_stim/white_mw085.bmp,trustrating_stim/white_mw078.bmp","0,1","noMatchOutcome","i","3000","trustrating_stim/white_mw078.bmp","red","Keep","REAL","0"
"","","","","63e885e4e1fc973179d56f63","bdp_wmem","Sat Apr 08 2023 11:44:48 GMT-0500 (Central Daylight Time)","630108","Match,No Match","html-keyboard-response","140","376437","0.0-7.0-5.20","","null","","<div class='trialBorder'><div class='vertical-center'><img src='img/error.jpg'></div><div class='respDiv'><div class='respDivL'><font style='color:orange'>Match<br>(e)</font></div><div class='respDivR'>No Match<br>(i)</div></div></div>","null","FEEDBACK","","","","","","","","","","",""
"","","","","63e885e4e1fc973179d56f63","bdp_wmem","Sat Apr 08 2023 11:44:48 GMT-0500 (Central Daylight Time)","630108","Match,No Match","html-keyboard-response","141","376953","0.0-7.0-1.21","","null","","<div class='trialBorder'><div class='vertical-center'><img src='img/fixation2_sml.jpg'</img></div></div>","null","FIX","","","","","","","","","","",""
"","","","","63e885e4e1fc973179d56f63","bdp_wmem","Sat Apr 08 2023 11:44:48 GMT-0500 (Central Daylight Time)","630108","Match,No Match","html-keyboard-response","142","378472","0.0-7.0-2.21","","null","","<div class='trialBorder'><div class='vertical-center'><img style='vertical-align:center; align:center' src='img/fixation2_sml.jpg'></div><div class='arrayDiv1'><div class='tc'><img class='introPic' src='trustrating_stim/white_mw013.bmp'><br><font color='red'><strong>Keep</strong></font></div></div></div>","null","ARRAY","1","trustrating_stim/white_mw013.bmp","0","Match","e","1500","","","","",""
"","","","","63e885e4e1fc973179d56f63","bdp_wmem","Sat Apr 08 2023 11:44:48 GMT-0500 (Central Daylight Time)","630108","Match,No Match","html-keyboard-response","143","382478","0.0-7.0-3.21","","null","","<div class='trialBorder'><div class='vertical-center'><img src='img/fixation2_sml.jpg'</img></div></div>","null","DELAY","","","","","","","","","","",""
"","","","","63e885e4e1fc973179d56f63","bdp_wmem","Sat Apr 08 2023 11:44:48 GMT-0500 (Central Daylight Time)","630108","Match,No Match","html-keyboard-response","144","383405","0.0-7.0-4.21","","925","","<div class='trialBorder'><div class='targDiv'><div class='tc'><img class='introPic' src='trustrating_stim/white_mw013.bmp'><br><font color='red'><strong>Keep</strong></font></div></div><div class='respDiv'><div class='respDivL'>Match<br>(e)</div><div class='respDivR'>No Match<br>(i)</div></div></div>","e","TARGET","1","trustrating_stim/white_mw013.bmp","0","Match","e","1500","trustrating_stim/white_mw013.bmp","red","Keep","REAL","1"
"","","","","63e885e4e1fc973179d56f63","bdp_wmem","Sat Apr 08 2023 11:44:48 GMT-0500 (Central Daylight Time)","630108","Match,No Match","html-keyboard-response","145","383923","0.0-7.0-5.21","","null","","<div class='trialBorder'><div class='vertical-center'><img src='img/correct.jpg'></div><div class='respDiv'><div class='respDivL'><font style='color:orange'>Match<br>(e)</font></div><div class='respDivR'>No Match<br>(i)</div></div></div>","null","FEEDBACK","","","","","","","","","","",""
"","","","","63e885e4e1fc973179d56f63","bdp_wmem","Sat Apr 08 2023 11:44:48 GMT-0500 (Central Daylight Time)","630108","Match,No Match","html-keyboard-response","146","384437","0.0-7.0-1.22","","null","","<div class='trialBorder'><div class='vertical-center'><img src='img/fixation2_sml.jpg'</img></div></div>","null","FIX","","","","","","","","","","",""
"","","","","63e885e4e1fc973179d56f63","bdp_wmem","Sat Apr 08 2023 11:44:48 GMT-0500 (Central Daylight Time)","630108","Match,No Match","html-keyboard-response","147","385942","0.0-7.0-2.22","","null","","<div class='trialBorder'><div class='vertical-center'><img style='vertical-align:center; align:center' src='img/fixation2_sml.jpg'></div><div class='arrayDiv1'><div class='tc'><img class='introPic' src='trustrating_stim/white_mw042.bmp'><br><font color='green'><strong>Share</strong></font></div></div></div>","null","ARRAY","1","trustrating_stim/white_mw042.bmp","1","noMatchFace","i","1500","","","","",""
"","","","","63e885e4e1fc973179d56f63","bdp_wmem","Sat Apr 08 2023 11:44:48 GMT-0500 (Central Daylight Time)","630108","Match,No Match","html-keyboard-response","148","389952","0.0-7.0-3.22","","null","","<div class='trialBorder'><div class='vertical-center'><img src='img/fixation2_sml.jpg'</img></div></div>","null","DELAY","","","","","","","","","","",""
"","","","","63e885e4e1fc973179d56f63","bdp_wmem","Sat Apr 08 2023 11:44:48 GMT-0500 (Central Daylight Time)","630108","Match,No Match","html-keyboard-response","149","391213","0.0-7.0-4.22","","1260","","<div class='trialBorder'><div class='targDiv'><div class='tc'><img class='introPic' src='trustrating_stim/white_mw091.bmp'><br><font color='green'><strong>Share</strong></font></div></div><div class='respDiv'><div class='respDivL'>Match<br>(e)</div><div class='respDivR'>No Match<br>(i)</div></div></div>","i","TARGET","1","trustrating_stim/white_mw042.bmp","1","noMatchFace","i","1500","trustrating_stim/white_mw091.bmp","green","Share","REAL","1"
"","","","","63e885e4e1fc973179d56f63","bdp_wmem","Sat Apr 08 2023 11:44:48 GMT-0500 (Central Daylight Time)","630108","Match,No Match","html-keyboard-response","150","391723","0.0-7.0-5.22","","null","","<div class='trialBorder'><div class='vertical-center'><img src='img/correct.jpg'></div><div class='respDiv'><div class='respDivL'>Match<br>(e)</div><div class='respDivR'><font style='color:orange'>No Match<br>(i)</font></div></div></div>","null","FEEDBACK","","","","","","","","","","",""
"","","","","63e885e4e1fc973179d56f63","bdp_wmem","Sat Apr 08 2023 11:44:48 GMT-0500 (Central Daylight Time)","630108","Match,No Match","html-keyboard-response","151","392232","0.0-7.0-1.23","","null","","<div class='trialBorder'><div class='vertical-center'><img src='img/fixation2_sml.jpg'</img></div></div>","null","FIX","","","","","","","","","","",""
"","","","","63e885e4e1fc973179d56f63","bdp_wmem","Sat Apr 08 2023 11:44:48 GMT-0500 (Central Daylight Time)","630108","Match,No Match","html-keyboard-response","152","395247","0.0-7.0-2.23","","null","","<div class='trialBorder'><div class='vertical-center'><img style='vertical-align:center; align:center' src='img/fixation2_sml.jpg'></div><div class='arrayDiv2'><div class='tl'><img class='introPic' src='trustrating_stim/white_mw040.bmp'><br><font color='red'><strong>Keep</strong></font></div><div class='tr'><img class='introPic' src='trustrating_stim/white_mw038.bmp'><br><font color='green'><strong>Share</strong></font></div></div></div>","null","ARRAY","2","trustrating_stim/white_mw040.bmp,trustrating_stim/white_mw038.bmp","0,1","noMatchFace","i","3000","","","","",""
"","","","","63e885e4e1fc973179d56f63","bdp_wmem","Sat Apr 08 2023 11:44:48 GMT-0500 (Central Daylight Time)","630108","Match,No Match","html-keyboard-response","153","399252","0.0-7.0-3.23","","null","","<div class='trialBorder'><div class='vertical-center'><img src='img/fixation2_sml.jpg'</img></div></div>","null","DELAY","","","","","","","","","","",""
"","","","","63e885e4e1fc973179d56f63","bdp_wmem","Sat Apr 08 2023 11:44:48 GMT-0500 (Central Daylight Time)","630108","Match,No Match","html-keyboard-response","154","400131","0.0-7.0-4.23","","878","","<div class='trialBorder'><div class='targDiv'><div class='tc'><img class='introPic' src='trustrating_stim/white_mw003.bmp'><br><font color='green'><strong>Share</strong></font></div></div><div class='respDiv'><div class='respDivL'>Match<br>(e)</div><div class='respDivR'>No Match<br>(i)</div></div></div>","i","TARGET","2","trustrating_stim/white_mw040.bmp,trustrating_stim/white_mw038.bmp","0,1","noMatchFace","i","3000","trustrating_stim/white_mw003.bmp","green","Share","REAL","1"
"","","","","63e885e4e1fc973179d56f63","bdp_wmem","Sat Apr 08 2023 11:44:48 GMT-0500 (Central Daylight Time)","630108","Match,No Match","html-keyboard-response","155","400652","0.0-7.0-5.23","","null","","<div class='trialBorder'><div class='vertical-center'><img src='img/correct.jpg'></div><div class='respDiv'><div class='respDivL'>Match<br>(e)</div><div class='respDivR'><font style='color:orange'>No Match<br>(i)</font></div></div></div>","null","FEEDBACK","","","","","","","","","","",""
"","","","","63e885e4e1fc973179d56f63","bdp_wmem","Sat Apr 08 2023 11:44:48 GMT-0500 (Central Daylight Time)","630108","Match,No Match","html-keyboard-response","156","401164","0.0-7.0-1.24","","null","","<div class='trialBorder'><div class='vertical-center'><img src='img/fixation2_sml.jpg'</img></div></div>","null","FIX","","","","","","","","","","",""
"","","","","63e885e4e1fc973179d56f63","bdp_wmem","Sat Apr 08 2023 11:44:48 GMT-0500 (Central Daylight Time)","630108","Match,No Match","html-keyboard-response","157","405672","0.0-7.0-2.24","","null","","<div class='trialBorder'><div class='vertical-center'><img style='vertical-align:center; align:center' src='img/fixation2_sml.jpg'></div><div class='arrayDiv3'><div class='tl'><img class='introPic' src='trustrating_stim/white_mw012.bmp'><br><font color='green'><strong>Share</strong></font></div><div class='tc'><img class='introPic' src='trustrating_stim/white_mw070.bmp'><br><font color='red'><strong>Keep</strong></font></div><div class='tr'><img class='introPic' src='trustrating_stim/white_mw085.bmp'><br><font color='green'><strong>Share</strong></font></div></div></div>","null","ARRAY","3","trustrating_stim/white_mw012.bmp,trustrating_stim/white_mw070.bmp,trustrating_stim/white_mw085.bmp","1,0,1","noMatchFace","i","4500","","","","",""
"","","","","63e885e4e1fc973179d56f63","bdp_wmem","Sat Apr 08 2023 11:44:48 GMT-0500 (Central Daylight Time)","630108","Match,No Match","html-keyboard-response","158","409692","0.0-7.0-3.24","","null","","<div class='trialBorder'><div class='vertical-center'><img src='img/fixation2_sml.jpg'</img></div></div>","null","DELAY","","","","","","","","","","",""
"","","","","63e885e4e1fc973179d56f63","bdp_wmem","Sat Apr 08 2023 11:44:48 GMT-0500 (Central Daylight Time)","630108","Match,No Match","html-keyboard-response","159","410465","0.0-7.0-4.24","","771","","<div class='trialBorder'><div class='targDiv'><div class='tc'><img class='introPic' src='trustrating_stim/white_mw038.bmp'><br><font color='green'><strong>Share</strong></font></div></div><div class='respDiv'><div class='respDivL'>Match<br>(e)</div><div class='respDivR'>No Match<br>(i)</div></div></div>","i","TARGET","3","trustrating_stim/white_mw012.bmp,trustrating_stim/white_mw070.bmp,trustrating_stim/white_mw085.bmp","1,0,1","noMatchFace","i","4500","trustrating_stim/white_mw038.bmp","green","Share","REAL","1"
"","","","","63e885e4e1fc973179d56f63","bdp_wmem","Sat Apr 08 2023 11:44:48 GMT-0500 (Central Daylight Time)","630108","Match,No Match","html-keyboard-response","160","410983","0.0-7.0-5.24","","null","","<div class='trialBorder'><div class='vertical-center'><img src='img/correct.jpg'></div><div class='respDiv'><div class='respDivL'>Match<br>(e)</div><div class='respDivR'><font style='color:orange'>No Match<br>(i)</font></div></div></div>","null","FEEDBACK","","","","","","","","","","",""
"","","","","63e885e4e1fc973179d56f63","bdp_wmem","Sat Apr 08 2023 11:44:48 GMT-0500 (Central Daylight Time)","630108","Match,No Match","html-keyboard-response","161","411502","0.0-7.0-1.25","","null","","<div class='trialBorder'><div class='vertical-center'><img src='img/fixation2_sml.jpg'</img></div></div>","null","FIX","","","","","","","","","","",""
"","","","","63e885e4e1fc973179d56f63","bdp_wmem","Sat Apr 08 2023 11:44:48 GMT-0500 (Central Daylight Time)","630108","Match,No Match","html-keyboard-response","162","416017","0.0-7.0-2.25","","null","","<div class='trialBorder'><div class='vertical-center'><img style='vertical-align:center; align:center' src='img/fixation2_sml.jpg'></div><div class='arrayDiv3'><div class='tl'><img class='introPic' src='trustrating_stim/white_mw078.bmp'><br><font color='red'><strong>Keep</strong></font></div><div class='tc'><img class='introPic' src='trustrating_stim/white_mw010.bmp'><br><font color='green'><strong>Share</strong></font></div><div class='tr'><img class='introPic' src='trustrating_stim/white_mw042.bmp'><br><font color='green'><strong>Share</strong></font></div></div></div>","null","ARRAY","3","trustrating_stim/white_mw078.bmp,trustrating_stim/white_mw010.bmp,trustrating_stim/white_mw042.bmp","0,1,1","Match","e","4500","","","","",""
"","","","","63e885e4e1fc973179d56f63","bdp_wmem","Sat Apr 08 2023 11:44:48 GMT-0500 (Central Daylight Time)","630108","Match,No Match","html-keyboard-response","163","420042","0.0-7.0-3.25","","null","","<div class='trialBorder'><div class='vertical-center'><img src='img/fixation2_sml.jpg'</img></div></div>","null","DELAY","","","","","","","","","","",""
"","","","","63e885e4e1fc973179d56f63","bdp_wmem","Sat Apr 08 2023 11:44:48 GMT-0500 (Central Daylight Time)","630108","Match,No Match","html-keyboard-response","164","421376","0.0-7.0-4.25","","1331","","<div class='trialBorder'><div class='targDiv'><div class='tc'><img class='introPic' src='trustrating_stim/white_mw010.bmp'><br><font color='green'><strong>Share</strong></font></div></div><div class='respDiv'><div class='respDivL'>Match<br>(e)</div><div class='respDivR'>No Match<br>(i)</div></div></div>","e","TARGET","3","trustrating_stim/white_mw078.bmp,trustrating_stim/white_mw010.bmp,trustrating_stim/white_mw042.bmp","0,1,1","Match","e","4500","trustrating_stim/white_mw010.bmp","green","Share","REAL","1"
"","","","","63e885e4e1fc973179d56f63","bdp_wmem","Sat Apr 08 2023 11:44:48 GMT-0500 (Central Daylight Time)","630108","Match,No Match","html-keyboard-response","165","421904","0.0-7.0-5.25","","null","","<div class='trialBorder'><div class='vertical-center'><img src='img/correct.jpg'></div><div class='respDiv'><div class='respDivL'><font style='color:orange'>Match<br>(e)</font></div><div class='respDivR'>No Match<br>(i)</div></div></div>","null","FEEDBACK","","","","","","","","","","",""
"","","","","63e885e4e1fc973179d56f63","bdp_wmem","Sat Apr 08 2023 11:44:48 GMT-0500 (Central Daylight Time)","630108","Match,No Match","html-keyboard-response","166","422417","0.0-7.0-1.26","","null","","<div class='trialBorder'><div class='vertical-center'><img src='img/fixation2_sml.jpg'</img></div></div>","null","FIX","","","","","","","","","","",""
"","","","","63e885e4e1fc973179d56f63","bdp_wmem","Sat Apr 08 2023 11:44:48 GMT-0500 (Central Daylight Time)","630108","Match,No Match","html-keyboard-response","167","426934","0.0-7.0-2.26","","null","","<div class='trialBorder'><div class='vertical-center'><img style='vertical-align:center; align:center' src='img/fixation2_sml.jpg'></div><div class='arrayDiv3'><div class='tl'><img class='introPic' src='trustrating_stim/white_mw042.bmp'><br><font color='red'><strong>Keep</strong></font></div><div class='tc'><img class='introPic' src='trustrating_stim/white_mw010.bmp'><br><font color='green'><strong>Share</strong></font></div><div class='tr'><img class='introPic' src='trustrating_stim/white_mw013.bmp'><br><font color='red'><strong>Keep</strong></font></div></div></div>","null","ARRAY","3","trustrating_stim/white_mw042.bmp,trustrating_stim/white_mw010.bmp,trustrating_stim/white_mw013.bmp","0,1,0","noMatchOutcome","i","4500","","","","",""
"","","","","63e885e4e1fc973179d56f63","bdp_wmem","Sat Apr 08 2023 11:44:48 GMT-0500 (Central Daylight Time)","630108","Match,No Match","html-keyboard-response","168","430953","0.0-7.0-3.26","","null","","<div class='trialBorder'><div class='vertical-center'><img src='img/fixation2_sml.jpg'</img></div></div>","null","DELAY","","","","","","","","","","",""
"","","","","63e885e4e1fc973179d56f63","bdp_wmem","Sat Apr 08 2023 11:44:48 GMT-0500 (Central Daylight Time)","630108","Match,No Match","html-keyboard-response","169","432884","0.0-7.0-4.26","","1928","","<div class='trialBorder'><div class='targDiv'><div class='tc'><img class='introPic' src='trustrating_stim/white_mw010.bmp'><br><font color='red'><strong>Keep</strong></font></div></div><div class='respDiv'><div class='respDivL'>Match<br>(e)</div><div class='respDivR'>No Match<br>(i)</div></div></div>","i","TARGET","3","trustrating_stim/white_mw042.bmp,trustrating_stim/white_mw010.bmp,trustrating_stim/white_mw013.bmp","0,1,0","noMatchOutcome","i","4500","trustrating_stim/white_mw010.bmp","red","Keep","REAL","1"
"","","","","63e885e4e1fc973179d56f63","bdp_wmem","Sat Apr 08 2023 11:44:48 GMT-0500 (Central Daylight Time)","630108","Match,No Match","html-keyboard-response","170","433387","0.0-7.0-5.26","","null","","<div class='trialBorder'><div class='vertical-center'><img src='img/correct.jpg'></div><div class='respDiv'><div class='respDivL'>Match<br>(e)</div><div class='respDivR'><font style='color:orange'>No Match<br>(i)</font></div></div></div>","null","FEEDBACK","","","","","","","","","","",""
"","","","","63e885e4e1fc973179d56f63","bdp_wmem","Sat Apr 08 2023 11:44:48 GMT-0500 (Central Daylight Time)","630108","Match,No Match","html-keyboard-response","171","433893","0.0-7.0-1.27","","null","","<div class='trialBorder'><div class='vertical-center'><img src='img/fixation2_sml.jpg'</img></div></div>","null","FIX","","","","","","","","","","",""
"","","","","63e885e4e1fc973179d56f63","bdp_wmem","Sat Apr 08 2023 11:44:48 GMT-0500 (Central Daylight Time)","630108","Match,No Match","html-keyboard-response","172","436912","0.0-7.0-2.27","","null","","<div class='trialBorder'><div class='vertical-center'><img style='vertical-align:center; align:center' src='img/fixation2_sml.jpg'></div><div class='arrayDiv2'><div class='tl'><img class='introPic' src='trustrating_stim/white_mw003.bmp'><br><font color='red'><strong>Keep</strong></font></div><div class='tr'><img class='introPic' src='trustrating_stim/white_mw091.bmp'><br><font color='green'><strong>Share</strong></font></div></div></div>","null","ARRAY","2","trustrating_stim/white_mw003.bmp,trustrating_stim/white_mw091.bmp","0,1","noMatchFace","i","3000","","","","",""
"","","","","63e885e4e1fc973179d56f63","bdp_wmem","Sat Apr 08 2023 11:44:48 GMT-0500 (Central Daylight Time)","630108","Match,No Match","html-keyboard-response","173","440923","0.0-7.0-3.27","","null","","<div class='trialBorder'><div class='vertical-center'><img src='img/fixation2_sml.jpg'</img></div></div>","null","DELAY","","","","","","","","","","",""
"","","","","63e885e4e1fc973179d56f63","bdp_wmem","Sat Apr 08 2023 11:44:48 GMT-0500 (Central Daylight Time)","630108","Match,No Match","html-keyboard-response","174","442183","0.0-7.0-4.27","","1258","","<div class='trialBorder'><div class='targDiv'><div class='tc'><img class='introPic' src='trustrating_stim/white_mw012.bmp'><br><font color='red'><strong>Keep</strong></font></div></div><div class='respDiv'><div class='respDivL'>Match<br>(e)</div><div class='respDivR'>No Match<br>(i)</div></div></div>","i","TARGET","2","trustrating_stim/white_mw003.bmp,trustrating_stim/white_mw091.bmp","0,1","noMatchFace","i","3000","trustrating_stim/white_mw012.bmp","red","Keep","REAL","1"
"","","","","63e885e4e1fc973179d56f63","bdp_wmem","Sat Apr 08 2023 11:44:48 GMT-0500 (Central Daylight Time)","630108","Match,No Match","html-keyboard-response","175","442702","0.0-7.0-5.27","","null","","<div class='trialBorder'><div class='vertical-center'><img src='img/correct.jpg'></div><div class='respDiv'><div class='respDivL'>Match<br>(e)</div><div class='respDivR'><font style='color:orange'>No Match<br>(i)</font></div></div></div>","null","FEEDBACK","","","","","","","","","","",""
"","","","","63e885e4e1fc973179d56f63","bdp_wmem","Sat Apr 08 2023 11:44:48 GMT-0500 (Central Daylight Time)","630108","Match,No Match","html-keyboard-response","176","443218","0.0-7.0-1.28","","null","","<div class='trialBorder'><div class='vertical-center'><img src='img/fixation2_sml.jpg'</img></div></div>","null","FIX","","","","","","","","","","",""
"","","","","63e885e4e1fc973179d56f63","bdp_wmem","Sat Apr 08 2023 11:44:48 GMT-0500 (Central Daylight Time)","630108","Match,No Match","html-keyboard-response","177","446222","0.0-7.0-2.28","","null","","<div class='trialBorder'><div class='vertical-center'><img style='vertical-align:center; align:center' src='img/fixation2_sml.jpg'></div><div class='arrayDiv2'><div class='tl'><img class='introPic' src='trustrating_stim/white_mw070.bmp'><br><font color='green'><strong>Share</strong></font></div><div class='tr'><img class='introPic' src='trustrating_stim/white_mw013.bmp'><br><font color='red'><strong>Keep</strong></font></div></div></div>","null","ARRAY","2","trustrating_stim/white_mw070.bmp,trustrating_stim/white_mw013.bmp","1,0","Match","e","3000","","","","",""
"","","","","63e885e4e1fc973179d56f63","bdp_wmem","Sat Apr 08 2023 11:44:48 GMT-0500 (Central Daylight Time)","630108","Match,No Match","html-keyboard-response","178","450241","0.0-7.0-3.28","","null","","<div class='trialBorder'><div class='vertical-center'><img src='img/fixation2_sml.jpg'</img></div></div>","null","DELAY","","","","","","","","","","",""
"","","","","63e885e4e1fc973179d56f63","bdp_wmem","Sat Apr 08 2023 11:44:48 GMT-0500 (Central Daylight Time)","630108","Match,No Match","html-keyboard-response","179","451275","0.0-7.0-4.28","","1031","","<div class='trialBorder'><div class='targDiv'><div class='tc'><img class='introPic' src='trustrating_stim/white_mw070.bmp'><br><font color='green'><strong>Share</strong></font></div></div><div class='respDiv'><div class='respDivL'>Match<br>(e)</div><div class='respDivR'>No Match<br>(i)</div></div></div>","e","TARGET","2","trustrating_stim/white_mw070.bmp,trustrating_stim/white_mw013.bmp","1,0","Match","e","3000","trustrating_stim/white_mw070.bmp","green","Share","REAL","1"
"","","","","63e885e4e1fc973179d56f63","bdp_wmem","Sat Apr 08 2023 11:44:48 GMT-0500 (Central Daylight Time)","630108","Match,No Match","html-keyboard-response","180","451793","0.0-7.0-5.28","","null","","<div class='trialBorder'><div class='vertical-center'><img src='img/correct.jpg'></div><div class='respDiv'><div class='respDivL'><font style='color:orange'>Match<br>(e)</font></div><div class='respDivR'>No Match<br>(i)</div></div></div>","null","FEEDBACK","","","","","","","","","","",""
"","","","","63e885e4e1fc973179d56f63","bdp_wmem","Sat Apr 08 2023 11:44:48 GMT-0500 (Central Daylight Time)","630108","Match,No Match","html-keyboard-response","181","452296","0.0-7.0-1.29","","null","","<div class='trialBorder'><div class='vertical-center'><img src='img/fixation2_sml.jpg'</img></div></div>","null","FIX","","","","","","","","","","",""
"","","","","63e885e4e1fc973179d56f63","bdp_wmem","Sat Apr 08 2023 11:44:48 GMT-0500 (Central Daylight Time)","630108","Match,No Match","html-keyboard-response","182","455312","0.0-7.0-2.29","","null","","<div class='trialBorder'><div class='vertical-center'><img style='vertical-align:center; align:center' src='img/fixation2_sml.jpg'></div><div class='arrayDiv2'><div class='tl'><img class='introPic' src='trustrating_stim/white_mw040.bmp'><br><font color='red'><strong>Keep</strong></font></div><div class='tr'><img class='introPic' src='trustrating_stim/white_mw078.bmp'><br><font color='green'><strong>Share</strong></font></div></div></div>","null","ARRAY","2","trustrating_stim/white_mw040.bmp,trustrating_stim/white_mw078.bmp","0,1","noMatchOutcome","i","3000","","","","",""
"","","","","63e885e4e1fc973179d56f63","bdp_wmem","Sat Apr 08 2023 11:44:48 GMT-0500 (Central Daylight Time)","630108","Match,No Match","html-keyboard-response","183","459322","0.0-7.0-3.29","","null","","<div class='trialBorder'><div class='vertical-center'><img src='img/fixation2_sml.jpg'</img></div></div>","null","DELAY","","","","","","","","","","",""
"","","","","63e885e4e1fc973179d56f63","bdp_wmem","Sat Apr 08 2023 11:44:48 GMT-0500 (Central Daylight Time)","630108","Match,No Match","html-keyboard-response","184","460292","0.0-7.0-4.29","","969","","<div class='trialBorder'><div class='targDiv'><div class='tc'><img class='introPic' src='trustrating_stim/white_mw040.bmp'><br><font color='green'><strong>Share</strong></font></div></div><div class='respDiv'><div class='respDivL'>Match<br>(e)</div><div class='respDivR'>No Match<br>(i)</div></div></div>","i","TARGET","2","trustrating_stim/white_mw040.bmp,trustrating_stim/white_mw078.bmp","0,1","noMatchOutcome","i","3000","trustrating_stim/white_mw040.bmp","green","Share","REAL","1"
"","","","","63e885e4e1fc973179d56f63","bdp_wmem","Sat Apr 08 2023 11:44:48 GMT-0500 (Central Daylight Time)","630108","Match,No Match","html-keyboard-response","185","460807","0.0-7.0-5.29","","null","","<div class='trialBorder'><div class='vertical-center'><img src='img/correct.jpg'></div><div class='respDiv'><div class='respDivL'>Match<br>(e)</div><div class='respDivR'><font style='color:orange'>No Match<br>(i)</font></div></div></div>","null","FEEDBACK","","","","","","","","","","",""
"","","","","63e885e4e1fc973179d56f63","bdp_wmem","Sat Apr 08 2023 11:44:48 GMT-0500 (Central Daylight Time)","630108","Match,No Match","html-keyboard-response","186","461323","0.0-7.0-1.30","","null","","<div class='trialBorder'><div class='vertical-center'><img src='img/fixation2_sml.jpg'</img></div></div>","null","FIX","","","","","","","","","","",""
"","","","","63e885e4e1fc973179d56f63","bdp_wmem","Sat Apr 08 2023 11:44:48 GMT-0500 (Central Daylight Time)","630108","Match,No Match","html-keyboard-response","187","464332","0.0-7.0-2.30","","null","","<div class='trialBorder'><div class='vertical-center'><img style='vertical-align:center; align:center' src='img/fixation2_sml.jpg'></div><div class='arrayDiv2'><div class='tl'><img class='introPic' src='trustrating_stim/white_mw070.bmp'><br><font color='red'><strong>Keep</strong></font></div><div class='tr'><img class='introPic' src='trustrating_stim/white_mw085.bmp'><br><font color='green'><strong>Share</strong></font></div></div></div>","null","ARRAY","2","trustrating_stim/white_mw070.bmp,trustrating_stim/white_mw085.bmp","0,1","noMatchFace","i","3000","","","","",""
"","","","","63e885e4e1fc973179d56f63","bdp_wmem","Sat Apr 08 2023 11:44:48 GMT-0500 (Central Daylight Time)","630108","Match,No Match","html-keyboard-response","188","468338","0.0-7.0-3.30","","null","","<div class='trialBorder'><div class='vertical-center'><img src='img/fixation2_sml.jpg'</img></div></div>","null","DELAY","","","","","","","","","","",""
"","","","","63e885e4e1fc973179d56f63","bdp_wmem","Sat Apr 08 2023 11:44:48 GMT-0500 (Central Daylight Time)","630108","Match,No Match","html-keyboard-response","189","469141","0.0-7.0-4.30","","802","","<div class='trialBorder'><div class='targDiv'><div class='tc'><img class='introPic' src='trustrating_stim/white_mw042.bmp'><br><font color='red'><strong>Keep</strong></font></div></div><div class='respDiv'><div class='respDivL'>Match<br>(e)</div><div class='respDivR'>No Match<br>(i)</div></div></div>","i","TARGET","2","trustrating_stim/white_mw070.bmp,trustrating_stim/white_mw085.bmp","0,1","noMatchFace","i","3000","trustrating_stim/white_mw042.bmp","red","Keep","REAL","1"
